"trial_type","trial_index","time_elapsed","internal_node_id","task_version","subject_id","interactions","blur_events","focus_events","fullscreenenter_events","fullscreenexit_events","success","view_history","rt","responses","num_errors","age","subject","participantId","rune","rune_set","hex","correct","choice","accuracy","outcome","keys","total_keys","block","practice","value","sub","trial","stimulus","robot","valence","action","sham"
"pavlovia","0","5","0.0-0.0","battery-v0.2","","""event"",""trial"",""time""
""fullscreenenter"",""1"",""5570""
","
","
","""event"",""trial"",""time""
""fullscreenenter"",""1"",""5570""
","
","","","","","","","","","","","","","","","","","","","","","","","","","","",""
"fullscreen","1","6551","0.0-1.0","battery-v0.2","","""event"",""trial"",""time""
""fullscreenenter"",""1"",""5570""
","
","
","""event"",""trial"",""time""
""fullscreenenter"",""1"",""5570""
","
","true","","","","","","","","","","","","","","","","","","","","","","","","","",""
"pit-instructions","2","11551","0.0-2.0-0.0","battery-v0.2","","""event"",""trial"",""time""
""fullscreenenter"",""1"",""5570""
","
","
","""event"",""trial"",""time""
""fullscreenenter"",""1"",""5570""
","
","","[{""page_index"":0,""viewing_time"":4998.4000000059605}]","4998.699999988079","","","","","","","","","","","","","","","","","","","","","","","",""
"pit-comprehension","3","14792","0.0-2.0-1.0-0.0","battery-v0.2","","""event"",""trial"",""time""
""fullscreenenter"",""1"",""5570""
","
","
","""event"",""trial"",""time""
""fullscreenenter"",""1"",""5570""
","
","","","3238.2000000178814","[""shark""]","0","15","7270","3638","","","","","","","","","","","","","","","","","","",""
"pit-instructions","4","15927","0.0-2.0-1.0-1.0","battery-v0.2","","""event"",""trial"",""time""
""fullscreenenter"",""1"",""5570""
","
","
","""event"",""trial"",""time""
""fullscreenenter"",""1"",""5570""
","
","","[{""page_index"":0,""viewing_time"":1129.699999988079}]","1129.9000000059605","","","","","","","","","","","","","","","","","","","","","","","",""
"pit-comprehension","5","17860","0.0-2.0-2.0-0.0","battery-v0.2","","""event"",""trial"",""time""
""fullscreenenter"",""1"",""5570""
","
","
","""event"",""trial"",""time""
""fullscreenenter"",""1"",""5570""
","
","","","1931","[""tiger""]","0","15","7270","3638","","","","","","","","","","","","","","","","","","",""
"pit-instructions","6","18680","0.0-2.0-2.0-1.0","battery-v0.2","","""event"",""trial"",""time""
""fullscreenenter"",""1"",""5570""
","
","
","""event"",""trial"",""time""
""fullscreenenter"",""1"",""5570""
","
","","[{""page_index"":0,""viewing_time"":818.3000000119209}]","818.5","","","","","","","","","","","","","","","","","","","","","","","",""
"pit-instructions","7","124223","0.0-2.0-3.0","battery-v0.2","","""event"",""trial"",""time""
""fullscreenenter"",""1"",""5570""
","
","
","""event"",""trial"",""time""
""fullscreenenter"",""1"",""5570""
","
","","[{""page_index"":0,""viewing_time"":11621.899999976158},{""page_index"":1,""viewing_time"":9733.100000023842},{""page_index"":2,""viewing_time"":15841.5},{""page_index"":3,""viewing_time"":5128.399999976158},{""page_index"":4,""viewing_time"":5116.700000017881},{""page_index"":5,""viewing_time"":5185.799999982119},{""page_index"":6,""viewing_time"":5294.600000023842},{""page_index"":7,""viewing_time"":6152},{""page_index"":8,""viewing_time"":6263.699999988079},{""page_index"":9,""viewing_time"":7303.300000011921},{""page_index"":10,""viewing_time"":7922},{""page_index"":11,""viewing_time"":8586.799999982119},{""page_index"":12,""viewing_time"":6159.300000011921},{""page_index"":13,""viewing_time"":5232.199999988079}]","105541.5","","","","","","","","","","","","","","","","","","","","","","","",""
"pit-trial","8","127706","0.0-2.0-4.0-0.0","battery-v0.2","","""event"",""trial"",""time""
""fullscreenenter"",""1"",""5570""
","
","
","""event"",""trial"",""time""
""fullscreenenter"",""1"",""5570""
","
","","","625.2999999821186","","","15","7270","3638","&#9784;","elianto","#FFFFF080"," "," ","1","&#10004","[1478.9000000059605]","1","0","0","","","","","","","",""
"pit-trial","9","131193","0.0-2.0-4.1-0.1","battery-v0.2","","""event"",""trial"",""time""
""fullscreenenter"",""1"",""5570""
","
","
","""event"",""trial"",""time""
""fullscreenenter"",""1"",""5570""
","
","","","628.8000000119209","","","15","7270","3638","&#9784;","elianto","#FFFFF080"," "," ","1","&#10004","[1481.1000000238419]","1","0","0","","","","","","","",""
"pit-trial","10","134582","0.0-2.0-4.2-0.2","battery-v0.2","","""event"",""trial"",""time""
""fullscreenenter"",""1"",""5570""
","
","
","""event"",""trial"",""time""
""fullscreenenter"",""1"",""5570""
","
","","","533.4000000059605","","","15","7270","3638","&#9784;","elianto","#FFFFF080"," "," ","1","&#10004","[1384.5999999940395]","1","0","0","","","","","","","",""
"pit-trial","11","137949","0.0-2.0-4.3-0.3","battery-v0.2","","""event"",""trial"",""time""
""fullscreenenter"",""1"",""5570""
","
","
","""event"",""trial"",""time""
""fullscreenenter"",""1"",""5570""
","
","","","509.59999999403954","","","15","7270","3638","&#9784;","elianto","#FFFFF080"," "," ","1","&#10004","[1360.5]","1","0","0","","","","","","","",""
"pit-trial","12","141283","0.0-2.0-4.4-0.4","battery-v0.2","","""event"",""trial"",""time""
""fullscreenenter"",""1"",""5570""
","
","
","""event"",""trial"",""time""
""fullscreenenter"",""1"",""5570""
","
","","","470.2999999821186","","","15","7270","3638","&#9784;","elianto","#FFFFF080"," "," ","1","&#10004","[1320.7999999821186]","1","0","0","","","","","","","",""
"pit-instructions","13","164353","0.0-2.0-5.0","battery-v0.2","","""event"",""trial"",""time""
""fullscreenenter"",""1"",""5570""
","
","
","""event"",""trial"",""time""
""fullscreenenter"",""1"",""5570""
","
","","[{""page_index"":0,""viewing_time"":5616.300000011921},{""page_index"":1,""viewing_time"":5500.9000000059605},{""page_index"":2,""viewing_time"":5979.299999982119},{""page_index"":3,""viewing_time"":5972.4000000059605}]","23069.30000001192","","","","","","","","","","","","","","","","","","","","","","","",""
"pit-trial","14","169214","0.0-2.0-6.0-0.0","battery-v0.2","","""event"",""trial"",""time""
""fullscreenenter"",""1"",""5570""
","
","
","""event"",""trial"",""time""
""fullscreenenter"",""1"",""5570""
","
","","","-1","","","15","7270","3638","&#9854;","elianto","#FFFFF080","-1","-1","1","&#10004","[]","0","0","1","","","","","","","",""
"pit-trial","15","174071","0.0-2.0-6.1-0.1","battery-v0.2","","""event"",""trial"",""time""
""fullscreenenter"",""1"",""5570""
","
","
","""event"",""trial"",""time""
""fullscreenenter"",""1"",""5570""
","
","","","-1","","","15","7270","3638","&#9854;","elianto","#FFFFF080","-1","-1","1","&#10004","[]","0","0","1","","","","","","","",""
"pit-trial","16","178938","0.0-2.0-6.2-0.2","battery-v0.2","","""event"",""trial"",""time""
""fullscreenenter"",""1"",""5570""
","
","
","""event"",""trial"",""time""
""fullscreenenter"",""1"",""5570""
","
","","","-1","","","15","7270","3638","&#9854;","elianto","#FFFFF080","-1","-1","1","&#10004","[]","0","0","1","","","","","","","",""
"pit-trial","17","183805","0.0-2.0-6.3-0.3","battery-v0.2","","""event"",""trial"",""time""
""fullscreenenter"",""1"",""5570""
","
","
","""event"",""trial"",""time""
""fullscreenenter"",""1"",""5570""
","
","","","-1","","","15","7270","3638","&#9854;","elianto","#FFFFF080","-1","-1","1","&#10004","[]","0","0","1","","","","","","","",""
"pit-trial","18","188674","0.0-2.0-6.4-0.4","battery-v0.2","","""event"",""trial"",""time""
""fullscreenenter"",""1"",""5570""
","
","
","""event"",""trial"",""time""
""fullscreenenter"",""1"",""5570""
","
","","","-1","","","15","7270","3638","&#9854;","elianto","#FFFFF080","-1","-1","1","&#10004","[]","0","0","1","","","","","","","",""
"pit-instructions","19","314840","0.0-2.0-7.0","battery-v0.2","","""event"",""trial"",""time""
""fullscreenenter"",""1"",""5570""
","
","
","""event"",""trial"",""time""
""fullscreenenter"",""1"",""5570""
","
","","[{""page_index"":0,""viewing_time"":5965},{""page_index"":1,""viewing_time"":6271.199999988079},{""page_index"":2,""viewing_time"":5101.800000011921},{""page_index"":3,""viewing_time"":5153.5},{""page_index"":4,""viewing_time"":5414.5999999940395},{""page_index"":5,""viewing_time"":5196.9000000059605},{""page_index"":6,""viewing_time"":6940.299999982119},{""page_index"":7,""viewing_time"":7017.800000011921},{""page_index"":8,""viewing_time"":6369},{""page_index"":9,""viewing_time"":5790},{""page_index"":10,""viewing_time"":6461.699999988079},{""page_index"":11,""viewing_time"":5322.4000000059605},{""page_index"":12,""viewing_time"":9715.800000011921},{""page_index"":13,""viewing_time"":7728.699999988079},{""page_index"":14,""viewing_time"":8355.700000017881},{""page_index"":15,""viewing_time"":8875.59999999404},{""page_index"":16,""viewing_time"":9786.199999988079},{""page_index"":17,""viewing_time"":10694.200000017881}]","126160.69999998808","","","","","","","","","","","","","","","","","","","","","","","",""
"pit-trial","20","318903","0.0-2.0-8.0-0.0","battery-v0.2","","""event"",""trial"",""time""
""fullscreenenter"",""1"",""5570""
","
","
","""event"",""trial"",""time""
""fullscreenenter"",""1"",""5570""
","
","","","1203.0999999940395","","","15","7270","3638","&#9776;","elianto","#3366ff99"," "," ","1","+10","[2053.2000000178814]","1","0","1","","","","","","","",""
"pit-trial","21","322413","0.0-2.0-8.0-1.0","battery-v0.2","","""event"",""trial"",""time""
""fullscreenenter"",""1"",""5570""
","
","
","""event"",""trial"",""time""
""fullscreenenter"",""1"",""5570""
","
","","","641.3999999761581","","","15","7270","3638","&#9776;","elianto","#3366ff99"," "," ","1","+10","[1494.199999988079]","1","0","1","","","","","","","",""
"pit-trial","22","325833","0.0-2.0-8.0-2.0","battery-v0.2","","""event"",""trial"",""time""
""fullscreenenter"",""1"",""5570""
","
","
","""event"",""trial"",""time""
""fullscreenenter"",""1"",""5570""
","
","","","555.4000000059605","","","15","7270","3638","&#9776;","elianto","#3366ff99"," "," ","1","+10","[1408]","1","0","1","","","","","","","",""
"pit-trial","23","329240","0.0-2.0-8.0-3.0","battery-v0.2","","""event"",""trial"",""time""
""fullscreenenter"",""1"",""5570""
","
","
","""event"",""trial"",""time""
""fullscreenenter"",""1"",""5570""
","
","","","553.9000000059605","","","15","7270","3638","&#9776;","elianto","#3366ff99"," "," ","1","0","[1405]","1","0","1","","","","","","","",""
"pit-trial","24","332608","0.0-2.0-8.0-4.0","battery-v0.2","","""event"",""trial"",""time""
""fullscreenenter"",""1"",""5570""
","
","
","""event"",""trial"",""time""
""fullscreenenter"",""1"",""5570""
","
","","","507.30000001192093","","","15","7270","3638","&#9776;","elianto","#3366ff99"," "," ","1","+10","[1359.300000011921]","1","0","1","","","","","","","",""
"pit-trial","25","335961","0.0-2.0-8.1-0.1","battery-v0.2","","""event"",""trial"",""time""
""fullscreenenter"",""1"",""5570""
","
","
","""event"",""trial"",""time""
""fullscreenenter"",""1"",""5570""
","
","","","496.5","","","15","7270","3638","&#9776;","elianto","#3366ff99"," "," ","1","+10","[1347.199999988079]","1","0","1","","","","","","","",""
"pit-trial","26","339295","0.0-2.0-8.1-1.1","battery-v0.2","","""event"",""trial"",""time""
""fullscreenenter"",""1"",""5570""
","
","
","""event"",""trial"",""time""
""fullscreenenter"",""1"",""5570""
","
","","","464.80000001192093","","","15","7270","3638","&#9776;","elianto","#3366ff99"," "," ","1","+10","[1317.5]","1","0","1","","","","","","","",""
"pit-trial","27","342556","0.0-2.0-8.1-2.1","battery-v0.2","","""event"",""trial"",""time""
""fullscreenenter"",""1"",""5570""
","
","
","""event"",""trial"",""time""
""fullscreenenter"",""1"",""5570""
","
","","","408.59999999403954","","","15","7270","3638","&#9776;","elianto","#3366ff99"," "," ","1","+10","[1259.0999999940395]","1","0","1","","","","","","","",""
"pit-trial","28","345834","0.0-2.0-8.1-3.1","battery-v0.2","","""event"",""trial"",""time""
""fullscreenenter"",""1"",""5570""
","
","
","""event"",""trial"",""time""
""fullscreenenter"",""1"",""5570""
","
","","","424.40000000596046","","","15","7270","3638","&#9776;","elianto","#3366ff99"," "," ","1","0","[1275.5]","1","0","1","","","","","","","",""
"pit-trial","29","349105","0.0-2.0-8.1-4.1","battery-v0.2","","""event"",""trial"",""time""
""fullscreenenter"",""1"",""5570""
","
","
","""event"",""trial"",""time""
""fullscreenenter"",""1"",""5570""
","
","","","416.5","","","15","7270","3638","&#9776;","elianto","#3366ff99"," "," ","1","+10","[1267.4000000059605]","1","0","1","","","","","","","",""
"pit-trial","30","352329","0.0-2.0-8.2-0.2","battery-v0.2","","""event"",""trial"",""time""
""fullscreenenter"",""1"",""5570""
","
","
","""event"",""trial"",""time""
""fullscreenenter"",""1"",""5570""
","
","","","370.2999999821186","","","15","7270","3638","&#9776;","elianto","#3366ff99"," "," ","1","+10","[1221.8999999761581]","1","0","1","","","","","","","",""
"pit-trial","31","355533","0.0-2.0-8.2-1.2","battery-v0.2","","""event"",""trial"",""time""
""fullscreenenter"",""1"",""5570""
","
","
","""event"",""trial"",""time""
""fullscreenenter"",""1"",""5570""
","
","","","350.30000001192093","","","15","7270","3638","&#9776;","elianto","#3366ff99"," "," ","1","+10","[1201.2000000178814]","1","0","1","","","","","","","",""
"pit-trial","32","359049","0.0-2.0-8.2-2.2","battery-v0.2","","""event"",""trial"",""time""
""fullscreenenter"",""1"",""5570""
","
","
","""event"",""trial"",""time""
""fullscreenenter"",""1"",""5570""
","
","","","660.2999999821186","","","15","7270","3638","&#9776;","elianto","#3366ff99"," "," ","1","+10","[1512]","1","0","1","","","","","","","",""
"pit-trial","33","362309","0.0-2.0-8.2-3.2","battery-v0.2","","""event"",""trial"",""time""
""fullscreenenter"",""1"",""5570""
","
","
","""event"",""trial"",""time""
""fullscreenenter"",""1"",""5570""
","
","","","406.2000000178814","","","15","7270","3638","&#9776;","elianto","#3366ff99"," "," ","1","0","[1258]","1","0","1","","","","","","","",""
"pit-trial","34","365581","0.0-2.0-8.2-4.2","battery-v0.2","","""event"",""trial"",""time""
""fullscreenenter"",""1"",""5570""
","
","
","""event"",""trial"",""time""
""fullscreenenter"",""1"",""5570""
","
","","","419.19999998807907","","","15","7270","3638","&#9776;","elianto","#3366ff99"," "," ","1","+10","[1269.7999999821186]","1","0","1","","","","","","","",""
"call-function","35","365582","0.0-2.0-9.0","battery-v0.2","","""event"",""trial"",""time""
""fullscreenenter"",""1"",""5570""
","
","
","""event"",""trial"",""time""
""fullscreenenter"",""1"",""5570""
","
","","","","","","","","","","","","","","","","","","","","","","","","","","",""
"pit-instructions","36","417135","0.0-2.0-10.0","battery-v0.2","","""event"",""trial"",""time""
""fullscreenenter"",""1"",""5570""
","
","
","""event"",""trial"",""time""
""fullscreenenter"",""1"",""5570""
","
","","[{""page_index"":0,""viewing_time"":20019},{""page_index"":1,""viewing_time"":6462.700000017881},{""page_index"":2,""viewing_time"":9165.799999982119},{""page_index"":3,""viewing_time"":8078.5999999940395},{""page_index"":4,""viewing_time"":7826.700000017881}]","51553","","","","","","","","","","","","","","","","","","","","","","","",""
"pit-trial","37","420658","0.0-2.0-11.0-0.0","battery-v0.2","","""event"",""trial"",""time""
""fullscreenenter"",""1"",""5570""
","
","
","""event"",""trial"",""time""
""fullscreenenter"",""1"",""5570""
","
","","","666.3000000119209","","","15","7270","3638","&#9761;","elianto","#3366ff99","-1"," ","0","0","[1516.9000000059605]","1","0","2","","","","","","","",""
"pit-trial","38","423824","0.0-2.0-11.0-1.0","battery-v0.2","","""event"",""trial"",""time""
""fullscreenenter"",""1"",""5570""
","
","
","""event"",""trial"",""time""
""fullscreenenter"",""1"",""5570""
","
","","","304.59999999403954","","","15","7270","3638","&#9761;","elianto","#3366ff99","-1"," ","0","0","[1155.9000000059605]","1","0","2","","","","","","","",""
"pit-trial","39","428691","0.0-2.0-11.0-2.0","battery-v0.2","","""event"",""trial"",""time""
""fullscreenenter"",""1"",""5570""
","
","
","""event"",""trial"",""time""
""fullscreenenter"",""1"",""5570""
","
","","","-1","","","15","7270","3638","&#9761;","elianto","#3366ff99","-1","-1","1","+10","[]","0","0","2","","","","","","","",""
"pit-trial","40","433564","0.0-2.0-11.0-3.0","battery-v0.2","","""event"",""trial"",""time""
""fullscreenenter"",""1"",""5570""
","
","
","""event"",""trial"",""time""
""fullscreenenter"",""1"",""5570""
","
","","","-1","","","15","7270","3638","&#9761;","elianto","#3366ff99","-1","-1","1","0","[]","0","0","2","","","","","","","",""
"pit-trial","41","438433","0.0-2.0-11.0-4.0","battery-v0.2","","""event"",""trial"",""time""
""fullscreenenter"",""1"",""5570""
","
","
","""event"",""trial"",""time""
""fullscreenenter"",""1"",""5570""
","
","","","-1","","","15","7270","3638","&#9761;","elianto","#3366ff99","-1","-1","1","+10","[]","0","0","2","","","","","","","",""
"pit-trial","42","443303","0.0-2.0-11.1-0.1","battery-v0.2","","""event"",""trial"",""time""
""fullscreenenter"",""1"",""5570""
","
","
","""event"",""trial"",""time""
""fullscreenenter"",""1"",""5570""
","
","","","-1","","","15","7270","3638","&#9761;","elianto","#3366ff99","-1","-1","1","+10","[]","0","0","2","","","","","","","",""
"pit-trial","43","448170","0.0-2.0-11.1-1.1","battery-v0.2","","""event"",""trial"",""time""
""fullscreenenter"",""1"",""5570""
","
","
","""event"",""trial"",""time""
""fullscreenenter"",""1"",""5570""
","
","","","-1","","","15","7270","3638","&#9761;","elianto","#3366ff99","-1","-1","1","+10","[]","0","0","2","","","","","","","",""
"pit-trial","44","453024","0.0-2.0-11.1-2.1","battery-v0.2","","""event"",""trial"",""time""
""fullscreenenter"",""1"",""5570""
","
","
","""event"",""trial"",""time""
""fullscreenenter"",""1"",""5570""
","
","","","-1","","","15","7270","3638","&#9761;","elianto","#3366ff99","-1","-1","1","+10","[]","0","0","2","","","","","","","",""
"pit-trial","45","457877","0.0-2.0-11.1-3.1","battery-v0.2","","""event"",""trial"",""time""
""fullscreenenter"",""1"",""5570""
","
","
","""event"",""trial"",""time""
""fullscreenenter"",""1"",""5570""
","
","","","-1","","","15","7270","3638","&#9761;","elianto","#3366ff99","-1","-1","1","0","[]","0","0","2","","","","","","","",""
"pit-trial","46","462731","0.0-2.0-11.1-4.1","battery-v0.2","","""event"",""trial"",""time""
""fullscreenenter"",""1"",""5570""
","
","
","""event"",""trial"",""time""
""fullscreenenter"",""1"",""5570""
","
","","","-1","","","15","7270","3638","&#9761;","elianto","#3366ff99","-1","-1","1","+10","[]","0","0","2","","","","","","","",""
"pit-trial","47","467583","0.0-2.0-11.2-0.2","battery-v0.2","","""event"",""trial"",""time""
""fullscreenenter"",""1"",""5570""
","
","
","""event"",""trial"",""time""
""fullscreenenter"",""1"",""5570""
","
","","","-1","","","15","7270","3638","&#9761;","elianto","#3366ff99","-1","-1","1","+10","[]","0","0","2","","","","","","","",""
"pit-trial","48","472438","0.0-2.0-11.2-1.2","battery-v0.2","","""event"",""trial"",""time""
""fullscreenenter"",""1"",""5570""
","
","
","""event"",""trial"",""time""
""fullscreenenter"",""1"",""5570""
","
","","","-1","","","15","7270","3638","&#9761;","elianto","#3366ff99","-1","-1","1","+10","[]","0","0","2","","","","","","","",""
"pit-trial","49","477292","0.0-2.0-11.2-2.2","battery-v0.2","","""event"",""trial"",""time""
""fullscreenenter"",""1"",""5570""
","
","
","""event"",""trial"",""time""
""fullscreenenter"",""1"",""5570""
","
","","","-1","","","15","7270","3638","&#9761;","elianto","#3366ff99","-1","-1","1","+10","[]","0","0","2","","","","","","","",""
"pit-trial","50","482146","0.0-2.0-11.2-3.2","battery-v0.2","","""event"",""trial"",""time""
""fullscreenenter"",""1"",""5570""
","
","
","""event"",""trial"",""time""
""fullscreenenter"",""1"",""5570""
","
","","","-1","","","15","7270","3638","&#9761;","elianto","#3366ff99","-1","-1","1","0","[]","0","0","2","","","","","","","",""
"pit-trial","51","486999","0.0-2.0-11.2-4.2","battery-v0.2","","""event"",""trial"",""time""
""fullscreenenter"",""1"",""5570""
","
","
","""event"",""trial"",""time""
""fullscreenenter"",""1"",""5570""
","
","","","-1","","","15","7270","3638","&#9761;","elianto","#3366ff99","-1","-1","1","+10","[]","0","0","2","","","","","","","",""
"pit-trial","52","491853","0.0-2.0-11.3-0.3","battery-v0.2","","""event"",""trial"",""time""
""fullscreenenter"",""1"",""5570""
","
","
","""event"",""trial"",""time""
""fullscreenenter"",""1"",""5570""
","
","","","-1","","","15","7270","3638","&#9761;","elianto","#3366ff99","-1","-1","1","+10","[]","0","0","2","","","","","","","",""
"pit-trial","53","496709","0.0-2.0-11.3-1.3","battery-v0.2","","""event"",""trial"",""time""
""fullscreenenter"",""1"",""5570""
","
","
","""event"",""trial"",""time""
""fullscreenenter"",""1"",""5570""
","
","","","-1","","","15","7270","3638","&#9761;","elianto","#3366ff99","-1","-1","1","+10","[]","0","0","2","","","","","","","",""
"pit-trial","54","501562","0.0-2.0-11.3-2.3","battery-v0.2","","""event"",""trial"",""time""
""fullscreenenter"",""1"",""5570""
","
","
","""event"",""trial"",""time""
""fullscreenenter"",""1"",""5570""
","
","","","-1","","","15","7270","3638","&#9761;","elianto","#3366ff99","-1","-1","1","+10","[]","0","0","2","","","","","","","",""
"pit-trial","55","506415","0.0-2.0-11.3-3.3","battery-v0.2","","""event"",""trial"",""time""
""fullscreenenter"",""1"",""5570""
","
","
","""event"",""trial"",""time""
""fullscreenenter"",""1"",""5570""
","
","","","-1","","","15","7270","3638","&#9761;","elianto","#3366ff99","-1","-1","1","0","[]","0","0","2","","","","","","","",""
"pit-trial","56","511268","0.0-2.0-11.3-4.3","battery-v0.2","","""event"",""trial"",""time""
""fullscreenenter"",""1"",""5570""
","
","
","""event"",""trial"",""time""
""fullscreenenter"",""1"",""5570""
","
","","","-1","","","15","7270","3638","&#9761;","elianto","#3366ff99","-1","-1","1","+10","[]","0","0","2","","","","","","","",""
"call-function","57","511269","0.0-2.0-12.0","battery-v0.2","","""event"",""trial"",""time""
""fullscreenenter"",""1"",""5570""
","
","
","""event"",""trial"",""time""
""fullscreenenter"",""1"",""5570""
","
","","","","","","","","","","","","","","","","","","","","","","","","","","",""
"pit-instructions","58","575363","0.0-2.0-13.0","battery-v0.2","","""event"",""trial"",""time""
""fullscreenenter"",""1"",""5570""
","
","
","""event"",""trial"",""time""
""fullscreenenter"",""1"",""5570""
","
","","[{""page_index"":0,""viewing_time"":21770},{""page_index"":1,""viewing_time"":8383.40000000596},{""page_index"":2,""viewing_time"":9496.90000000596},{""page_index"":3,""viewing_time"":10591.5},{""page_index"":4,""viewing_time"":13851.09999999404}]","64093.20000001788","","","","","","","","","","","","","","","","","","","","","","","",""
"pit-trial","59","579033","0.0-2.0-14.0-0.0","battery-v0.2","","""event"",""trial"",""time""
""fullscreenenter"",""1"",""5570""
","
","
","""event"",""trial"",""time""
""fullscreenenter"",""1"",""5570""
","
","","","817.9000000059605","","","15","7270","3638","&#9826;","elianto","#f73b6a7A","-1"," ","0","-10","[1668.199999988079]","1","0","3","","","","","","","",""
"pit-trial","60","583912","0.0-2.0-14.0-1.0","battery-v0.2","","""event"",""trial"",""time""
""fullscreenenter"",""1"",""5570""
","
","
","""event"",""trial"",""time""
""fullscreenenter"",""1"",""5570""
","
","","","-1","","","15","7270","3638","&#9826;","elianto","#f73b6a7A","-1","-1","1","0","[]","0","0","3","","","","","","","",""
"pit-trial","61","588778","0.0-2.0-14.0-2.0","battery-v0.2","","""event"",""trial"",""time""
""fullscreenenter"",""1"",""5570""
","
","
","""event"",""trial"",""time""
""fullscreenenter"",""1"",""5570""
","
","","","-1","","","15","7270","3638","&#9826;","elianto","#f73b6a7A","-1","-1","1","0","[]","0","0","3","","","","","","","",""
"pit-trial","62","593642","0.0-2.0-14.0-3.0","battery-v0.2","","""event"",""trial"",""time""
""fullscreenenter"",""1"",""5570""
","
","
","""event"",""trial"",""time""
""fullscreenenter"",""1"",""5570""
","
","","","-1","","","15","7270","3638","&#9826;","elianto","#f73b6a7A","-1","-1","1","-10","[]","0","0","3","","","","","","","",""
"pit-trial","63","598496","0.0-2.0-14.0-4.0","battery-v0.2","","""event"",""trial"",""time""
""fullscreenenter"",""1"",""5570""
","
","
","""event"",""trial"",""time""
""fullscreenenter"",""1"",""5570""
","
","","","-1","","","15","7270","3638","&#9826;","elianto","#f73b6a7A","-1","-1","1","0","[]","0","0","3","","","","","","","",""
"pit-trial","64","603350","0.0-2.0-14.1-0.1","battery-v0.2","","""event"",""trial"",""time""
""fullscreenenter"",""1"",""5570""
","
","
","""event"",""trial"",""time""
""fullscreenenter"",""1"",""5570""
","
","","","-1","","","15","7270","3638","&#9826;","elianto","#f73b6a7A","-1","-1","1","0","[]","0","0","3","","","","","","","",""
"pit-trial","65","608203","0.0-2.0-14.1-1.1","battery-v0.2","","""event"",""trial"",""time""
""fullscreenenter"",""1"",""5570""
","
","
","""event"",""trial"",""time""
""fullscreenenter"",""1"",""5570""
","
","","","-1","","","15","7270","3638","&#9826;","elianto","#f73b6a7A","-1","-1","1","0","[]","0","0","3","","","","","","","",""
"pit-trial","66","613056","0.0-2.0-14.1-2.1","battery-v0.2","","""event"",""trial"",""time""
""fullscreenenter"",""1"",""5570""
","
","
","""event"",""trial"",""time""
""fullscreenenter"",""1"",""5570""
","
","","","-1","","","15","7270","3638","&#9826;","elianto","#f73b6a7A","-1","-1","1","0","[]","0","0","3","","","","","","","",""
"pit-trial","67","617909","0.0-2.0-14.1-3.1","battery-v0.2","","""event"",""trial"",""time""
""fullscreenenter"",""1"",""5570""
","
","
","""event"",""trial"",""time""
""fullscreenenter"",""1"",""5570""
","
","","","-1","","","15","7270","3638","&#9826;","elianto","#f73b6a7A","-1","-1","1","-10","[]","0","0","3","","","","","","","",""
"pit-trial","68","622770","0.0-2.0-14.1-4.1","battery-v0.2","","""event"",""trial"",""time""
""fullscreenenter"",""1"",""5570""
","
","
","""event"",""trial"",""time""
""fullscreenenter"",""1"",""5570""
","
","","","-1","","","15","7270","3638","&#9826;","elianto","#f73b6a7A","-1","-1","1","0","[]","0","0","3","","","","","","","",""
"pit-trial","69","627624","0.0-2.0-14.2-0.2","battery-v0.2","","""event"",""trial"",""time""
""fullscreenenter"",""1"",""5570""
","
","
","""event"",""trial"",""time""
""fullscreenenter"",""1"",""5570""
","
","","","-1","","","15","7270","3638","&#9826;","elianto","#f73b6a7A","-1","-1","1","0","[]","0","0","3","","","","","","","",""
"pit-trial","70","632478","0.0-2.0-14.2-1.2","battery-v0.2","","""event"",""trial"",""time""
""fullscreenenter"",""1"",""5570""
","
","
","""event"",""trial"",""time""
""fullscreenenter"",""1"",""5570""
","
","","","-1","","","15","7270","3638","&#9826;","elianto","#f73b6a7A","-1","-1","1","0","[]","0","0","3","","","","","","","",""
"pit-trial","71","637340","0.0-2.0-14.2-2.2","battery-v0.2","","""event"",""trial"",""time""
""fullscreenenter"",""1"",""5570""
","
","
","""event"",""trial"",""time""
""fullscreenenter"",""1"",""5570""
","
","","","-1","","","15","7270","3638","&#9826;","elianto","#f73b6a7A","-1","-1","1","0","[]","0","0","3","","","","","","","",""
"pit-trial","72","642194","0.0-2.0-14.2-3.2","battery-v0.2","","""event"",""trial"",""time""
""fullscreenenter"",""1"",""5570""
","
","
","""event"",""trial"",""time""
""fullscreenenter"",""1"",""5570""
","
","","","-1","","","15","7270","3638","&#9826;","elianto","#f73b6a7A","-1","-1","1","-10","[]","0","0","3","","","","","","","",""
"pit-trial","73","647049","0.0-2.0-14.2-4.2","battery-v0.2","","""event"",""trial"",""time""
""fullscreenenter"",""1"",""5570""
","
","
","""event"",""trial"",""time""
""fullscreenenter"",""1"",""5570""
","
","","","-1","","","15","7270","3638","&#9826;","elianto","#f73b6a7A","-1","-1","1","0","[]","0","0","3","","","","","","","",""
"pit-trial","74","651904","0.0-2.0-14.3-0.3","battery-v0.2","","""event"",""trial"",""time""
""fullscreenenter"",""1"",""5570""
","
","
","""event"",""trial"",""time""
""fullscreenenter"",""1"",""5570""
","
","","","-1","","","15","7270","3638","&#9826;","elianto","#f73b6a7A","-1","-1","1","0","[]","0","0","3","","","","","","","",""
"pit-trial","75","656758","0.0-2.0-14.3-1.3","battery-v0.2","","""event"",""trial"",""time""
""fullscreenenter"",""1"",""5570""
","
","
","""event"",""trial"",""time""
""fullscreenenter"",""1"",""5570""
","
","","","-1","","","15","7270","3638","&#9826;","elianto","#f73b6a7A","-1","-1","1","0","[]","0","0","3","","","","","","","",""
"pit-trial","76","661612","0.0-2.0-14.3-2.3","battery-v0.2","","""event"",""trial"",""time""
""fullscreenenter"",""1"",""5570""
","
","
","""event"",""trial"",""time""
""fullscreenenter"",""1"",""5570""
","
","","","-1","","","15","7270","3638","&#9826;","elianto","#f73b6a7A","-1","-1","1","0","[]","0","0","3","","","","","","","",""
"pit-trial","77","666469","0.0-2.0-14.3-3.3","battery-v0.2","","""event"",""trial"",""time""
""fullscreenenter"",""1"",""5570""
","
","
","""event"",""trial"",""time""
""fullscreenenter"",""1"",""5570""
","
","","","-1","","","15","7270","3638","&#9826;","elianto","#f73b6a7A","-1","-1","1","-10","[]","0","0","3","","","","","","","",""
"pit-trial","78","671324","0.0-2.0-14.3-4.3","battery-v0.2","","""event"",""trial"",""time""
""fullscreenenter"",""1"",""5570""
","
","
","""event"",""trial"",""time""
""fullscreenenter"",""1"",""5570""
","
","","","-1","","","15","7270","3638","&#9826;","elianto","#f73b6a7A","-1","-1","1","0","[]","0","0","3","","","","","","","",""
"call-function","79","671325","0.0-2.0-15.0","battery-v0.2","","""event"",""trial"",""time""
""fullscreenenter"",""1"",""5570""
","
","
","""event"",""trial"",""time""
""fullscreenenter"",""1"",""5570""
","
","","","","","","","","","","","","","","","","","","","","","","","","","","",""
"pit-instructions","80","718946","0.0-2.0-16.0","battery-v0.2","","""event"",""trial"",""time""
""fullscreenenter"",""1"",""5570""
","
","
","""event"",""trial"",""time""
""fullscreenenter"",""1"",""5570""
","
","","[{""page_index"":0,""viewing_time"":27578.100000023842},{""page_index"":1,""viewing_time"":10097.5},{""page_index"":2,""viewing_time"":4783},{""page_index"":3,""viewing_time"":5159.699999988079}]","47618.60000002384","","","","","","","","","","","","","","","","","","","","","","","",""
"pit-trial","81","722485","0.0-2.0-17.0-0.0","battery-v0.2","","""event"",""trial"",""time""
""fullscreenenter"",""1"",""5570""
","
","
","""event"",""trial"",""time""
""fullscreenenter"",""1"",""5570""
","
","","","674.9000000059605","","","15","7270","3638","&#9789;","elianto","#f73b6a7A"," "," ","1","0","[1525.6000000238419]","1","0","4","","","","","","","",""
"pit-trial","82","725683","0.0-2.0-17.0-1.0","battery-v0.2","","""event"",""trial"",""time""
""fullscreenenter"",""1"",""5570""
","
","
","""event"",""trial"",""time""
""fullscreenenter"",""1"",""5570""
","
","","","335.19999998807907","","","15","7270","3638","&#9789;","elianto","#f73b6a7A"," "," ","1","0","[1188.5999999940395]","1","0","4","","","","","","","",""
"pit-trial","83","728893","0.0-2.0-17.0-2.0","battery-v0.2","","""event"",""trial"",""time""
""fullscreenenter"",""1"",""5570""
","
","
","""event"",""trial"",""time""
""fullscreenenter"",""1"",""5570""
","
","","","341.2000000178814","","","15","7270","3638","&#9789;","elianto","#f73b6a7A"," "," ","1","0","[1192.9000000059605]","1","0","4","","","","","","","",""
"pit-trial","84","732058","0.0-2.0-17.0-3.0","battery-v0.2","","""event"",""trial"",""time""
""fullscreenenter"",""1"",""5570""
","
","
","""event"",""trial"",""time""
""fullscreenenter"",""1"",""5570""
","
","","","310.89999997615814","","","15","7270","3638","&#9789;","elianto","#f73b6a7A"," "," ","1","-10","[1161.0999999940395]","1","0","4","","","","","","","",""
"pit-trial","85","735207","0.0-2.0-17.0-4.0","battery-v0.2","","""event"",""trial"",""time""
""fullscreenenter"",""1"",""5570""
","
","
","""event"",""trial"",""time""
""fullscreenenter"",""1"",""5570""
","
","","","280.7999999821186","","","15","7270","3638","&#9789;","elianto","#f73b6a7A"," "," ","1","0","[1132]","1","0","4","","","","","","","",""
"pit-trial","86","738498","0.0-2.0-17.1-0.1","battery-v0.2","","""event"",""trial"",""time""
""fullscreenenter"",""1"",""5570""
","
","
","""event"",""trial"",""time""
""fullscreenenter"",""1"",""5570""
","
","","","426.69999998807907","","","15","7270","3638","&#9789;","elianto","#f73b6a7A"," "," ","1","0","[1281.5]","1","0","4","","","","","","","",""
"pit-trial","87","741699","0.0-2.0-17.1-1.1","battery-v0.2","","""event"",""trial"",""time""
""fullscreenenter"",""1"",""5570""
","
","
","""event"",""trial"",""time""
""fullscreenenter"",""1"",""5570""
","
","","","344.80000001192093","","","15","7270","3638","&#9789;","elianto","#f73b6a7A"," "," ","1","0","[1195.800000011921]","1","0","4","","","","","","","",""
"pit-trial","88","744957","0.0-2.0-17.1-2.1","battery-v0.2","","""event"",""trial"",""time""
""fullscreenenter"",""1"",""5570""
","
","
","""event"",""trial"",""time""
""fullscreenenter"",""1"",""5570""
","
","","","391.30000001192093","","","15","7270","3638","&#9789;","elianto","#f73b6a7A"," "," ","1","0","[1243.2000000178814]","1","0","4","","","","","","","",""
"pit-trial","89","748161","0.0-2.0-17.1-3.1","battery-v0.2","","""event"",""trial"",""time""
""fullscreenenter"",""1"",""5570""
","
","
","""event"",""trial"",""time""
""fullscreenenter"",""1"",""5570""
","
","","","338.09999999403954","","","15","7270","3638","&#9789;","elianto","#f73b6a7A"," "," ","1","-10","[1189.199999988079]","1","0","4","","","","","","","",""
"pit-trial","90","751232","0.0-2.0-17.1-4.1","battery-v0.2","","""event"",""trial"",""time""
""fullscreenenter"",""1"",""5570""
","
","
","""event"",""trial"",""time""
""fullscreenenter"",""1"",""5570""
","
","","","218","","","15","7270","3638","&#9789;","elianto","#f73b6a7A"," "," ","1","0","[1068.5999999940395]","1","0","4","","","","","","","",""
"pit-trial","91","754481","0.0-2.0-17.2-0.2","battery-v0.2","","""event"",""trial"",""time""
""fullscreenenter"",""1"",""5570""
","
","
","""event"",""trial"",""time""
""fullscreenenter"",""1"",""5570""
","
","","","394.09999999403954","","","15","7270","3638","&#9789;","elianto","#f73b6a7A"," "," ","1","0","[1244.699999988079]","1","0","4","","","","","","","",""
"pit-trial","92","757837","0.0-2.0-17.2-1.2","battery-v0.2","","""event"",""trial"",""time""
""fullscreenenter"",""1"",""5570""
","
","
","""event"",""trial"",""time""
""fullscreenenter"",""1"",""5570""
","
","","","502.30000001192093","","","15","7270","3638","&#9789;","elianto","#f73b6a7A"," "," ","1","0","[1352.9000000059605]","1","0","4","","","","","","","",""
"pit-trial","93","761504","0.0-2.0-17.2-2.2","battery-v0.2","","""event"",""trial"",""time""
""fullscreenenter"",""1"",""5570""
","
","
","""event"",""trial"",""time""
""fullscreenenter"",""1"",""5570""
","
","","","814.1999999880791","","","15","7270","3638","&#9789;","elianto","#f73b6a7A"," "," ","1","0","[1665]","1","0","4","","","","","","","",""
"pit-trial","94","765012","0.0-2.0-17.2-3.2","battery-v0.2","","""event"",""trial"",""time""
""fullscreenenter"",""1"",""5570""
","
","
","""event"",""trial"",""time""
""fullscreenenter"",""1"",""5570""
","
","","","656.6999999880791","","","15","7270","3638","&#9789;","elianto","#f73b6a7A"," "," ","1","-10","[1506.800000011921]","1","0","4","","","","","","","",""
"pit-trial","95","768705","0.0-2.0-17.2-4.2","battery-v0.2","","""event"",""trial"",""time""
""fullscreenenter"",""1"",""5570""
","
","
","""event"",""trial"",""time""
""fullscreenenter"",""1"",""5570""
","
","","","838.1999999880791","","","15","7270","3638","&#9789;","elianto","#f73b6a7A"," "," ","1","0","[1689.0999999940395]","1","0","4","","","","","","","",""
"pit-trial","96","772041","0.0-2.0-17.3-0.3","battery-v0.2","","""event"",""trial"",""time""
""fullscreenenter"",""1"",""5570""
","
","
","""event"",""trial"",""time""
""fullscreenenter"",""1"",""5570""
","
","","","482.5","","","15","7270","3638","&#9789;","elianto","#f73b6a7A"," "," ","1","0","[1332.5999999940395]","1","0","4","","","","","","","",""
"pit-trial","97","775335","0.0-2.0-17.3-1.3","battery-v0.2","","""event"",""trial"",""time""
""fullscreenenter"",""1"",""5570""
","
","
","""event"",""trial"",""time""
""fullscreenenter"",""1"",""5570""
","
","","","441.80000001192093","","","15","7270","3638","&#9789;","elianto","#f73b6a7A"," "," ","1","0","[1291.9000000059605]","1","0","4","","","","","","","",""
"pit-trial","98","778528","0.0-2.0-17.3-2.3","battery-v0.2","","""event"",""trial"",""time""
""fullscreenenter"",""1"",""5570""
","
","
","""event"",""trial"",""time""
""fullscreenenter"",""1"",""5570""
","
","","","341.5","","","15","7270","3638","&#9789;","elianto","#f73b6a7A"," "," ","1","0","[1191.7000000178814]","1","0","4","","","","","","","",""
"pit-trial","99","781689","0.0-2.0-17.3-3.3","battery-v0.2","","""event"",""trial"",""time""
""fullscreenenter"",""1"",""5570""
","
","
","""event"",""trial"",""time""
""fullscreenenter"",""1"",""5570""
","
","","","307.19999998807907","","","15","7270","3638","&#9789;","elianto","#f73b6a7A"," "," ","1","-10","[1158.0999999940395]","1","0","4","","","","","","","",""
"pit-trial","100","784847","0.0-2.0-17.3-4.3","battery-v0.2","","""event"",""trial"",""time""
""fullscreenenter"",""1"",""5570""
","
","
","""event"",""trial"",""time""
""fullscreenenter"",""1"",""5570""
","
","","","305.40000000596046","","","15","7270","3638","&#9789;","elianto","#f73b6a7A"," "," ","1","0","[1156.6000000238419]","1","0","4","","","","","","","",""
"call-function","101","784850","0.0-2.0-18.0","battery-v0.2","","""event"",""trial"",""time""
""fullscreenenter"",""1"",""5570""
","
","
","""event"",""trial"",""time""
""fullscreenenter"",""1"",""5570""
","
","","","","","","","","","","","","","","","","","","","","","","","","","","",""
"pit-instructions","102","886417","0.0-2.0-19.0","battery-v0.2","","""event"",""trial"",""time""
""fullscreenenter"",""1"",""5570""
","
","
","""event"",""trial"",""time""
""fullscreenenter"",""1"",""5570""
","
","","[{""page_index"":0,""viewing_time"":46309.09999999404},{""page_index"":1,""viewing_time"":4198.800000011921},{""page_index"":2,""viewing_time"":14358},{""page_index"":3,""viewing_time"":5132.5},{""page_index"":4,""viewing_time"":6522.0999999940395},{""page_index"":5,""viewing_time"":11616.5},{""page_index"":6,""viewing_time"":5517.300000011921},{""page_index"":7,""viewing_time"":4004.5},{""page_index"":8,""viewing_time"":3906.699999988079}]","101565.69999998808","","","","","","","","","","","","","","","","","","","","","","","",""
"pit-comprehension","103","892248","0.0-2.0-20.0-0.0","battery-v0.2","","""event"",""trial"",""time""
""fullscreenenter"",""1"",""5570""
","
","
","""event"",""trial"",""time""
""fullscreenenter"",""1"",""5570""
","
","","","5828.0999999940395","[""SPACE""]","0","15","7270","3638","","","","","","","","","","","","","","","","","","",""
"pit-instructions","104","895038","0.0-2.0-20.0-1.0","battery-v0.2","","""event"",""trial"",""time""
""fullscreenenter"",""1"",""5570""
","
","
","""event"",""trial"",""time""
""fullscreenenter"",""1"",""5570""
","
","","[{""page_index"":0,""viewing_time"":2749.5}]","2749.800000011921","","","","","","","","","","","","","","","","","","","","","","","",""
"pit-comprehension","105","899877","0.0-2.0-21.0-0.0","battery-v0.2","","""event"",""trial"",""time""
""fullscreenenter"",""1"",""5570""
","
","
","""event"",""trial"",""time""
""fullscreenenter"",""1"",""5570""
","
","","","4837.800000011921","[""10""]","0","15","7270","3638","","","","","","","","","","","","","","","","","","",""
"pit-instructions","106","901328","0.0-2.0-21.0-1.0","battery-v0.2","","""event"",""trial"",""time""
""fullscreenenter"",""1"",""5570""
","
","
","""event"",""trial"",""time""
""fullscreenenter"",""1"",""5570""
","
","","[{""page_index"":0,""viewing_time"":1424.7000000178814}]","1425","","","","","","","","","","","","","","","","","","","","","","","",""
"pit-comprehension","107","907882","0.0-2.0-22.0-0.0","battery-v0.2","","""event"",""trial"",""time""
""fullscreenenter"",""1"",""5570""
","
","
","""event"",""trial"",""time""
""fullscreenenter"",""1"",""5570""
","
","","","6550.5","[""-10""]","1","15","7270","3638","","","","","","","","","","","","","","","","","","",""
"pit-instructions","108","914236","0.0-2.0-22.0-1.0","battery-v0.2","","""event"",""trial"",""time""
""fullscreenenter"",""1"",""5570""
","
","
","""event"",""trial"",""time""
""fullscreenenter"",""1"",""5570""
","
","","[{""page_index"":0,""viewing_time"":6315.799999982119}]","6316.0999999940395","","","","","","","","","","","","","","","","","","","","","","","",""
"pit-instructions","109","915538","0.0-2.0-22.0-2.0-0.0","battery-v0.2","","""event"",""trial"",""time""
""fullscreenenter"",""1"",""5570""
","
","
","""event"",""trial"",""time""
""fullscreenenter"",""1"",""5570""
","
","","[{""page_index"":0,""viewing_time"":1300.800000011921}]","1301.0999999940395","","","","","","","","","","","","","","","","","","","","","","","",""
"pit-comprehension","110","921877","0.0-2.0-22.1-0.1","battery-v0.2","","""event"",""trial"",""time""
""fullscreenenter"",""1"",""5570""
","
","
","""event"",""trial"",""time""
""fullscreenenter"",""1"",""5570""
","
","","","6337.199999988079","[""0""]","0","15","7270","3638","","","","","","","","","","","","","","","","","","",""
"pit-instructions","111","923575","0.0-2.0-22.1-1.1","battery-v0.2","","""event"",""trial"",""time""
""fullscreenenter"",""1"",""5570""
","
","
","""event"",""trial"",""time""
""fullscreenenter"",""1"",""5570""
","
","","[{""page_index"":0,""viewing_time"":1656.800000011921}]","1657","","","","","","","","","","","","","","","","","","","","","","","",""
"pit-comprehension","112","931998","0.0-2.0-23.0-0.0","battery-v0.2","","""event"",""trial"",""time""
""fullscreenenter"",""1"",""5570""
","
","
","""event"",""trial"",""time""
""fullscreenenter"",""1"",""5570""
","
","","","8421.300000011921","[""True""]","0","15","7270","3638","","","","","","","","","","","","","","","","","","",""
"pit-instructions","113","933813","0.0-2.0-23.0-1.0","battery-v0.2","","""event"",""trial"",""time""
""fullscreenenter"",""1"",""5570""
","
","
","""event"",""trial"",""time""
""fullscreenenter"",""1"",""5570""
","
","","[{""page_index"":0,""viewing_time"":1774}]","1774.2000000178814","","","","","","","","","","","","","","","","","","","","","","","",""
"pit-comprehension","114","940882","0.0-2.0-24.0-0.0","battery-v0.2","","""event"",""trial"",""time""
""fullscreenenter"",""1"",""5570""
","
","
","""event"",""trial"",""time""
""fullscreenenter"",""1"",""5570""
","
","","","7067.4000000059605","[""True""]","0","15","7270","3638","","","","","","","","","","","","","","","","","","",""
"pit-instructions","115","942810","0.0-2.0-24.0-1.0","battery-v0.2","","""event"",""trial"",""time""
""fullscreenenter"",""1"",""5570""
","
","
","""event"",""trial"",""time""
""fullscreenenter"",""1"",""5570""
","
","","[{""page_index"":0,""viewing_time"":1886.4000000059605}]","1886.699999988079","","","","","","","","","","","","","","","","","","","","","","","",""
"pit-comprehension","116","948880","0.0-2.0-25.0-0.0","battery-v0.2","","""event"",""trial"",""time""
""fullscreenenter"",""1"",""5570""
","
","
","""event"",""trial"",""time""
""fullscreenenter"",""1"",""5570""
","
","","","6068.0999999940395","[""True""]","0","15","7270","3638","","","","","","","","","","","","","","","","","","",""
"pit-instructions","117","950395","0.0-2.0-25.0-1.0","battery-v0.2","","""event"",""trial"",""time""
""fullscreenenter"",""1"",""5570""
","
","
","""event"",""trial"",""time""
""fullscreenenter"",""1"",""5570""
","
","","[{""page_index"":0,""viewing_time"":1471.7999999821186}]","1472","","","","","","","","","","","","","","","","","","","","","","","",""
"pit-comprehension","118","955954","0.0-2.0-26.0-0.0","battery-v0.2","","""event"",""trial"",""time""
""fullscreenenter"",""1"",""5570""
","
","
","""event"",""trial"",""time""
""fullscreenenter"",""1"",""5570""
","
","","","5557.9000000059605","[""False""]","0","15","7270","3638","","","","","","","","","","","","","","","","","","",""
"pit-instructions","119","957492","0.0-2.0-26.0-1.0","battery-v0.2","","""event"",""trial"",""time""
""fullscreenenter"",""1"",""5570""
","
","
","""event"",""trial"",""time""
""fullscreenenter"",""1"",""5570""
","
","","[{""page_index"":0,""viewing_time"":1509.699999988079}]","1509.8999999761581","","","","","","","","","","","","","","","","","","","","","","","",""
"pit-instructions","120","974421","0.0-3.0","battery-v0.2","","""event"",""trial"",""time""
""fullscreenenter"",""1"",""5570""
","
","
","""event"",""trial"",""time""
""fullscreenenter"",""1"",""5570""
","
","","[{""page_index"":0,""viewing_time"":3999.9000000059605},{""page_index"":1,""viewing_time"":5443.9000000059605},{""page_index"":2,""viewing_time"":7484.299999982119}]","16928.30000001192","","","","","","","","","","","","","","","","","","","","","","","",""
"pit-trial","121","979293","0.0-4.0","battery-v0.2","","""event"",""trial"",""time""
""fullscreenenter"",""1"",""5570""
","
","
","""event"",""trial"",""time""
""fullscreenenter"",""1"",""5570""
","
","","","-1","","","15","7270","3638","&#9728;","elianto","#f73b6a7A","-1","-1","1","0","[]","0","1","","","7270","1","0","4","lose","no-go","0"
"pit-trial","122","983325","0.0-5.0","battery-v0.2","","""event"",""trial"",""time""
""fullscreenenter"",""1"",""5570""
","
","
","""event"",""trial"",""time""
""fullscreenenter"",""1"",""5570""
","
","","","1167","","","15","7270","3638","&#9752;","elianto","#f73b6a7A"," "," ","1","-10","[2021.199999988079]","1","1","","","7270","2","3","3","lose","go","1"
"pit-trial","123","986786","0.0-6.0","battery-v0.2","","""event"",""trial"",""time""
""fullscreenenter"",""1"",""5570""
","
","
","""event"",""trial"",""time""
""fullscreenenter"",""1"",""5570""
","
","","","598.9000000059605","","","15","7270","3638","&#9730;","elianto","#3366ff99"," "," ","1","0","[1450.5999999940395]","1","1","","","7270","3","1","1","win","go","1"
"pit-trial","124","990249","0.0-7.0","battery-v0.2","","""event"",""trial"",""time""
""fullscreenenter"",""1"",""5570""
","
","
","""event"",""trial"",""time""
""fullscreenenter"",""1"",""5570""
","
","","","595.9000000059605","","","15","7270","3638","&#9733;","elianto","#3366ff99","-1"," ","0","0","[1448.9000000059605]","1","1","","","7270","4","2","2","win","no-go","0"
"pit-trial","125","993747","0.0-8.0","battery-v0.2","","""event"",""trial"",""time""
""fullscreenenter"",""1"",""5570""
","
","
","""event"",""trial"",""time""
""fullscreenenter"",""1"",""5570""
","
","","","634.1999999880791","","","15","7270","3638","&#9730;","elianto","#3366ff99"," "," ","1","0","[1490.2999999821186]","1","1","","","7270","5","1","1","win","go","1"
"pit-trial","126","998615","0.0-9.0","battery-v0.2","","""event"",""trial"",""time""
""fullscreenenter"",""1"",""5570""
","
","
","""event"",""trial"",""time""
""fullscreenenter"",""1"",""5570""
","
","","","-1","","","15","7270","3638","&#9728;","elianto","#f73b6a7A","-1","-1","1","0","[]","0","1","","","7270","6","0","4","lose","no-go","0"
"pit-trial","127","1003473","0.0-10.0","battery-v0.2","","""event"",""trial"",""time""
""fullscreenenter"",""1"",""5570""
","
","
","""event"",""trial"",""time""
""fullscreenenter"",""1"",""5570""
","
","","","-1","","","15","7270","3638","&#9752;","elianto","#f73b6a7A"," ","-1","0","-10","[3014.7999999821186]","1","1","","","7270","7","3","3","lose","go","0"
"pit-trial","128","1007443","0.0-11.0","battery-v0.2","","""event"",""trial"",""time""
""fullscreenenter"",""1"",""5570""
","
","
","""event"",""trial"",""time""
""fullscreenenter"",""1"",""5570""
","
","","","1115.199999988079","","","15","7270","3638","&#9733;","elianto","#3366ff99","-1"," ","0","0","[1967.5999999940395]","1","1","","","7270","8","2","2","win","no-go","0"
"pit-trial","129","1012297","0.0-12.0","battery-v0.2","","""event"",""trial"",""time""
""fullscreenenter"",""1"",""5570""
","
","
","""event"",""trial"",""time""
""fullscreenenter"",""1"",""5570""
","
","","","-1","","","15","7270","3638","&#9752;","elianto","#f73b6a7A"," ","-1","0","-10","[]","0","1","","","7270","9","3","3","lose","go","0"
"pit-trial","130","1017151","0.0-13.0","battery-v0.2","","""event"",""trial"",""time""
""fullscreenenter"",""1"",""5570""
","
","
","""event"",""trial"",""time""
""fullscreenenter"",""1"",""5570""
","
","","","-1","","","15","7270","3638","&#9733;","elianto","#3366ff99","-1","-1","1","+10","[]","0","1","","","7270","10","2","2","win","no-go","0"
"pit-trial","131","1022006","0.0-14.0","battery-v0.2","","""event"",""trial"",""time""
""fullscreenenter"",""1"",""5570""
","
","
","""event"",""trial"",""time""
""fullscreenenter"",""1"",""5570""
","
","","","-1","","","15","7270","3638","&#9730;","elianto","#3366ff99"," ","-1","0","0","[]","0","1","","","7270","11","1","1","win","go","0"
"pit-trial","132","1026861","0.0-15.0","battery-v0.2","","""event"",""trial"",""time""
""fullscreenenter"",""1"",""5570""
","
","
","""event"",""trial"",""time""
""fullscreenenter"",""1"",""5570""
","
","","","-1","","","15","7270","3638","&#9728;","elianto","#f73b6a7A","-1","-1","1","0","[]","0","1","","","7270","12","0","4","lose","no-go","0"
"pit-trial","133","1031716","0.0-16.0","battery-v0.2","","""event"",""trial"",""time""
""fullscreenenter"",""1"",""5570""
","
","
","""event"",""trial"",""time""
""fullscreenenter"",""1"",""5570""
","
","","","-1","","","15","7270","3638","&#9728;","elianto","#f73b6a7A","-1","-1","1","0","[]","0","1","","","7270","13","0","4","lose","no-go","0"
"pit-trial","134","1035505","0.0-17.0","battery-v0.2","","""event"",""trial"",""time""
""fullscreenenter"",""1"",""5570""
","
","
","""event"",""trial"",""time""
""fullscreenenter"",""1"",""5570""
","
","","","935.5","","","15","7270","3638","&#9730;","elianto","#3366ff99"," "," ","1","+10","[1787]","1","1","","","7270","14","1","1","win","go","0"
"pit-trial","135","1040359","0.0-18.0","battery-v0.2","","""event"",""trial"",""time""
""fullscreenenter"",""1"",""5570""
","
","
","""event"",""trial"",""time""
""fullscreenenter"",""1"",""5570""
","
","","","-1","","","15","7270","3638","&#9733;","elianto","#3366ff99","-1","-1","1","+10","[]","0","1","","","7270","15","2","2","win","no-go","0"
"pit-trial","136","1045213","0.0-19.0","battery-v0.2","","""event"",""trial"",""time""
""fullscreenenter"",""1"",""5570""
","
","
","""event"",""trial"",""time""
""fullscreenenter"",""1"",""5570""
","
","","","-1","","","15","7270","3638","&#9752;","elianto","#f73b6a7A"," ","-1","0","-10","[]","0","1","","","7270","16","3","3","lose","go","0"
"pit-trial","137","1048618","0.0-20.0","battery-v0.2","","""event"",""trial"",""time""
""fullscreenenter"",""1"",""5570""
","
","
","""event"",""trial"",""time""
""fullscreenenter"",""1"",""5570""
","
","","","550.2999999821186","","","15","7270","3638","&#9733;","elianto","#3366ff99","-1"," ","0","0","[1400.4000000059605]","1","1","","","7270","17","2","2","win","no-go","0"
"pit-trial","138","1053472","0.0-21.0","battery-v0.2","","""event"",""trial"",""time""
""fullscreenenter"",""1"",""5570""
","
","
","""event"",""trial"",""time""
""fullscreenenter"",""1"",""5570""
","
","","","-1","","","15","7270","3638","&#9728;","elianto","#f73b6a7A","-1","-1","1","0","[]","0","1","","","7270","18","0","4","lose","no-go","0"
"pit-trial","139","1057465","0.0-22.0","battery-v0.2","","""event"",""trial"",""time""
""fullscreenenter"",""1"",""5570""
","
","
","""event"",""trial"",""time""
""fullscreenenter"",""1"",""5570""
","
","","","1138","","","15","7270","3638","&#9752;","elianto","#f73b6a7A"," "," ","1","0","[1989.5999999940395]","1","1","","","7270","19","3","3","lose","go","0"
"pit-trial","140","1060954","0.0-23.0","battery-v0.2","","""event"",""trial"",""time""
""fullscreenenter"",""1"",""5570""
","
","
","""event"",""trial"",""time""
""fullscreenenter"",""1"",""5570""
","
","","","636.4000000059605","","","15","7270","3638","&#9730;","elianto","#3366ff99"," "," ","1","+10","[1487.199999988079]","1","1","","","7270","20","1","1","win","go","0"
"pit-instructions","141","1073931","0.0-24.0","battery-v0.2","","""event"",""trial"",""time""
""fullscreenenter"",""1"",""5570""
","
","
","""event"",""trial"",""time""
""fullscreenenter"",""1"",""5570""
","
","","[{""page_index"":0,""viewing_time"":5894.5},{""page_index"":1,""viewing_time"":7079.100000023842}]","12973.90000000596","","","","","","","","","","","","","","","","","","","","","","","",""
"pit-trial","142","1078243","0.0-25.0","battery-v0.2","","""event"",""trial"",""time""
""fullscreenenter"",""1"",""5570""
","
","
","""event"",""trial"",""time""
""fullscreenenter"",""1"",""5570""
","
","","","1446.4000000059605","","","15","7270","3638","f","elianto","#3366ff99","-1"," ","0","+10","[2300.300000011921]","1","2","","","7270","21","1","2","win","no-go","1"
"pit-trial","143","1083105","0.0-26.0","battery-v0.2","","""event"",""trial"",""time""
""fullscreenenter"",""1"",""5570""
","
","
","""event"",""trial"",""time""
""fullscreenenter"",""1"",""5570""
","
","","","-1","","","15","7270","3638","b","elianto","#f73b6a7A","-1","-1","1","-10","[]","0","2","","","7270","22","3","4","lose","no-go","1"
"pit-trial","144","1086813","0.0-27.0","battery-v0.2","","""event"",""trial"",""time""
""fullscreenenter"",""1"",""5570""
","
","
","""event"",""trial"",""time""
""fullscreenenter"",""1"",""5570""
","
","","","845.7999999821186","","","15","7270","3638","n","elianto","#f73b6a7A"," "," ","1","-10","[1696.699999988079]","1","2","","","7270","23","0","3","lose","go","1"
"pit-trial","145","1090907","0.0-28.0","battery-v0.2","","""event"",""trial"",""time""
""fullscreenenter"",""1"",""5570""
","
","
","""event"",""trial"",""time""
""fullscreenenter"",""1"",""5570""
","
","","","1231.6000000238419","","","15","7270","3638","t","elianto","#f73b6a7A"," "," ","1","0","[2081.800000011921]","1","2","","","7270","24","2","3","lose","go","0"
"pit-trial","146","1094640","0.0-29.0","battery-v0.2","","""event"",""trial"",""time""
""fullscreenenter"",""1"",""5570""
","
","
","""event"",""trial"",""time""
""fullscreenenter"",""1"",""5570""
","
","","","864.8000000119209","","","15","7270","3638","f","elianto","#3366ff99","-1"," ","0","0","[1716.4000000059605]","1","2","","","7270","25","1","2","win","no-go","0"
"pit-trial","147","1099507","0.0-30.0","battery-v0.2","","""event"",""trial"",""time""
""fullscreenenter"",""1"",""5570""
","
","
","""event"",""trial"",""time""
""fullscreenenter"",""1"",""5570""
","
","","","-1","","","15","7270","3638","t","elianto","#f73b6a7A"," ","-1","0","-10","[]","0","2","","","7270","26","2","3","lose","go","0"
"pit-trial","148","1104368","0.0-31.0","battery-v0.2","","""event"",""trial"",""time""
""fullscreenenter"",""1"",""5570""
","
","
","""event"",""trial"",""time""
""fullscreenenter"",""1"",""5570""
","
","","","-1","","","15","7270","3638","b","elianto","#f73b6a7A","-1","-1","1","0","[]","0","2","","","7270","27","3","4","lose","no-go","0"
"pit-trial","149","1109220","0.0-32.0","battery-v0.2","","""event"",""trial"",""time""
""fullscreenenter"",""1"",""5570""
","
","
","""event"",""trial"",""time""
""fullscreenenter"",""1"",""5570""
","
","","","-1","","","15","7270","3638","n","elianto","#f73b6a7A"," ","-1","0","-10","[]","0","2","","","7270","28","0","3","lose","go","0"
"pit-trial","150","1112848","0.0-33.0","battery-v0.2","","""event"",""trial"",""time""
""fullscreenenter"",""1"",""5570""
","
","
","""event"",""trial"",""time""
""fullscreenenter"",""1"",""5570""
","
","","","775.6000000238419","","","15","7270","3638","f","elianto","#3366ff99","-1"," ","0","0","[1626.300000011921]","1","2","","","7270","29","1","2","win","no-go","0"
"pit-trial","151","1117703","0.0-34.0","battery-v0.2","","""event"",""trial"",""time""
""fullscreenenter"",""1"",""5570""
","
","
","""event"",""trial"",""time""
""fullscreenenter"",""1"",""5570""
","
","","","-1","","","15","7270","3638","b","elianto","#f73b6a7A","-1","-1","1","-10","[]","0","2","","","7270","30","3","4","lose","no-go","1"
"pit-trial","152","1121625","0.0-35.0","battery-v0.2","","""event"",""trial"",""time""
""fullscreenenter"",""1"",""5570""
","
","
","""event"",""trial"",""time""
""fullscreenenter"",""1"",""5570""
","
","","","1068.8999999761581","","","15","7270","3638","n","elianto","#f73b6a7A"," "," ","1","0","[1919.199999988079]","1","2","","","7270","31","0","3","lose","go","0"
"pit-trial","153","1125561","0.0-36.0","battery-v0.2","","""event"",""trial"",""time""
""fullscreenenter"",""1"",""5570""
","
","
","""event"",""trial"",""time""
""fullscreenenter"",""1"",""5570""
","
","","","1082.699999988079","","","15","7270","3638","t","elianto","#f73b6a7A"," "," ","1","0","[1933.5]","1","2","","","7270","32","2","3","lose","go","0"
"pit-trial","154","1129730","0.0-37.0","battery-v0.2","","""event"",""trial"",""time""
""fullscreenenter"",""1"",""5570""
","
","
","""event"",""trial"",""time""
""fullscreenenter"",""1"",""5570""
","
","","","1314.699999988079","","","15","7270","3638","b","elianto","#f73b6a7A","-1"," ","0","-10","[2165.9000000059605]","1","2","","","7270","33","3","4","lose","no-go","0"
"pit-trial","155","1133343","0.0-38.0","battery-v0.2","","""event"",""trial"",""time""
""fullscreenenter"",""1"",""5570""
","
","
","""event"",""trial"",""time""
""fullscreenenter"",""1"",""5570""
","
","","","762.5999999940395","","","15","7270","3638","f","elianto","#3366ff99","-1"," ","0","0","[1612.6000000238419]","1","2","","","7270","34","1","2","win","no-go","0"
"pit-trial","156","1137095","0.0-39.0","battery-v0.2","","""event"",""trial"",""time""
""fullscreenenter"",""1"",""5570""
","
","
","""event"",""trial"",""time""
""fullscreenenter"",""1"",""5570""
","
","","","899","","","15","7270","3638","n","elianto","#f73b6a7A"," "," ","1","0","[1749]","1","2","","","7270","35","0","3","lose","go","0"
"pit-trial","157","1141450","0.0-40.0","battery-v0.2","","""event"",""trial"",""time""
""fullscreenenter"",""1"",""5570""
","
","
","""event"",""trial"",""time""
""fullscreenenter"",""1"",""5570""
","
","","","1498.4000000059605","","","15","7270","3638","t","elianto","#f73b6a7A"," "," ","1","-10","[2352.0999999940395]","1","2","","","7270","36","2","3","lose","go","1"
"pit-trial","158","1145147","0.0-41.0","battery-v0.2","","""event"",""trial"",""time""
""fullscreenenter"",""1"",""5570""
","
","
","""event"",""trial"",""time""
""fullscreenenter"",""1"",""5570""
","
","","","843.3000000119209","","","15","7270","3638","f","elianto","#3366ff99","-1"," ","0","0","[1693.5,1835.4000000059605]","2","2","","","7270","37","1","2","win","no-go","0"
"pit-trial","159","1149362","0.0-42.0","battery-v0.2","","""event"",""trial"",""time""
""fullscreenenter"",""1"",""5570""
","
","
","""event"",""trial"",""time""
""fullscreenenter"",""1"",""5570""
","
","","","1360.5999999940395","","","15","7270","3638","b","elianto","#f73b6a7A","-1"," ","0","-10","[2211.300000011921]","1","2","","","7270","38","3","4","lose","no-go","0"
"pit-trial","160","1152985","0.0-43.0","battery-v0.2","","""event"",""trial"",""time""
""fullscreenenter"",""1"",""5570""
","
","
","""event"",""trial"",""time""
""fullscreenenter"",""1"",""5570""
","
","","","768.2999999821186","","","15","7270","3638","n","elianto","#f73b6a7A"," "," ","1","0","[1618.7999999821186]","1","2","","","7270","39","0","3","lose","go","0"
"pit-trial","161","1157839","0.0-44.0","battery-v0.2","","""event"",""trial"",""time""
""fullscreenenter"",""1"",""5570""
","
","
","""event"",""trial"",""time""
""fullscreenenter"",""1"",""5570""
","
","","","-1","","","15","7270","3638","t","elianto","#f73b6a7A"," ","-1","0","-10","[]","0","2","","","7270","40","2","3","lose","go","0"
"pit-trial","162","1161569","0.0-45.0","battery-v0.2","","""event"",""trial"",""time""
""fullscreenenter"",""1"",""5570""
","
","
","""event"",""trial"",""time""
""fullscreenenter"",""1"",""5570""
","
","","","876.5","","","15","7270","3638","n","elianto","#f73b6a7A"," "," ","1","0","[1727.300000011921]","1","2","","","7270","41","0","3","lose","go","0"
"pit-trial","163","1166423","0.0-46.0","battery-v0.2","","""event"",""trial"",""time""
""fullscreenenter"",""1"",""5570""
","
","
","""event"",""trial"",""time""
""fullscreenenter"",""1"",""5570""
","
","","","-1","","","15","7270","3638","b","elianto","#f73b6a7A","-1","-1","1","0","[]","0","2","","","7270","42","3","4","lose","no-go","0"
"pit-trial","164","1169973","0.0-47.0","battery-v0.2","","""event"",""trial"",""time""
""fullscreenenter"",""1"",""5570""
","
","
","""event"",""trial"",""time""
""fullscreenenter"",""1"",""5570""
","
","","","696.3000000119209","","","15","7270","3638","f","elianto","#3366ff99","-1"," ","0","0","[1546.9000000059605]","1","2","","","7270","43","1","2","win","no-go","0"
"pit-trial","165","1174548","0.0-48.0","battery-v0.2","","""event"",""trial"",""time""
""fullscreenenter"",""1"",""5570""
","
","
","""event"",""trial"",""time""
""fullscreenenter"",""1"",""5570""
","
","","","1720.300000011921","","","15","7270","3638","t","elianto","#f73b6a7A"," "," ","1","0","[2572.2000000178814]","1","2","","","7270","44","2","3","lose","go","0"
"pit-trial","166","1178245","0.0-49.0","battery-v0.2","","""event"",""trial"",""time""
""fullscreenenter"",""1"",""5570""
","
","
","""event"",""trial"",""time""
""fullscreenenter"",""1"",""5570""
","
","","","843.3999999761581","","","15","7270","3638","b","elianto","#f73b6a7A","-1"," ","0","-10","[1694.3999999761581]","1","2","","","7270","45","3","4","lose","no-go","0"
"pit-trial","167","1181662","0.0-50.0","battery-v0.2","","""event"",""trial"",""time""
""fullscreenenter"",""1"",""5570""
","
","
","""event"",""trial"",""time""
""fullscreenenter"",""1"",""5570""
","
","","","562.5","","","15","7270","3638","f","elianto","#3366ff99","-1"," ","0","+10","[1412.699999988079]","1","2","","","7270","46","1","2","win","no-go","1"
"pit-trial","168","1185289","0.0-51.0","battery-v0.2","","""event"",""trial"",""time""
""fullscreenenter"",""1"",""5570""
","
","
","""event"",""trial"",""time""
""fullscreenenter"",""1"",""5570""
","
","","","774.5999999940395","","","15","7270","3638","n","elianto","#f73b6a7A"," "," ","1","-10","[1624.8999999761581]","1","2","","","7270","47","0","3","lose","go","1"
"pit-trial","169","1188901","0.0-52.0","battery-v0.2","","""event"",""trial"",""time""
""fullscreenenter"",""1"",""5570""
","
","
","""event"",""trial"",""time""
""fullscreenenter"",""1"",""5570""
","
","","","758.7999999821186","","","15","7270","3638","t","elianto","#f73b6a7A"," "," ","1","0","[1609.5999999940395]","1","2","","","7270","48","2","3","lose","go","0"
"pit-trial","170","1192581","0.0-53.0","battery-v0.2","","""event"",""trial"",""time""
""fullscreenenter"",""1"",""5570""
","
","
","""event"",""trial"",""time""
""fullscreenenter"",""1"",""5570""
","
","","","827.0999999940395","","","15","7270","3638","t","elianto","#f73b6a7A"," "," ","1","0","[1677.8999999761581]","1","2","","","7270","49","2","3","lose","go","0"
"pit-trial","171","1197435","0.0-54.0","battery-v0.2","","""event"",""trial"",""time""
""fullscreenenter"",""1"",""5570""
","
","
","""event"",""trial"",""time""
""fullscreenenter"",""1"",""5570""
","
","","","-1","","","15","7270","3638","f","elianto","#3366ff99","-1","-1","1","0","[]","0","2","","","7270","50","1","2","win","no-go","1"
"pit-trial","172","1201603","0.0-55.0","battery-v0.2","","""event"",""trial"",""time""
""fullscreenenter"",""1"",""5570""
","
","
","""event"",""trial"",""time""
""fullscreenenter"",""1"",""5570""
","
","","","1315.300000011921","","","15","7270","3638","b","elianto","#f73b6a7A","-1"," ","0","-10","[2166.4000000059605]","1","2","","","7270","51","3","4","lose","no-go","0"
"pit-trial","173","1205352","0.0-56.0","battery-v0.2","","""event"",""trial"",""time""
""fullscreenenter"",""1"",""5570""
","
","
","""event"",""trial"",""time""
""fullscreenenter"",""1"",""5570""
","
","","","896.1000000238419","","","15","7270","3638","n","elianto","#f73b6a7A"," "," ","1","0","[1746.7000000178814]","1","2","","","7270","52","0","3","lose","go","0"
"pit-trial","174","1209651","0.0-57.0","battery-v0.2","","""event"",""trial"",""time""
""fullscreenenter"",""1"",""5570""
","
","
","""event"",""trial"",""time""
""fullscreenenter"",""1"",""5570""
","
","","","1446","","","15","7270","3638","f","elianto","#3366ff99","-1"," ","0","0","[2297]","1","2","","","7270","53","1","2","win","no-go","0"
"pit-trial","175","1213351","0.0-58.0","battery-v0.2","","""event"",""trial"",""time""
""fullscreenenter"",""1"",""5570""
","
","
","""event"",""trial"",""time""
""fullscreenenter"",""1"",""5570""
","
","","","845.8000000119209","","","15","7270","3638","t","elianto","#f73b6a7A"," "," ","1","0","[1696.5999999940395]","1","2","","","7270","54","2","3","lose","go","0"
"pit-trial","176","1216899","0.0-59.0","battery-v0.2","","""event"",""trial"",""time""
""fullscreenenter"",""1"",""5570""
","
","
","""event"",""trial"",""time""
""fullscreenenter"",""1"",""5570""
","
","","","694.9000000059605","","","15","7270","3638","n","elianto","#f73b6a7A"," "," ","1","0","[1546]","1","2","","","7270","55","0","3","lose","go","0"
"pit-trial","177","1220165","0.0-60.0","battery-v0.2","","""event"",""trial"",""time""
""fullscreenenter"",""1"",""5570""
","
","
","""event"",""trial"",""time""
""fullscreenenter"",""1"",""5570""
","
","","","412.09999999403954","","","15","7270","3638","b","elianto","#f73b6a7A","-1"," ","0","-10","[1263]","1","2","","","7270","56","3","4","lose","no-go","0"
"pit-trial","178","1224314","0.0-61.0","battery-v0.2","","""event"",""trial"",""time""
""fullscreenenter"",""1"",""5570""
","
","
","""event"",""trial"",""time""
""fullscreenenter"",""1"",""5570""
","
","","","1296.699999988079","","","15","7270","3638","b","elianto","#f73b6a7A","-1"," ","0","0","[2147.4000000059605]","1","2","","","7270","57","3","4","lose","no-go","1"
"pit-trial","179","1227617","0.0-62.0","battery-v0.2","","""event"",""trial"",""time""
""fullscreenenter"",""1"",""5570""
","
","
","""event"",""trial"",""time""
""fullscreenenter"",""1"",""5570""
","
","","","448.69999998807907","","","15","7270","3638","c","elianto","#3366ff99"," "," ","1","+10","[1299.7999999821186]","1","2","","","7270","58","4","1","win","go","0"
"pit-trial","180","1231310","0.0-63.0","battery-v0.2","","""event"",""trial"",""time""
""fullscreenenter"",""1"",""5570""
","
","
","""event"",""trial"",""time""
""fullscreenenter"",""1"",""5570""
","
","","","839.1999999880791","","","15","7270","3638","n","elianto","#f73b6a7A"," "," ","1","-10","[1689.699999988079]","1","2","","","7270","59","0","3","lose","go","1"
"pit-trial","181","1235006","0.0-64.0","battery-v0.2","","""event"",""trial"",""time""
""fullscreenenter"",""1"",""5570""
","
","
","""event"",""trial"",""time""
""fullscreenenter"",""1"",""5570""
","
","","","843.9000000059605","","","15","7270","3638","t","elianto","#f73b6a7A"," "," ","1","-10","[1694.5]","1","2","","","7270","60","2","3","lose","go","1"
"pit-trial","182","1238272","0.0-65.0","battery-v0.2","","""event"",""trial"",""time""
""fullscreenenter"",""1"",""5570""
","
","
","""event"",""trial"",""time""
""fullscreenenter"",""1"",""5570""
","
","","","414","","","15","7270","3638","c","elianto","#3366ff99"," "," ","1","+10","[1264.199999988079]","1","2","","","7270","61","4","1","win","go","0"
"pit-trial","183","1241722","0.0-66.0","battery-v0.2","","""event"",""trial"",""time""
""fullscreenenter"",""1"",""5570""
","
","
","""event"",""trial"",""time""
""fullscreenenter"",""1"",""5570""
","
","","","597.9000000059605","","","15","7270","3638","f","elianto","#3366ff99","-1"," ","0","0","[1448.0999999940395]","1","2","","","7270","62","1","2","win","no-go","0"
"pit-trial","184","1245508","0.0-67.0","battery-v0.2","","""event"",""trial"",""time""
""fullscreenenter"",""1"",""5570""
","
","
","""event"",""trial"",""time""
""fullscreenenter"",""1"",""5570""
","
","","","932.3000000119209","","","15","7270","3638","t","elianto","#f73b6a7A"," "," ","1","0","[1783]","1","2","","","7270","63","2","3","lose","go","0"
"pit-trial","185","1249361","0.0-68.0","battery-v0.2","","""event"",""trial"",""time""
""fullscreenenter"",""1"",""5570""
","
","
","""event"",""trial"",""time""
""fullscreenenter"",""1"",""5570""
","
","","","999","","","15","7270","3638","b","elianto","#f73b6a7A","-1"," ","0","-10","[1850.2000000178814]","1","2","","","7270","64","3","4","lose","no-go","0"
"pit-trial","186","1252692","0.0-69.0","battery-v0.2","","""event"",""trial"",""time""
""fullscreenenter"",""1"",""5570""
","
","
","""event"",""trial"",""time""
""fullscreenenter"",""1"",""5570""
","
","","","476.90000000596046","","","15","7270","3638","b","elianto","#f73b6a7A","-1"," ","0","-10","[1327.300000011921]","1","2","","","7270","65","3","4","lose","no-go","0"
"pit-trial","187","1255997","0.0-70.0","battery-v0.2","","""event"",""trial"",""time""
""fullscreenenter"",""1"",""5570""
","
","
","""event"",""trial"",""time""
""fullscreenenter"",""1"",""5570""
","
","","","453.09999999403954","","","15","7270","3638","f","elianto","#3366ff99","-1"," ","0","0","[1303.5]","1","2","","","7270","66","1","2","win","no-go","0"
"pit-trial","188","1259503","0.0-71.0","battery-v0.2","","""event"",""trial"",""time""
""fullscreenenter"",""1"",""5570""
","
","
","""event"",""trial"",""time""
""fullscreenenter"",""1"",""5570""
","
","","","653","","","15","7270","3638","z","elianto","#3366ff99","-1"," ","0","0","[1503.5]","1","2","","","7270","67","5","2","win","no-go","0"
"pit-trial","189","1262818","0.0-72.0","battery-v0.2","","""event"",""trial"",""time""
""fullscreenenter"",""1"",""5570""
","
","
","""event"",""trial"",""time""
""fullscreenenter"",""1"",""5570""
","
","","","462.69999998807907","","","15","7270","3638","c","elianto","#3366ff99"," "," ","1","+10","[1313.2999999821186]","1","2","","","7270","68","4","1","win","go","0"
"pit-trial","190","1266074","0.0-73.0","battery-v0.2","","""event"",""trial"",""time""
""fullscreenenter"",""1"",""5570""
","
","
","""event"",""trial"",""time""
""fullscreenenter"",""1"",""5570""
","
","","","401.7999999821186","","","15","7270","3638","f","elianto","#3366ff99","-1"," ","0","0","[1252.0999999940395]","1","2","","","7270","69","1","2","win","no-go","0"
"pit-trial","191","1269162","0.0-74.0","battery-v0.2","","""event"",""trial"",""time""
""fullscreenenter"",""1"",""5570""
","
","
","""event"",""trial"",""time""
""fullscreenenter"",""1"",""5570""
","
","","","235.2999999821186","","","15","7270","3638","c","elianto","#3366ff99"," "," ","1","+10","[1085.5999999940395]","1","2","","","7270","70","4","1","win","go","0"
"pit-trial","192","1272573","0.0-75.0","battery-v0.2","","""event"",""trial"",""time""
""fullscreenenter"",""1"",""5570""
","
","
","""event"",""trial"",""time""
""fullscreenenter"",""1"",""5570""
","
","","","556","","","15","7270","3638","z","elianto","#3366ff99","-1"," ","0","0","[1407.5]","1","2","","","7270","71","5","2","win","no-go","0"
"pit-trial","193","1276662","0.0-76.0","battery-v0.2","","""event"",""trial"",""time""
""fullscreenenter"",""1"",""5570""
","
","
","""event"",""trial"",""time""
""fullscreenenter"",""1"",""5570""
","
","","","1234.3999999761581","","","15","7270","3638","t","elianto","#f73b6a7A"," "," ","1","0","[2084.699999988079]","1","2","","","7270","72","2","3","lose","go","0"
"pit-trial","194","1281517","0.0-77.0","battery-v0.2","","""event"",""trial"",""time""
""fullscreenenter"",""1"",""5570""
","
","
","""event"",""trial"",""time""
""fullscreenenter"",""1"",""5570""
","
","","","-1","","","15","7270","3638","z","elianto","#3366ff99","-1","-1","1","+10","[]","0","2","","","7270","73","5","2","win","no-go","0"
"pit-trial","195","1286185","0.0-78.0","battery-v0.2","","""event"",""trial"",""time""
""fullscreenenter"",""1"",""5570""
","
","
","""event"",""trial"",""time""
""fullscreenenter"",""1"",""5570""
","
","","","1814.5","","","15","7270","3638","f","elianto","#3366ff99","-1"," ","0","0","[2664.9000000059605]","1","2","","","7270","74","1","2","win","no-go","0"
"pit-trial","196","1290564","0.0-79.0","battery-v0.2","","""event"",""trial"",""time""
""fullscreenenter"",""1"",""5570""
","
","
","""event"",""trial"",""time""
""fullscreenenter"",""1"",""5570""
","
","","","1524.0999999940395","","","15","7270","3638","c","elianto","#3366ff99"," "," ","1","+10","[2375.2999999821186]","1","2","","","7270","75","4","1","win","go","0"
"pit-trial","197","1295419","0.0-80.0","battery-v0.2","","""event"",""trial"",""time""
""fullscreenenter"",""1"",""5570""
","
","
","""event"",""trial"",""time""
""fullscreenenter"",""1"",""5570""
","
","","","-1","","","15","7270","3638","b","elianto","#f73b6a7A","-1","-1","1","0","[]","0","2","","","7270","76","3","4","lose","no-go","0"
"pit-trial","198","1299489","0.0-81.0","battery-v0.2","","""event"",""trial"",""time""
""fullscreenenter"",""1"",""5570""
","
","
","""event"",""trial"",""time""
""fullscreenenter"",""1"",""5570""
","
","","","1216.5","","","15","7270","3638","c","elianto","#3366ff99"," "," ","1","+10","[2066.9000000059605]","1","2","","","7270","77","4","1","win","go","0"
"pit-trial","199","1304342","0.0-82.0","battery-v0.2","","""event"",""trial"",""time""
""fullscreenenter"",""1"",""5570""
","
","
","""event"",""trial"",""time""
""fullscreenenter"",""1"",""5570""
","
","","","-1","","","15","7270","3638","z","elianto","#3366ff99","-1","-1","1","+10","[]","0","2","","","7270","78","5","2","win","no-go","0"
"pit-trial","200","1308897","0.0-83.0","battery-v0.2","","""event"",""trial"",""time""
""fullscreenenter"",""1"",""5570""
","
","
","""event"",""trial"",""time""
""fullscreenenter"",""1"",""5570""
","
","","","1701.300000011921","","","15","7270","3638","c","elianto","#3366ff99"," "," ","1","+10","[2552]","1","2","","","7270","79","4","1","win","go","0"
"pit-trial","201","1313760","0.0-84.0","battery-v0.2","","""event"",""trial"",""time""
""fullscreenenter"",""1"",""5570""
","
","
","""event"",""trial"",""time""
""fullscreenenter"",""1"",""5570""
","
","","","-1","","","15","7270","3638","b","elianto","#f73b6a7A","-1","-1","1","0","[]","0","2","","","7270","80","3","4","lose","no-go","0"
"pit-trial","202","1318212","0.0-85.0","battery-v0.2","","""event"",""trial"",""time""
""fullscreenenter"",""1"",""5570""
","
","
","""event"",""trial"",""time""
""fullscreenenter"",""1"",""5570""
","
","","","1597.9000000059605","","","15","7270","3638","c","elianto","#3366ff99"," "," ","1","0","[2448.199999988079]","1","2","","","7270","81","4","1","win","go","1"
"pit-trial","203","1322261","0.0-86.0","battery-v0.2","","""event"",""trial"",""time""
""fullscreenenter"",""1"",""5570""
","
","
","""event"",""trial"",""time""
""fullscreenenter"",""1"",""5570""
","
","","","1194.5999999940395","","","15","7270","3638","y","elianto","#f73b6a7A","-1"," ","0","0","[2045.699999988079]","1","2","","","7270","82","7","4","lose","no-go","1"
"pit-trial","204","1325599","0.0-87.0","battery-v0.2","","""event"",""trial"",""time""
""fullscreenenter"",""1"",""5570""
","
","
","""event"",""trial"",""time""
""fullscreenenter"",""1"",""5570""
","
","","","486","","","15","7270","3638","b","elianto","#f73b6a7A","-1"," ","0","-10","[1336.300000011921]","1","2","","","7270","83","3","4","lose","no-go","0"
"pit-trial","205","1328933","0.0-88.0","battery-v0.2","","""event"",""trial"",""time""
""fullscreenenter"",""1"",""5570""
","
","
","""event"",""trial"",""time""
""fullscreenenter"",""1"",""5570""
","
","","","478.30000001192093","","","15","7270","3638","z","elianto","#3366ff99","-1"," ","0","0","[1329.6000000238419]","1","2","","","7270","84","5","2","win","no-go","0"
"pit-trial","206","1333788","0.0-89.0","battery-v0.2","","""event"",""trial"",""time""
""fullscreenenter"",""1"",""5570""
","
","
","""event"",""trial"",""time""
""fullscreenenter"",""1"",""5570""
","
","","","-1","","","15","7270","3638","h","elianto","#f73b6a7A"," ","-1","0","-10","[]","0","2","","","7270","85","6","3","lose","go","0"
"pit-trial","207","1337044","0.0-90.0","battery-v0.2","","""event"",""trial"",""time""
""fullscreenenter"",""1"",""5570""
","
","
","""event"",""trial"",""time""
""fullscreenenter"",""1"",""5570""
","
","","","402.10000002384186","","","15","7270","3638","c","elianto","#3366ff99"," "," ","1","+10","[1252.5]","1","2","","","7270","86","4","1","win","go","0"
"pit-trial","208","1340648","0.0-91.0","battery-v0.2","","""event"",""trial"",""time""
""fullscreenenter"",""1"",""5570""
","
","
","""event"",""trial"",""time""
""fullscreenenter"",""1"",""5570""
","
","","","750.2000000178814","","","15","7270","3638","y","elianto","#f73b6a7A","-1"," ","0","-10","[1601.2000000178814]","1","2","","","7270","87","7","4","lose","no-go","0"
"pit-trial","209","1343934","0.0-92.0","battery-v0.2","","""event"",""trial"",""time""
""fullscreenenter"",""1"",""5570""
","
","
","""event"",""trial"",""time""
""fullscreenenter"",""1"",""5570""
","
","","","431.7999999821186","","","15","7270","3638","z","elianto","#3366ff99","-1"," ","0","0","[1282.5999999940395]","1","2","","","7270","88","5","2","win","no-go","0"
"pit-trial","210","1347208","0.0-93.0","battery-v0.2","","""event"",""trial"",""time""
""fullscreenenter"",""1"",""5570""
","
","
","""event"",""trial"",""time""
""fullscreenenter"",""1"",""5570""
","
","","","419.40000000596046","","","15","7270","3638","c","elianto","#3366ff99"," "," ","1","+10","[1271.300000011921]","1","2","","","7270","89","4","1","win","go","0"
"pit-trial","211","1350909","0.0-94.0","battery-v0.2","","""event"",""trial"",""time""
""fullscreenenter"",""1"",""5570""
","
","
","""event"",""trial"",""time""
""fullscreenenter"",""1"",""5570""
","
","","","846.3999999761581","","","15","7270","3638","y","elianto","#f73b6a7A","-1"," ","0","-10","[1698.0999999940395]","1","2","","","7270","90","7","4","lose","no-go","0"
"pit-trial","212","1354160","0.0-95.0","battery-v0.2","","""event"",""trial"",""time""
""fullscreenenter"",""1"",""5570""
","
","
","""event"",""trial"",""time""
""fullscreenenter"",""1"",""5570""
","
","","","398.40000000596046","","","15","7270","3638","h","elianto","#f73b6a7A"," "," ","1","0","[1248.5999999940395]","1","2","","","7270","91","6","3","lose","go","0"
"pit-trial","213","1357383","0.0-96.0","battery-v0.2","","""event"",""trial"",""time""
""fullscreenenter"",""1"",""5570""
","
","
","""event"",""trial"",""time""
""fullscreenenter"",""1"",""5570""
","
","","","370.40000000596046","","","15","7270","3638","z","elianto","#3366ff99","-1"," ","0","0","[1220.7999999821186]","1","2","","","7270","92","5","2","win","no-go","0"
"pit-trial","214","1362235","0.0-97.0","battery-v0.2","","""event"",""trial"",""time""
""fullscreenenter"",""1"",""5570""
","
","
","""event"",""trial"",""time""
""fullscreenenter"",""1"",""5570""
","
","","","-1","","","15","7270","3638","z","elianto","#3366ff99","-1","-1","1","0","[]","0","2","","","7270","93","5","2","win","no-go","1"
"pit-trial","215","1367088","0.0-98.0","battery-v0.2","","""event"",""trial"",""time""
""fullscreenenter"",""1"",""5570""
","
","
","""event"",""trial"",""time""
""fullscreenenter"",""1"",""5570""
","
","","","-1","","","15","7270","3638","r","elianto","#3366ff99"," ","-1","0","0","[]","0","2","","","7270","94","8","1","win","go","0"
"pit-trial","216","1370879","0.0-99.0","battery-v0.2","","""event"",""trial"",""time""
""fullscreenenter"",""1"",""5570""
","
","
","""event"",""trial"",""time""
""fullscreenenter"",""1"",""5570""
","
","","","938.8999999761581","","","15","7270","3638","y","elianto","#f73b6a7A","-1"," ","0","-10","[1789]","1","2","","","7270","95","7","4","lose","no-go","0"
"pit-trial","217","1374204","0.0-100.0","battery-v0.2","","""event"",""trial"",""time""
""fullscreenenter"",""1"",""5570""
","
","
","""event"",""trial"",""time""
""fullscreenenter"",""1"",""5570""
","
","","","472.2000000178814","","","15","7270","3638","h","elianto","#f73b6a7A"," "," ","1","0","[1322.5]","1","2","","","7270","96","6","3","lose","go","0"
"pit-trial","218","1377253","0.0-101.0","battery-v0.2","","""event"",""trial"",""time""
""fullscreenenter"",""1"",""5570""
","
","
","""event"",""trial"",""time""
""fullscreenenter"",""1"",""5570""
","
","","","193.09999999403954","","","15","7270","3638","h","elianto","#f73b6a7A"," "," ","1","0","[1044]","1","2","","","7270","97","6","3","lose","go","0"
"pit-trial","219","1380279","0.0-102.0","battery-v0.2","","""event"",""trial"",""time""
""fullscreenenter"",""1"",""5570""
","
","
","""event"",""trial"",""time""
""fullscreenenter"",""1"",""5570""
","
","","","172.7000000178814","","","15","7270","3638","y","elianto","#f73b6a7A","-1"," ","0","-10","[1023.8000000119209]","1","2","","","7270","98","7","4","lose","no-go","0"
"pit-trial","220","1383427","0.0-103.0","battery-v0.2","","""event"",""trial"",""time""
""fullscreenenter"",""1"",""5570""
","
","
","""event"",""trial"",""time""
""fullscreenenter"",""1"",""5570""
","
","","","295.5","","","15","7270","3638","r","elianto","#3366ff99"," "," ","1","+10","[1145.6000000238419]","1","2","","","7270","99","8","1","win","go","0"
"pit-trial","221","1386653","0.0-104.0","battery-v0.2","","""event"",""trial"",""time""
""fullscreenenter"",""1"",""5570""
","
","
","""event"",""trial"",""time""
""fullscreenenter"",""1"",""5570""
","
","","","373.40000000596046","","","15","7270","3638","z","elianto","#3366ff99","-1"," ","0","0","[1224]","1","2","","","7270","100","5","2","win","no-go","0"
"pit-trial","222","1389916","0.0-105.0","battery-v0.2","","""event"",""trial"",""time""
""fullscreenenter"",""1"",""5570""
","
","
","""event"",""trial"",""time""
""fullscreenenter"",""1"",""5570""
","
","","","408.5","","","15","7270","3638","y","elianto","#f73b6a7A","-1"," ","0","-10","[1259.0999999940395]","1","2","","","7270","101","7","4","lose","no-go","0"
"pit-trial","223","1393099","0.0-106.0","battery-v0.2","","""event"",""trial"",""time""
""fullscreenenter"",""1"",""5570""
","
","
","""event"",""trial"",""time""
""fullscreenenter"",""1"",""5570""
","
","","","330.2000000178814","","","15","7270","3638","r","elianto","#3366ff99"," "," ","1","+10","[1181]","1","2","","","7270","102","8","1","win","go","0"
"pit-trial","224","1396236","0.0-107.0","battery-v0.2","","""event"",""trial"",""time""
""fullscreenenter"",""1"",""5570""
","
","
","""event"",""trial"",""time""
""fullscreenenter"",""1"",""5570""
","
","","","283.59999999403954","","","15","7270","3638","z","elianto","#3366ff99","-1"," ","0","+10","[1134.8999999761581]","1","2","","","7270","103","5","2","win","no-go","1"
"pit-trial","225","1399481","0.0-108.0","battery-v0.2","","""event"",""trial"",""time""
""fullscreenenter"",""1"",""5570""
","
","
","""event"",""trial"",""time""
""fullscreenenter"",""1"",""5570""
","
","","","393","","","15","7270","3638","m","elianto","#3366ff99"," "," ","1","0","[1243.5999999940395]","1","2","","","7270","104","9","1","win","go","1"
"pit-trial","226","1402695","0.0-109.0","battery-v0.2","","""event"",""trial"",""time""
""fullscreenenter"",""1"",""5570""
","
","
","""event"",""trial"",""time""
""fullscreenenter"",""1"",""5570""
","
","","","360.69999998807907","","","15","7270","3638","h","elianto","#f73b6a7A"," "," ","1","0","[1211.699999988079]","1","2","","","7270","105","6","3","lose","go","0"
"pit-trial","227","1406013","0.0-110.0","battery-v0.2","","""event"",""trial"",""time""
""fullscreenenter"",""1"",""5570""
","
","
","""event"",""trial"",""time""
""fullscreenenter"",""1"",""5570""
","
","","","465","","","15","7270","3638","r","elianto","#3366ff99"," "," ","1","+10","[1316.5]","1","2","","","7270","106","8","1","win","go","0"
"pit-trial","228","1409329","0.0-111.0","battery-v0.2","","""event"",""trial"",""time""
""fullscreenenter"",""1"",""5570""
","
","
","""event"",""trial"",""time""
""fullscreenenter"",""1"",""5570""
","
","","","462","","","15","7270","3638","m","elianto","#3366ff99"," "," ","1","+10","[1314]","1","2","","","7270","107","9","1","win","go","0"
"pit-trial","229","1414182","0.0-112.0","battery-v0.2","","""event"",""trial"",""time""
""fullscreenenter"",""1"",""5570""
","
","
","""event"",""trial"",""time""
""fullscreenenter"",""1"",""5570""
","
","","","-1","","","15","7270","3638","c","elianto","#3366ff99"," ","-1","0","+10","[]","0","2","","","7270","108","4","1","win","go","1"
"pit-trial","230","1419035","0.0-113.0","battery-v0.2","","""event"",""trial"",""time""
""fullscreenenter"",""1"",""5570""
","
","
","""event"",""trial"",""time""
""fullscreenenter"",""1"",""5570""
","
","","","-1","","","15","7270","3638","z","elianto","#3366ff99","-1","-1","1","+10","[]","0","2","","","7270","109","5","2","win","no-go","0"
"pit-trial","231","1423889","0.0-114.0","battery-v0.2","","""event"",""trial"",""time""
""fullscreenenter"",""1"",""5570""
","
","
","""event"",""trial"",""time""
""fullscreenenter"",""1"",""5570""
","
","","","-1","","","15","7270","3638","m","elianto","#3366ff99"," ","-1","0","+10","[3044.4000000059605]","1","2","","","7270","110","9","1","win","go","1"
"pit-trial","232","1427249","0.0-115.0","battery-v0.2","","""event"",""trial"",""time""
""fullscreenenter"",""1"",""5570""
","
","
","""event"",""trial"",""time""
""fullscreenenter"",""1"",""5570""
","
","","","505.90000000596046","","","15","7270","3638","r","elianto","#3366ff99"," "," ","1","+10","[1356.5]","1","2","","","7270","111","8","1","win","go","0"
"pit-trial","233","1432103","0.0-116.0","battery-v0.2","","""event"",""trial"",""time""
""fullscreenenter"",""1"",""5570""
","
","
","""event"",""trial"",""time""
""fullscreenenter"",""1"",""5570""
","
","","","-1","","","15","7270","3638","h","elianto","#f73b6a7A"," ","-1","0","0","[]","0","2","","","7270","112","6","3","lose","go","1"
"pit-trial","234","1436957","0.0-117.0","battery-v0.2","","""event"",""trial"",""time""
""fullscreenenter"",""1"",""5570""
","
","
","""event"",""trial"",""time""
""fullscreenenter"",""1"",""5570""
","
","","","-1","","","15","7270","3638","h","elianto","#f73b6a7A"," ","-1","0","-10","[]","0","2","","","7270","113","6","3","lose","go","0"
"pit-trial","235","1440809","0.0-118.0","battery-v0.2","","""event"",""trial"",""time""
""fullscreenenter"",""1"",""5570""
","
","
","""event"",""trial"",""time""
""fullscreenenter"",""1"",""5570""
","
","","","999.2000000178814","","","15","7270","3638","z","elianto","#3366ff99","-1"," ","0","+10","[1849.800000011921]","1","2","","","7270","114","5","2","win","no-go","1"
"pit-trial","236","1444505","0.0-119.0","battery-v0.2","","""event"",""trial"",""time""
""fullscreenenter"",""1"",""5570""
","
","
","""event"",""trial"",""time""
""fullscreenenter"",""1"",""5570""
","
","","","841.9000000059605","","","15","7270","3638","m","elianto","#3366ff99"," "," ","1","+10","[1693.800000011921]","1","2","","","7270","115","9","1","win","go","0"
"pit-trial","237","1447739","0.0-120.0","battery-v0.2","","""event"",""trial"",""time""
""fullscreenenter"",""1"",""5570""
","
","
","""event"",""trial"",""time""
""fullscreenenter"",""1"",""5570""
","
","","","382.80000001192093","","","15","7270","3638","r","elianto","#3366ff99"," "," ","1","+10","[1233]","1","2","","","7270","116","8","1","win","go","0"
"pit-trial","238","1450914","0.0-121.0","battery-v0.2","","""event"",""trial"",""time""
""fullscreenenter"",""1"",""5570""
","
","
","""event"",""trial"",""time""
""fullscreenenter"",""1"",""5570""
","
","","","322.7999999821186","","","15","7270","3638","z","elianto","#3366ff99","-1"," ","0","+10","[1174]","1","2","","","7270","117","5","2","win","no-go","1"
"pit-trial","239","1454833","0.0-122.0","battery-v0.2","","""event"",""trial"",""time""
""fullscreenenter"",""1"",""5570""
","
","
","""event"",""trial"",""time""
""fullscreenenter"",""1"",""5570""
","
","","","1064.2999999821186","","","15","7270","3638","r","elianto","#3366ff99"," "," ","1","+10","[1916.199999988079]","1","2","","","7270","118","8","1","win","go","0"
"pit-trial","240","1458172","0.0-123.0","battery-v0.2","","""event"",""trial"",""time""
""fullscreenenter"",""1"",""5570""
","
","
","""event"",""trial"",""time""
""fullscreenenter"",""1"",""5570""
","
","","","484.2000000178814","","","15","7270","3638","m","elianto","#3366ff99"," "," ","1","0","[1334.7000000178814]","1","2","","","7270","119","9","1","win","go","1"
"pit-trial","241","1461409","0.0-124.0","battery-v0.2","","""event"",""trial"",""time""
""fullscreenenter"",""1"",""5570""
","
","
","""event"",""trial"",""time""
""fullscreenenter"",""1"",""5570""
","
","","","382.69999998807907","","","15","7270","3638","h","elianto","#f73b6a7A"," "," ","1","0","[1233.5]","1","2","","","7270","120","6","3","lose","go","0"
"pit-trial","242","1464666","0.0-125.0","battery-v0.2","","""event"",""trial"",""time""
""fullscreenenter"",""1"",""5570""
","
","
","""event"",""trial"",""time""
""fullscreenenter"",""1"",""5570""
","
","","","403.69999998807907","","","15","7270","3638","h","elianto","#f73b6a7A"," "," ","1","0","[1254.800000011921]","1","2","","","7270","121","6","3","lose","go","0"
"pit-trial","243","1467910","0.0-126.0","battery-v0.2","","""event"",""trial"",""time""
""fullscreenenter"",""1"",""5570""
","
","
","""event"",""trial"",""time""
""fullscreenenter"",""1"",""5570""
","
","","","389.10000002384186","","","15","7270","3638","m","elianto","#3366ff99"," "," ","1","+10","[1240.4000000059605]","1","2","","","7270","122","9","1","win","go","0"
"pit-trial","244","1471608","0.0-127.0","battery-v0.2","","""event"",""trial"",""time""
""fullscreenenter"",""1"",""5570""
","
","
","""event"",""trial"",""time""
""fullscreenenter"",""1"",""5570""
","
","","","844.8000000119209","","","15","7270","3638","y","elianto","#f73b6a7A","-1"," ","0","-10","[1695.4000000059605]","1","2","","","7270","123","7","4","lose","no-go","0"
"pit-trial","245","1475408","0.0-128.0","battery-v0.2","","""event"",""trial"",""time""
""fullscreenenter"",""1"",""5570""
","
","
","""event"",""trial"",""time""
""fullscreenenter"",""1"",""5570""
","
","","","944.6999999880791","","","15","7270","3638","r","elianto","#3366ff99"," "," ","1","+10","[1795]","1","2","","","7270","124","8","1","win","go","0"
"pit-trial","246","1479325","0.0-129.0","battery-v0.2","","""event"",""trial"",""time""
""fullscreenenter"",""1"",""5570""
","
","
","""event"",""trial"",""time""
""fullscreenenter"",""1"",""5570""
","
","","","1063.699999988079","","","15","7270","3638","y","elianto","#f73b6a7A","-1"," ","0","-10","[1915]","1","2","","","7270","125","7","4","lose","no-go","0"
"pit-trial","247","1483231","0.0-130.0","battery-v0.2","","""event"",""trial"",""time""
""fullscreenenter"",""1"",""5570""
","
","
","""event"",""trial"",""time""
""fullscreenenter"",""1"",""5570""
","
","","","1053.0999999940395","","","15","7270","3638","m","elianto","#3366ff99"," "," ","1","+10","[1903.7000000178814]","1","2","","","7270","126","9","1","win","go","0"
"pit-trial","248","1487008","0.0-131.0","battery-v0.2","","""event"",""trial"",""time""
""fullscreenenter"",""1"",""5570""
","
","
","""event"",""trial"",""time""
""fullscreenenter"",""1"",""5570""
","
","","","921.4000000059605","","","15","7270","3638","h","elianto","#f73b6a7A"," "," ","1","0","[1772.5999999940395]","1","2","","","7270","127","6","3","lose","go","0"
"pit-trial","249","1490759","0.0-132.0","battery-v0.2","","""event"",""trial"",""time""
""fullscreenenter"",""1"",""5570""
","
","
","""event"",""trial"",""time""
""fullscreenenter"",""1"",""5570""
","
","","","897","","","15","7270","3638","r","elianto","#3366ff99"," "," ","1","+10","[1749]","1","2","","","7270","128","8","1","win","go","0"
"pit-trial","250","1493974","0.0-133.0","battery-v0.2","","""event"",""trial"",""time""
""fullscreenenter"",""1"",""5570""
","
","
","""event"",""trial"",""time""
""fullscreenenter"",""1"",""5570""
","
","","","361.30000001192093","","","15","7270","3638","m","elianto","#3366ff99"," "," ","1","0","[1212.4000000059605]","1","2","","","7270","129","9","1","win","go","1"
"pit-trial","251","1497365","0.0-134.0","battery-v0.2","","""event"",""trial"",""time""
""fullscreenenter"",""1"",""5570""
","
","
","""event"",""trial"",""time""
""fullscreenenter"",""1"",""5570""
","
","","","537.7000000178814","","","15","7270","3638","y","elianto","#f73b6a7A","-1"," ","0","0","[1388.300000011921]","1","2","","","7270","130","7","4","lose","no-go","1"
"pit-trial","252","1500633","0.0-135.0","battery-v0.2","","""event"",""trial"",""time""
""fullscreenenter"",""1"",""5570""
","
","
","""event"",""trial"",""time""
""fullscreenenter"",""1"",""5570""
","
","","","414.7999999821186","","","15","7270","3638","h","elianto","#f73b6a7A"," "," ","1","-10","[1265.5]","1","2","","","7270","131","6","3","lose","go","1"
"pit-trial","253","1503909","0.0-136.0","battery-v0.2","","""event"",""trial"",""time""
""fullscreenenter"",""1"",""5570""
","
","
","""event"",""trial"",""time""
""fullscreenenter"",""1"",""5570""
","
","","","421.69999998807907","","","15","7270","3638","r","elianto","#3366ff99"," "," ","1","+10","[1272.0999999940395]","1","2","","","7270","132","8","1","win","go","0"
"pit-trial","254","1507163","0.0-137.0","battery-v0.2","","""event"",""trial"",""time""
""fullscreenenter"",""1"",""5570""
","
","
","""event"",""trial"",""time""
""fullscreenenter"",""1"",""5570""
","
","","","401.19999998807907","","","15","7270","3638","m","elianto","#3366ff99"," "," ","1","+10","[1252.5999999940395]","1","2","","","7270","133","9","1","win","go","0"
"pit-trial","255","1510461","0.0-138.0","battery-v0.2","","""event"",""trial"",""time""
""fullscreenenter"",""1"",""5570""
","
","
","""event"",""trial"",""time""
""fullscreenenter"",""1"",""5570""
","
","","","444.80000001192093","","","15","7270","3638","h","elianto","#f73b6a7A"," "," ","1","0","[1296.1000000238419]","1","2","","","7270","134","6","3","lose","go","0"
"pit-trial","256","1513848","0.0-139.0","battery-v0.2","","""event"",""trial"",""time""
""fullscreenenter"",""1"",""5570""
","
","
","""event"",""trial"",""time""
""fullscreenenter"",""1"",""5570""
","
","","","535.0999999940395","","","15","7270","3638","r","elianto","#3366ff99"," "," ","1","0","[1385.7999999821186]","1","2","","","7270","135","8","1","win","go","1"
"pit-trial","257","1518702","0.0-140.0","battery-v0.2","","""event"",""trial"",""time""
""fullscreenenter"",""1"",""5570""
","
","
","""event"",""trial"",""time""
""fullscreenenter"",""1"",""5570""
","
","","","-1","","","15","7270","3638","y","elianto","#f73b6a7A","-1","-1","1","-10","[]","0","2","","","7270","136","7","4","lose","no-go","1"
"pit-trial","258","1521898","0.0-141.0","battery-v0.2","","""event"",""trial"",""time""
""fullscreenenter"",""1"",""5570""
","
","
","""event"",""trial"",""time""
""fullscreenenter"",""1"",""5570""
","
","","","342.60000002384186","","","15","7270","3638","m","elianto","#3366ff99"," "," ","1","+10","[1192.8999999761581]","1","2","","","7270","137","9","1","win","go","0"
"pit-trial","259","1525066","0.0-142.0","battery-v0.2","","""event"",""trial"",""time""
""fullscreenenter"",""1"",""5570""
","
","
","""event"",""trial"",""time""
""fullscreenenter"",""1"",""5570""
","
","","","310.09999999403954","","","15","7270","3638","h","elianto","#f73b6a7A"," "," ","1","0","[1160.199999988079]","1","2","","","7270","138","6","3","lose","go","0"
"pit-trial","260","1528133","0.0-143.0","battery-v0.2","","""event"",""trial"",""time""
""fullscreenenter"",""1"",""5570""
","
","
","""event"",""trial"",""time""
""fullscreenenter"",""1"",""5570""
","
","","","214.19999998807907","","","15","7270","3638","y","elianto","#f73b6a7A","-1"," ","0","0","[1065.300000011921]","1","2","","","7270","139","7","4","lose","no-go","1"
"pit-trial","261","1531838","0.0-144.0","battery-v0.2","","""event"",""trial"",""time""
""fullscreenenter"",""1"",""5570""
","
","
","""event"",""trial"",""time""
""fullscreenenter"",""1"",""5570""
","
","","","851.2000000178814","","","15","7270","3638","r","elianto","#3366ff99"," "," ","1","+10","[1701.5]","1","2","","","7270","140","8","1","win","go","0"
"pit-instructions","262","2435244","0.0-145.0","battery-v0.2","","""event"",""trial"",""time""
""fullscreenenter"",""1"",""5570""
","
","
","""event"",""trial"",""time""
""fullscreenenter"",""1"",""5570""
","
","","[{""page_index"":0,""viewing_time"":893748.6000000238},{""page_index"":1,""viewing_time"":9654.5}]","903403.3000000119","","","","","","","","","","","","","","","","","","","","","","","",""
"pit-trial","263","2440102","0.0-146.0","battery-v0.2","","""event"",""trial"",""time""
""fullscreenenter"",""1"",""5570""
","
","
","""event"",""trial"",""time""
""fullscreenenter"",""1"",""5570""
","
","","","-1","","","15","7270","3638","g","elianto","#f73b6a7A"," ","-1","0","-10","[]","0","3","","","7270","141","3","3","lose","go","0"
"pit-trial","264","2443480","0.0-147.0","battery-v0.2","","""event"",""trial"",""time""
""fullscreenenter"",""1"",""5570""
","
","
","""event"",""trial"",""time""
""fullscreenenter"",""1"",""5570""
","
","","","510.5","","","15","7270","3638","l","elianto","#3366ff99"," "," ","1","+10","[1360.699999988079]","1","3","","","7270","142","1","1","win","go","0"
"pit-trial","265","2447191","0.0-148.0","battery-v0.2","","""event"",""trial"",""time""
""fullscreenenter"",""1"",""5570""
","
","
","""event"",""trial"",""time""
""fullscreenenter"",""1"",""5570""
","
","","","843.9000000059605","","","15","7270","3638","u","elianto","#f73b6a7A","-1"," ","0","-10","[1697.0999999940395]","1","3","","","7270","143","0","4","lose","no-go","0"
"pit-trial","266","2451000","0.0-149.0","battery-v0.2","","""event"",""trial"",""time""
