"trial_type","trial_index","time_elapsed","internal_node_id","task_version","subject_id","interactions","blur_events","focus_events","fullscreenenter_events","fullscreenexit_events","success","view_history","rt","responses","num_errors","age","subject","participantId","rune","rune_set","hex","correct","choice","accuracy","outcome","keys","total_keys","block","practice","value","sub","trial","stimulus","robot","valence","action","sham"
"pavlovia","0","7","0.0-0.0","battery-v0.2","","""event"",""trial"",""time""
""fullscreenenter"",""1"",""2239""
","
","
","""event"",""trial"",""time""
""fullscreenenter"",""1"",""2239""
","
","","","","","","","","","","","","","","","","","","","","","","","","","","",""
"fullscreen","1","3230","0.0-1.0","battery-v0.2","","""event"",""trial"",""time""
""fullscreenenter"",""1"",""2239""
","
","
","""event"",""trial"",""time""
""fullscreenenter"",""1"",""2239""
","
","true","","","","","","","","","","","","","","","","","","","","","","","","","",""
"pit-instructions","2","10400","0.0-2.0-0.0","battery-v0.2","","""event"",""trial"",""time""
""fullscreenenter"",""1"",""2239""
","
","
","""event"",""trial"",""time""
""fullscreenenter"",""1"",""2239""
","
","","[{""page_index"":0,""viewing_time"":7167}]","7167","","","","","","","","","","","","","","","","","","","","","","","",""
"pit-comprehension","3","15259","0.0-2.0-1.0-0.0","battery-v0.2","","""event"",""trial"",""time""
""fullscreenenter"",""1"",""2239""
","
","
","""event"",""trial"",""time""
""fullscreenenter"",""1"",""2239""
","
","","","4858","[""shark""]","0","13","8808","2290","","","","","","","","","","","","","","","","","","",""
"pit-instructions","4","17072","0.0-2.0-1.0-1.0","battery-v0.2","","""event"",""trial"",""time""
""fullscreenenter"",""1"",""2239""
","
","
","""event"",""trial"",""time""
""fullscreenenter"",""1"",""2239""
","
","","[{""page_index"":0,""viewing_time"":1800}]","1800","","","","","","","","","","","","","","","","","","","","","","","",""
"pit-comprehension","5","19402","0.0-2.0-2.0-0.0","battery-v0.2","","""event"",""trial"",""time""
""fullscreenenter"",""1"",""2239""
","
","
","""event"",""trial"",""time""
""fullscreenenter"",""1"",""2239""
","
","","","2329","[""tiger""]","0","13","8808","2290","","","","","","","","","","","","","","","","","","",""
"pit-instructions","6","21347","0.0-2.0-2.0-1.0","battery-v0.2","","""event"",""trial"",""time""
""fullscreenenter"",""1"",""2239""
","
","
","""event"",""trial"",""time""
""fullscreenenter"",""1"",""2239""
","
","","[{""page_index"":0,""viewing_time"":1943}]","1943","","","","","","","","","","","","","","","","","","","","","","","",""
"pit-instructions","7","122920","0.0-2.0-3.0","battery-v0.2","","""event"",""trial"",""time""
""fullscreenenter"",""1"",""2239""
","
","
","""event"",""trial"",""time""
""fullscreenenter"",""1"",""2239""
","
","","[{""page_index"":0,""viewing_time"":7387},{""page_index"":1,""viewing_time"":5543},{""page_index"":2,""viewing_time"":6622},{""page_index"":3,""viewing_time"":5252},{""page_index"":4,""viewing_time"":8126},{""page_index"":5,""viewing_time"":5410},{""page_index"":6,""viewing_time"":5256},{""page_index"":7,""viewing_time"":6145},{""page_index"":8,""viewing_time"":14262},{""page_index"":9,""viewing_time"":9461},{""page_index"":10,""viewing_time"":8202},{""page_index"":11,""viewing_time"":8499},{""page_index"":12,""viewing_time"":6849},{""page_index"":13,""viewing_time"":4557}]","101571","","","","","","","","","","","","","","","","","","","","","","","",""
"pit-trial","8","126460","0.0-2.0-4.0-0.0","battery-v0.2","","""event"",""trial"",""time""
""fullscreenenter"",""1"",""2239""
","
","
","""event"",""trial"",""time""
""fullscreenenter"",""1"",""2239""
","
","","","683","","","13","8808","2290","&#9784;","elianto","#FFFFF080"," "," ","1","&#10004","[1538]","1","0","0","","","","","","","",""
"pit-trial","9","130196","0.0-2.0-4.1-0.1","battery-v0.2","","""event"",""trial"",""time""
""fullscreenenter"",""1"",""2239""
","
","
","""event"",""trial"",""time""
""fullscreenenter"",""1"",""2239""
","
","","","868","","","13","8808","2290","&#9784;","elianto","#FFFFF080"," "," ","1","&#10004","[1721]","1","0","0","","","","","","","",""
"pit-trial","10","133550","0.0-2.0-4.2-0.2","battery-v0.2","","""event"",""trial"",""time""
""fullscreenenter"",""1"",""2239""
","
","
","""event"",""trial"",""time""
""fullscreenenter"",""1"",""2239""
","
","","","498","","","13","8808","2290","&#9784;","elianto","#FFFFF080"," "," ","1","&#10004","[1349]","1","0","0","","","","","","","",""
"pit-trial","11","136879","0.0-2.0-4.3-0.3","battery-v0.2","","""event"",""trial"",""time""
""fullscreenenter"",""1"",""2239""
","
","
","""event"",""trial"",""time""
""fullscreenenter"",""1"",""2239""
","
","","","466","","","13","8808","2290","&#9784;","elianto","#FFFFF080"," "," ","1","&#10004","[1320]","1","0","0","","","","","","","",""
"pit-trial","12","140162","0.0-2.0-4.4-0.4","battery-v0.2","","""event"",""trial"",""time""
""fullscreenenter"",""1"",""2239""
","
","
","""event"",""trial"",""time""
""fullscreenenter"",""1"",""2239""
","
","","","428","","","13","8808","2290","&#9784;","elianto","#FFFFF080"," "," ","1","&#10004","[1278]","1","0","0","","","","","","","",""
"pit-instructions","13","160420","0.0-2.0-5.0","battery-v0.2","","""event"",""trial"",""time""
""fullscreenenter"",""1"",""2239""
","
","
","""event"",""trial"",""time""
""fullscreenenter"",""1"",""2239""
","
","","[{""page_index"":0,""viewing_time"":5328},{""page_index"":1,""viewing_time"":5433},{""page_index"":2,""viewing_time"":4280},{""page_index"":3,""viewing_time"":5214}]","20255","","","","","","","","","","","","","","","","","","","","","","","",""
"pit-trial","14","165299","0.0-2.0-6.0-0.0","battery-v0.2","","""event"",""trial"",""time""
""fullscreenenter"",""1"",""2239""
","
","
","""event"",""trial"",""time""
""fullscreenenter"",""1"",""2239""
","
","","","-1","","","13","8808","2290","&#9854;","elianto","#FFFFF080","-1","-1","1","&#10004","[]","0","0","1","","","","","","","",""
"pit-trial","15","168664","0.0-2.0-6.1-0.1","battery-v0.2","","""event"",""trial"",""time""
""fullscreenenter"",""1"",""2239""
","
","
","""event"",""trial"",""time""
""fullscreenenter"",""1"",""2239""
","
","","","506","","","13","8808","2290","&#9854;","elianto","#FFFFF080","-1"," ","0","&#10060","[1360]","1","0","1","","","","","","","",""
"pit-trial","16","173534","0.0-2.0-6.2-0.2","battery-v0.2","","""event"",""trial"",""time""
""fullscreenenter"",""1"",""2239""
","
","
","""event"",""trial"",""time""
""fullscreenenter"",""1"",""2239""
","
","","","-1","","","13","8808","2290","&#9854;","elianto","#FFFFF080","-1","-1","1","&#10004","[]","0","0","1","","","","","","","",""
"pit-trial","17","178409","0.0-2.0-6.3-0.3","battery-v0.2","","""event"",""trial"",""time""
""fullscreenenter"",""1"",""2239""
","
","
","""event"",""trial"",""time""
""fullscreenenter"",""1"",""2239""
","
","","","-1","","","13","8808","2290","&#9854;","elianto","#FFFFF080","-1","-1","1","&#10004","[]","0","0","1","","","","","","","",""
"pit-trial","18","183281","0.0-2.0-6.4-0.4","battery-v0.2","","""event"",""trial"",""time""
""fullscreenenter"",""1"",""2239""
","
","
","""event"",""trial"",""time""
""fullscreenenter"",""1"",""2239""
","
","","","-1","","","13","8808","2290","&#9854;","elianto","#FFFFF080","-1","-1","1","&#10004","[]","0","0","1","","","","","","","",""
"pit-instructions","19","414560","0.0-2.0-7.0","battery-v0.2","","""event"",""trial"",""time""
""fullscreenenter"",""1"",""2239""
","
","
","""event"",""trial"",""time""
""fullscreenenter"",""1"",""2239""
","
","","[{""page_index"":0,""viewing_time"":7895},{""page_index"":1,""viewing_time"":119245},{""page_index"":2,""viewing_time"":5405},{""page_index"":3,""viewing_time"":5600},{""page_index"":4,""viewing_time"":5079},{""page_index"":5,""viewing_time"":5333},{""page_index"":6,""viewing_time"":4083},{""page_index"":7,""viewing_time"":8836},{""page_index"":8,""viewing_time"":6817},{""page_index"":9,""viewing_time"":6511},{""page_index"":10,""viewing_time"":8285},{""page_index"":11,""viewing_time"":4712},{""page_index"":12,""viewing_time"":6024},{""page_index"":13,""viewing_time"":6079},{""page_index"":14,""viewing_time"":6189},{""page_index"":15,""viewing_time"":6964},{""page_index"":16,""viewing_time"":12014},{""page_index"":17,""viewing_time"":6207}]","231278","","","","","","","","","","","","","","","","","","","","","","","",""
"pit-trial","20","418301","0.0-2.0-8.0-0.0","battery-v0.2","","""event"",""trial"",""time""
""fullscreenenter"",""1"",""2239""
","
","
","""event"",""trial"",""time""
""fullscreenenter"",""1"",""2239""
","
","","","870","","","13","8808","2290","&#9776;","elianto","#3366ff99"," "," ","1","+10","[1725]","1","0","1","","","","","","","",""
"pit-trial","21","421565","0.0-2.0-8.0-1.0","battery-v0.2","","""event"",""trial"",""time""
""fullscreenenter"",""1"",""2239""
","
","
","""event"",""trial"",""time""
""fullscreenenter"",""1"",""2239""
","
","","","396","","","13","8808","2290","&#9776;","elianto","#3366ff99"," "," ","1","+10","[1250]","1","0","1","","","","","","","",""
"pit-trial","22","424746","0.0-2.0-8.0-2.0","battery-v0.2","","""event"",""trial"",""time""
""fullscreenenter"",""1"",""2239""
","
","
","""event"",""trial"",""time""
""fullscreenenter"",""1"",""2239""
","
","","","318","","","13","8808","2290","&#9776;","elianto","#3366ff99"," "," ","1","+10","[1174]","1","0","1","","","","","","","",""
"pit-trial","23","427972","0.0-2.0-8.0-3.0","battery-v0.2","","""event"",""trial"",""time""
""fullscreenenter"",""1"",""2239""
","
","
","""event"",""trial"",""time""
""fullscreenenter"",""1"",""2239""
","
","","","364","","","13","8808","2290","&#9776;","elianto","#3366ff99"," "," ","1","0","[1220]","1","0","1","","","","","","","",""
"pit-trial","24","431252","0.0-2.0-8.0-4.0","battery-v0.2","","""event"",""trial"",""time""
""fullscreenenter"",""1"",""2239""
","
","
","""event"",""trial"",""time""
""fullscreenenter"",""1"",""2239""
","
","","","425","","","13","8808","2290","&#9776;","elianto","#3366ff99"," "," ","1","+10","[1278]","1","0","1","","","","","","","",""
"pit-trial","25","434399","0.0-2.0-8.1-0.1","battery-v0.2","","""event"",""trial"",""time""
""fullscreenenter"",""1"",""2239""
","
","
","""event"",""trial"",""time""
""fullscreenenter"",""1"",""2239""
","
","","","282","","","13","8808","2290","&#9776;","elianto","#3366ff99"," "," ","1","+10","[1132]","1","0","1","","","","","","","",""
"pit-trial","26","437410","0.0-2.0-8.1-1.1","battery-v0.2","","""event"",""trial"",""time""
""fullscreenenter"",""1"",""2239""
","
","
","""event"",""trial"",""time""
""fullscreenenter"",""1"",""2239""
","
","","","148","","","13","8808","2290","&#9776;","elianto","#3366ff99"," "," ","1","+10","[391,998]","2","0","1","","","","","","","",""
"pit-trial","27","440603","0.0-2.0-8.1-2.1","battery-v0.2","","""event"",""trial"",""time""
""fullscreenenter"",""1"",""2239""
","
","
","""event"",""trial"",""time""
""fullscreenenter"",""1"",""2239""
","
","","","333","","","13","8808","2290","&#9776;","elianto","#3366ff99"," "," ","1","+10","[1184]","1","0","1","","","","","","","",""
"pit-trial","28","443790","0.0-2.0-8.1-3.1","battery-v0.2","","""event"",""trial"",""time""
""fullscreenenter"",""1"",""2239""
","
","
","""event"",""trial"",""time""
""fullscreenenter"",""1"",""2239""
","
","","","323","","","13","8808","2290","&#9776;","elianto","#3366ff99"," "," ","1","0","[1174]","1","0","1","","","","","","","",""
"pit-trial","29","447122","0.0-2.0-8.1-4.1","battery-v0.2","","""event"",""trial"",""time""
""fullscreenenter"",""1"",""2239""
","
","
","""event"",""trial"",""time""
""fullscreenenter"",""1"",""2239""
","
","","","478","","","13","8808","2290","&#9776;","elianto","#3366ff99"," "," ","1","+10","[1331]","1","0","1","","","","","","","",""
"pit-trial","30","450460","0.0-2.0-8.2-0.2","battery-v0.2","","""event"",""trial"",""time""
""fullscreenenter"",""1"",""2239""
","
","
","""event"",""trial"",""time""
""fullscreenenter"",""1"",""2239""
","
","","","484","","","13","8808","2290","&#9776;","elianto","#3366ff99"," "," ","1","+10","[1335]","1","0","1","","","","","","","",""
"pit-trial","31","453807","0.0-2.0-8.2-1.2","battery-v0.2","","""event"",""trial"",""time""
""fullscreenenter"",""1"",""2239""
","
","
","""event"",""trial"",""time""
""fullscreenenter"",""1"",""2239""
","
","","","496","","","13","8808","2290","&#9776;","elianto","#3366ff99"," "," ","1","+10","[1346]","1","0","1","","","","","","","",""
"pit-trial","32","457871","0.0-2.0-8.2-2.2","battery-v0.2","","""event"",""trial"",""time""
""fullscreenenter"",""1"",""2239""
","
","
","""event"",""trial"",""time""
""fullscreenenter"",""1"",""2239""
","
","","","1211","","","13","8808","2290","&#9776;","elianto","#3366ff99"," "," ","1","+10","[801,2062,2198]","3","0","1","","","","","","","",""
"pit-trial","33","461043","0.0-2.0-8.2-3.2","battery-v0.2","","""event"",""trial"",""time""
""fullscreenenter"",""1"",""2239""
","
","
","""event"",""trial"",""time""
""fullscreenenter"",""1"",""2239""
","
","","","319","","","13","8808","2290","&#9776;","elianto","#3366ff99"," "," ","1","0","[1170]","1","0","1","","","","","","","",""
"pit-trial","34","465031","0.0-2.0-8.2-4.2","battery-v0.2","","""event"",""trial"",""time""
""fullscreenenter"",""1"",""2239""
","
","
","""event"",""trial"",""time""
""fullscreenenter"",""1"",""2239""
","
","","","1136","","","13","8808","2290","&#9776;","elianto","#3366ff99"," "," ","1","+10","[1988]","1","0","1","","","","","","","",""
"call-function","35","465032","0.0-2.0-9.0","battery-v0.2","","""event"",""trial"",""time""
""fullscreenenter"",""1"",""2239""
","
","
","""event"",""trial"",""time""
""fullscreenenter"",""1"",""2239""
","
","","","","","","","","","","","","","","","","","","","","","","","","","","",""
"pit-instructions","36","520682","0.0-2.0-10.0","battery-v0.2","","""event"",""trial"",""time""
""fullscreenenter"",""1"",""2239""
","
","
","""event"",""trial"",""time""
""fullscreenenter"",""1"",""2239""
","
","","[{""page_index"":0,""viewing_time"":6454},{""page_index"":1,""viewing_time"":17966},{""page_index"":2,""viewing_time"":9235},{""page_index"":3,""viewing_time"":13622},{""page_index"":4,""viewing_time"":8371}]","55649","","","","","","","","","","","","","","","","","","","","","","","",""
"pit-trial","37","524174","0.0-2.0-11.0-0.0","battery-v0.2","","""event"",""trial"",""time""
""fullscreenenter"",""1"",""2239""
","
","
","""event"",""trial"",""time""
""fullscreenenter"",""1"",""2239""
","
","","","630","","","13","8808","2290","&#9761;","elianto","#3366ff99","-1"," ","0","0","[1483]","1","0","2","","","","","","","",""
"pit-trial","38","527229","0.0-2.0-11.0-1.0","battery-v0.2","","""event"",""trial"",""time""
""fullscreenenter"",""1"",""2239""
","
","
","""event"",""trial"",""time""
""fullscreenenter"",""1"",""2239""
","
","","","199","","","13","8808","2290","&#9761;","elianto","#3366ff99","-1"," ","0","0","[1051]","1","0","2","","","","","","","",""
"pit-trial","39","532094","0.0-2.0-11.0-2.0","battery-v0.2","","""event"",""trial"",""time""
""fullscreenenter"",""1"",""2239""
","
","
","""event"",""trial"",""time""
""fullscreenenter"",""1"",""2239""
","
","","","-1","","","13","8808","2290","&#9761;","elianto","#3366ff99","-1","-1","1","+10","[]","0","0","2","","","","","","","",""
"pit-trial","40","536968","0.0-2.0-11.0-3.0","battery-v0.2","","""event"",""trial"",""time""
""fullscreenenter"",""1"",""2239""
","
","
","""event"",""trial"",""time""
""fullscreenenter"",""1"",""2239""
","
","","","-1","","","13","8808","2290","&#9761;","elianto","#3366ff99","-1","-1","1","0","[]","0","0","2","","","","","","","",""
"pit-trial","41","541841","0.0-2.0-11.0-4.0","battery-v0.2","","""event"",""trial"",""time""
""fullscreenenter"",""1"",""2239""
","
","
","""event"",""trial"",""time""
""fullscreenenter"",""1"",""2239""
","
","","","-1","","","13","8808","2290","&#9761;","elianto","#3366ff99","-1","-1","1","+10","[]","0","0","2","","","","","","","",""
"pit-trial","42","546714","0.0-2.0-11.1-0.1","battery-v0.2","","""event"",""trial"",""time""
""fullscreenenter"",""1"",""2239""
","
","
","""event"",""trial"",""time""
""fullscreenenter"",""1"",""2239""
","
","","","-1","","","13","8808","2290","&#9761;","elianto","#3366ff99","-1","-1","1","+10","[]","0","0","2","","","","","","","",""
"pit-trial","43","551570","0.0-2.0-11.1-1.1","battery-v0.2","","""event"",""trial"",""time""
""fullscreenenter"",""1"",""2239""
","
","
","""event"",""trial"",""time""
""fullscreenenter"",""1"",""2239""
","
","","","-1","","","13","8808","2290","&#9761;","elianto","#3366ff99","-1","-1","1","+10","[]","0","0","2","","","","","","","",""
"pit-trial","44","556423","0.0-2.0-11.1-2.1","battery-v0.2","","""event"",""trial"",""time""
""fullscreenenter"",""1"",""2239""
","
","
","""event"",""trial"",""time""
""fullscreenenter"",""1"",""2239""
","
","","","-1","","","13","8808","2290","&#9761;","elianto","#3366ff99","-1","-1","1","+10","[]","0","0","2","","","","","","","",""
"pit-trial","45","561281","0.0-2.0-11.1-3.1","battery-v0.2","","""event"",""trial"",""time""
""fullscreenenter"",""1"",""2239""
","
","
","""event"",""trial"",""time""
""fullscreenenter"",""1"",""2239""
","
","","","-1","","","13","8808","2290","&#9761;","elianto","#3366ff99","-1","-1","1","0","[]","0","0","2","","","","","","","",""
"pit-trial","46","566133","0.0-2.0-11.1-4.1","battery-v0.2","","""event"",""trial"",""time""
""fullscreenenter"",""1"",""2239""
","
","
","""event"",""trial"",""time""
""fullscreenenter"",""1"",""2239""
","
","","","-1","","","13","8808","2290","&#9761;","elianto","#3366ff99","-1","-1","1","+10","[]","0","0","2","","","","","","","",""
"pit-trial","47","570986","0.0-2.0-11.2-0.2","battery-v0.2","","""event"",""trial"",""time""
""fullscreenenter"",""1"",""2239""
","
","
","""event"",""trial"",""time""
""fullscreenenter"",""1"",""2239""
","
","","","-1","","","13","8808","2290","&#9761;","elianto","#3366ff99","-1","-1","1","+10","[]","0","0","2","","","","","","","",""
"pit-trial","48","575845","0.0-2.0-11.2-1.2","battery-v0.2","","""event"",""trial"",""time""
""fullscreenenter"",""1"",""2239""
","
","
","""event"",""trial"",""time""
""fullscreenenter"",""1"",""2239""
","
","","","-1","","","13","8808","2290","&#9761;","elianto","#3366ff99","-1","-1","1","+10","[]","0","0","2","","","","","","","",""
"pit-trial","49","580696","0.0-2.0-11.2-2.2","battery-v0.2","","""event"",""trial"",""time""
""fullscreenenter"",""1"",""2239""
","
","
","""event"",""trial"",""time""
""fullscreenenter"",""1"",""2239""
","
","","","-1","","","13","8808","2290","&#9761;","elianto","#3366ff99","-1","-1","1","+10","[]","0","0","2","","","","","","","",""
"pit-trial","50","585549","0.0-2.0-11.2-3.2","battery-v0.2","","""event"",""trial"",""time""
""fullscreenenter"",""1"",""2239""
""fullscreenexit"",""51"",""586767""
""blur"",""51"",""589631""
","""event"",""trial"",""time""
""blur"",""51"",""589631""
","
","""event"",""trial"",""time""
""fullscreenenter"",""1"",""2239""
","""event"",""trial"",""time""
""fullscreenexit"",""51"",""586767""
","","","-1","","","13","8808","2290","&#9761;","elianto","#3366ff99","-1","-1","1","0","[]","0","0","2","","","","","","","",""
"pit-trial","51","590769","0.0-2.0-11.2-4.2","battery-v0.2","","""event"",""trial"",""time""
""fullscreenenter"",""1"",""2239""
""fullscreenexit"",""51"",""586767""
""blur"",""51"",""589631""
""focus"",""52"",""595237""
","""event"",""trial"",""time""
""blur"",""51"",""589631""
","""event"",""trial"",""time""
""focus"",""52"",""595237""
","""event"",""trial"",""time""
""fullscreenenter"",""1"",""2239""
","""event"",""trial"",""time""
""fullscreenexit"",""51"",""586767""
","","","-1","","","13","8808","2290","&#9761;","elianto","#3366ff99","-1","-1","1","+10","[]","0","0","2","","","","","","","",""
"pit-trial","52","595769","0.0-2.0-11.3-0.3","battery-v0.2","","""event"",""trial"",""time""
""fullscreenenter"",""1"",""2239""
""fullscreenexit"",""51"",""586767""
""blur"",""51"",""589631""
""focus"",""52"",""595237""
""blur"",""53"",""599470""
","""event"",""trial"",""time""
""blur"",""51"",""589631""
""blur"",""53"",""599470""
","""event"",""trial"",""time""
""focus"",""52"",""595237""
","""event"",""trial"",""time""
""fullscreenenter"",""1"",""2239""
","""event"",""trial"",""time""
""fullscreenexit"",""51"",""586767""
","","","-1","","","13","8808","2290","&#9761;","elianto","#3366ff99","-1","-1","1","+10","[]","0","0","2","","","","","","","",""
"pit-trial","53","600781","0.0-2.0-11.3-1.3","battery-v0.2","","""event"",""trial"",""time""
""fullscreenenter"",""1"",""2239""
""fullscreenexit"",""51"",""586767""
""blur"",""51"",""589631""
""focus"",""52"",""595237""
""blur"",""53"",""599470""
""focus"",""54"",""601347""
","""event"",""trial"",""time""
""blur"",""51"",""589631""
""blur"",""53"",""599470""
","""event"",""trial"",""time""
""focus"",""52"",""595237""
""focus"",""54"",""601347""
","""event"",""trial"",""time""
""fullscreenenter"",""1"",""2239""
","""event"",""trial"",""time""
""fullscreenexit"",""51"",""586767""
","","","-1","","","13","8808","2290","&#9761;","elianto","#3366ff99","-1","-1","1","+10","[]","0","0","2","","","","","","","",""
"pit-trial","54","605649","0.0-2.0-11.3-2.3","battery-v0.2","","""event"",""trial"",""time""
""fullscreenenter"",""1"",""2239""
""fullscreenexit"",""51"",""586767""
""blur"",""51"",""589631""
""focus"",""52"",""595237""
""blur"",""53"",""599470""
""focus"",""54"",""601347""
","""event"",""trial"",""time""
""blur"",""51"",""589631""
""blur"",""53"",""599470""
","""event"",""trial"",""time""
""focus"",""52"",""595237""
""focus"",""54"",""601347""
","""event"",""trial"",""time""
""fullscreenenter"",""1"",""2239""
","""event"",""trial"",""time""
""fullscreenexit"",""51"",""586767""
","","","-1","","","13","8808","2290","&#9761;","elianto","#3366ff99","-1","-1","1","+10","[]","0","0","2","","","","","","","",""
"pit-trial","55","610502","0.0-2.0-11.3-3.3","battery-v0.2","","""event"",""trial"",""time""
""fullscreenenter"",""1"",""2239""
""fullscreenexit"",""51"",""586767""
""blur"",""51"",""589631""
""focus"",""52"",""595237""
""blur"",""53"",""599470""
""focus"",""54"",""601347""
","""event"",""trial"",""time""
""blur"",""51"",""589631""
""blur"",""53"",""599470""
","""event"",""trial"",""time""
""focus"",""52"",""595237""
""focus"",""54"",""601347""
","""event"",""trial"",""time""
""fullscreenenter"",""1"",""2239""
","""event"",""trial"",""time""
""fullscreenexit"",""51"",""586767""
","","","-1","","","13","8808","2290","&#9761;","elianto","#3366ff99","-1","-1","1","0","[]","0","0","2","","","","","","","",""
"pit-trial","56","615355","0.0-2.0-11.3-4.3","battery-v0.2","","""event"",""trial"",""time""
""fullscreenenter"",""1"",""2239""
""fullscreenexit"",""51"",""586767""
""blur"",""51"",""589631""
""focus"",""52"",""595237""
""blur"",""53"",""599470""
""focus"",""54"",""601347""
","""event"",""trial"",""time""
""blur"",""51"",""589631""
""blur"",""53"",""599470""
","""event"",""trial"",""time""
""focus"",""52"",""595237""
""focus"",""54"",""601347""
","""event"",""trial"",""time""
""fullscreenenter"",""1"",""2239""
","""event"",""trial"",""time""
""fullscreenexit"",""51"",""586767""
","","","-1","","","13","8808","2290","&#9761;","elianto","#3366ff99","-1","-1","1","+10","[]","0","0","2","","","","","","","",""
"call-function","57","615356","0.0-2.0-12.0","battery-v0.2","","""event"",""trial"",""time""
""fullscreenenter"",""1"",""2239""
""fullscreenexit"",""51"",""586767""
""blur"",""51"",""589631""
""focus"",""52"",""595237""
""blur"",""53"",""599470""
""focus"",""54"",""601347""
""blur"",""58"",""629140""
""focus"",""58"",""791087""
","""event"",""trial"",""time""
""blur"",""51"",""589631""
""blur"",""53"",""599470""
""blur"",""58"",""629140""
","""event"",""trial"",""time""
""focus"",""52"",""595237""
""focus"",""54"",""601347""
""focus"",""58"",""791087""
","""event"",""trial"",""time""
""fullscreenenter"",""1"",""2239""
","""event"",""trial"",""time""
""fullscreenexit"",""51"",""586767""
","","","","","","","","","","","","","","","","","","","","","","","","","","",""
"pit-instructions","58","812031","0.0-2.0-13.0","battery-v0.2","","""event"",""trial"",""time""
""fullscreenenter"",""1"",""2239""
""fullscreenexit"",""51"",""586767""
""blur"",""51"",""589631""
""focus"",""52"",""595237""
""blur"",""53"",""599470""
""focus"",""54"",""601347""
""blur"",""58"",""629140""
""focus"",""58"",""791087""
","""event"",""trial"",""time""
""blur"",""51"",""589631""
""blur"",""53"",""599470""
""blur"",""58"",""629140""
","""event"",""trial"",""time""
""focus"",""52"",""595237""
""focus"",""54"",""601347""
""focus"",""58"",""791087""
","""event"",""trial"",""time""
""fullscreenenter"",""1"",""2239""
","""event"",""trial"",""time""
""fullscreenexit"",""51"",""586767""
","","[{""page_index"":0,""viewing_time"":8487},{""page_index"":1,""viewing_time"":168434},{""page_index"":2,""viewing_time"":3050},{""page_index"":3,""viewing_time"":11759},{""page_index"":4,""viewing_time"":4944}]","196674","","","","","","","","","","","","","","","","","","","","","","","",""
"pit-trial","59","815842","0.0-2.0-14.0-0.0","battery-v0.2","","""event"",""trial"",""time""
""fullscreenenter"",""1"",""2239""
""fullscreenexit"",""51"",""586767""
""blur"",""51"",""589631""
""focus"",""52"",""595237""
""blur"",""53"",""599470""
""focus"",""54"",""601347""
""blur"",""58"",""629140""
""focus"",""58"",""791087""
","""event"",""trial"",""time""
""blur"",""51"",""589631""
""blur"",""53"",""599470""
""blur"",""58"",""629140""
","""event"",""trial"",""time""
""focus"",""52"",""595237""
""focus"",""54"",""601347""
""focus"",""58"",""791087""
","""event"",""trial"",""time""
""fullscreenenter"",""1"",""2239""
","""event"",""trial"",""time""
""fullscreenexit"",""51"",""586767""
","","","941","","","13","8808","2290","&#9826;","elianto","#f73b6a7A","-1"," ","0","-10","[1794]","1","0","3","","","","","","","",""
"pit-trial","60","819036","0.0-2.0-14.0-1.0","battery-v0.2","","""event"",""trial"",""time""
""fullscreenenter"",""1"",""2239""
""fullscreenexit"",""51"",""586767""
""blur"",""51"",""589631""
""focus"",""52"",""595237""
""blur"",""53"",""599470""
""focus"",""54"",""601347""
""blur"",""58"",""629140""
""focus"",""58"",""791087""
","""event"",""trial"",""time""
""blur"",""51"",""589631""
""blur"",""53"",""599470""
""blur"",""58"",""629140""
","""event"",""trial"",""time""
""focus"",""52"",""595237""
""focus"",""54"",""601347""
""focus"",""58"",""791087""
","""event"",""trial"",""time""
""fullscreenenter"",""1"",""2239""
","""event"",""trial"",""time""
""fullscreenexit"",""51"",""586767""
","","","338","","","13","8808","2290","&#9826;","elianto","#f73b6a7A","-1"," ","0","-10","[1191]","1","0","3","","","","","","","",""
"pit-trial","61","822173","0.0-2.0-14.0-2.0","battery-v0.2","","""event"",""trial"",""time""
""fullscreenenter"",""1"",""2239""
""fullscreenexit"",""51"",""586767""
""blur"",""51"",""589631""
""focus"",""52"",""595237""
""blur"",""53"",""599470""
""focus"",""54"",""601347""
""blur"",""58"",""629140""
""focus"",""58"",""791087""
","""event"",""trial"",""time""
""blur"",""51"",""589631""
""blur"",""53"",""599470""
""blur"",""58"",""629140""
","""event"",""trial"",""time""
""focus"",""52"",""595237""
""focus"",""54"",""601347""
""focus"",""58"",""791087""
","""event"",""trial"",""time""
""fullscreenenter"",""1"",""2239""
","""event"",""trial"",""time""
""fullscreenexit"",""51"",""586767""
","","","280","","","13","8808","2290","&#9826;","elianto","#f73b6a7A","-1"," ","0","-10","[1134]","1","0","3","","","","","","","",""
"pit-trial","62","827047","0.0-2.0-14.0-3.0","battery-v0.2","","""event"",""trial"",""time""
""fullscreenenter"",""1"",""2239""
""fullscreenexit"",""51"",""586767""
""blur"",""51"",""589631""
""focus"",""52"",""595237""
""blur"",""53"",""599470""
""focus"",""54"",""601347""
""blur"",""58"",""629140""
""focus"",""58"",""791087""
","""event"",""trial"",""time""
""blur"",""51"",""589631""
""blur"",""53"",""599470""
""blur"",""58"",""629140""
","""event"",""trial"",""time""
""focus"",""52"",""595237""
""focus"",""54"",""601347""
""focus"",""58"",""791087""
","""event"",""trial"",""time""
""fullscreenenter"",""1"",""2239""
","""event"",""trial"",""time""
""fullscreenexit"",""51"",""586767""
","","","-1","","","13","8808","2290","&#9826;","elianto","#f73b6a7A","-1","-1","1","-10","[]","0","0","3","","","","","","","",""
"pit-trial","63","831913","0.0-2.0-14.0-4.0","battery-v0.2","","""event"",""trial"",""time""
""fullscreenenter"",""1"",""2239""
""fullscreenexit"",""51"",""586767""
""blur"",""51"",""589631""
""focus"",""52"",""595237""
""blur"",""53"",""599470""
""focus"",""54"",""601347""
""blur"",""58"",""629140""
""focus"",""58"",""791087""
","""event"",""trial"",""time""
""blur"",""51"",""589631""
""blur"",""53"",""599470""
""blur"",""58"",""629140""
","""event"",""trial"",""time""
""focus"",""52"",""595237""
""focus"",""54"",""601347""
""focus"",""58"",""791087""
","""event"",""trial"",""time""
""fullscreenenter"",""1"",""2239""
","""event"",""trial"",""time""
""fullscreenexit"",""51"",""586767""
","","","-1","","","13","8808","2290","&#9826;","elianto","#f73b6a7A","-1","-1","1","0","[]","0","0","3","","","","","","","",""
"pit-trial","64","836777","0.0-2.0-14.1-0.1","battery-v0.2","","""event"",""trial"",""time""
""fullscreenenter"",""1"",""2239""
""fullscreenexit"",""51"",""586767""
""blur"",""51"",""589631""
""focus"",""52"",""595237""
""blur"",""53"",""599470""
""focus"",""54"",""601347""
""blur"",""58"",""629140""
""focus"",""58"",""791087""
","""event"",""trial"",""time""
""blur"",""51"",""589631""
""blur"",""53"",""599470""
""blur"",""58"",""629140""
","""event"",""trial"",""time""
""focus"",""52"",""595237""
""focus"",""54"",""601347""
""focus"",""58"",""791087""
","""event"",""trial"",""time""
""fullscreenenter"",""1"",""2239""
","""event"",""trial"",""time""
""fullscreenexit"",""51"",""586767""
","","","-1","","","13","8808","2290","&#9826;","elianto","#f73b6a7A","-1","-1","1","0","[]","0","0","3","","","","","","","",""
"pit-trial","65","841653","0.0-2.0-14.1-1.1","battery-v0.2","","""event"",""trial"",""time""
""fullscreenenter"",""1"",""2239""
""fullscreenexit"",""51"",""586767""
""blur"",""51"",""589631""
""focus"",""52"",""595237""
""blur"",""53"",""599470""
""focus"",""54"",""601347""
""blur"",""58"",""629140""
""focus"",""58"",""791087""
","""event"",""trial"",""time""
""blur"",""51"",""589631""
""blur"",""53"",""599470""
""blur"",""58"",""629140""
","""event"",""trial"",""time""
""focus"",""52"",""595237""
""focus"",""54"",""601347""
""focus"",""58"",""791087""
","""event"",""trial"",""time""
""fullscreenenter"",""1"",""2239""
","""event"",""trial"",""time""
""fullscreenexit"",""51"",""586767""
","","","-1","","","13","8808","2290","&#9826;","elianto","#f73b6a7A","-1","-1","1","0","[]","0","0","3","","","","","","","",""
"pit-trial","66","846507","0.0-2.0-14.1-2.1","battery-v0.2","","""event"",""trial"",""time""
""fullscreenenter"",""1"",""2239""
""fullscreenexit"",""51"",""586767""
""blur"",""51"",""589631""
""focus"",""52"",""595237""
""blur"",""53"",""599470""
""focus"",""54"",""601347""
""blur"",""58"",""629140""
""focus"",""58"",""791087""
","""event"",""trial"",""time""
""blur"",""51"",""589631""
""blur"",""53"",""599470""
""blur"",""58"",""629140""
","""event"",""trial"",""time""
""focus"",""52"",""595237""
""focus"",""54"",""601347""
""focus"",""58"",""791087""
","""event"",""trial"",""time""
""fullscreenenter"",""1"",""2239""
","""event"",""trial"",""time""
""fullscreenexit"",""51"",""586767""
","","","-1","","","13","8808","2290","&#9826;","elianto","#f73b6a7A","-1","-1","1","0","[]","0","0","3","","","","","","","",""
"pit-trial","67","851359","0.0-2.0-14.1-3.1","battery-v0.2","","""event"",""trial"",""time""
""fullscreenenter"",""1"",""2239""
""fullscreenexit"",""51"",""586767""
""blur"",""51"",""589631""
""focus"",""52"",""595237""
""blur"",""53"",""599470""
""focus"",""54"",""601347""
""blur"",""58"",""629140""
""focus"",""58"",""791087""
","""event"",""trial"",""time""
""blur"",""51"",""589631""
""blur"",""53"",""599470""
""blur"",""58"",""629140""
","""event"",""trial"",""time""
""focus"",""52"",""595237""
""focus"",""54"",""601347""
""focus"",""58"",""791087""
","""event"",""trial"",""time""
""fullscreenenter"",""1"",""2239""
","""event"",""trial"",""time""
""fullscreenexit"",""51"",""586767""
","","","-1","","","13","8808","2290","&#9826;","elianto","#f73b6a7A","-1","-1","1","-10","[]","0","0","3","","","","","","","",""
"pit-trial","68","856211","0.0-2.0-14.1-4.1","battery-v0.2","","""event"",""trial"",""time""
""fullscreenenter"",""1"",""2239""
""fullscreenexit"",""51"",""586767""
""blur"",""51"",""589631""
""focus"",""52"",""595237""
""blur"",""53"",""599470""
""focus"",""54"",""601347""
""blur"",""58"",""629140""
""focus"",""58"",""791087""
","""event"",""trial"",""time""
""blur"",""51"",""589631""
""blur"",""53"",""599470""
""blur"",""58"",""629140""
","""event"",""trial"",""time""
""focus"",""52"",""595237""
""focus"",""54"",""601347""
""focus"",""58"",""791087""
","""event"",""trial"",""time""
""fullscreenenter"",""1"",""2239""
","""event"",""trial"",""time""
""fullscreenexit"",""51"",""586767""
","","","-1","","","13","8808","2290","&#9826;","elianto","#f73b6a7A","-1","-1","1","0","[]","0","0","3","","","","","","","",""
"pit-trial","69","861065","0.0-2.0-14.2-0.2","battery-v0.2","","""event"",""trial"",""time""
""fullscreenenter"",""1"",""2239""
""fullscreenexit"",""51"",""586767""
""blur"",""51"",""589631""
""focus"",""52"",""595237""
""blur"",""53"",""599470""
""focus"",""54"",""601347""
""blur"",""58"",""629140""
""focus"",""58"",""791087""
""blur"",""70"",""863559""
","""event"",""trial"",""time""
""blur"",""51"",""589631""
""blur"",""53"",""599470""
""blur"",""58"",""629140""
""blur"",""70"",""863559""
","""event"",""trial"",""time""
""focus"",""52"",""595237""
""focus"",""54"",""601347""
""focus"",""58"",""791087""
","""event"",""trial"",""time""
""fullscreenenter"",""1"",""2239""
","""event"",""trial"",""time""
""fullscreenexit"",""51"",""586767""
","","","-1","","","13","8808","2290","&#9826;","elianto","#f73b6a7A","-1","-1","1","0","[]","0","0","3","","","","","","","",""
"pit-trial","70","866768","0.0-2.0-14.2-1.2","battery-v0.2","","""event"",""trial"",""time""
""fullscreenenter"",""1"",""2239""
""fullscreenexit"",""51"",""586767""
""blur"",""51"",""589631""
""focus"",""52"",""595237""
""blur"",""53"",""599470""
""focus"",""54"",""601347""
""blur"",""58"",""629140""
""focus"",""58"",""791087""
""blur"",""70"",""863559""
","""event"",""trial"",""time""
""blur"",""51"",""589631""
""blur"",""53"",""599470""
""blur"",""58"",""629140""
""blur"",""70"",""863559""
","""event"",""trial"",""time""
""focus"",""52"",""595237""
""focus"",""54"",""601347""
""focus"",""58"",""791087""
","""event"",""trial"",""time""
""fullscreenenter"",""1"",""2239""
","""event"",""trial"",""time""
""fullscreenexit"",""51"",""586767""
","","","-1","","","13","8808","2290","&#9826;","elianto","#f73b6a7A","-1","-1","1","0","[]","0","0","3","","","","","","","",""
"pit-trial","71","871621","0.0-2.0-14.2-2.2","battery-v0.2","","""event"",""trial"",""time""
""fullscreenenter"",""1"",""2239""
""fullscreenexit"",""51"",""586767""
""blur"",""51"",""589631""
""focus"",""52"",""595237""
""blur"",""53"",""599470""
""focus"",""54"",""601347""
""blur"",""58"",""629140""
""focus"",""58"",""791087""
""blur"",""70"",""863559""
","""event"",""trial"",""time""
""blur"",""51"",""589631""
""blur"",""53"",""599470""
""blur"",""58"",""629140""
""blur"",""70"",""863559""
","""event"",""trial"",""time""
""focus"",""52"",""595237""
""focus"",""54"",""601347""
""focus"",""58"",""791087""
","""event"",""trial"",""time""
""fullscreenenter"",""1"",""2239""
","""event"",""trial"",""time""
""fullscreenexit"",""51"",""586767""
","","","-1","","","13","8808","2290","&#9826;","elianto","#f73b6a7A","-1","-1","1","0","[]","0","0","3","","","","","","","",""
"pit-trial","72","876474","0.0-2.0-14.2-3.2","battery-v0.2","","""event"",""trial"",""time""
""fullscreenenter"",""1"",""2239""
""fullscreenexit"",""51"",""586767""
""blur"",""51"",""589631""
""focus"",""52"",""595237""
""blur"",""53"",""599470""
""focus"",""54"",""601347""
""blur"",""58"",""629140""
""focus"",""58"",""791087""
""blur"",""70"",""863559""
","""event"",""trial"",""time""
""blur"",""51"",""589631""
""blur"",""53"",""599470""
""blur"",""58"",""629140""
""blur"",""70"",""863559""
","""event"",""trial"",""time""
""focus"",""52"",""595237""
""focus"",""54"",""601347""
""focus"",""58"",""791087""
","""event"",""trial"",""time""
""fullscreenenter"",""1"",""2239""
","""event"",""trial"",""time""
""fullscreenexit"",""51"",""586767""
","","","-1","","","13","8808","2290","&#9826;","elianto","#f73b6a7A","-1","-1","1","-10","[]","0","0","3","","","","","","","",""
"pit-trial","73","881327","0.0-2.0-14.2-4.2","battery-v0.2","","""event"",""trial"",""time""
""fullscreenenter"",""1"",""2239""
""fullscreenexit"",""51"",""586767""
""blur"",""51"",""589631""
""focus"",""52"",""595237""
""blur"",""53"",""599470""
""focus"",""54"",""601347""
""blur"",""58"",""629140""
""focus"",""58"",""791087""
""blur"",""70"",""863559""
","""event"",""trial"",""time""
""blur"",""51"",""589631""
""blur"",""53"",""599470""
""blur"",""58"",""629140""
""blur"",""70"",""863559""
","""event"",""trial"",""time""
""focus"",""52"",""595237""
""focus"",""54"",""601347""
""focus"",""58"",""791087""
","""event"",""trial"",""time""
""fullscreenenter"",""1"",""2239""
","""event"",""trial"",""time""
""fullscreenexit"",""51"",""586767""
","","","-1","","","13","8808","2290","&#9826;","elianto","#f73b6a7A","-1","-1","1","0","[]","0","0","3","","","","","","","",""
"pit-trial","74","886182","0.0-2.0-14.3-0.3","battery-v0.2","","""event"",""trial"",""time""
""fullscreenenter"",""1"",""2239""
""fullscreenexit"",""51"",""586767""
""blur"",""51"",""589631""
""focus"",""52"",""595237""
""blur"",""53"",""599470""
""focus"",""54"",""601347""
""blur"",""58"",""629140""
""focus"",""58"",""791087""
""blur"",""70"",""863559""
","""event"",""trial"",""time""
""blur"",""51"",""589631""
""blur"",""53"",""599470""
""blur"",""58"",""629140""
""blur"",""70"",""863559""
","""event"",""trial"",""time""
""focus"",""52"",""595237""
""focus"",""54"",""601347""
""focus"",""58"",""791087""
","""event"",""trial"",""time""
""fullscreenenter"",""1"",""2239""
","""event"",""trial"",""time""
""fullscreenexit"",""51"",""586767""
","","","-1","","","13","8808","2290","&#9826;","elianto","#f73b6a7A","-1","-1","1","0","[]","0","0","3","","","","","","","",""
"pit-trial","75","891035","0.0-2.0-14.3-1.3","battery-v0.2","","""event"",""trial"",""time""
""fullscreenenter"",""1"",""2239""
""fullscreenexit"",""51"",""586767""
""blur"",""51"",""589631""
""focus"",""52"",""595237""
""blur"",""53"",""599470""
""focus"",""54"",""601347""
""blur"",""58"",""629140""
""focus"",""58"",""791087""
""blur"",""70"",""863559""
","""event"",""trial"",""time""
""blur"",""51"",""589631""
""blur"",""53"",""599470""
""blur"",""58"",""629140""
""blur"",""70"",""863559""
","""event"",""trial"",""time""
""focus"",""52"",""595237""
""focus"",""54"",""601347""
""focus"",""58"",""791087""
","""event"",""trial"",""time""
""fullscreenenter"",""1"",""2239""
","""event"",""trial"",""time""
""fullscreenexit"",""51"",""586767""
","","","-1","","","13","8808","2290","&#9826;","elianto","#f73b6a7A","-1","-1","1","0","[]","0","0","3","","","","","","","",""
"pit-trial","76","895888","0.0-2.0-14.3-2.3","battery-v0.2","","""event"",""trial"",""time""
""fullscreenenter"",""1"",""2239""
""fullscreenexit"",""51"",""586767""
""blur"",""51"",""589631""
""focus"",""52"",""595237""
""blur"",""53"",""599470""
""focus"",""54"",""601347""
""blur"",""58"",""629140""
""focus"",""58"",""791087""
""blur"",""70"",""863559""
","""event"",""trial"",""time""
""blur"",""51"",""589631""
""blur"",""53"",""599470""
""blur"",""58"",""629140""
""blur"",""70"",""863559""
","""event"",""trial"",""time""
""focus"",""52"",""595237""
""focus"",""54"",""601347""
""focus"",""58"",""791087""
","""event"",""trial"",""time""
""fullscreenenter"",""1"",""2239""
","""event"",""trial"",""time""
""fullscreenexit"",""51"",""586767""
","","","-1","","","13","8808","2290","&#9826;","elianto","#f73b6a7A","-1","-1","1","0","[]","0","0","3","","","","","","","",""
"pit-trial","77","900741","0.0-2.0-14.3-3.3","battery-v0.2","","""event"",""trial"",""time""
""fullscreenenter"",""1"",""2239""
""fullscreenexit"",""51"",""586767""
""blur"",""51"",""589631""
""focus"",""52"",""595237""
""blur"",""53"",""599470""
""focus"",""54"",""601347""
""blur"",""58"",""629140""
""focus"",""58"",""791087""
""blur"",""70"",""863559""
","""event"",""trial"",""time""
""blur"",""51"",""589631""
""blur"",""53"",""599470""
""blur"",""58"",""629140""
""blur"",""70"",""863559""
","""event"",""trial"",""time""
""focus"",""52"",""595237""
""focus"",""54"",""601347""
""focus"",""58"",""791087""
","""event"",""trial"",""time""
""fullscreenenter"",""1"",""2239""
","""event"",""trial"",""time""
""fullscreenexit"",""51"",""586767""
","","","-1","","","13","8808","2290","&#9826;","elianto","#f73b6a7A","-1","-1","1","-10","[]","0","0","3","","","","","","","",""
"pit-trial","78","905593","0.0-2.0-14.3-4.3","battery-v0.2","","""event"",""trial"",""time""
""fullscreenenter"",""1"",""2239""
""fullscreenexit"",""51"",""586767""
""blur"",""51"",""589631""
""focus"",""52"",""595237""
""blur"",""53"",""599470""
""focus"",""54"",""601347""
""blur"",""58"",""629140""
""focus"",""58"",""791087""
""blur"",""70"",""863559""
","""event"",""trial"",""time""
""blur"",""51"",""589631""
""blur"",""53"",""599470""
""blur"",""58"",""629140""
""blur"",""70"",""863559""
","""event"",""trial"",""time""
""focus"",""52"",""595237""
""focus"",""54"",""601347""
""focus"",""58"",""791087""
","""event"",""trial"",""time""
""fullscreenenter"",""1"",""2239""
","""event"",""trial"",""time""
""fullscreenexit"",""51"",""586767""
","","","-1","","","13","8808","2290","&#9826;","elianto","#f73b6a7A","-1","-1","1","0","[]","0","0","3","","","","","","","",""
"call-function","79","905594","0.0-2.0-15.0","battery-v0.2","","""event"",""trial"",""time""
""fullscreenenter"",""1"",""2239""
""fullscreenexit"",""51"",""586767""
""blur"",""51"",""589631""
""focus"",""52"",""595237""
""blur"",""53"",""599470""
""focus"",""54"",""601347""
""blur"",""58"",""629140""
""focus"",""58"",""791087""
""blur"",""70"",""863559""
""focus"",""80"",""909552""
","""event"",""trial"",""time""
""blur"",""51"",""589631""
""blur"",""53"",""599470""
""blur"",""58"",""629140""
""blur"",""70"",""863559""
","""event"",""trial"",""time""
""focus"",""52"",""595237""
""focus"",""54"",""601347""
""focus"",""58"",""791087""
""focus"",""80"",""909552""
","""event"",""trial"",""time""
""fullscreenenter"",""1"",""2239""
","""event"",""trial"",""time""
""fullscreenexit"",""51"",""586767""
","","","","","","","","","","","","","","","","","","","","","","","","","","",""
"pit-instructions","80","937960","0.0-2.0-16.0","battery-v0.2","","""event"",""trial"",""time""
""fullscreenenter"",""1"",""2239""
""fullscreenexit"",""51"",""586767""
""blur"",""51"",""589631""
""focus"",""52"",""595237""
""blur"",""53"",""599470""
""focus"",""54"",""601347""
""blur"",""58"",""629140""
""focus"",""58"",""791087""
""blur"",""70"",""863559""
""focus"",""80"",""909552""
","""event"",""trial"",""time""
""blur"",""51"",""589631""
""blur"",""53"",""599470""
""blur"",""58"",""629140""
""blur"",""70"",""863559""
","""event"",""trial"",""time""
""focus"",""52"",""595237""
""focus"",""54"",""601347""
""focus"",""58"",""791087""
""focus"",""80"",""909552""
","""event"",""trial"",""time""
""fullscreenenter"",""1"",""2239""
","""event"",""trial"",""time""
""fullscreenexit"",""51"",""586767""
","","[{""page_index"":0,""viewing_time"":7040},{""page_index"":1,""viewing_time"":12207},{""page_index"":2,""viewing_time"":6437},{""page_index"":3,""viewing_time"":6681}]","32365","","","","","","","","","","","","","","","","","","","","","","","",""
"pit-trial","81","942835","0.0-2.0-17.0-0.0","battery-v0.2","","""event"",""trial"",""time""
""fullscreenenter"",""1"",""2239""
""fullscreenexit"",""51"",""586767""
""blur"",""51"",""589631""
""focus"",""52"",""595237""
""blur"",""53"",""599470""
""focus"",""54"",""601347""
""blur"",""58"",""629140""
""focus"",""58"",""791087""
""blur"",""70"",""863559""
""focus"",""80"",""909552""
","""event"",""trial"",""time""
""blur"",""51"",""589631""
""blur"",""53"",""599470""
""blur"",""58"",""629140""
""blur"",""70"",""863559""
","""event"",""trial"",""time""
""focus"",""52"",""595237""
""focus"",""54"",""601347""
""focus"",""58"",""791087""
""focus"",""80"",""909552""
","""event"",""trial"",""time""
""fullscreenenter"",""1"",""2239""
","""event"",""trial"",""time""
""fullscreenexit"",""51"",""586767""
","","","-1","","","13","8808","2290","&#9789;","elianto","#f73b6a7A"," ","-1","0","-10","[]","0","0","4","","","","","","","",""
"pit-trial","82","947695","0.0-2.0-17.0-1.0","battery-v0.2","","""event"",""trial"",""time""
""fullscreenenter"",""1"",""2239""
""fullscreenexit"",""51"",""586767""
""blur"",""51"",""589631""
""focus"",""52"",""595237""
""blur"",""53"",""599470""
""focus"",""54"",""601347""
""blur"",""58"",""629140""
""focus"",""58"",""791087""
""blur"",""70"",""863559""
""focus"",""80"",""909552""
","""event"",""trial"",""time""
""blur"",""51"",""589631""
""blur"",""53"",""599470""
""blur"",""58"",""629140""
""blur"",""70"",""863559""
","""event"",""trial"",""time""
""focus"",""52"",""595237""
""focus"",""54"",""601347""
""focus"",""58"",""791087""
""focus"",""80"",""909552""
","""event"",""trial"",""time""
""fullscreenenter"",""1"",""2239""
","""event"",""trial"",""time""
""fullscreenexit"",""51"",""586767""
","","","-1","","","13","8808","2290","&#9789;","elianto","#f73b6a7A"," ","-1","0","-10","[]","0","0","4","","","","","","","",""
"pit-trial","83","951128","0.0-2.0-17.0-2.0","battery-v0.2","","""event"",""trial"",""time""
""fullscreenenter"",""1"",""2239""
""fullscreenexit"",""51"",""586767""
""blur"",""51"",""589631""
""focus"",""52"",""595237""
""blur"",""53"",""599470""
""focus"",""54"",""601347""
""blur"",""58"",""629140""
""focus"",""58"",""791087""
""blur"",""70"",""863559""
""focus"",""80"",""909552""
","""event"",""trial"",""time""
""blur"",""51"",""589631""
""blur"",""53"",""599470""
""blur"",""58"",""629140""
""blur"",""70"",""863559""
","""event"",""trial"",""time""
""focus"",""52"",""595237""
""focus"",""54"",""601347""
""focus"",""58"",""791087""
""focus"",""80"",""909552""
","""event"",""trial"",""time""
""fullscreenenter"",""1"",""2239""
","""event"",""trial"",""time""
""fullscreenexit"",""51"",""586767""
","","","570","","","13","8808","2290","&#9789;","elianto","#f73b6a7A"," "," ","1","0","[1422,1634,1814,1997,2190,2381,2591,2789,3418]","9","0","4","","","","","","","",""
"pit-trial","84","954125","0.0-2.0-17.0-3.0","battery-v0.2","","""event"",""trial"",""time""
""fullscreenenter"",""1"",""2239""
""fullscreenexit"",""51"",""586767""
""blur"",""51"",""589631""
""focus"",""52"",""595237""
""blur"",""53"",""599470""
""focus"",""54"",""601347""
""blur"",""58"",""629140""
""focus"",""58"",""791087""
""blur"",""70"",""863559""
""focus"",""80"",""909552""
","""event"",""trial"",""time""
""blur"",""51"",""589631""
""blur"",""53"",""599470""
""blur"",""58"",""629140""
""blur"",""70"",""863559""
","""event"",""trial"",""time""
""focus"",""52"",""595237""
""focus"",""54"",""601347""
""focus"",""58"",""791087""
""focus"",""80"",""909552""
","""event"",""trial"",""time""
""fullscreenenter"",""1"",""2239""
","""event"",""trial"",""time""
""fullscreenexit"",""51"",""586767""
","","","139","","","13","8808","2290","&#9789;","elianto","#f73b6a7A"," "," ","1","-10","[201,393,585,781,989,2061,2270,2470,2666,2878]","10","0","4","","","","","","","",""
"pit-trial","85","957058","0.0-2.0-17.0-4.0","battery-v0.2","","""event"",""trial"",""time""
""fullscreenenter"",""1"",""2239""
""fullscreenexit"",""51"",""586767""
""blur"",""51"",""589631""
""focus"",""52"",""595237""
""blur"",""53"",""599470""
""focus"",""54"",""601347""
""blur"",""58"",""629140""
""focus"",""58"",""791087""
""blur"",""70"",""863559""
""focus"",""80"",""909552""
","""event"",""trial"",""time""
""blur"",""51"",""589631""
""blur"",""53"",""599470""
""blur"",""58"",""629140""
""blur"",""70"",""863559""
","""event"",""trial"",""time""
""focus"",""52"",""595237""
""focus"",""54"",""601347""
""focus"",""58"",""791087""
""focus"",""80"",""909552""
","""event"",""trial"",""time""
""fullscreenenter"",""1"",""2239""
","""event"",""trial"",""time""
""fullscreenexit"",""51"",""586767""
","","","74","","","13","8808","2290","&#9789;","elianto","#f73b6a7A"," "," ","1","0","[76,289,504,704,927,1140,1345,1557,1777,1981,2201,2428,2641]","13","0","4","","","","","","","",""
"pit-trial","86","960036","0.0-2.0-17.1-0.1","battery-v0.2","","""event"",""trial"",""time""
""fullscreenenter"",""1"",""2239""
""fullscreenexit"",""51"",""586767""
""blur"",""51"",""589631""
""focus"",""52"",""595237""
""blur"",""53"",""599470""
""focus"",""54"",""601347""
""blur"",""58"",""629140""
""focus"",""58"",""791087""
""blur"",""70"",""863559""
""focus"",""80"",""909552""
","""event"",""trial"",""time""
""blur"",""51"",""589631""
""blur"",""53"",""599470""
""blur"",""58"",""629140""
""blur"",""70"",""863559""
","""event"",""trial"",""time""
""focus"",""52"",""595237""
""focus"",""54"",""601347""
""focus"",""58"",""791087""
""focus"",""80"",""909552""
","""event"",""trial"",""time""
""fullscreenenter"",""1"",""2239""
","""event"",""trial"",""time""
""fullscreenexit"",""51"",""586767""
","","","122","","","13","8808","2290","&#9789;","elianto","#f73b6a7A"," "," ","1","0","[171,395,579,794,975,1172,1268,1372,1459,1667,1780,1868,1976,2076,2192,2284,2396,2499,2700,2820]","20","0","4","","","","","","","",""
"pit-trial","87","962900","0.0-2.0-17.1-1.1","battery-v0.2","","""event"",""trial"",""time""
""fullscreenenter"",""1"",""2239""
""fullscreenexit"",""51"",""586767""
""blur"",""51"",""589631""
""focus"",""52"",""595237""
""blur"",""53"",""599470""
""focus"",""54"",""601347""
""blur"",""58"",""629140""
""focus"",""58"",""791087""
""blur"",""70"",""863559""
""focus"",""80"",""909552""
","""event"",""trial"",""time""
""blur"",""51"",""589631""
""blur"",""53"",""599470""
""blur"",""58"",""629140""
""blur"",""70"",""863559""
","""event"",""trial"",""time""
""focus"",""52"",""595237""
""focus"",""54"",""601347""
""focus"",""58"",""791087""
""focus"",""80"",""909552""
","""event"",""trial"",""time""
""fullscreenenter"",""1"",""2239""
","""event"",""trial"",""time""
""fullscreenexit"",""51"",""586767""
","","","3","","","13","8808","2290","&#9789;","elianto","#f73b6a7A"," "," ","1","0","[61,141,265,341,465,545,664,853,941,1057,1150,1278,1370,1489,1582,1730,1801,1926,2013,2154,2234,2370,2586,2650]","24","0","4","","","","","","","",""
"pit-trial","88","965786","0.0-2.0-17.1-2.1","battery-v0.2","","""event"",""trial"",""time""
""fullscreenenter"",""1"",""2239""
""fullscreenexit"",""51"",""586767""
""blur"",""51"",""589631""
""focus"",""52"",""595237""
""blur"",""53"",""599470""
""focus"",""54"",""601347""
""blur"",""58"",""629140""
""focus"",""58"",""791087""
""blur"",""70"",""863559""
""focus"",""80"",""909552""
""blur"",""89"",""966918""
""focus"",""89"",""968476""
","""event"",""trial"",""time""
""blur"",""51"",""589631""
""blur"",""53"",""599470""
""blur"",""58"",""629140""
""blur"",""70"",""863559""
""blur"",""89"",""966918""
","""event"",""trial"",""time""
""focus"",""52"",""595237""
""focus"",""54"",""601347""
""focus"",""58"",""791087""
""focus"",""80"",""909552""
""focus"",""89"",""968476""
","""event"",""trial"",""time""
""fullscreenenter"",""1"",""2239""
","""event"",""trial"",""time""
""fullscreenexit"",""51"",""586767""
","","","20","","","13","8808","2290","&#9789;","elianto","#f73b6a7A"," "," ","1","0","[13,72,229,293,449,525,669,873,1090,1302,1397,1549,1641,1775,1998,2230,2438,2511,2638,2870]","20","0","4","","","","","","","",""
"pit-trial","89","968695","0.0-2.0-17.1-3.1","battery-v0.2","","""event"",""trial"",""time""
""fullscreenenter"",""1"",""2239""
""fullscreenexit"",""51"",""586767""
""blur"",""51"",""589631""
""focus"",""52"",""595237""
""blur"",""53"",""599470""
""focus"",""54"",""601347""
""blur"",""58"",""629140""
""focus"",""58"",""791087""
""blur"",""70"",""863559""
""focus"",""80"",""909552""
""blur"",""89"",""966918""
""focus"",""89"",""968476""
","""event"",""trial"",""time""
""blur"",""51"",""589631""
""blur"",""53"",""599470""
""blur"",""58"",""629140""
""blur"",""70"",""863559""
""blur"",""89"",""966918""
","""event"",""trial"",""time""
""focus"",""52"",""595237""
""focus"",""54"",""601347""
""focus"",""58"",""791087""
""focus"",""80"",""909552""
""focus"",""89"",""968476""
","""event"",""trial"",""time""
""fullscreenenter"",""1"",""2239""
","""event"",""trial"",""time""
""fullscreenexit"",""51"",""586767""
","","","57","","","13","8808","2290","&#9789;","elianto","#f73b6a7A"," "," ","1","-10","[56,220,444,655,752,908,984,1117]","8","0","4","","","","","","","",""
"pit-trial","90","971562","0.0-2.0-17.1-4.1","battery-v0.2","","""event"",""trial"",""time""
""fullscreenenter"",""1"",""2239""
""fullscreenexit"",""51"",""586767""
""blur"",""51"",""589631""
""focus"",""52"",""595237""
""blur"",""53"",""599470""
""focus"",""54"",""601347""
""blur"",""58"",""629140""
""focus"",""58"",""791087""
""blur"",""70"",""863559""
""focus"",""80"",""909552""
""blur"",""89"",""966918""
""focus"",""89"",""968476""
","""event"",""trial"",""time""
""blur"",""51"",""589631""
""blur"",""53"",""599470""
""blur"",""58"",""629140""
""blur"",""70"",""863559""
""blur"",""89"",""966918""
","""event"",""trial"",""time""
""focus"",""52"",""595237""
""focus"",""54"",""601347""
""focus"",""58"",""791087""
""focus"",""80"",""909552""
""focus"",""89"",""968476""
","""event"",""trial"",""time""
""fullscreenenter"",""1"",""2239""
","""event"",""trial"",""time""
""fullscreenexit"",""51"",""586767""
","","","14","","","13","8808","2290","&#9789;","elianto","#f73b6a7A"," "," ","1","0","[865,1074,1615,1690,1990,2066,2251,2655,2826]","9","0","4","","","","","","","",""
"pit-trial","91","974450","0.0-2.0-17.2-0.2","battery-v0.2","","""event"",""trial"",""time""
""fullscreenenter"",""1"",""2239""
""fullscreenexit"",""51"",""586767""
""blur"",""51"",""589631""
""focus"",""52"",""595237""
""blur"",""53"",""599470""
""focus"",""54"",""601347""
""blur"",""58"",""629140""
""focus"",""58"",""791087""
""blur"",""70"",""863559""
""focus"",""80"",""909552""
""blur"",""89"",""966918""
""focus"",""89"",""968476""
","""event"",""trial"",""time""
""blur"",""51"",""589631""
""blur"",""53"",""599470""
""blur"",""58"",""629140""
""blur"",""70"",""863559""
""blur"",""89"",""966918""
","""event"",""trial"",""time""
""focus"",""52"",""595237""
""focus"",""54"",""601347""
""focus"",""58"",""791087""
""focus"",""80"",""909552""
""focus"",""89"",""968476""
","""event"",""trial"",""time""
""fullscreenenter"",""1"",""2239""
","""event"",""trial"",""time""
""fullscreenexit"",""51"",""586767""
","","","36","","","13","8808","2290","&#9789;","elianto","#f73b6a7A"," "," ","1","0","[30,178,266,402,463,594,674,802,886,1018,1106,1234,1322,1451,1547,1679,1919,2007,2139,2318,2539]","21","0","4","","","","","","","",""
"pit-trial","92","977355","0.0-2.0-17.2-1.2","battery-v0.2","","""event"",""trial"",""time""
""fullscreenenter"",""1"",""2239""
""fullscreenexit"",""51"",""586767""
""blur"",""51"",""589631""
""focus"",""52"",""595237""
""blur"",""53"",""599470""
""focus"",""54"",""601347""
""blur"",""58"",""629140""
""focus"",""58"",""791087""
""blur"",""70"",""863559""
""focus"",""80"",""909552""
""blur"",""89"",""966918""
""focus"",""89"",""968476""
","""event"",""trial"",""time""
""blur"",""51"",""589631""
""blur"",""53"",""599470""
""blur"",""58"",""629140""
""blur"",""70"",""863559""
""blur"",""89"",""966918""
","""event"",""trial"",""time""
""focus"",""52"",""595237""
""focus"",""54"",""601347""
""focus"",""58"",""791087""
""focus"",""80"",""909552""
""focus"",""89"",""968476""
","""event"",""trial"",""time""
""fullscreenenter"",""1"",""2239""
","""event"",""trial"",""time""
""fullscreenexit"",""51"",""586767""
","","","51","","","13","8808","2290","&#9789;","elianto","#f73b6a7A"," "," ","1","0","[347,567,903,1096,1275,1508,1567,1759,2036,2090,2200,2423,2540,2680,2760]","15","0","4","","","","","","","",""
"pit-trial","93","980323","0.0-2.0-17.2-2.2","battery-v0.2","","""event"",""trial"",""time""
""fullscreenenter"",""1"",""2239""
""fullscreenexit"",""51"",""586767""
""blur"",""51"",""589631""
""focus"",""52"",""595237""
""blur"",""53"",""599470""
""focus"",""54"",""601347""
""blur"",""58"",""629140""
""focus"",""58"",""791087""
""blur"",""70"",""863559""
""focus"",""80"",""909552""
""blur"",""89"",""966918""
""focus"",""89"",""968476""
","""event"",""trial"",""time""
""blur"",""51"",""589631""
""blur"",""53"",""599470""
""blur"",""58"",""629140""
""blur"",""70"",""863559""
""blur"",""89"",""966918""
","""event"",""trial"",""time""
""focus"",""52"",""595237""
""focus"",""54"",""601347""
""focus"",""58"",""791087""
""focus"",""80"",""909552""
""focus"",""89"",""968476""
","""event"",""trial"",""time""
""fullscreenenter"",""1"",""2239""
","""event"",""trial"",""time""
""fullscreenexit"",""51"",""586767""
","","","115","","","13","8808","2290","&#9789;","elianto","#f73b6a7A"," "," ","1","0","[5,97,241,482,701,965,1062,1214,1326,1490,1577,1734,1821,2065,2221,2317,2458,2562,2711,2801,2938]","21","0","4","","","","","","","",""
"pit-trial","94","983315","0.0-2.0-17.2-3.2","battery-v0.2","","""event"",""trial"",""time""
""fullscreenenter"",""1"",""2239""
""fullscreenexit"",""51"",""586767""
""blur"",""51"",""589631""
""focus"",""52"",""595237""
""blur"",""53"",""599470""
""focus"",""54"",""601347""
""blur"",""58"",""629140""
""focus"",""58"",""791087""
""blur"",""70"",""863559""
""focus"",""80"",""909552""
""blur"",""89"",""966918""
""focus"",""89"",""968476""
","""event"",""trial"",""time""
""blur"",""51"",""589631""
""blur"",""53"",""599470""
""blur"",""58"",""629140""
""blur"",""70"",""863559""
""blur"",""89"",""966918""
","""event"",""trial"",""time""
""focus"",""52"",""595237""
""focus"",""54"",""601347""
""focus"",""58"",""791087""
""focus"",""80"",""909552""
""focus"",""89"",""968476""
","""event"",""trial"",""time""
""fullscreenenter"",""1"",""2239""
","""event"",""trial"",""time""
""fullscreenexit"",""51"",""586767""
","","","139","","","13","8808","2290","&#9789;","elianto","#f73b6a7A"," "," ","1","-10","[82,226,447,790,990,1186,1403,1662,1935,2163,2415,2499,2723]","13","0","4","","","","","","","",""
"pit-trial","95","986254","0.0-2.0-17.2-4.2","battery-v0.2","","""event"",""trial"",""time""
""fullscreenenter"",""1"",""2239""
""fullscreenexit"",""51"",""586767""
""blur"",""51"",""589631""
""focus"",""52"",""595237""
""blur"",""53"",""599470""
""focus"",""54"",""601347""
""blur"",""58"",""629140""
""focus"",""58"",""791087""
""blur"",""70"",""863559""
""focus"",""80"",""909552""
""blur"",""89"",""966918""
""focus"",""89"",""968476""
","""event"",""trial"",""time""
""blur"",""51"",""589631""
""blur"",""53"",""599470""
""blur"",""58"",""629140""
""blur"",""70"",""863559""
""blur"",""89"",""966918""
","""event"",""trial"",""time""
""focus"",""52"",""595237""
""focus"",""54"",""601347""
""focus"",""58"",""791087""
""focus"",""80"",""909552""
""focus"",""89"",""968476""
","""event"",""trial"",""time""
""fullscreenenter"",""1"",""2239""
","""event"",""trial"",""time""
""fullscreenexit"",""51"",""586767""
","","","86","","","13","8808","2290","&#9789;","elianto","#f73b6a7A"," "," ","1","0","[30,298,590,938,1147,1403,1686,1870,2323,2531]","10","0","4","","","","","","","",""
"pit-trial","96","989620","0.0-2.0-17.3-0.3","battery-v0.2","","""event"",""trial"",""time""
""fullscreenenter"",""1"",""2239""
""fullscreenexit"",""51"",""586767""
""blur"",""51"",""589631""
""focus"",""52"",""595237""
""blur"",""53"",""599470""
""focus"",""54"",""601347""
""blur"",""58"",""629140""
""focus"",""58"",""791087""
""blur"",""70"",""863559""
""focus"",""80"",""909552""
""blur"",""89"",""966918""
""focus"",""89"",""968476""
","""event"",""trial"",""time""
""blur"",""51"",""589631""
""blur"",""53"",""599470""
""blur"",""58"",""629140""
""blur"",""70"",""863559""
""blur"",""89"",""966918""
","""event"",""trial"",""time""
""focus"",""52"",""595237""
""focus"",""54"",""601347""
""focus"",""58"",""791087""
""focus"",""80"",""909552""
""focus"",""89"",""968476""
","""event"",""trial"",""time""
""fullscreenenter"",""1"",""2239""
","""event"",""trial"",""time""
""fullscreenexit"",""51"",""586767""
","","","513","","","13","8808","2290","&#9789;","elianto","#f73b6a7A"," "," ","1","0","[258,446,621,842,1363,1603,1787,2035,2323,2931,3042,3215]","12","0","4","","","","","","","",""
"pit-trial","97","992503","0.0-2.0-17.3-1.3","battery-v0.2","","""event"",""trial"",""time""
""fullscreenenter"",""1"",""2239""
""fullscreenexit"",""51"",""586767""
""blur"",""51"",""589631""
""focus"",""52"",""595237""
""blur"",""53"",""599470""
""focus"",""54"",""601347""
""blur"",""58"",""629140""
""focus"",""58"",""791087""
""blur"",""70"",""863559""
""focus"",""80"",""909552""
""blur"",""89"",""966918""
""focus"",""89"",""968476""
","""event"",""trial"",""time""
""blur"",""51"",""589631""
""blur"",""53"",""599470""
""blur"",""58"",""629140""
""blur"",""70"",""863559""
""blur"",""89"",""966918""
","""event"",""trial"",""time""
""focus"",""52"",""595237""
""focus"",""54"",""601347""
""focus"",""58"",""791087""
""focus"",""80"",""909552""
""focus"",""89"",""968476""
","""event"",""trial"",""time""
""fullscreenenter"",""1"",""2239""
","""event"",""trial"",""time""
""fullscreenexit"",""51"",""586767""
","","","31","","","13","8808","2290","&#9789;","elianto","#f73b6a7A"," "," ","1","0","[501,593,881,1409,1978,2247,2514,2798]","8","0","4","","","","","","","",""
"pit-trial","98","996023","0.0-2.0-17.3-2.3","battery-v0.2","","""event"",""trial"",""time""
""fullscreenenter"",""1"",""2239""
""fullscreenexit"",""51"",""586767""
""blur"",""51"",""589631""
""focus"",""52"",""595237""
""blur"",""53"",""599470""
""focus"",""54"",""601347""
""blur"",""58"",""629140""
""focus"",""58"",""791087""
""blur"",""70"",""863559""
""focus"",""80"",""909552""
""blur"",""89"",""966918""
""focus"",""89"",""968476""
","""event"",""trial"",""time""
""blur"",""51"",""589631""
""blur"",""53"",""599470""
""blur"",""58"",""629140""
""blur"",""70"",""863559""
""blur"",""89"",""966918""
","""event"",""trial"",""time""
""focus"",""52"",""595237""
""focus"",""54"",""601347""
""focus"",""58"",""791087""
""focus"",""80"",""909552""
""focus"",""89"",""968476""
","""event"",""trial"",""time""
""fullscreenenter"",""1"",""2239""
","""event"",""trial"",""time""
""fullscreenexit"",""51"",""586767""
","","","668","","","13","8808","2290","&#9789;","elianto","#f73b6a7A"," "," ","1","0","[13,161,421,705,825,1518,1617,1761,2049,2294,2550,2669,2813,3337,3417]","15","0","4","","","","","","","",""
"pit-trial","99","1000877","0.0-2.0-17.3-3.3","battery-v0.2","","""event"",""trial"",""time""
""fullscreenenter"",""1"",""2239""
""fullscreenexit"",""51"",""586767""
""blur"",""51"",""589631""
""focus"",""52"",""595237""
""blur"",""53"",""599470""
""focus"",""54"",""601347""
""blur"",""58"",""629140""
""focus"",""58"",""791087""
""blur"",""70"",""863559""
""focus"",""80"",""909552""
""blur"",""89"",""966918""
""focus"",""89"",""968476""
","""event"",""trial"",""time""
""blur"",""51"",""589631""
""blur"",""53"",""599470""
""blur"",""58"",""629140""
""blur"",""70"",""863559""
""blur"",""89"",""966918""
","""event"",""trial"",""time""
""focus"",""52"",""595237""
""focus"",""54"",""601347""
""focus"",""58"",""791087""
""focus"",""80"",""909552""
""focus"",""89"",""968476""
","""event"",""trial"",""time""
""fullscreenenter"",""1"",""2239""
","""event"",""trial"",""time""
""fullscreenexit"",""51"",""586767""
","","","-1","","","13","8808","2290","&#9789;","elianto","#f73b6a7A"," ","-1","0","0","[54,170,302,550,842,4342,4555,4654,4800]","9","0","4","","","","","","","",""
"pit-trial","100","1003883","0.0-2.0-17.3-4.3","battery-v0.2","","""event"",""trial"",""time""
""fullscreenenter"",""1"",""2239""
""fullscreenexit"",""51"",""586767""
""blur"",""51"",""589631""
""focus"",""52"",""595237""
""blur"",""53"",""599470""
""focus"",""54"",""601347""
""blur"",""58"",""629140""
""focus"",""58"",""791087""
""blur"",""70"",""863559""
""focus"",""80"",""909552""
""blur"",""89"",""966918""
""focus"",""89"",""968476""
","""event"",""trial"",""time""
""blur"",""51"",""589631""
""blur"",""53"",""599470""
""blur"",""58"",""629140""
""blur"",""70"",""863559""
""blur"",""89"",""966918""
","""event"",""trial"",""time""
""focus"",""52"",""595237""
""focus"",""54"",""601347""
""focus"",""58"",""791087""
""focus"",""80"",""909552""
""focus"",""89"",""968476""
","""event"",""trial"",""time""
""fullscreenenter"",""1"",""2239""
","""event"",""trial"",""time""
""fullscreenexit"",""51"",""586767""
","","","145","","","13","8808","2290","&#9789;","elianto","#f73b6a7A"," "," ","1","0","[335,995,1248,1379]","4","0","4","","","","","","","",""
"call-function","101","1003884","0.0-2.0-18.0","battery-v0.2","","""event"",""trial"",""time""
""fullscreenenter"",""1"",""2239""
""fullscreenexit"",""51"",""586767""
""blur"",""51"",""589631""
""focus"",""52"",""595237""
""blur"",""53"",""599470""
""focus"",""54"",""601347""
""blur"",""58"",""629140""
""focus"",""58"",""791087""
""blur"",""70"",""863559""
""focus"",""80"",""909552""
""blur"",""89"",""966918""
""focus"",""89"",""968476""
","""event"",""trial"",""time""
""blur"",""51"",""589631""
""blur"",""53"",""599470""
""blur"",""58"",""629140""
""blur"",""70"",""863559""
""blur"",""89"",""966918""
","""event"",""trial"",""time""
""focus"",""52"",""595237""
""focus"",""54"",""601347""
""focus"",""58"",""791087""
""focus"",""80"",""909552""
""focus"",""89"",""968476""
","""event"",""trial"",""time""
""fullscreenenter"",""1"",""2239""
","""event"",""trial"",""time""
""fullscreenexit"",""51"",""586767""
","","","","","","","","","","","","","","","","","","","","","","","","","","",""
"pit-instructions","102","1085643","0.0-2.0-19.0","battery-v0.2","","""event"",""trial"",""time""
""fullscreenenter"",""1"",""2239""
""fullscreenexit"",""51"",""586767""
""blur"",""51"",""589631""
""focus"",""52"",""595237""
""blur"",""53"",""599470""
""focus"",""54"",""601347""
""blur"",""58"",""629140""
""focus"",""58"",""791087""
""blur"",""70"",""863559""
""focus"",""80"",""909552""
""blur"",""89"",""966918""
""focus"",""89"",""968476""
","""event"",""trial"",""time""
""blur"",""51"",""589631""
""blur"",""53"",""599470""
""blur"",""58"",""629140""
""blur"",""70"",""863559""
""blur"",""89"",""966918""
","""event"",""trial"",""time""
""focus"",""52"",""595237""
""focus"",""54"",""601347""
""focus"",""58"",""791087""
""focus"",""80"",""909552""
""focus"",""89"",""968476""
","""event"",""trial"",""time""
""fullscreenenter"",""1"",""2239""
","""event"",""trial"",""time""
""fullscreenexit"",""51"",""586767""
","","[{""page_index"":0,""viewing_time"":12256},{""page_index"":1,""viewing_time"":6887},{""page_index"":2,""viewing_time"":13372},{""page_index"":3,""viewing_time"":7306},{""page_index"":4,""viewing_time"":8799},{""page_index"":5,""viewing_time"":8026},{""page_index"":6,""viewing_time"":5702},{""page_index"":7,""viewing_time"":9118},{""page_index"":8,""viewing_time"":10292}]","81759","","","","","","","","","","","","","","","","","","","","","","","",""
"pit-comprehension","103","1090075","0.0-2.0-20.0-0.0","battery-v0.2","","""event"",""trial"",""time""
""fullscreenenter"",""1"",""2239""
""fullscreenexit"",""51"",""586767""
""blur"",""51"",""589631""
""focus"",""52"",""595237""
""blur"",""53"",""599470""
""focus"",""54"",""601347""
""blur"",""58"",""629140""
""focus"",""58"",""791087""
""blur"",""70"",""863559""
""focus"",""80"",""909552""
""blur"",""89"",""966918""
""focus"",""89"",""968476""
","""event"",""trial"",""time""
""blur"",""51"",""589631""
""blur"",""53"",""599470""
""blur"",""58"",""629140""
""blur"",""70"",""863559""
""blur"",""89"",""966918""
","""event"",""trial"",""time""
""focus"",""52"",""595237""
""focus"",""54"",""601347""
""focus"",""58"",""791087""
""focus"",""80"",""909552""
""focus"",""89"",""968476""
","""event"",""trial"",""time""
""fullscreenenter"",""1"",""2239""
","""event"",""trial"",""time""
""fullscreenexit"",""51"",""586767""
","","","4429","[""SPACE""]","0","13","8808","2290","","","","","","","","","","","","","","","","","","",""
"pit-instructions","104","1093059","0.0-2.0-20.0-1.0","battery-v0.2","","""event"",""trial"",""time""
""fullscreenenter"",""1"",""2239""
""fullscreenexit"",""51"",""586767""
""blur"",""51"",""589631""
""focus"",""52"",""595237""
""blur"",""53"",""599470""
""focus"",""54"",""601347""
""blur"",""58"",""629140""
""focus"",""58"",""791087""
""blur"",""70"",""863559""
""focus"",""80"",""909552""
""blur"",""89"",""966918""
""focus"",""89"",""968476""
","""event"",""trial"",""time""
""blur"",""51"",""589631""
""blur"",""53"",""599470""
""blur"",""58"",""629140""
""blur"",""70"",""863559""
""blur"",""89"",""966918""
","""event"",""trial"",""time""
""focus"",""52"",""595237""
""focus"",""54"",""601347""
""focus"",""58"",""791087""
""focus"",""80"",""909552""
""focus"",""89"",""968476""
","""event"",""trial"",""time""
""fullscreenenter"",""1"",""2239""
","""event"",""trial"",""time""
""fullscreenexit"",""51"",""586767""
","","[{""page_index"":0,""viewing_time"":2953}]","2953","","","","","","","","","","","","","","","","","","","","","","","",""
"pit-comprehension","105","1098086","0.0-2.0-21.0-0.0","battery-v0.2","","""event"",""trial"",""time""
""fullscreenenter"",""1"",""2239""
""fullscreenexit"",""51"",""586767""
""blur"",""51"",""589631""
""focus"",""52"",""595237""
""blur"",""53"",""599470""
""focus"",""54"",""601347""
""blur"",""58"",""629140""
""focus"",""58"",""791087""
""blur"",""70"",""863559""
""focus"",""80"",""909552""
""blur"",""89"",""966918""
""focus"",""89"",""968476""
","""event"",""trial"",""time""
""blur"",""51"",""589631""
""blur"",""53"",""599470""
""blur"",""58"",""629140""
""blur"",""70"",""863559""
""blur"",""89"",""966918""
","""event"",""trial"",""time""
""focus"",""52"",""595237""
""focus"",""54"",""601347""
""focus"",""58"",""791087""
""focus"",""80"",""909552""
""focus"",""89"",""968476""
","""event"",""trial"",""time""
""fullscreenenter"",""1"",""2239""
","""event"",""trial"",""time""
""fullscreenexit"",""51"",""586767""
","","","5026","[""10""]","0","13","8808","2290","","","","","","","","","","","","","","","","","","",""
"pit-instructions","106","1099485","0.0-2.0-21.0-1.0","battery-v0.2","","""event"",""trial"",""time""
""fullscreenenter"",""1"",""2239""
""fullscreenexit"",""51"",""586767""
""blur"",""51"",""589631""
""focus"",""52"",""595237""
""blur"",""53"",""599470""
""focus"",""54"",""601347""
""blur"",""58"",""629140""
""focus"",""58"",""791087""
""blur"",""70"",""863559""
""focus"",""80"",""909552""
""blur"",""89"",""966918""
""focus"",""89"",""968476""
","""event"",""trial"",""time""
""blur"",""51"",""589631""
""blur"",""53"",""599470""
""blur"",""58"",""629140""
""blur"",""70"",""863559""
""blur"",""89"",""966918""
","""event"",""trial"",""time""
""focus"",""52"",""595237""
""focus"",""54"",""601347""
""focus"",""58"",""791087""
""focus"",""80"",""909552""
""focus"",""89"",""968476""
","""event"",""trial"",""time""
""fullscreenenter"",""1"",""2239""
","""event"",""trial"",""time""
""fullscreenexit"",""51"",""586767""
","","[{""page_index"":0,""viewing_time"":1369}]","1369","","","","","","","","","","","","","","","","","","","","","","","",""
"pit-comprehension","107","1105807","0.0-2.0-22.0-0.0","battery-v0.2","","""event"",""trial"",""time""
""fullscreenenter"",""1"",""2239""
""fullscreenexit"",""51"",""586767""
""blur"",""51"",""589631""
""focus"",""52"",""595237""
""blur"",""53"",""599470""
""focus"",""54"",""601347""
""blur"",""58"",""629140""
""focus"",""58"",""791087""
""blur"",""70"",""863559""
""focus"",""80"",""909552""
""blur"",""89"",""966918""
""focus"",""89"",""968476""
","""event"",""trial"",""time""
""blur"",""51"",""589631""
""blur"",""53"",""599470""
""blur"",""58"",""629140""
""blur"",""70"",""863559""
""blur"",""89"",""966918""
","""event"",""trial"",""time""
""focus"",""52"",""595237""
""focus"",""54"",""601347""
""focus"",""58"",""791087""
""focus"",""80"",""909552""
""focus"",""89"",""968476""
","""event"",""trial"",""time""
""fullscreenenter"",""1"",""2239""
","""event"",""trial"",""time""
""fullscreenexit"",""51"",""586767""
","","","6319","[""0""]","0","13","8808","2290","","","","","","","","","","","","","","","","","","",""
"pit-instructions","108","1107250","0.0-2.0-22.0-1.0","battery-v0.2","","""event"",""trial"",""time""
""fullscreenenter"",""1"",""2239""
""fullscreenexit"",""51"",""586767""
""blur"",""51"",""589631""
""focus"",""52"",""595237""
""blur"",""53"",""599470""
""focus"",""54"",""601347""
""blur"",""58"",""629140""
""focus"",""58"",""791087""
""blur"",""70"",""863559""
""focus"",""80"",""909552""
""blur"",""89"",""966918""
""focus"",""89"",""968476""
","""event"",""trial"",""time""
""blur"",""51"",""589631""
""blur"",""53"",""599470""
""blur"",""58"",""629140""
""blur"",""70"",""863559""
""blur"",""89"",""966918""
","""event"",""trial"",""time""
""focus"",""52"",""595237""
""focus"",""54"",""601347""
""focus"",""58"",""791087""
""focus"",""80"",""909552""
""focus"",""89"",""968476""
","""event"",""trial"",""time""
""fullscreenenter"",""1"",""2239""
","""event"",""trial"",""time""
""fullscreenexit"",""51"",""586767""
","","[{""page_index"":0,""viewing_time"":1414}]","1414","","","","","","","","","","","","","","","","","","","","","","","",""
"pit-comprehension","109","1120022","0.0-2.0-23.0-0.0","battery-v0.2","","""event"",""trial"",""time""
""fullscreenenter"",""1"",""2239""
""fullscreenexit"",""51"",""586767""
""blur"",""51"",""589631""
""focus"",""52"",""595237""
""blur"",""53"",""599470""
""focus"",""54"",""601347""
""blur"",""58"",""629140""
""focus"",""58"",""791087""
""blur"",""70"",""863559""
""focus"",""80"",""909552""
""blur"",""89"",""966918""
""focus"",""89"",""968476""
","""event"",""trial"",""time""
""blur"",""51"",""589631""
""blur"",""53"",""599470""
""blur"",""58"",""629140""
""blur"",""70"",""863559""
""blur"",""89"",""966918""
","""event"",""trial"",""time""
""focus"",""52"",""595237""
""focus"",""54"",""601347""
""focus"",""58"",""791087""
""focus"",""80"",""909552""
""focus"",""89"",""968476""
","""event"",""trial"",""time""
""fullscreenenter"",""1"",""2239""
","""event"",""trial"",""time""
""fullscreenexit"",""51"",""586767""
","","","12770","[""True""]","0","13","8808","2290","","","","","","","","","","","","","","","","","","",""
"pit-instructions","110","1121085","0.0-2.0-23.0-1.0","battery-v0.2","","""event"",""trial"",""time""
""fullscreenenter"",""1"",""2239""
""fullscreenexit"",""51"",""586767""
""blur"",""51"",""589631""
""focus"",""52"",""595237""
""blur"",""53"",""599470""
""focus"",""54"",""601347""
""blur"",""58"",""629140""
""focus"",""58"",""791087""
""blur"",""70"",""863559""
""focus"",""80"",""909552""
""blur"",""89"",""966918""
""focus"",""89"",""968476""
","""event"",""trial"",""time""
""blur"",""51"",""589631""
""blur"",""53"",""599470""
""blur"",""58"",""629140""
""blur"",""70"",""863559""
""blur"",""89"",""966918""
","""event"",""trial"",""time""
""focus"",""52"",""595237""
""focus"",""54"",""601347""
""focus"",""58"",""791087""
""focus"",""80"",""909552""
""focus"",""89"",""968476""
","""event"",""trial"",""time""
""fullscreenenter"",""1"",""2239""
","""event"",""trial"",""time""
""fullscreenexit"",""51"",""586767""
","","[{""page_index"":0,""viewing_time"":1033}]","1033","","","","","","","","","","","","","","","","","","","","","","","",""
"pit-comprehension","111","1129513","0.0-2.0-24.0-0.0","battery-v0.2","","""event"",""trial"",""time""
""fullscreenenter"",""1"",""2239""
""fullscreenexit"",""51"",""586767""
""blur"",""51"",""589631""
""focus"",""52"",""595237""
""blur"",""53"",""599470""
""focus"",""54"",""601347""
""blur"",""58"",""629140""
""focus"",""58"",""791087""
""blur"",""70"",""863559""
""focus"",""80"",""909552""
""blur"",""89"",""966918""
""focus"",""89"",""968476""
","""event"",""trial"",""time""
""blur"",""51"",""589631""
""blur"",""53"",""599470""
""blur"",""58"",""629140""
""blur"",""70"",""863559""
""blur"",""89"",""966918""
","""event"",""trial"",""time""
""focus"",""52"",""595237""
""focus"",""54"",""601347""
""focus"",""58"",""791087""
""focus"",""80"",""909552""
""focus"",""89"",""968476""
","""event"",""trial"",""time""
""fullscreenenter"",""1"",""2239""
","""event"",""trial"",""time""
""fullscreenexit"",""51"",""586767""
","","","8426","[""True""]","0","13","8808","2290","","","","","","","","","","","","","","","","","","",""
"pit-instructions","112","1131703","0.0-2.0-24.0-1.0","battery-v0.2","","""event"",""trial"",""time""
""fullscreenenter"",""1"",""2239""
""fullscreenexit"",""51"",""586767""
""blur"",""51"",""589631""
""focus"",""52"",""595237""
""blur"",""53"",""599470""
""focus"",""54"",""601347""
""blur"",""58"",""629140""
""focus"",""58"",""791087""
""blur"",""70"",""863559""
""focus"",""80"",""909552""
""blur"",""89"",""966918""
""focus"",""89"",""968476""
","""event"",""trial"",""time""
""blur"",""51"",""589631""
""blur"",""53"",""599470""
""blur"",""58"",""629140""
""blur"",""70"",""863559""
""blur"",""89"",""966918""
","""event"",""trial"",""time""
""focus"",""52"",""595237""
""focus"",""54"",""601347""
""focus"",""58"",""791087""
""focus"",""80"",""909552""
""focus"",""89"",""968476""
","""event"",""trial"",""time""
""fullscreenenter"",""1"",""2239""
","""event"",""trial"",""time""
""fullscreenexit"",""51"",""586767""
","","[{""page_index"":0,""viewing_time"":2161}]","2161","","","","","","","","","","","","","","","","","","","","","","","",""
"pit-comprehension","113","1137976","0.0-2.0-25.0-0.0","battery-v0.2","","""event"",""trial"",""time""
""fullscreenenter"",""1"",""2239""
""fullscreenexit"",""51"",""586767""
""blur"",""51"",""589631""
""focus"",""52"",""595237""
""blur"",""53"",""599470""
""focus"",""54"",""601347""
""blur"",""58"",""629140""
""focus"",""58"",""791087""
""blur"",""70"",""863559""
""focus"",""80"",""909552""
""blur"",""89"",""966918""
""focus"",""89"",""968476""
","""event"",""trial"",""time""
""blur"",""51"",""589631""
""blur"",""53"",""599470""
""blur"",""58"",""629140""
""blur"",""70"",""863559""
""blur"",""89"",""966918""
","""event"",""trial"",""time""
""focus"",""52"",""595237""
""focus"",""54"",""601347""
""focus"",""58"",""791087""
""focus"",""80"",""909552""
""focus"",""89"",""968476""
","""event"",""trial"",""time""
""fullscreenenter"",""1"",""2239""
","""event"",""trial"",""time""
""fullscreenexit"",""51"",""586767""
","","","6270","[""True""]","0","13","8808","2290","","","","","","","","","","","","","","","","","","",""
"pit-instructions","114","1139347","0.0-2.0-25.0-1.0","battery-v0.2","","""event"",""trial"",""time""
""fullscreenenter"",""1"",""2239""
""fullscreenexit"",""51"",""586767""
""blur"",""51"",""589631""
""focus"",""52"",""595237""
""blur"",""53"",""599470""
""focus"",""54"",""601347""
""blur"",""58"",""629140""
""focus"",""58"",""791087""
""blur"",""70"",""863559""
""focus"",""80"",""909552""
""blur"",""89"",""966918""
""focus"",""89"",""968476""
","""event"",""trial"",""time""
""blur"",""51"",""589631""
""blur"",""53"",""599470""
""blur"",""58"",""629140""
""blur"",""70"",""863559""
""blur"",""89"",""966918""
","""event"",""trial"",""time""
""focus"",""52"",""595237""
""focus"",""54"",""601347""
""focus"",""58"",""791087""
""focus"",""80"",""909552""
""focus"",""89"",""968476""
","""event"",""trial"",""time""
""fullscreenenter"",""1"",""2239""
","""event"",""trial"",""time""
""fullscreenexit"",""51"",""586767""
","","[{""page_index"":0,""viewing_time"":1340}]","1340","","","","","","","","","","","","","","","","","","","","","","","",""
"pit-comprehension","115","1144176","0.0-2.0-26.0-0.0","battery-v0.2","","""event"",""trial"",""time""
""fullscreenenter"",""1"",""2239""
""fullscreenexit"",""51"",""586767""
""blur"",""51"",""589631""
""focus"",""52"",""595237""
""blur"",""53"",""599470""
""focus"",""54"",""601347""
""blur"",""58"",""629140""
""focus"",""58"",""791087""
""blur"",""70"",""863559""
""focus"",""80"",""909552""
""blur"",""89"",""966918""
""focus"",""89"",""968476""
","""event"",""trial"",""time""
""blur"",""51"",""589631""
""blur"",""53"",""599470""
""blur"",""58"",""629140""
""blur"",""70"",""863559""
""blur"",""89"",""966918""
","""event"",""trial"",""time""
""focus"",""52"",""595237""
""focus"",""54"",""601347""
""focus"",""58"",""791087""
""focus"",""80"",""909552""
""focus"",""89"",""968476""
","""event"",""trial"",""time""
""fullscreenenter"",""1"",""2239""
","""event"",""trial"",""time""
""fullscreenexit"",""51"",""586767""
","","","4827","[""False""]","0","13","8808","2290","","","","","","","","","","","","","","","","","","",""
"pit-instructions","116","1146084","0.0-2.0-26.0-1.0","battery-v0.2","","""event"",""trial"",""time""
""fullscreenenter"",""1"",""2239""
""fullscreenexit"",""51"",""586767""
""blur"",""51"",""589631""
""focus"",""52"",""595237""
""blur"",""53"",""599470""
""focus"",""54"",""601347""
""blur"",""58"",""629140""
""focus"",""58"",""791087""
""blur"",""70"",""863559""
""focus"",""80"",""909552""
""blur"",""89"",""966918""
""focus"",""89"",""968476""
","""event"",""trial"",""time""
""blur"",""51"",""589631""
""blur"",""53"",""599470""
""blur"",""58"",""629140""
""blur"",""70"",""863559""
""blur"",""89"",""966918""
","""event"",""trial"",""time""
""focus"",""52"",""595237""
""focus"",""54"",""601347""
""focus"",""58"",""791087""
""focus"",""80"",""909552""
""focus"",""89"",""968476""
","""event"",""trial"",""time""
""fullscreenenter"",""1"",""2239""
","""event"",""trial"",""time""
""fullscreenexit"",""51"",""586767""
","","[{""page_index"":0,""viewing_time"":1877}]","1877","","","","","","","","","","","","","","","","","","","","","","","",""
"pit-instructions","117","1166302","0.0-3.0","battery-v0.2","","""event"",""trial"",""time""
""fullscreenenter"",""1"",""2239""
""fullscreenexit"",""51"",""586767""
""blur"",""51"",""589631""
""focus"",""52"",""595237""
""blur"",""53"",""599470""
""focus"",""54"",""601347""
""blur"",""58"",""629140""
""focus"",""58"",""791087""
""blur"",""70"",""863559""
""focus"",""80"",""909552""
""blur"",""89"",""966918""
""focus"",""89"",""968476""
","""event"",""trial"",""time""
""blur"",""51"",""589631""
""blur"",""53"",""599470""
""blur"",""58"",""629140""
""blur"",""70"",""863559""
""blur"",""89"",""966918""
","""event"",""trial"",""time""
""focus"",""52"",""595237""
""focus"",""54"",""601347""
""focus"",""58"",""791087""
""focus"",""80"",""909552""
""focus"",""89"",""968476""
","""event"",""trial"",""time""
""fullscreenenter"",""1"",""2239""
","""event"",""trial"",""time""
""fullscreenexit"",""51"",""586767""
","","[{""page_index"":0,""viewing_time"":3738},{""page_index"":1,""viewing_time"":8029},{""page_index"":2,""viewing_time"":8449}]","20216","","","","","","","","","","","","","","","","","","","","","","","",""
"pit-trial","118","1170332","0.0-4.0","battery-v0.2","","""event"",""trial"",""time""
""fullscreenenter"",""1"",""2239""
""fullscreenexit"",""51"",""586767""
""blur"",""51"",""589631""
""focus"",""52"",""595237""
""blur"",""53"",""599470""
""focus"",""54"",""601347""
""blur"",""58"",""629140""
""focus"",""58"",""791087""
""blur"",""70"",""863559""
""focus"",""80"",""909552""
""blur"",""89"",""966918""
""focus"",""89"",""968476""
","""event"",""trial"",""time""
""blur"",""51"",""589631""
""blur"",""53"",""599470""
""blur"",""58"",""629140""
""blur"",""70"",""863559""
""blur"",""89"",""966918""
","""event"",""trial"",""time""
""focus"",""52"",""595237""
""focus"",""54"",""601347""
""focus"",""58"",""791087""
""focus"",""80"",""909552""
""focus"",""89"",""968476""
","""event"",""trial"",""time""
""fullscreenenter"",""1"",""2239""
","""event"",""trial"",""time""
""fullscreenexit"",""51"",""586767""
","","","1175","","","13","8808","2290","&#9752;","elianto","#f73b6a7A"," "," ","1","0","[2026]","1","1","","","8808","1","3","3","lose","go","0"
"pit-trial","119","1174327","0.0-5.0","battery-v0.2","","""event"",""trial"",""time""
""fullscreenenter"",""1"",""2239""
""fullscreenexit"",""51"",""586767""
""blur"",""51"",""589631""
""focus"",""52"",""595237""
""blur"",""53"",""599470""
""focus"",""54"",""601347""
""blur"",""58"",""629140""
""focus"",""58"",""791087""
""blur"",""70"",""863559""
""focus"",""80"",""909552""
""blur"",""89"",""966918""
""focus"",""89"",""968476""
","""event"",""trial"",""time""
""blur"",""51"",""589631""
""blur"",""53"",""599470""
""blur"",""58"",""629140""
""blur"",""70"",""863559""
""blur"",""89"",""966918""
","""event"",""trial"",""time""
""focus"",""52"",""595237""
""focus"",""54"",""601347""
""focus"",""58"",""791087""
""focus"",""80"",""909552""
""focus"",""89"",""968476""
","""event"",""trial"",""time""
""fullscreenenter"",""1"",""2239""
","""event"",""trial"",""time""
""fullscreenexit"",""51"",""586767""
","","","1126","","","13","8808","2290","&#9730;","elianto","#3366ff99"," "," ","1","+10","[1979]","1","1","","","8808","2","1","1","win","go","0"
"pit-trial","120","1178144","0.0-6.0","battery-v0.2","","""event"",""trial"",""time""
""fullscreenenter"",""1"",""2239""
""fullscreenexit"",""51"",""586767""
""blur"",""51"",""589631""
""focus"",""52"",""595237""
""blur"",""53"",""599470""
""focus"",""54"",""601347""
""blur"",""58"",""629140""
""focus"",""58"",""791087""
""blur"",""70"",""863559""
""focus"",""80"",""909552""
""blur"",""89"",""966918""
""focus"",""89"",""968476""
","""event"",""trial"",""time""
""blur"",""51"",""589631""
""blur"",""53"",""599470""
""blur"",""58"",""629140""
""blur"",""70"",""863559""
""blur"",""89"",""966918""
","""event"",""trial"",""time""
""focus"",""52"",""595237""
""focus"",""54"",""601347""
""focus"",""58"",""791087""
""focus"",""80"",""909552""
""focus"",""89"",""968476""
","""event"",""trial"",""time""
""fullscreenenter"",""1"",""2239""
","""event"",""trial"",""time""
""fullscreenexit"",""51"",""586767""
","","","954","","","13","8808","2290","&#9728;","elianto","#f73b6a7A","-1"," ","0","0","[1805]","1","1","","","8808","3","0","4","lose","no-go","1"
"pit-trial","121","1181814","0.0-7.0","battery-v0.2","","""event"",""trial"",""time""
""fullscreenenter"",""1"",""2239""
""fullscreenexit"",""51"",""586767""
""blur"",""51"",""589631""
""focus"",""52"",""595237""
""blur"",""53"",""599470""
""focus"",""54"",""601347""
""blur"",""58"",""629140""
""focus"",""58"",""791087""
""blur"",""70"",""863559""
""focus"",""80"",""909552""
""blur"",""89"",""966918""
""focus"",""89"",""968476""
","""event"",""trial"",""time""
""blur"",""51"",""589631""
""blur"",""53"",""599470""
""blur"",""58"",""629140""
""blur"",""70"",""863559""
""blur"",""89"",""966918""
","""event"",""trial"",""time""
""focus"",""52"",""595237""
""focus"",""54"",""601347""
""focus"",""58"",""791087""
""focus"",""80"",""909552""
""focus"",""89"",""968476""
","""event"",""trial"",""time""
""fullscreenenter"",""1"",""2239""
","""event"",""trial"",""time""
""fullscreenexit"",""51"",""586767""
","","","803","","","13","8808","2290","&#9733;","elianto","#3366ff99","-1"," ","0","0","[1655]","1","1","","","8808","4","2","2","win","no-go","0"
"pit-trial","122","1185509","0.0-8.0","battery-v0.2","","""event"",""trial"",""time""
""fullscreenenter"",""1"",""2239""
""fullscreenexit"",""51"",""586767""
""blur"",""51"",""589631""
""focus"",""52"",""595237""
""blur"",""53"",""599470""
""focus"",""54"",""601347""
""blur"",""58"",""629140""
""focus"",""58"",""791087""
""blur"",""70"",""863559""
""focus"",""80"",""909552""
""blur"",""89"",""966918""
""focus"",""89"",""968476""
","""event"",""trial"",""time""
""blur"",""51"",""589631""
""blur"",""53"",""599470""
""blur"",""58"",""629140""
""blur"",""70"",""863559""
""blur"",""89"",""966918""
","""event"",""trial"",""time""
""focus"",""52"",""595237""
""focus"",""54"",""601347""
""focus"",""58"",""791087""
""focus"",""80"",""909552""
""focus"",""89"",""968476""
","""event"",""trial"",""time""
""fullscreenenter"",""1"",""2239""
","""event"",""trial"",""time""
""fullscreenexit"",""51"",""586767""
","","","832","","","13","8808","2290","&#9728;","elianto","#f73b6a7A","-1"," ","0","-10","[1685]","1","1","","","8808","5","0","4","lose","no-go","0"
"pit-trial","123","1189156","0.0-9.0","battery-v0.2","","""event"",""trial"",""time""
""fullscreenenter"",""1"",""2239""
""fullscreenexit"",""51"",""586767""
""blur"",""51"",""589631""
""focus"",""52"",""595237""
""blur"",""53"",""599470""
""focus"",""54"",""601347""
""blur"",""58"",""629140""
""focus"",""58"",""791087""
""blur"",""70"",""863559""
""focus"",""80"",""909552""
""blur"",""89"",""966918""
""focus"",""89"",""968476""
","""event"",""trial"",""time""
""blur"",""51"",""589631""
""blur"",""53"",""599470""
""blur"",""58"",""629140""
""blur"",""70"",""863559""
""blur"",""89"",""966918""
","""event"",""trial"",""time""
""focus"",""52"",""595237""
""focus"",""54"",""601347""
""focus"",""58"",""791087""
""focus"",""80"",""909552""
""focus"",""89"",""968476""
","""event"",""trial"",""time""
""fullscreenenter"",""1"",""2239""
","""event"",""trial"",""time""
""fullscreenexit"",""51"",""586767""
","","","776","","","13","8808","2290","&#9733;","elianto","#3366ff99","-1"," ","0","0","[1629]","1","1","","","8808","6","2","2","win","no-go","0"
"pit-trial","124","1192860","0.0-10.0","battery-v0.2","","""event"",""trial"",""time""
""fullscreenenter"",""1"",""2239""
""fullscreenexit"",""51"",""586767""
""blur"",""51"",""589631""
""focus"",""52"",""595237""
""blur"",""53"",""599470""
""focus"",""54"",""601347""
""blur"",""58"",""629140""
""focus"",""58"",""791087""
""blur"",""70"",""863559""
""focus"",""80"",""909552""
""blur"",""89"",""966918""
""focus"",""89"",""968476""
","""event"",""trial"",""time""
""blur"",""51"",""589631""
""blur"",""53"",""599470""
""blur"",""58"",""629140""
""blur"",""70"",""863559""
""blur"",""89"",""966918""
","""event"",""trial"",""time""
""focus"",""52"",""595237""
""focus"",""54"",""601347""
""focus"",""58"",""791087""
""focus"",""80"",""909552""
""focus"",""89"",""968476""
","""event"",""trial"",""time""
""fullscreenenter"",""1"",""2239""
","""event"",""trial"",""time""
""fullscreenexit"",""51"",""586767""
","","","841","","","13","8808","2290","&#9752;","elianto","#f73b6a7A"," "," ","1","0","[1691]","1","1","","","8808","7","3","3","lose","go","0"
"pit-trial","125","1196573","0.0-11.0","battery-v0.2","","""event"",""trial"",""time""
""fullscreenenter"",""1"",""2239""
""fullscreenexit"",""51"",""586767""
""blur"",""51"",""589631""
""focus"",""52"",""595237""
""blur"",""53"",""599470""
""focus"",""54"",""601347""
""blur"",""58"",""629140""
""focus"",""58"",""791087""
""blur"",""70"",""863559""
""focus"",""80"",""909552""
""blur"",""89"",""966918""
""focus"",""89"",""968476""
","""event"",""trial"",""time""
""blur"",""51"",""589631""
""blur"",""53"",""599470""
""blur"",""58"",""629140""
""blur"",""70"",""863559""
""blur"",""89"",""966918""
","""event"",""trial"",""time""
""focus"",""52"",""595237""
""focus"",""54"",""601347""
""focus"",""58"",""791087""
""focus"",""80"",""909552""
""focus"",""89"",""968476""
","""event"",""trial"",""time""
""fullscreenenter"",""1"",""2239""
","""event"",""trial"",""time""
""fullscreenexit"",""51"",""586767""
","","","856","","","13","8808","2290","&#9730;","elianto","#3366ff99"," "," ","1","0","[1710]","1","1","","","8808","8","1","1","win","go","1"
"pit-trial","126","1200212","0.0-12.0","battery-v0.2","","""event"",""trial"",""time""
""fullscreenenter"",""1"",""2239""
""fullscreenexit"",""51"",""586767""
""blur"",""51"",""589631""
""focus"",""52"",""595237""
""blur"",""53"",""599470""
""focus"",""54"",""601347""
""blur"",""58"",""629140""
""focus"",""58"",""791087""
""blur"",""70"",""863559""
""focus"",""80"",""909552""
""blur"",""89"",""966918""
""focus"",""89"",""968476""
","""event"",""trial"",""time""
""blur"",""51"",""589631""
""blur"",""53"",""599470""
""blur"",""58"",""629140""
""blur"",""70"",""863559""
""blur"",""89"",""966918""
","""event"",""trial"",""time""
""focus"",""52"",""595237""
""focus"",""54"",""601347""
""focus"",""58"",""791087""
""focus"",""80"",""909552""
""focus"",""89"",""968476""
","""event"",""trial"",""time""
""fullscreenenter"",""1"",""2239""
","""event"",""trial"",""time""
""fullscreenexit"",""51"",""586767""
","","","787","","","13","8808","2290","&#9752;","elianto","#f73b6a7A"," "," ","1","0","[1637]","1","1","","","8808","9","3","3","lose","go","0"
"pit-trial","127","1205064","0.0-13.0","battery-v0.2","","""event"",""trial"",""time""
""fullscreenenter"",""1"",""2239""
""fullscreenexit"",""51"",""586767""
""blur"",""51"",""589631""
""focus"",""52"",""595237""
""blur"",""53"",""599470""
""focus"",""54"",""601347""
""blur"",""58"",""629140""
""focus"",""58"",""791087""
""blur"",""70"",""863559""
""focus"",""80"",""909552""
""blur"",""89"",""966918""
""focus"",""89"",""968476""
","""event"",""trial"",""time""
""blur"",""51"",""589631""
""blur"",""53"",""599470""
""blur"",""58"",""629140""
""blur"",""70"",""863559""
""blur"",""89"",""966918""
","""event"",""trial"",""time""
""focus"",""52"",""595237""
""focus"",""54"",""601347""
""focus"",""58"",""791087""
""focus"",""80"",""909552""
""focus"",""89"",""968476""
","""event"",""trial"",""time""
""fullscreenenter"",""1"",""2239""
","""event"",""trial"",""time""
""fullscreenexit"",""51"",""586767""
","","","-1","","","13","8808","2290","&#9733;","elianto","#3366ff99","-1","-1","1","+10","[]","0","1","","","8808","10","2","2","win","no-go","0"
"pit-trial","128","1209916","0.0-14.0","battery-v0.2","","""event"",""trial"",""time""
""fullscreenenter"",""1"",""2239""
""fullscreenexit"",""51"",""586767""
""blur"",""51"",""589631""
""focus"",""52"",""595237""
""blur"",""53"",""599470""
""focus"",""54"",""601347""
""blur"",""58"",""629140""
""focus"",""58"",""791087""
""blur"",""70"",""863559""
""focus"",""80"",""909552""
""blur"",""89"",""966918""
""focus"",""89"",""968476""
","""event"",""trial"",""time""
""blur"",""51"",""589631""
""blur"",""53"",""599470""
""blur"",""58"",""629140""
""blur"",""70"",""863559""
""blur"",""89"",""966918""
","""event"",""trial"",""time""
""focus"",""52"",""595237""
""focus"",""54"",""601347""
""focus"",""58"",""791087""
""focus"",""80"",""909552""
""focus"",""89"",""968476""
","""event"",""trial"",""time""
""fullscreenenter"",""1"",""2239""
","""event"",""trial"",""time""
""fullscreenexit"",""51"",""586767""
","","","-1","","","13","8808","2290","&#9730;","elianto","#3366ff99"," ","-1","0","0","[]","0","1","","","8808","11","1","1","win","go","0"
"pit-trial","129","1214325","0.0-15.0","battery-v0.2","","""event"",""trial"",""time""
""fullscreenenter"",""1"",""2239""
""fullscreenexit"",""51"",""586767""
""blur"",""51"",""589631""
""focus"",""52"",""595237""
""blur"",""53"",""599470""
""focus"",""54"",""601347""
""blur"",""58"",""629140""
""focus"",""58"",""791087""
""blur"",""70"",""863559""
""focus"",""80"",""909552""
""blur"",""89"",""966918""
""focus"",""89"",""968476""
","""event"",""trial"",""time""
""blur"",""51"",""589631""
""blur"",""53"",""599470""
""blur"",""58"",""629140""
""blur"",""70"",""863559""
""blur"",""89"",""966918""
","""event"",""trial"",""time""
""focus"",""52"",""595237""
""focus"",""54"",""601347""
""focus"",""58"",""791087""
""focus"",""80"",""909552""
""focus"",""89"",""968476""
","""event"",""trial"",""time""
""fullscreenenter"",""1"",""2239""
","""event"",""trial"",""time""
""fullscreenexit"",""51"",""586767""
","","","1556","","","13","8808","2290","&#9728;","elianto","#f73b6a7A","-1"," ","0","-10","[2406]","1","1","","","8808","12","0","4","lose","no-go","0"
"pit-trial","130","1219083","0.0-16.0","battery-v0.2","","""event"",""trial"",""time""
""fullscreenenter"",""1"",""2239""
""fullscreenexit"",""51"",""586767""
""blur"",""51"",""589631""
""focus"",""52"",""595237""
""blur"",""53"",""599470""
""focus"",""54"",""601347""
""blur"",""58"",""629140""
""focus"",""58"",""791087""
""blur"",""70"",""863559""
""focus"",""80"",""909552""
""blur"",""89"",""966918""
""focus"",""89"",""968476""
","""event"",""trial"",""time""
""blur"",""51"",""589631""
""blur"",""53"",""599470""
""blur"",""58"",""629140""
""blur"",""70"",""863559""
""blur"",""89"",""966918""
","""event"",""trial"",""time""
""focus"",""52"",""595237""
""focus"",""54"",""601347""
""focus"",""58"",""791087""
""focus"",""80"",""909552""
""focus"",""89"",""968476""
","""event"",""trial"",""time""
""fullscreenenter"",""1"",""2239""
","""event"",""trial"",""time""
""fullscreenexit"",""51"",""586767""
","","","1907","","","13","8808","2290","&#9733;","elianto","#3366ff99","-1"," ","0","0","[2758]","1","1","","","8808","13","2","2","win","no-go","0"
"pit-trial","131","1223844","0.0-17.0","battery-v0.2","","""event"",""trial"",""time""
""fullscreenenter"",""1"",""2239""
""fullscreenexit"",""51"",""586767""
""blur"",""51"",""589631""
""focus"",""52"",""595237""
""blur"",""53"",""599470""
