"trial_type","trial_index","time_elapsed","internal_node_id","task_version","subject_id","interactions","blur_events","focus_events","fullscreenenter_events","fullscreenexit_events","success","view_history","rt","responses","num_errors","age","subject","participantId","rune","rune_set","hex","correct","choice","accuracy","outcome","keys","total_keys","block","practice","value","sub","trial","stimulus","robot","valence","action","sham"
"pavlovia","0","12","0.0-0.0","battery-v0.2","","""event"",""trial"",""time""
""fullscreenenter"",""1"",""2872""
","
","
","""event"",""trial"",""time""
""fullscreenenter"",""1"",""2872""
","
","","","","","","","","","","","","","","","","","","","","","","","","","","",""
"fullscreen","1","3792","0.0-1.0","battery-v0.2","","""event"",""trial"",""time""
""fullscreenenter"",""1"",""2872""
","
","
","""event"",""trial"",""time""
""fullscreenenter"",""1"",""2872""
","
","true","","","","","","","","","","","","","","","","","","","","","","","","","",""
"pit-instructions","2","11514","0.0-2.0-0.0","battery-v0.2","","""event"",""trial"",""time""
""fullscreenenter"",""1"",""2872""
","
","
","""event"",""trial"",""time""
""fullscreenenter"",""1"",""2872""
","
","","[{""page_index"":0,""viewing_time"":7714}]","7715","","","","","","","","","","","","","","","","","","","","","","","",""
"pit-comprehension","3","17926","0.0-2.0-1.0-0.0","battery-v0.2","","""event"",""trial"",""time""
""fullscreenenter"",""1"",""2872""
","
","
","""event"",""trial"",""time""
""fullscreenenter"",""1"",""2872""
","
","","","5964.999999999998","[""shark""]","0","21","3017","1827","","","","","","","","","","","","","","","","","","",""
"pit-instructions","4","22974","0.0-2.0-1.0-1.0","battery-v0.2","","""event"",""trial"",""time""
""fullscreenenter"",""1"",""2872""
","
","
","""event"",""trial"",""time""
""fullscreenenter"",""1"",""2872""
","
","","[{""page_index"":0,""viewing_time"":5032}]","5033","","","","","","","","","","","","","","","","","","","","","","","",""
"pit-comprehension","5","27640","0.0-2.0-2.0-0.0","battery-v0.2","","""event"",""trial"",""time""
""fullscreenenter"",""1"",""2872""
","
","
","""event"",""trial"",""time""
""fullscreenenter"",""1"",""2872""
","
","","","4661","[""tiger""]","0","21","3017","1827","","","","","","","","","","","","","","","","","","",""
"pit-instructions","6","63168","0.0-2.0-2.0-1.0","battery-v0.2","","""event"",""trial"",""time""
""fullscreenenter"",""1"",""2872""
","
","
","""event"",""trial"",""time""
""fullscreenenter"",""1"",""2872""
","
","","[{""page_index"":0,""viewing_time"":35525}]","35525","","","","","","","","","","","","","","","","","","","","","","","",""
"pit-instructions","7","174943","0.0-2.0-3.0","battery-v0.2","","""event"",""trial"",""time""
""fullscreenenter"",""1"",""2872""
","
","
","""event"",""trial"",""time""
""fullscreenenter"",""1"",""2872""
","
","","[{""page_index"":0,""viewing_time"":13709.999999999993},{""page_index"":1,""viewing_time"":7771},{""page_index"":2,""viewing_time"":7064},{""page_index"":3,""viewing_time"":8410},{""page_index"":4,""viewing_time"":10595},{""page_index"":5,""viewing_time"":6433.000000000015},{""page_index"":6,""viewing_time"":7009.999999999985},{""page_index"":7,""viewing_time"":7147},{""page_index"":8,""viewing_time"":6228},{""page_index"":9,""viewing_time"":11212},{""page_index"":10,""viewing_time"":7710},{""page_index"":11,""viewing_time"":7322},{""page_index"":12,""viewing_time"":6219},{""page_index"":13,""viewing_time"":4945.000000000029}]","111776.00000000003","","","","","","","","","","","","","","","","","","","","","","","",""
"pit-trial","8","178326","0.0-2.0-4.0-0.0","battery-v0.2","","""event"",""trial"",""time""
""fullscreenenter"",""1"",""2872""
","
","
","""event"",""trial"",""time""
""fullscreenenter"",""1"",""2872""
","
","","","528.0000000000291","","","21","3017","1827","&#9784;","elianto","#FFFFF080"," "," ","1","&#10004","[1379.000000000029]","1","0","0","","","","","","","",""
"pit-trial","9","181609","0.0-2.0-4.1-0.1","battery-v0.2","","""event"",""trial"",""time""
""fullscreenenter"",""1"",""2872""
","
","
","""event"",""trial"",""time""
""fullscreenenter"",""1"",""2872""
","
","","","429","","","21","3017","1827","&#9784;","elianto","#FFFFF080"," "," ","1","&#10004","[1280]","1","0","0","","","","","","","",""
"pit-trial","10","184961","0.0-2.0-4.2-0.2","battery-v0.2","","""event"",""trial"",""time""
""fullscreenenter"",""1"",""2872""
","
","
","""event"",""trial"",""time""
""fullscreenenter"",""1"",""2872""
","
","","","497","","","21","3017","1827","&#9784;","elianto","#FFFFF080"," "," ","1","&#10004","[1348]","1","0","0","","","","","","","",""
"pit-trial","11","188313","0.0-2.0-4.3-0.3","battery-v0.2","","""event"",""trial"",""time""
""fullscreenenter"",""1"",""2872""
","
","
","""event"",""trial"",""time""
""fullscreenenter"",""1"",""2872""
","
","","","499","","","21","3017","1827","&#9784;","elianto","#FFFFF080"," "," ","1","&#10004","[1350]","1","0","0","","","","","","","",""
"pit-trial","12","191548","0.0-2.0-4.4-0.4","battery-v0.2","","""event"",""trial"",""time""
""fullscreenenter"",""1"",""2872""
","
","
","""event"",""trial"",""time""
""fullscreenenter"",""1"",""2872""
","
","","","383","","","21","3017","1827","&#9784;","elianto","#FFFFF080"," "," ","1","&#10004","[1233]","1","0","0","","","","","","","",""
"pit-instructions","13","213775","0.0-2.0-5.0","battery-v0.2","","""event"",""trial"",""time""
""fullscreenenter"",""1"",""2872""
","
","
","""event"",""trial"",""time""
""fullscreenenter"",""1"",""2872""
","
","","[{""page_index"":0,""viewing_time"":4846},{""page_index"":1,""viewing_time"":5226},{""page_index"":2,""viewing_time"":6161},{""page_index"":3,""viewing_time"":5991}]","22224","","","","","","","","","","","","","","","","","","","","","","","",""
"pit-trial","14","218629","0.0-2.0-6.0-0.0","battery-v0.2","","""event"",""trial"",""time""
""fullscreenenter"",""1"",""2872""
","
","
","""event"",""trial"",""time""
""fullscreenenter"",""1"",""2872""
","
","","","-1","","","21","3017","1827","&#9854;","elianto","#FFFFF080","-1","-1","1","&#10004","[]","0","0","1","","","","","","","",""
"pit-trial","15","223483","0.0-2.0-6.1-0.1","battery-v0.2","","""event"",""trial"",""time""
""fullscreenenter"",""1"",""2872""
","
","
","""event"",""trial"",""time""
""fullscreenenter"",""1"",""2872""
","
","","","-1","","","21","3017","1827","&#9854;","elianto","#FFFFF080","-1","-1","1","&#10004","[]","0","0","1","","","","","","","",""
"pit-trial","16","228336","0.0-2.0-6.2-0.2","battery-v0.2","","""event"",""trial"",""time""
""fullscreenenter"",""1"",""2872""
","
","
","""event"",""trial"",""time""
""fullscreenenter"",""1"",""2872""
","
","","","-1","","","21","3017","1827","&#9854;","elianto","#FFFFF080","-1","-1","1","&#10004","[]","0","0","1","","","","","","","",""
"pit-trial","17","233190","0.0-2.0-6.3-0.3","battery-v0.2","","""event"",""trial"",""time""
""fullscreenenter"",""1"",""2872""
","
","
","""event"",""trial"",""time""
""fullscreenenter"",""1"",""2872""
","
","","","-1","","","21","3017","1827","&#9854;","elianto","#FFFFF080","-1","-1","1","&#10004","[]","0","0","1","","","","","","","",""
"pit-trial","18","238043","0.0-2.0-6.4-0.4","battery-v0.2","","""event"",""trial"",""time""
""fullscreenenter"",""1"",""2872""
","
","
","""event"",""trial"",""time""
""fullscreenenter"",""1"",""2872""
","
","","","-1","","","21","3017","1827","&#9854;","elianto","#FFFFF080","-1","-1","1","&#10004","[]","0","0","1","","","","","","","",""
"pit-instructions","19","374848","0.0-2.0-7.0","battery-v0.2","","""event"",""trial"",""time""
""fullscreenenter"",""1"",""2872""
","
","
","""event"",""trial"",""time""
""fullscreenenter"",""1"",""2872""
","
","","[{""page_index"":0,""viewing_time"":8392},{""page_index"":1,""viewing_time"":9350},{""page_index"":2,""viewing_time"":6171},{""page_index"":3,""viewing_time"":6727},{""page_index"":4,""viewing_time"":7302},{""page_index"":5,""viewing_time"":5673},{""page_index"":6,""viewing_time"":5180},{""page_index"":7,""viewing_time"":7479.000000000058},{""page_index"":8,""viewing_time"":6022.999999999942},{""page_index"":9,""viewing_time"":6009},{""page_index"":10,""viewing_time"":7495},{""page_index"":11,""viewing_time"":4317},{""page_index"":12,""viewing_time"":17036.00000000006},{""page_index"":13,""viewing_time"":9878.999999999942},{""page_index"":14,""viewing_time"":8372},{""page_index"":15,""viewing_time"":6293},{""page_index"":16,""viewing_time"":6627},{""page_index"":17,""viewing_time"":8483}]","136808","","","","","","","","","","","","","","","","","","","","","","","",""
"pit-trial","20","379703","0.0-2.0-8.0-0.0","battery-v0.2","","""event"",""trial"",""time""
""fullscreenenter"",""1"",""2872""
","
","
","""event"",""trial"",""time""
""fullscreenenter"",""1"",""2872""
","
","","","-1","","","21","3017","1827","&#9776;","elianto","#3366ff99"," ","-1","0","0","[3389]","1","0","1","","","","","","","",""
"pit-trial","21","384557","0.0-2.0-8.0-1.0","battery-v0.2","","""event"",""trial"",""time""
""fullscreenenter"",""1"",""2872""
","
","
","""event"",""trial"",""time""
""fullscreenenter"",""1"",""2872""
","
","","","-1","","","21","3017","1827","&#9776;","elianto","#3366ff99"," ","-1","0","0","[]","0","0","1","","","","","","","",""
"pit-trial","22","388009","0.0-2.0-8.0-2.0","battery-v0.2","","""event"",""trial"",""time""
""fullscreenenter"",""1"",""2872""
","
","
","""event"",""trial"",""time""
""fullscreenenter"",""1"",""2872""
","
","","","598","","","21","3017","1827","&#9776;","elianto","#3366ff99"," "," ","1","+10","[1448]","1","0","1","","","","","","","",""
"pit-trial","23","391364","0.0-2.0-8.0-3.0","battery-v0.2","","""event"",""trial"",""time""
""fullscreenenter"",""1"",""2872""
","
","
","""event"",""trial"",""time""
""fullscreenenter"",""1"",""2872""
","
","","","500.9999999999418","","","21","3017","1827","&#9776;","elianto","#3366ff99"," "," ","1","0","[1352]","1","0","1","","","","","","","",""
"pit-trial","24","396217","0.0-2.0-8.0-4.0","battery-v0.2","","""event"",""trial"",""time""
""fullscreenenter"",""1"",""2872""
","
","
","""event"",""trial"",""time""
""fullscreenenter"",""1"",""2872""
","
","","","-1","","","21","3017","1827","&#9776;","elianto","#3366ff99"," ","-1","0","0","[]","0","0","1","","","","","","","",""
"pit-trial","25","401070","0.0-2.0-8.1-0.1","battery-v0.2","","""event"",""trial"",""time""
""fullscreenenter"",""1"",""2872""
","
","
","""event"",""trial"",""time""
""fullscreenenter"",""1"",""2872""
","
","","","-1","","","21","3017","1827","&#9776;","elianto","#3366ff99"," ","-1","0","0","[]","0","0","1","","","","","","","",""
"pit-trial","26","404659","0.0-2.0-8.1-1.1","battery-v0.2","","""event"",""trial"",""time""
""fullscreenenter"",""1"",""2872""
","
","
","""event"",""trial"",""time""
""fullscreenenter"",""1"",""2872""
","
","","","734","","","21","3017","1827","&#9776;","elianto","#3366ff99"," "," ","1","+10","[1585]","1","0","1","","","","","","","",""
"pit-trial","27","408154","0.0-2.0-8.1-2.1","battery-v0.2","","""event"",""trial"",""time""
""fullscreenenter"",""1"",""2872""
","
","
","""event"",""trial"",""time""
""fullscreenenter"",""1"",""2872""
","
","","","642","","","21","3017","1827","&#9776;","elianto","#3366ff99"," "," ","1","+10","[1492]","1","0","1","","","","","","","",""
"pit-trial","28","411628","0.0-2.0-8.1-3.1","battery-v0.2","","""event"",""trial"",""time""
""fullscreenenter"",""1"",""2872""
","
","
","""event"",""trial"",""time""
""fullscreenenter"",""1"",""2872""
","
","","","622.0000000000582","","","21","3017","1827","&#9776;","elianto","#3366ff99"," "," ","1","0","[1472.0000000000582]","1","0","1","","","","","","","",""
"pit-trial","29","415408","0.0-2.0-8.1-4.1","battery-v0.2","","""event"",""trial"",""time""
""fullscreenenter"",""1"",""2872""
","
","
","""event"",""trial"",""time""
""fullscreenenter"",""1"",""2872""
","
","","","927","","","21","3017","1827","&#9776;","elianto","#3366ff99"," "," ","1","+10","[1777]","1","0","1","","","","","","","",""
"call-function","30","415410","0.0-2.0-9.0","battery-v0.2","","""event"",""trial"",""time""
""fullscreenenter"",""1"",""2872""
","
","
","""event"",""trial"",""time""
""fullscreenenter"",""1"",""2872""
","
","","","","","","","","","","","","","","","","","","","","","","","","","","",""
"pit-instructions","31","463987","0.0-2.0-10.0","battery-v0.2","","""event"",""trial"",""time""
""fullscreenenter"",""1"",""2872""
","
","
","""event"",""trial"",""time""
""fullscreenenter"",""1"",""2872""
","
","","[{""page_index"":0,""viewing_time"":7664},{""page_index"":1,""viewing_time"":6745},{""page_index"":2,""viewing_time"":9094},{""page_index"":3,""viewing_time"":16183},{""page_index"":4,""viewing_time"":8892}]","48578","","","","","","","","","","","","","","","","","","","","","","","",""
"pit-trial","32","468840","0.0-2.0-11.0-0.0","battery-v0.2","","""event"",""trial"",""time""
""fullscreenenter"",""1"",""2872""
","
","
","""event"",""trial"",""time""
""fullscreenenter"",""1"",""2872""
","
","","","-1","","","21","3017","1827","&#9761;","elianto","#3366ff99","-1","-1","1","+10","[]","0","0","2","","","","","","","",""
"pit-trial","33","473695","0.0-2.0-11.0-1.0","battery-v0.2","","""event"",""trial"",""time""
""fullscreenenter"",""1"",""2872""
","
","
","""event"",""trial"",""time""
""fullscreenenter"",""1"",""2872""
","
","","","-1","","","21","3017","1827","&#9761;","elianto","#3366ff99","-1","-1","1","+10","[]","0","0","2","","","","","","","",""
"pit-trial","34","478551","0.0-2.0-11.0-2.0","battery-v0.2","","""event"",""trial"",""time""
""fullscreenenter"",""1"",""2872""
","
","
","""event"",""trial"",""time""
""fullscreenenter"",""1"",""2872""
","
","","","-1","","","21","3017","1827","&#9761;","elianto","#3366ff99","-1","-1","1","+10","[]","0","0","2","","","","","","","",""
"pit-trial","35","483404","0.0-2.0-11.0-3.0","battery-v0.2","","""event"",""trial"",""time""
""fullscreenenter"",""1"",""2872""
","
","
","""event"",""trial"",""time""
""fullscreenenter"",""1"",""2872""
","
","","","-1","","","21","3017","1827","&#9761;","elianto","#3366ff99","-1","-1","1","0","[]","0","0","2","","","","","","","",""
"pit-trial","36","488258","0.0-2.0-11.0-4.0","battery-v0.2","","""event"",""trial"",""time""
""fullscreenenter"",""1"",""2872""
","
","
","""event"",""trial"",""time""
""fullscreenenter"",""1"",""2872""
","
","","","-1","","","21","3017","1827","&#9761;","elianto","#3366ff99","-1","-1","1","+10","[]","0","0","2","","","","","","","",""
"call-function","37","488262","0.0-2.0-12.0","battery-v0.2","","""event"",""trial"",""time""
""fullscreenenter"",""1"",""2872""
","
","
","""event"",""trial"",""time""
""fullscreenenter"",""1"",""2872""
","
","","","","","","","","","","","","","","","","","","","","","","","","","","",""
"pit-instructions","38","540130","0.0-2.0-13.0","battery-v0.2","","""event"",""trial"",""time""
""fullscreenenter"",""1"",""2872""
","
","
","""event"",""trial"",""time""
""fullscreenenter"",""1"",""2872""
","
","","[{""page_index"":0,""viewing_time"":8926.000000000058},{""page_index"":1,""viewing_time"":23341.99999999994},{""page_index"":2,""viewing_time"":4245},{""page_index"":3,""viewing_time"":11096},{""page_index"":4,""viewing_time"":4260}]","51870","","","","","","","","","","","","","","","","","","","","","","","",""
"pit-trial","39","544986","0.0-2.0-14.0-0.0","battery-v0.2","","""event"",""trial"",""time""
""fullscreenenter"",""1"",""2872""
","
","
","""event"",""trial"",""time""
""fullscreenenter"",""1"",""2872""
","
","","","-1","","","21","3017","1827","&#9826;","elianto","#f73b6a7A","-1","-1","1","0","[]","0","0","3","","","","","","","",""
"pit-trial","40","549841","0.0-2.0-14.0-1.0","battery-v0.2","","""event"",""trial"",""time""
""fullscreenenter"",""1"",""2872""
","
","
","""event"",""trial"",""time""
""fullscreenenter"",""1"",""2872""
","
","","","-1","","","21","3017","1827","&#9826;","elianto","#f73b6a7A","-1","-1","1","0","[]","0","0","3","","","","","","","",""
"pit-trial","41","554695","0.0-2.0-14.0-2.0","battery-v0.2","","""event"",""trial"",""time""
""fullscreenenter"",""1"",""2872""
","
","
","""event"",""trial"",""time""
""fullscreenenter"",""1"",""2872""
","
","","","-1","","","21","3017","1827","&#9826;","elianto","#f73b6a7A","-1","-1","1","0","[]","0","0","3","","","","","","","",""
"pit-trial","42","559548","0.0-2.0-14.0-3.0","battery-v0.2","","""event"",""trial"",""time""
""fullscreenenter"",""1"",""2872""
","
","
","""event"",""trial"",""time""
""fullscreenenter"",""1"",""2872""
","
","","","-1","","","21","3017","1827","&#9826;","elianto","#f73b6a7A","-1","-1","1","-10","[]","0","0","3","","","","","","","",""
"pit-trial","43","564402","0.0-2.0-14.0-4.0","battery-v0.2","","""event"",""trial"",""time""
""fullscreenenter"",""1"",""2872""
","
","
","""event"",""trial"",""time""
""fullscreenenter"",""1"",""2872""
","
","","","-1","","","21","3017","1827","&#9826;","elianto","#f73b6a7A","-1","-1","1","0","[]","0","0","3","","","","","","","",""
"call-function","44","564404","0.0-2.0-15.0","battery-v0.2","","""event"",""trial"",""time""
""fullscreenenter"",""1"",""2872""
","
","
","""event"",""trial"",""time""
""fullscreenenter"",""1"",""2872""
","
","","","","","","","","","","","","","","","","","","","","","","","","","","",""
"pit-instructions","45","596176","0.0-2.0-16.0","battery-v0.2","","""event"",""trial"",""time""
""fullscreenenter"",""1"",""2872""
","
","
","""event"",""trial"",""time""
""fullscreenenter"",""1"",""2872""
","
","","[{""page_index"":0,""viewing_time"":8386},{""page_index"":1,""viewing_time"":10152},{""page_index"":2,""viewing_time"":5765},{""page_index"":3,""viewing_time"":7470}]","31773","","","","","","","","","","","","","","","","","","","","","","","",""
"pit-trial","46","601031","0.0-2.0-17.0-0.0","battery-v0.2","","""event"",""trial"",""time""
""fullscreenenter"",""1"",""2872""
","
","
","""event"",""trial"",""time""
""fullscreenenter"",""1"",""2872""
","
","","","-1","","","21","3017","1827","&#9789;","elianto","#f73b6a7A"," ","-1","0","-10","[]","0","0","4","","","","","","","",""
"pit-trial","47","604381","0.0-2.0-17.0-1.0","battery-v0.2","","""event"",""trial"",""time""
""fullscreenenter"",""1"",""2872""
","
","
","""event"",""trial"",""time""
""fullscreenenter"",""1"",""2872""
","
","","","497","","","21","3017","1827","&#9789;","elianto","#f73b6a7A"," "," ","1","0","[1347]","1","0","4","","","","","","","",""
"pit-trial","48","607703","0.0-2.0-17.0-2.0","battery-v0.2","","""event"",""trial"",""time""
""fullscreenenter"",""1"",""2872""
","
","
","""event"",""trial"",""time""
""fullscreenenter"",""1"",""2872""
","
","","","470","","","21","3017","1827","&#9789;","elianto","#f73b6a7A"," "," ","1","0","[1320.0000000001164]","1","0","4","","","","","","","",""
"pit-trial","49","610987","0.0-2.0-17.0-3.0","battery-v0.2","","""event"",""trial"",""time""
""fullscreenenter"",""1"",""2872""
","
","
","""event"",""trial"",""time""
""fullscreenenter"",""1"",""2872""
","
","","","430","","","21","3017","1827","&#9789;","elianto","#f73b6a7A"," "," ","1","-10","[1281]","1","0","4","","","","","","","",""
"pit-trial","50","614117","0.0-2.0-17.0-4.0","battery-v0.2","","""event"",""trial"",""time""
""fullscreenenter"",""1"",""2872""
","
","
","""event"",""trial"",""time""
""fullscreenenter"",""1"",""2872""
","
","","","276","","","21","3017","1827","&#9789;","elianto","#f73b6a7A"," "," ","1","0","[1127]","1","0","4","","","","","","","",""
"call-function","51","614119","0.0-2.0-18.0","battery-v0.2","","""event"",""trial"",""time""
""fullscreenenter"",""1"",""2872""
","
","
","""event"",""trial"",""time""
""fullscreenenter"",""1"",""2872""
","
","","","","","","","","","","","","","","","","","","","","","","","","","","",""
"pit-instructions","52","688961","0.0-2.0-19.0","battery-v0.2","","""event"",""trial"",""time""
""fullscreenenter"",""1"",""2872""
","
","
","""event"",""trial"",""time""
""fullscreenenter"",""1"",""2872""
","
","","[{""page_index"":0,""viewing_time"":10054},{""page_index"":1,""viewing_time"":9288},{""page_index"":2,""viewing_time"":14447},{""page_index"":3,""viewing_time"":6916},{""page_index"":4,""viewing_time"":8277},{""page_index"":5,""viewing_time"":9505},{""page_index"":6,""viewing_time"":7481},{""page_index"":7,""viewing_time"":5285},{""page_index"":8,""viewing_time"":3591}]","74844","","","","","","","","","","","","","","","","","","","","","","","",""
"pit-comprehension","53","693375","0.0-2.0-20.0-0.0","battery-v0.2","","""event"",""trial"",""time""
""fullscreenenter"",""1"",""2872""
","
","
","""event"",""trial"",""time""
""fullscreenenter"",""1"",""2872""
","
","","","4409","[""SPACE""]","0","21","3017","1827","","","","","","","","","","","","","","","","","","",""
"pit-instructions","54","698935","0.0-2.0-20.0-1.0","battery-v0.2","","""event"",""trial"",""time""
""fullscreenenter"",""1"",""2872""
","
","
","""event"",""trial"",""time""
""fullscreenenter"",""1"",""2872""
","
","","[{""page_index"":0,""viewing_time"":5532}]","5532","","","","","","","","","","","","","","","","","","","","","","","",""
"pit-comprehension","55","704043","0.0-2.0-21.0-0.0","battery-v0.2","","""event"",""trial"",""time""
""fullscreenenter"",""1"",""2872""
","
","
","""event"",""trial"",""time""
""fullscreenenter"",""1"",""2872""
","
","","","5103.000000000116","[""10""]","0","21","3017","1827","","","","","","","","","","","","","","","","","","",""
"pit-instructions","56","705565","0.0-2.0-21.0-1.0","battery-v0.2","","""event"",""trial"",""time""
""fullscreenenter"",""1"",""2872""
","
","
","""event"",""trial"",""time""
""fullscreenenter"",""1"",""2872""
","
","","[{""page_index"":0,""viewing_time"":1490}]","1491","","","","","","","","","","","","","","","","","","","","","","","",""
"pit-comprehension","57","712143","0.0-2.0-22.0-0.0","battery-v0.2","","""event"",""trial"",""time""
""fullscreenenter"",""1"",""2872""
","
","
","""event"",""trial"",""time""
""fullscreenenter"",""1"",""2872""
","
","","","6575","[""0""]","0","21","3017","1827","","","","","","","","","","","","","","","","","","",""
"pit-instructions","58","713803","0.0-2.0-22.0-1.0","battery-v0.2","","""event"",""trial"",""time""
""fullscreenenter"",""1"",""2872""
","
","
","""event"",""trial"",""time""
""fullscreenenter"",""1"",""2872""
","
","","[{""page_index"":0,""viewing_time"":1630}]","1631","","","","","","","","","","","","","","","","","","","","","","","",""
"pit-comprehension","59","723922","0.0-2.0-23.0-0.0","battery-v0.2","","""event"",""trial"",""time""
""fullscreenenter"",""1"",""2872""
","
","
","""event"",""trial"",""time""
""fullscreenenter"",""1"",""2872""
","
","","","10116","[""True""]","0","21","3017","1827","","","","","","","","","","","","","","","","","","",""
"pit-instructions","60","725656","0.0-2.0-23.0-1.0","battery-v0.2","","""event"",""trial"",""time""
""fullscreenenter"",""1"",""2872""
","
","
","""event"",""trial"",""time""
""fullscreenenter"",""1"",""2872""
","
","","[{""page_index"":0,""viewing_time"":1708}]","1708","","","","","","","","","","","","","","","","","","","","","","","",""
"pit-comprehension","61","732952","0.0-2.0-24.0-0.0","battery-v0.2","","""event"",""trial"",""time""
""fullscreenenter"",""1"",""2872""
","
","
","""event"",""trial"",""time""
""fullscreenenter"",""1"",""2872""
","
","","","7293","[""True""]","0","21","3017","1827","","","","","","","","","","","","","","","","","","",""
"pit-instructions","62","734328","0.0-2.0-24.0-1.0","battery-v0.2","","""event"",""trial"",""time""
""fullscreenenter"",""1"",""2872""
","
","
","""event"",""trial"",""time""
""fullscreenenter"",""1"",""2872""
","
","","[{""page_index"":0,""viewing_time"":1347}]","1347","","","","","","","","","","","","","","","","","","","","","","","",""
"pit-comprehension","63","740714","0.0-2.0-25.0-0.0","battery-v0.2","","""event"",""trial"",""time""
""fullscreenenter"",""1"",""2872""
","
","
","""event"",""trial"",""time""
""fullscreenenter"",""1"",""2872""
","
","","","6383","[""True""]","0","21","3017","1827","","","","","","","","","","","","","","","","","","",""
"pit-instructions","64","742144","0.0-2.0-25.0-1.0","battery-v0.2","","""event"",""trial"",""time""
""fullscreenenter"",""1"",""2872""
","
","
","""event"",""trial"",""time""
""fullscreenenter"",""1"",""2872""
","
","","[{""page_index"":0,""viewing_time"":1401}]","1401","","","","","","","","","","","","","","","","","","","","","","","",""
"pit-comprehension","65","748321","0.0-2.0-26.0-0.0","battery-v0.2","","""event"",""trial"",""time""
""fullscreenenter"",""1"",""2872""
","
","
","""event"",""trial"",""time""
""fullscreenenter"",""1"",""2872""
","
","","","6174.000000000116","[""False""]","0","21","3017","1827","","","","","","","","","","","","","","","","","","",""
"pit-instructions","66","750060","0.0-2.0-26.0-1.0","battery-v0.2","","""event"",""trial"",""time""
""fullscreenenter"",""1"",""2872""
","
","
","""event"",""trial"",""time""
""fullscreenenter"",""1"",""2872""
","
","","[{""page_index"":0,""viewing_time"":1704}]","1705.0000000001164","","","","","","","","","","","","","","","","","","","","","","","",""
"pit-instructions","67","770090","0.0-3.0","battery-v0.2","","""event"",""trial"",""time""
""fullscreenenter"",""1"",""2872""
","
","
","""event"",""trial"",""time""
""fullscreenenter"",""1"",""2872""
","
","","[{""page_index"":0,""viewing_time"":7808},{""page_index"":1,""viewing_time"":5561},{""page_index"":2,""viewing_time"":6657}]","20026","","","","","","","","","","","","","","","","","","","","","","","",""
"pit-trial","68","774438","0.0-4.0","battery-v0.2","","""event"",""trial"",""time""
""fullscreenenter"",""1"",""2872""
","
","
","""event"",""trial"",""time""
""fullscreenenter"",""1"",""2872""
","
","","","1491","","","21","3017","1827","&#9730;","elianto","#3366ff99"," "," ","1","+10","[2342]","1","1","","","3017","1","1","1","win","go","0"
"pit-trial","69","779293","0.0-5.0","battery-v0.2","","""event"",""trial"",""time""
""fullscreenenter"",""1"",""2872""
","
","
","""event"",""trial"",""time""
""fullscreenenter"",""1"",""2872""
","
","","","-1","","","21","3017","1827","&#9728;","elianto","#f73b6a7A","-1","-1","1","0","[]","0","1","","","3017","2","0","4","lose","no-go","0"
"pit-trial","70","783392","0.0-6.0","battery-v0.2","","""event"",""trial"",""time""
""fullscreenenter"",""1"",""2872""
","
","
","""event"",""trial"",""time""
""fullscreenenter"",""1"",""2872""
","
","","","1243.0000000001164","","","21","3017","1827","&#9752;","elianto","#f73b6a7A"," "," ","1","0","[2094.0000000001164]","1","1","","","3017","3","3","3","lose","go","0"
"pit-trial","71","787592","0.0-7.0","battery-v0.2","","""event"",""trial"",""time""
""fullscreenenter"",""1"",""2872""
","
","
","""event"",""trial"",""time""
""fullscreenenter"",""1"",""2872""
","
","","","1346","","","21","3017","1827","&#9733;","elianto","#3366ff99","-1"," ","0","+10","[2196]","1","1","","","3017","4","2","2","win","no-go","1"
"pit-trial","72","792446","0.0-8.0","battery-v0.2","","""event"",""trial"",""time""
""fullscreenenter"",""1"",""2872""
","
","
","""event"",""trial"",""time""
""fullscreenenter"",""1"",""2872""
","
","","","-1","","","21","3017","1827","&#9752;","elianto","#f73b6a7A"," ","-1","0","-10","[]","0","1","","","3017","5","3","3","lose","go","0"
"pit-trial","73","796812","0.0-9.0","battery-v0.2","","""event"",""trial"",""time""
""fullscreenenter"",""1"",""2872""
","
","
","""event"",""trial"",""time""
""fullscreenenter"",""1"",""2872""
","
","","","1511","","","21","3017","1827","&#9730;","elianto","#3366ff99"," "," ","1","+10","[2362]","1","1","","","3017","6","1","1","win","go","0"
"pit-trial","74","801161","0.0-10.0","battery-v0.2","","""event"",""trial"",""time""
""fullscreenenter"",""1"",""2872""
","
","
","""event"",""trial"",""time""
""fullscreenenter"",""1"",""2872""
","
","","","1494.0000000001164","","","21","3017","1827","&#9728;","elianto","#f73b6a7A","-1"," ","0","0","[2344.0000000001164]","1","1","","","3017","7","0","4","lose","no-go","1"
"pit-trial","75","805095","0.0-11.0","battery-v0.2","","""event"",""trial"",""time""
""fullscreenenter"",""1"",""2872""
","
","
","""event"",""trial"",""time""
""fullscreenenter"",""1"",""2872""
","
","","","1079","","","21","3017","1827","&#9733;","elianto","#3366ff99","-1"," ","0","0","[1928.9999999998836]","1","1","","","3017","8","2","2","win","no-go","0"
"pit-trial","76","808796","0.0-12.0","battery-v0.2","","""event"",""trial"",""time""
""fullscreenenter"",""1"",""2872""
","
","
","""event"",""trial"",""time""
""fullscreenenter"",""1"",""2872""
","
","","","845","","","21","3017","1827","&#9733;","elianto","#3366ff99","-1"," ","0","0","[1695]","1","1","","","3017","9","2","2","win","no-go","0"
"pit-trial","77","813481","0.0-13.0","battery-v0.2","","""event"",""trial"",""time""
""fullscreenenter"",""1"",""2872""
","
","
","""event"",""trial"",""time""
""fullscreenenter"",""1"",""2872""
","
","","","1831.0000000001164","","","21","3017","1827","&#9728;","elianto","#f73b6a7A","-1"," ","0","-10","[2682.0000000001164]","1","1","","","3017","10","0","4","lose","no-go","0"
"pit-trial","78","817089","0.0-14.0","battery-v0.2","","""event"",""trial"",""time""
""fullscreenenter"",""1"",""2872""
","
","
","""event"",""trial"",""time""
""fullscreenenter"",""1"",""2872""
","
","","","753","","","21","3017","1827","&#9752;","elianto","#f73b6a7A"," "," ","1","-10","[1604]","1","1","","","3017","11","3","3","lose","go","1"
"pit-trial","79","821944","0.0-15.0","battery-v0.2","","""event"",""trial"",""time""
""fullscreenenter"",""1"",""2872""
","
","
","""event"",""trial"",""time""
""fullscreenenter"",""1"",""2872""
","
","","","-1","","","21","3017","1827","&#9730;","elianto","#3366ff99"," ","-1","0","0","[2971]","1","1","","","3017","12","1","1","win","go","0"
"pit-trial","80","826799","0.0-16.0","battery-v0.2","","""event"",""trial"",""time""
""fullscreenenter"",""1"",""2872""
","
","
","""event"",""trial"",""time""
""fullscreenenter"",""1"",""2872""
","
","","","-1","","","21","3017","1827","&#9728;","elianto","#f73b6a7A","-1","-1","1","0","[]","0","1","","","3017","13","0","4","lose","no-go","0"
"pit-trial","81","831091","0.0-17.0","battery-v0.2","","""event"",""trial"",""time""
""fullscreenenter"",""1"",""2872""
","
","
","""event"",""trial"",""time""
""fullscreenenter"",""1"",""2872""
","
","","","1438","","","21","3017","1827","&#9752;","elianto","#f73b6a7A"," "," ","1","0","[2287.9999999998836]","1","1","","","3017","14","3","3","lose","go","0"
"pit-trial","82","835947","0.0-18.0","battery-v0.2","","""event"",""trial"",""time""
""fullscreenenter"",""1"",""2872""
","
","
","""event"",""trial"",""time""
""fullscreenenter"",""1"",""2872""
","
","","","-1","","","21","3017","1827","&#9730;","elianto","#3366ff99"," ","-1","0","+10","[]","0","1","","","3017","15","1","1","win","go","1"
"pit-trial","83","839632","0.0-19.0","battery-v0.2","","""event"",""trial"",""time""
""fullscreenenter"",""1"",""2872""
","
","
","""event"",""trial"",""time""
""fullscreenenter"",""1"",""2872""
","
","","","831","","","21","3017","1827","&#9733;","elianto","#3366ff99","-1"," ","0","+10","[1680.9999999998836]","1","1","","","3017","16","2","2","win","no-go","1"
"pit-trial","84","844486","0.0-20.0","battery-v0.2","","""event"",""trial"",""time""
""fullscreenenter"",""1"",""2872""
","
","
","""event"",""trial"",""time""
""fullscreenenter"",""1"",""2872""
","
","","","-1","","","21","3017","1827","&#9730;","elianto","#3366ff99"," ","-1","0","0","[]","0","1","","","3017","17","1","1","win","go","0"
"pit-trial","85","848397","0.0-21.0","battery-v0.2","","""event"",""trial"",""time""
""fullscreenenter"",""1"",""2872""
","
","
","""event"",""trial"",""time""
""fullscreenenter"",""1"",""2872""
","
","","","1056","","","21","3017","1827","&#9752;","elianto","#f73b6a7A"," "," ","1","0","[1907]","1","1","","","3017","18","3","3","lose","go","0"
"pit-trial","86","852344","0.0-22.0","battery-v0.2","","""event"",""trial"",""time""
""fullscreenenter"",""1"",""2872""
","
","
","""event"",""trial"",""time""
""fullscreenenter"",""1"",""2872""
","
","","","1092","","","21","3017","1827","&#9733;","elianto","#3366ff99","-1"," ","0","0","[1943]","1","1","","","3017","19","2","2","win","no-go","0"
"pit-trial","87","857199","0.0-23.0","battery-v0.2","","""event"",""trial"",""time""
""fullscreenenter"",""1"",""2872""
","
","
","""event"",""trial"",""time""
""fullscreenenter"",""1"",""2872""
","
","","","-1","","","21","3017","1827","&#9728;","elianto","#f73b6a7A","-1","-1","1","0","[]","0","1","","","3017","20","0","4","lose","no-go","0"
"pit-instructions","88","869754","0.0-24.0","battery-v0.2","","""event"",""trial"",""time""
""fullscreenenter"",""1"",""2872""
","
","
","""event"",""trial"",""time""
""fullscreenenter"",""1"",""2872""
","
","","[{""page_index"":0,""viewing_time"":5980},{""page_index"":1,""viewing_time"":6572}]","12552","","","","","","","","","","","","","","","","","","","","","","","",""
"pit-trial","89","874115","0.0-25.0","battery-v0.2","","""event"",""trial"",""time""
""fullscreenenter"",""1"",""2872""
","
","
","""event"",""trial"",""time""
""fullscreenenter"",""1"",""2872""
","
","","","1505","","","21","3017","1827","f","elianto","#3366ff99","-1"," ","0","0","[2355]","1","2","","","3017","21","1","2","win","no-go","0"
"pit-trial","90","878797","0.0-26.0","battery-v0.2","","""event"",""trial"",""time""
""fullscreenenter"",""1"",""2872""
","
","
","""event"",""trial"",""time""
""fullscreenenter"",""1"",""2872""
","
","","","1827","","","21","3017","1827","b","elianto","#f73b6a7A","-1"," ","0","-10","[2678]","1","2","","","3017","22","3","4","lose","no-go","0"
"pit-trial","91","882782","0.0-27.0","battery-v0.2","","""event"",""trial"",""time""
""fullscreenenter"",""1"",""2872""
","
","
","""event"",""trial"",""time""
""fullscreenenter"",""1"",""2872""
","
","","","1130","","","21","3017","1827","n","elianto","#f73b6a7A"," "," ","1","0","[1979.9999999998836]","1","2","","","3017","23","0","3","lose","go","0"
"pit-trial","92","887635","0.0-28.0","battery-v0.2","","""event"",""trial"",""time""
""fullscreenenter"",""1"",""2872""
","
","
","""event"",""trial"",""time""
""fullscreenenter"",""1"",""2872""
","
","","","-1","","","21","3017","1827","t","elianto","#f73b6a7A"," ","-1","0","-10","[3166]","1","2","","","3017","24","2","3","lose","go","0"
"pit-trial","93","892489","0.0-29.0","battery-v0.2","","""event"",""trial"",""time""
""fullscreenenter"",""1"",""2872""
","
","
","""event"",""trial"",""time""
""fullscreenenter"",""1"",""2872""
","
","","","-1","","","21","3017","1827","n","elianto","#f73b6a7A"," ","-1","0","0","[]","0","2","","","3017","25","0","3","lose","go","1"
"pit-trial","94","896787","0.0-30.0","battery-v0.2","","""event"",""trial"",""time""
""fullscreenenter"",""1"",""2872""
","
","
","""event"",""trial"",""time""
""fullscreenenter"",""1"",""2872""
","
","","","1442.0000000001164","","","21","3017","1827","b","elianto","#f73b6a7A","-1"," ","0","-10","[2293.0000000001164]","1","2","","","3017","26","3","4","lose","no-go","0"
"pit-trial","95","901045","0.0-31.0","battery-v0.2","","""event"",""trial"",""time""
""fullscreenenter"",""1"",""2872""
","
","
","""event"",""trial"",""time""
""fullscreenenter"",""1"",""2872""
","
","","","1405","","","21","3017","1827","t","elianto","#f73b6a7A"," "," ","1","0","[2255]","1","2","","","3017","27","2","3","lose","go","0"
"pit-trial","96","905300","0.0-32.0","battery-v0.2","","""event"",""trial"",""time""
""fullscreenenter"",""1"",""2872""
","
","
","""event"",""trial"",""time""
""fullscreenenter"",""1"",""2872""
","
","","","1400.0000000001164","","","21","3017","1827","f","elianto","#3366ff99","-1"," ","0","0","[2250]","1","2","","","3017","28","1","2","win","no-go","0"
"pit-trial","97","910154","0.0-33.0","battery-v0.2","","""event"",""trial"",""time""
""fullscreenenter"",""1"",""2872""
","
","
","""event"",""trial"",""time""
""fullscreenenter"",""1"",""2872""
","
","","","-1","","","21","3017","1827","f","elianto","#3366ff99","-1","-1","1","0","[]","0","2","","","3017","29","1","2","win","no-go","1"
"pit-trial","98","914919","0.0-34.0","battery-v0.2","","""event"",""trial"",""time""
""fullscreenenter"",""1"",""2872""
","
","
","""event"",""trial"",""time""
""fullscreenenter"",""1"",""2872""
","
","","","1911","","","21","3017","1827","t","elianto","#f73b6a7A"," "," ","1","0","[2761]","1","2","","","3017","30","2","3","lose","go","0"
"pit-trial","99","919774","0.0-35.0","battery-v0.2","","""event"",""trial"",""time""
""fullscreenenter"",""1"",""2872""
","
","
","""event"",""trial"",""time""
""fullscreenenter"",""1"",""2872""
","
","","","-1","","","21","3017","1827","b","elianto","#f73b6a7A","-1","-1","1","-10","[]","0","2","","","3017","31","3","4","lose","no-go","1"
"pit-trial","100","924628","0.0-36.0","battery-v0.2","","""event"",""trial"",""time""
""fullscreenenter"",""1"",""2872""
","
","
","""event"",""trial"",""time""
""fullscreenenter"",""1"",""2872""
","
","","","-1","","","21","3017","1827","n","elianto","#f73b6a7A"," ","-1","0","0","[]","0","2","","","3017","32","0","3","lose","go","1"
"pit-trial","101","929484","0.0-37.0","battery-v0.2","","""event"",""trial"",""time""
""fullscreenenter"",""1"",""2872""
","
","
","""event"",""trial"",""time""
""fullscreenenter"",""1"",""2872""
","
","","","-1","","","21","3017","1827","t","elianto","#f73b6a7A"," ","-1","0","-10","[2945.0000000001164]","1","2","","","3017","33","2","3","lose","go","0"
"pit-trial","102","934338","0.0-38.0","battery-v0.2","","""event"",""trial"",""time""
""fullscreenenter"",""1"",""2872""
","
","
","""event"",""trial"",""time""
""fullscreenenter"",""1"",""2872""
","
","","","-1","","","21","3017","1827","n","elianto","#f73b6a7A"," ","-1","0","0","[2981]","1","2","","","3017","34","0","3","lose","go","1"
"pit-trial","103","938816","0.0-39.0","battery-v0.2","","""event"",""trial"",""time""
""fullscreenenter"",""1"",""2872""
","
","
","""event"",""trial"",""time""
""fullscreenenter"",""1"",""2872""
","
","","","1624","","","21","3017","1827","f","elianto","#3366ff99","-1"," ","0","+10","[2474]","1","2","","","3017","35","1","2","win","no-go","1"
"pit-trial","104","943671","0.0-40.0","battery-v0.2","","""event"",""trial"",""time""
""fullscreenenter"",""1"",""2872""
","
","
","""event"",""trial"",""time""
""fullscreenenter"",""1"",""2872""
","
","","","-1","","","21","3017","1827","b","elianto","#f73b6a7A","-1","-1","1","0","[]","0","2","","","3017","36","3","4","lose","no-go","0"
"pit-trial","105","948035","0.0-41.0","battery-v0.2","","""event"",""trial"",""time""
""fullscreenenter"",""1"",""2872""
","
","
","""event"",""trial"",""time""
""fullscreenenter"",""1"",""2872""
","
","","","1510","","","21","3017","1827","t","elianto","#f73b6a7A"," "," ","1","0","[2360]","1","2","","","3017","37","2","3","lose","go","0"
"pit-trial","106","952891","0.0-42.0","battery-v0.2","","""event"",""trial"",""time""
""fullscreenenter"",""1"",""2872""
","
","
","""event"",""trial"",""time""
""fullscreenenter"",""1"",""2872""
","
","","","-1","","","21","3017","1827","b","elianto","#f73b6a7A","-1","-1","1","-10","[]","0","2","","","3017","38","3","4","lose","no-go","1"
"pit-trial","107","957628","0.0-43.0","battery-v0.2","","""event"",""trial"",""time""
""fullscreenenter"",""1"",""2872""
","
","
","""event"",""trial"",""time""
""fullscreenenter"",""1"",""2872""
","
","","","1883","","","21","3017","1827","n","elianto","#f73b6a7A"," "," ","1","0","[2733]","1","2","","","3017","39","0","3","lose","go","0"
"pit-trial","108","961308","0.0-44.0","battery-v0.2","","""event"",""trial"",""time""
""fullscreenenter"",""1"",""2872""
","
","
","""event"",""trial"",""time""
""fullscreenenter"",""1"",""2872""
","
","","","826","","","21","3017","1827","f","elianto","#3366ff99","-1"," ","0","+10","[1677]","1","2","","","3017","40","1","2","win","no-go","1"
"pit-trial","109","965147","0.0-45.0","battery-v0.2","","""event"",""trial"",""time""
""fullscreenenter"",""1"",""2872""
","
","
","""event"",""trial"",""time""
""fullscreenenter"",""1"",""2872""
","
","","","1080.0000000001164","","","21","3017","1827","f","elianto","#3366ff99","-1"," ","0","0","[1930.0000000001164]","1","2","","","3017","41","1","2","win","no-go","0"
"pit-trial","110","970002","0.0-46.0","battery-v0.2","","""event"",""trial"",""time""
""fullscreenenter"",""1"",""2872""
","
","
","""event"",""trial"",""time""
""fullscreenenter"",""1"",""2872""
","
","","","-1","","","21","3017","1827","b","elianto","#f73b6a7A","-1","-1","1","0","[]","0","2","","","3017","42","3","4","lose","no-go","0"
"pit-trial","111","974856","0.0-47.0","battery-v0.2","","""event"",""trial"",""time""
""fullscreenenter"",""1"",""2872""
","
","
","""event"",""trial"",""time""
""fullscreenenter"",""1"",""2872""
","
","","","-1","","","21","3017","1827","n","elianto","#f73b6a7A"," ","-1","0","0","[]","0","2","","","3017","43","0","3","lose","go","1"
"pit-trial","112","979711","0.0-48.0","battery-v0.2","","""event"",""trial"",""time""
""fullscreenenter"",""1"",""2872""
","
","
","""event"",""trial"",""time""
""fullscreenenter"",""1"",""2872""
","
","","","-1","","","21","3017","1827","t","elianto","#f73b6a7A"," ","-1","0","-10","[2864]","1","2","","","3017","44","2","3","lose","go","0"
"pit-trial","113","984566","0.0-49.0","battery-v0.2","","""event"",""trial"",""time""
""fullscreenenter"",""1"",""2872""
","
","
","""event"",""trial"",""time""
""fullscreenenter"",""1"",""2872""
","
","","","-1","","","21","3017","1827","b","elianto","#f73b6a7A","-1","-1","1","-10","[]","0","2","","","3017","45","3","4","lose","no-go","1"
"pit-trial","114","989422","0.0-50.0","battery-v0.2","","""event"",""trial"",""time""
""fullscreenenter"",""1"",""2872""
","
","
","""event"",""trial"",""time""
""fullscreenenter"",""1"",""2872""
","
","","","-1","","","21","3017","1827","t","elianto","#f73b6a7A"," ","-1","0","-10","[]","0","2","","","3017","46","2","3","lose","go","0"
"pit-trial","115","993376","0.0-51.0","battery-v0.2","","""event"",""trial"",""time""
""fullscreenenter"",""1"",""2872""
","
","
","""event"",""trial"",""time""
""fullscreenenter"",""1"",""2872""
","
","","","1098","","","21","3017","1827","f","elianto","#3366ff99","-1"," ","0","0","[1949]","1","2","","","3017","47","1","2","win","no-go","0"
"pit-trial","116","998230","0.0-52.0","battery-v0.2","","""event"",""trial"",""time""
""fullscreenenter"",""1"",""2872""
","
","
","""event"",""trial"",""time""
""fullscreenenter"",""1"",""2872""
","
","","","-1","","","21","3017","1827","n","elianto","#f73b6a7A"," ","-1","0","-10","[]","0","2","","","3017","48","0","3","lose","go","0"
"pit-trial","117","1002006","0.0-53.0","battery-v0.2","","""event"",""trial"",""time""
""fullscreenenter"",""1"",""2872""
","
","
","""event"",""trial"",""time""
""fullscreenenter"",""1"",""2872""
","
","","","922.0000000001164","","","21","3017","1827","b","elianto","#f73b6a7A","-1"," ","0","-10","[1772.0000000001164]","1","2","","","3017","49","3","4","lose","no-go","0"
"pit-trial","118","1006862","0.0-54.0","battery-v0.2","","""event"",""trial"",""time""
""fullscreenenter"",""1"",""2872""
","
","
","""event"",""trial"",""time""
""fullscreenenter"",""1"",""2872""
","
","","","-1","","","21","3017","1827","n","elianto","#f73b6a7A"," ","-1","0","-10","[]","0","2","","","3017","50","0","3","lose","go","0"
"pit-trial","119","1011004","0.0-55.0","battery-v0.2","","""event"",""trial"",""time""
""fullscreenenter"",""1"",""2872""
","
","
","""event"",""trial"",""time""
""fullscreenenter"",""1"",""2872""
","
","","","1288","","","21","3017","1827","f","elianto","#3366ff99","-1"," ","0","0","[2139]","1","2","","","3017","51","1","2","win","no-go","0"
"pit-trial","120","1015858","0.0-56.0","battery-v0.2","","""event"",""trial"",""time""
""fullscreenenter"",""1"",""2872""
","
","
","""event"",""trial"",""time""
""fullscreenenter"",""1"",""2872""
","
","","","2001","","","21","3017","1827","t","elianto","#f73b6a7A"," "," ","1","0","[2850]","1","2","","","3017","52","2","3","lose","go","0"
"pit-trial","121","1020388","0.0-57.0","battery-v0.2","","""event"",""trial"",""time""
""fullscreenenter"",""1"",""2872""
","
","
","""event"",""trial"",""time""
""fullscreenenter"",""1"",""2872""
","
","","","1676","","","21","3017","1827","f","elianto","#3366ff99","-1"," ","0","+10","[2525.9999999998836]","1","2","","","3017","53","1","2","win","no-go","1"
"pit-trial","122","1025244","0.0-58.0","battery-v0.2","","""event"",""trial"",""time""
""fullscreenenter"",""1"",""2872""
","
","
","""event"",""trial"",""time""
""fullscreenenter"",""1"",""2872""
","
","","","-1","","","21","3017","1827","b","elianto","#f73b6a7A","-1","-1","1","0","[2920.0000000001164]","1","2","","","3017","54","3","4","lose","no-go","0"
"pit-trial","123","1029007","0.0-59.0","battery-v0.2","","""event"",""trial"",""time""
""fullscreenenter"",""1"",""2872""
","
","
","""event"",""trial"",""time""
""fullscreenenter"",""1"",""2872""
","
","","","906.9999999998836","","","21","3017","1827","t","elianto","#f73b6a7A"," "," ","1","0","[1758]","1","2","","","3017","55","2","3","lose","go","0"
"pit-trial","124","1033861","0.0-60.0","battery-v0.2","","""event"",""trial"",""time""
""fullscreenenter"",""1"",""2872""
","
","
","""event"",""trial"",""time""
""fullscreenenter"",""1"",""2872""
","
","","","-1","","","21","3017","1827","n","elianto","#f73b6a7A"," ","-1","0","-10","[]","0","2","","","3017","56","0","3","lose","go","0"
"pit-trial","125","1037509","0.0-61.0","battery-v0.2","","""event"",""trial"",""time""
""fullscreenenter"",""1"",""2872""
","
","
","""event"",""trial"",""time""
""fullscreenenter"",""1"",""2872""
","
","","","791.9999999998836","","","21","3017","1827","n","elianto","#f73b6a7A"," "," ","1","-10","[1643]","1","2","","","3017","57","0","3","lose","go","1"
"pit-trial","126","1042363","0.0-62.0","battery-v0.2","","""event"",""trial"",""time""
""fullscreenenter"",""1"",""2872""
","
","
","""event"",""trial"",""time""
""fullscreenenter"",""1"",""2872""
","
","","","-1","","","21","3017","1827","t","elianto","#f73b6a7A"," ","-1","0","-10","[]","0","2","","","3017","58","2","3","lose","go","0"
"pit-trial","127","1046759","0.0-63.0","battery-v0.2","","""event"",""trial"",""time""
""fullscreenenter"",""1"",""2872""
","
","
","""event"",""trial"",""time""
""fullscreenenter"",""1"",""2872""
","
","","","1541","","","21","3017","1827","c","elianto","#3366ff99"," "," ","1","+10","[2392.0000000001164]","1","2","","","3017","59","4","1","win","go","0"
"pit-trial","128","1051429","0.0-64.0","battery-v0.2","","""event"",""trial"",""time""
""fullscreenenter"",""1"",""2872""
","
","
","""event"",""trial"",""time""
""fullscreenenter"",""1"",""2872""
","
","","","1816","","","21","3017","1827","b","elianto","#f73b6a7A","-1"," ","0","-10","[2667]","1","2","","","3017","60","3","4","lose","no-go","0"
"pit-trial","129","1056284","0.0-65.0","battery-v0.2","","""event"",""trial"",""time""
""fullscreenenter"",""1"",""2872""
","
","
","""event"",""trial"",""time""
""fullscreenenter"",""1"",""2872""
","
","","","-1","","","21","3017","1827","t","elianto","#f73b6a7A"," ","-1","0","-10","[]","0","2","","","3017","61","2","3","lose","go","0"
"pit-trial","130","1060093","0.0-66.0","battery-v0.2","","""event"",""trial"",""time""
""fullscreenenter"",""1"",""2872""
","
","
","""event"",""trial"",""time""
""fullscreenenter"",""1"",""2872""
","
","","","954","","","21","3017","1827","f","elianto","#3366ff99","-1"," ","0","0","[1804]","1","2","","","3017","62","1","2","win","no-go","0"
"pit-trial","131","1064272","0.0-67.0","battery-v0.2","","""event"",""trial"",""time""
""fullscreenenter"",""1"",""2872""
","
","
","""event"",""trial"",""time""
""fullscreenenter"",""1"",""2872""
","
","","","1325","","","21","3017","1827","c","elianto","#3366ff99"," "," ","1","+10","[2176]","1","2","","","3017","63","4","1","win","go","0"
"pit-trial","132","1069126","0.0-68.0","battery-v0.2","","""event"",""trial"",""time""
""fullscreenenter"",""1"",""2872""
","
","
","""event"",""trial"",""time""
""fullscreenenter"",""1"",""2872""
","
","","","-1","","","21","3017","1827","b","elianto","#f73b6a7A","-1","-1","1","0","[]","0","2","","","3017","64","3","4","lose","no-go","0"
"pit-trial","133","1073982","0.0-69.0","battery-v0.2","","""event"",""trial"",""time""
""fullscreenenter"",""1"",""2872""
","
","
","""event"",""trial"",""time""
""fullscreenenter"",""1"",""2872""
","
","","","-1","","","21","3017","1827","f","elianto","#3366ff99","-1","-1","1","+10","[]","0","2","","","3017","65","1","2","win","no-go","0"
"pit-trial","134","1078837","0.0-70.0","battery-v0.2","","""event"",""trial"",""time""
""fullscreenenter"",""1"",""2872""
","
","
","""event"",""trial"",""time""
""fullscreenenter"",""1"",""2872""
","
","","","-1","","","21","3017","1827","b","elianto","#f73b6a7A","-1","-1","1","0","[]","0","2","","","3017","66","3","4","lose","no-go","0"
"pit-trial","135","1082958","0.0-71.0","battery-v0.2","","""event"",""trial"",""time""
""fullscreenenter"",""1"",""2872""
","
","
","""event"",""trial"",""time""
""fullscreenenter"",""1"",""2872""
","
","","","1267","","","21","3017","1827","c","elianto","#3366ff99"," "," ","1","+10","[2118]","1","2","","","3017","67","4","1","win","go","0"
"pit-trial","136","1087567","0.0-72.0","battery-v0.2","","""event"",""trial"",""time""
""fullscreenenter"",""1"",""2872""
","
","
","""event"",""trial"",""time""
""fullscreenenter"",""1"",""2872""
","
","","","1754","","","21","3017","1827","z","elianto","#3366ff99","-1"," ","0","0","[2604.999999999767]","1","2","","","3017","68","5","2","win","no-go","0"
"pit-trial","137","1092105","0.0-73.0","battery-v0.2","","""event"",""trial"",""time""
""fullscreenenter"",""1"",""2872""
","
","
","""event"",""trial"",""time""
""fullscreenenter"",""1"",""2872""
","
","","","1683","","","21","3017","1827","t","elianto","#f73b6a7A"," "," ","1","0","[2533]","1","2","","","3017","69","2","3","lose","go","0"
"pit-trial","138","1095993","0.0-74.0","battery-v0.2","","""event"",""trial"",""time""
""fullscreenenter"",""1"",""2872""
","
","
","""event"",""trial"",""time""
""fullscreenenter"",""1"",""2872""
","
","","","1034","","","21","3017","1827","c","elianto","#3366ff99"," "," ","1","+10","[1885]","1","2","","","3017","70","4","1","win","go","0"
"pit-trial","139","1100849","0.0-75.0","battery-v0.2","","""event"",""trial"",""time""
""fullscreenenter"",""1"",""2872""
","
","
","""event"",""trial"",""time""
""fullscreenenter"",""1"",""2872""
","
","","","-1","","","21","3017","1827","z","elianto","#3366ff99","-1","-1","1","0","[]","0","2","","","3017","71","5","2","win","no-go","1"
"pit-trial","140","1104635","0.0-76.0","battery-v0.2","","""event"",""trial"",""time""
""fullscreenenter"",""1"",""2872""
","
","
","""event"",""trial"",""time""
""fullscreenenter"",""1"",""2872""
","
","","","931.0000000002328","","","21","3017","1827","f","elianto","#3366ff99","-1"," ","0","0","[1781.0000000002328]","1","2","","","3017","72","1","2","win","no-go","0"
"pit-trial","141","1109490","0.0-77.0","battery-v0.2","","""event"",""trial"",""time""
""fullscreenenter"",""1"",""2872""
","
","
","""event"",""trial"",""time""
""fullscreenenter"",""1"",""2872""
","
","","","-1","","","21","3017","1827","f","elianto","#3366ff99","-1","-1","1","+10","[]","0","2","","","3017","73","1","2","win","no-go","0"
"pit-trial","142","1114345","0.0-78.0","battery-v0.2","","""event"",""trial"",""time""
""fullscreenenter"",""1"",""2872""
","
","
","""event"",""trial"",""time""
""fullscreenenter"",""1"",""2872""
","
","","","-1","","","21","3017","1827","z","elianto","#3366ff99","-1","-1","1","+10","[]","0","2","","","3017","74","5","2","win","no-go","0"
"pit-trial","143","1118661","0.0-79.0","battery-v0.2","","""event"",""trial"",""time""
""fullscreenenter"",""1"",""2872""
","
","
","""event"",""trial"",""time""
""fullscreenenter"",""1"",""2872""
","
","","","1459.9999999997672","","","21","3017","1827","c","elianto","#3366ff99"," "," ","1","+10","[2311]","1","2","","","3017","75","4","1","win","go","0"
"pit-trial","144","1123517","0.0-80.0","battery-v0.2","","""event"",""trial"",""time""
""fullscreenenter"",""1"",""2872""
","
","
","""event"",""trial"",""time""
""fullscreenenter"",""1"",""2872""
","
","","","-1","","","21","3017","1827","b","elianto","#f73b6a7A","-1","-1","1","0","[]","0","2","","","3017","76","3","4","lose","no-go","0"
"pit-trial","145","1128371","0.0-81.0","battery-v0.2","","""event"",""trial"",""time""
""fullscreenenter"",""1"",""2872""
","
","
","""event"",""trial"",""time""
""fullscreenenter"",""1"",""2872""
","
","","","-1","","","21","3017","1827","b","elianto","#f73b6a7A","-1","-1","1","0","[]","0","2","","","3017","77","3","4","lose","no-go","0"
"pit-trial","146","1132624","0.0-82.0","battery-v0.2","","""event"",""trial"",""time""
""fullscreenenter"",""1"",""2872""
","
","
","""event"",""trial"",""time""
""fullscreenenter"",""1"",""2872""
","
","","","1398","","","21","3017","1827","c","elianto","#3366ff99"," "," ","1","+10","[2248]","1","2","","","3017","78","4","1","win","go","0"
"pit-trial","147","1136267","0.0-83.0","battery-v0.2","","""event"",""trial"",""time""
""fullscreenenter"",""1"",""2872""
","
","
","""event"",""trial"",""time""
""fullscreenenter"",""1"",""2872""
","
","","","789","","","21","3017","1827","c","elianto","#3366ff99"," "," ","1","+10","[1640.0000000002328]","1","2","","","3017","79","4","1","win","go","0"
"pit-trial","148","1141122","0.0-84.0","battery-v0.2","","""event"",""trial"",""time""
""fullscreenenter"",""1"",""2872""
","
","
","""event"",""trial"",""time""
""fullscreenenter"",""1"",""2872""
","
","","","-1","","","21","3017","1827","z","elianto","#3366ff99","-1","-1","1","+10","[]","0","2","","","3017","80","5","2","win","no-go","0"
"pit-trial","149","1145977","0.0-85.0","battery-v0.2","","""event"",""trial"",""time""
""fullscreenenter"",""1"",""2872""
","
","
","""event"",""trial"",""time""
""fullscreenenter"",""1"",""2872""
","
","","","-1","","","21","3017","1827","z","elianto","#3366ff99","-1","-1","1","+10","[]","0","2","","","3017","81","5","2","win","no-go","0"
"pit-trial","150","1150832","0.0-86.0","battery-v0.2","","""event"",""trial"",""time""
""fullscreenenter"",""1"",""2872""
","
","
","""event"",""trial"",""time""
""fullscreenenter"",""1"",""2872""
","
","","","-1","","","21","3017","1827","y","elianto","#f73b6a7A","-1","-1","1","-10","[2976]","1","2","","","3017","82","7","4","lose","no-go","1"
"pit-trial","151","1155687","0.0-87.0","battery-v0.2","","""event"",""trial"",""time""
""fullscreenenter"",""1"",""2872""
","
","
","""event"",""trial"",""time""
""fullscreenenter"",""1"",""2872""
","
","","","-1","","","21","3017","1827","b","elianto","#f73b6a7A","-1","-1","1","0","[]","0","2","","","3017","83","3","4","lose","no-go","0"
"pit-trial","152","1159646","0.0-88.0","battery-v0.2","","""event"",""trial"",""time""
""fullscreenenter"",""1"",""2872""
","
","
","""event"",""trial"",""time""
""fullscreenenter"",""1"",""2872""
","
","","","1105","","","21","3017","1827","c","elianto","#3366ff99"," "," ","1","+10","[1956]","1","2","","","3017","84","4","1","win","go","0"
"pit-trial","153","1164502","0.0-89.0","battery-v0.2","","""event"",""trial"",""time""
""fullscreenenter"",""1"",""2872""
","
","
","""event"",""trial"",""time""
""fullscreenenter"",""1"",""2872""
","
","","","-1","","","21","3017","1827","z","elianto","#3366ff99","-1","-1","1","+10","[]","0","2","","","3017","85","5","2","win","no-go","0"
"pit-trial","154","1169358","0.0-90.0","battery-v0.2","","""event"",""trial"",""time""
""fullscreenenter"",""1"",""2872""
","
","
","""event"",""trial"",""time""
""fullscreenenter"",""1"",""2872""
","
","","","-1","","","21","3017","1827","y","elianto","#f73b6a7A","-1","-1","1","0","[]","0","2","","","3017","86","7","4","lose","no-go","0"
"pit-trial","155","1173226","0.0-91.0","battery-v0.2","","""event"",""trial"",""time""
""fullscreenenter"",""1"",""2872""
","
","
","""event"",""trial"",""time""
""fullscreenenter"",""1"",""2872""
","
","","","1014","","","21","3017","1827","c","elianto","#3366ff99"," "," ","1","0","[1863.9999999997672]","1","2","","","3017","87","4","1","win","go","1"
"pit-trial","156","1177053","0.0-92.0","battery-v0.2","","""event"",""trial"",""time""
""fullscreenenter"",""1"",""2872""
","
","
","""event"",""trial"",""time""
""fullscreenenter"",""1"",""2872""
","
","","","972","","","21","3017","1827","h","elianto","#f73b6a7A"," "," ","1","-10","[1823]","1","2","","","3017","88","6","3","lose","go","1"
"pit-trial","157","1181907","0.0-93.0","battery-v0.2","","""event"",""trial"",""time""
""fullscreenenter"",""1"",""2872""
","
","
","""event"",""trial"",""time""
""fullscreenenter"",""1"",""2872""
","
","","","-1","","","21","3017","1827","h","elianto","#f73b6a7A"," ","-1","0","-10","[]","0","2","","","3017","89","6","3","lose","go","0"
"pit-trial","158","1186763","0.0-94.0","battery-v0.2","","""event"",""trial"",""time""
""fullscreenenter"",""1"",""2872""
","
","
","""event"",""trial"",""time""
""fullscreenenter"",""1"",""2872""
","
","","","-1","","","21","3017","1827","z","elianto","#3366ff99","-1","-1","1","+10","[]","0","2","","","3017","90","5","2","win","no-go","0"
"pit-trial","159","1191296","0.0-95.0","battery-v0.2","","""event"",""trial"",""time""
""fullscreenenter"",""1"",""2872""
","
","
","""event"",""trial"",""time""
""fullscreenenter"",""1"",""2872""
","
","","","1679","","","21","3017","1827","y","elianto","#f73b6a7A","-1"," ","0","-10","[2529]","1","2","","","3017","91","7","4","lose","no-go","0"
"pit-trial","160","1194781","0.0-96.0","battery-v0.2","","""event"",""trial"",""time""
""fullscreenenter"",""1"",""2872""
","
","
","""event"",""trial"",""time""
""fullscreenenter"",""1"",""2872""
","
","","","630","","","21","3017","1827","c","elianto","#3366ff99"," "," ","1","+10","[1481]","1","2","","","3017","92","4","1","win","go","0"
"pit-trial","161","1199635","0.0-97.0","battery-v0.2","","""event"",""trial"",""time""
""fullscreenenter"",""1"",""2872""
","
","
","""event"",""trial"",""time""
""fullscreenenter"",""1"",""2872""
","
","","","-1","","","21","3017","1827","y","elianto","#f73b6a7A","-1","-1","1","0","[]","0","2","","","3017","93","7","4","lose","no-go","0"
"pit-trial","162","1203958","0.0-98.0","battery-v0.2","","""event"",""trial"",""time""
""fullscreenenter"",""1"",""2872""
","
","
","""event"",""trial"",""time""
""fullscreenenter"",""1"",""2872""
","
","","","1468","","","21","3017","1827","h","elianto","#f73b6a7A"," "," ","1","0","[2319]","1","2","","","3017","94","6","3","lose","go","0"
"pit-trial","163","1208269","0.0-99.0","battery-v0.2","","""event"",""trial"",""time""
""fullscreenenter"",""1"",""2872""
","
","
","""event"",""trial"",""time""
""fullscreenenter"",""1"",""2872""
","
","","","1455.9999999997672","","","21","3017","1827","r","elianto","#3366ff99"," "," ","1","+10","[2306]","1","2","","","3017","95","8","1","win","go","0"
"pit-trial","164","1213122","0.0-100.0","battery-v0.2","","""event"",""trial"",""time""
""fullscreenenter"",""1"",""2872""
","
","
","""event"",""trial"",""time""
""fullscreenenter"",""1"",""2872""
","
","","","-1","","","21","3017","1827","z","elianto","#3366ff99","-1","-1","1","+10","[]","0","2","","","3017","96","5","2","win","no-go","0"
"pit-trial","165","1217978","0.0-101.0","battery-v0.2","","""event"",""trial"",""time""
""fullscreenenter"",""1"",""2872""
","
","
","""event"",""trial"",""time""
""fullscreenenter"",""1"",""2872""
","
","","","-1","","","21","3017","1827","y","elianto","#f73b6a7A","-1","-1","1","0","[]","0","2","","","3017","97","7","4","lose","no-go","0"
"pit-trial","166","1222833","0.0-102.0","battery-v0.2","","""event"",""trial"",""time""
""fullscreenenter"",""1"",""2872""
","
","
","""event"",""trial"",""time""
""fullscreenenter"",""1"",""2872""
","
","","","-1","","","21","3017","1827","z","elianto","#3366ff99","-1","-1","1","+10","[]","0","2","","","3017","98","5","2","win","no-go","0"
"pit-trial","167","1226962","0.0-103.0","battery-v0.2","","""event"",""trial"",""time""
""fullscreenenter"",""1"",""2872""
","
","
","""event"",""trial"",""time""
""fullscreenenter"",""1"",""2872""
","
","","","1274.9999999997672","","","21","3017","1827","r","elianto","#3366ff99"," "," ","1","0","[2125]","1","2","","","3017","99","8","1","win","go","1"
"pit-trial","168","1231817","0.0-104.0","battery-v0.2","","""event"",""trial"",""time""
""fullscreenenter"",""1"",""2872""
","
","
","""event"",""trial"",""time""
""fullscreenenter"",""1"",""2872""
","
","","","-1","","","21","3017","1827","h","elianto","#f73b6a7A"," ","-1","0","0","[]","0","2","","","3017","100","6","3","lose","go","1"
"pit-trial","169","1236673","0.0-105.0","battery-v0.2","","""event"",""trial"",""time""
""fullscreenenter"",""1"",""2872""
","
","
","""event"",""trial"",""time""
""fullscreenenter"",""1"",""2872""
","
","","","-1","","","21","3017","1827","y","elianto","#f73b6a7A","-1","-1","1","0","[]","0","2","","","3017","101","7","4","lose","no-go","0"
"pit-trial","170","1240950","0.0-106.0","battery-v0.2","","""event"",""trial"",""time""
""fullscreenenter"",""1"",""2872""
","
","
","""event"",""trial"",""time""
""fullscreenenter"",""1"",""2872""
","
","","","1424","","","21","3017","1827","m","elianto","#3366ff99"," "," ","1","+10","[2273.999999999767]","1","2","","","3017","102","9","1","win","go","0"
"pit-trial","171","1245273","0.0-107.0","battery-v0.2","","""event"",""trial"",""time""
""fullscreenenter"",""1"",""2872""
","
","
","""event"",""trial"",""time""
""fullscreenenter"",""1"",""2872""
","
","","","1469","","","21","3017","1827","r","elianto","#3366ff99"," "," ","1","0","[2319]","1","2","","","3017","103","8","1","win","go","1"
"pit-trial","172","1250128","0.0-108.0","battery-v0.2","","""event"",""trial"",""time""
""fullscreenenter"",""1"",""2872""
","
","
","""event"",""trial"",""time""
""fullscreenenter"",""1"",""2872""
","
","","","-1","","","21","3017","1827","z","elianto","#3366ff99","-1","-1","1","+10","[]","0","2","","","3017","104","5","2","win","no-go","0"
"pit-trial","173","1254983","0.0-109.0","battery-v0.2","","""event"",""trial"",""time""
""fullscreenenter"",""1"",""2872""
","
","
","""event"",""trial"",""time""
""fullscreenenter"",""1"",""2872""
","
","","","-1","","","21","3017","1827","r","elianto","#3366ff99"," ","-1","0","0","[]","0","2","","","3017","105","8","1","win","go","0"
"pit-trial","174","1259079","0.0-110.0","battery-v0.2","","""event"",""trial"",""time""
""fullscreenenter"",""1"",""2872""
","
","
","""event"",""trial"",""time""
""fullscreenenter"",""1"",""2872""
","
","","","1243.0000000002328","","","21","3017","1827","c","elianto","#3366ff99"," "," ","1","+10","[2093.000000000233]","1","2","","","3017","106","4","1","win","go","0"
"pit-trial","175","1263934","0.0-111.0","battery-v0.2","","""event"",""trial"",""time""
""fullscreenenter"",""1"",""2872""
","
","
","""event"",""trial"",""time""
""fullscreenenter"",""1"",""2872""
","
","","","-1","","","21","3017","1827","h","elianto","#f73b6a7A"," ","-1","0","-10","[]","0","2","","","3017","107","6","3","lose","go","0"
"pit-trial","176","1268063","0.0-112.0","battery-v0.2","","""event"",""trial"",""time""
""fullscreenenter"",""1"",""2872""
","
","
","""event"",""trial"",""time""
""fullscreenenter"",""1"",""2872""
","
","","","1274","","","21","3017","1827","m","elianto","#3366ff99"," "," ","1","0","[2125]","1","2","","","3017","108","9","1","win","go","1"
"pit-trial","177","1272919","0.0-113.0","battery-v0.2","","""event"",""trial"",""time""
""fullscreenenter"",""1"",""2872""
","
","
","""event"",""trial"",""time""
""fullscreenenter"",""1"",""2872""
","
","","","-1","","","21","3017","1827","z","elianto","#3366ff99","-1","-1","1","+10","[]","0","2","","","3017","109","5","2","win","no-go","0"
"pit-trial","178","1277472","0.0-114.0","battery-v0.2","","""event"",""trial"",""time""
""fullscreenenter"",""1"",""2872""
","
","
","""event"",""trial"",""time""
""fullscreenenter"",""1"",""2872""
","
","","","1700.0000000002328","","","21","3017","1827","m","elianto","#3366ff99"," "," ","1","+10","[2550.000000000233]","1","2","","","3017","110","9","1","win","go","0"
"pit-trial","179","1282328","0.0-115.0","battery-v0.2","","""event"",""trial"",""time""
""fullscreenenter"",""1"",""2872""
","
","
","""event"",""trial"",""time""
""fullscreenenter"",""1"",""2872""
","
","","","-1","","","21","3017","1827","r","elianto","#3366ff99"," ","-1","0","+10","[]","0","2","","","3017","111","8","1","win","go","1"
"pit-trial","180","1287181","0.0-116.0","battery-v0.2","","""event"",""trial"",""time""
""fullscreenenter"",""1"",""2872""
","
","
","""event"",""trial"",""time""
""fullscreenenter"",""1"",""2872""
","
","","","-1","","","21","3017","1827","h","elianto","#f73b6a7A"," ","-1","0","-10","[]","0","2","","","3017","112","6","3","lose","go","0"
"pit-trial","181","1292037","0.0-117.0","battery-v0.2","","""event"",""trial"",""time""
""fullscreenenter"",""1"",""2872""
","
","
","""event"",""trial"",""time""
""fullscreenenter"",""1"",""2872""
","
","","","-1","","","21","3017","1827","z","elianto","#3366ff99","-1","-1","1","0","[]","0","2","","","3017","113","5","2","win","no-go","1"
"pit-trial","182","1296397","0.0-118.0","battery-v0.2","","""event"",""trial"",""time""
""fullscreenenter"",""1"",""2872""
","
","
","""event"",""trial"",""time""
""fullscreenenter"",""1"",""2872""
","
","","","1505","","","21","3017","1827","r","elianto","#3366ff99"," "," ","1","+10","[2356]","1","2","","","3017","114","8","1","win","go","0"
"pit-trial","183","1300733","0.0-119.0","battery-v0.2","","""event"",""trial"",""time""
""fullscreenenter"",""1"",""2872""
","
","
","""event"",""trial"",""time""
""fullscreenenter"",""1"",""2872""
","
","","","1481.9999999997672","","","21","3017","1827","h","elianto","#f73b6a7A"," "," ","1","0","[2332]","1","2","","","3017","115","6","3","lose","go","0"
"pit-trial","184","1304923","0.0-120.0","battery-v0.2","","""event"",""trial"",""time""
""fullscreenenter"",""1"",""2872""
","
","
","""event"",""trial"",""time""
""fullscreenenter"",""1"",""2872""
","
","","","1334","","","21","3017","1827","m","elianto","#3366ff99"," "," ","1","+10","[2185]","1","2","","","3017","116","9","1","win","go","0"
"pit-trial","185","1309204","0.0-121.0","battery-v0.2","","""event"",""trial"",""time""
""fullscreenenter"",""1"",""2872""
","
","
","""event"",""trial"",""time""
""fullscreenenter"",""1"",""2872""
","
","","","1427","","","21","3017","1827","h","elianto","#f73b6a7A"," "," ","1","0","[2277]","1","2","","","3017","117","6","3","lose","go","0"
"pit-trial","186","1313586","0.0-122.0","battery-v0.2","","""event"",""trial"",""time""
""fullscreenenter"",""1"",""2872""
","
","
","""event"",""trial"",""time""
""fullscreenenter"",""1"",""2872""
","
","","","1528","","","21","3017","1827","r","elianto","#3366ff99"," "," ","1","+10","[2377]","1","2","","","3017","118","8","1","win","go","0"
"pit-trial","187","1318443","0.0-123.0","battery-v0.2","","""event"",""trial"",""time""
""fullscreenenter"",""1"",""2872""
","
","
","""event"",""trial"",""time""
""fullscreenenter"",""1"",""2872""
","
","","","-1","","","21","3017","1827","z","elianto","#3366ff99","-1","-1","1","+10","[]","0","2","","","3017","119","5","2","win","no-go","0"
"pit-trial","188","1323098","0.0-124.0","battery-v0.2","","""event"",""trial"",""time""
""fullscreenenter"",""1"",""2872""
","
","
","""event"",""trial"",""time""
""fullscreenenter"",""1"",""2872""
","
","","","1798.9999999997672","","","21","3017","1827","m","elianto","#3366ff99"," "," ","1","+10","[2650]","1","2","","","3017","120","9","1","win","go","0"
"pit-trial","189","1327202","0.0-125.0","battery-v0.2","","""event"",""trial"",""time""
""fullscreenenter"",""1"",""2872""
","
","
","""event"",""trial"",""time""
""fullscreenenter"",""1"",""2872""
","
","","","1250","","","21","3017","1827","h","elianto","#f73b6a7A"," "," ","1","0","[2101]","1","2","","","3017","121","6","3","lose","go","0"
"pit-trial","190","1332058","0.0-126.0","battery-v0.2","","""event"",""trial"",""time""
""fullscreenenter"",""1"",""2872""
","
","
","""event"",""trial"",""time""
""fullscreenenter"",""1"",""2872""
","
","","","-1","","","21","3017","1827","y","elianto","#f73b6a7A","-1","-1","1","0","[]","0","2","","","3017","122","7","4","lose","no-go","0"
"pit-trial","191","1336912","0.0-127.0","battery-v0.2","","""event"",""trial"",""time""
""fullscreenenter"",""1"",""2872""
","
","
","""event"",""trial"",""time""
""fullscreenenter"",""1"",""2872""
","
","","","-1","","","21","3017","1827","r","elianto","#3366ff99"," ","-1","0","0","[3416]","1","2","","","3017","123","8","1","win","go","0"
"pit-trial","192","1340473","0.0-128.0","battery-v0.2","","""event"",""trial"",""time""
""fullscreenenter"",""1"",""2872""
","
","
","""event"",""trial"",""time""
""fullscreenenter"",""1"",""2872""
","
","","","704.9999999997672","","","21","3017","1827","m","elianto","#3366ff99"," "," ","1","0","[1556]","1","2","","","3017","124","9","1","win","go","1"
"pit-trial","193","1344073","0.0-129.0","battery-v0.2","","""event"",""trial"",""time""
""fullscreenenter"",""1"",""2872""
","
","
","""event"",""trial"",""time""
""fullscreenenter"",""1"",""2872""
","
","","","746","","","21","3017","1827","r","elianto","#3366ff99"," "," ","1","+10","[1597]","1","2","","","3017","125","8","1","win","go","0"
"pit-trial","194","1348174","0.0-130.0","battery-v0.2","","""event"",""trial"",""time""
""fullscreenenter"",""1"",""2872""
","
","
","""event"",""trial"",""time""
""fullscreenenter"",""1"",""2872""
","
","","","1247","","","21","3017","1827","h","elianto","#f73b6a7A"," "," ","1","-10","[2098]","1","2","","","3017","126","6","3","lose","go","1"
"pit-trial","195","1351855","0.0-131.0","battery-v0.2","","""event"",""trial"",""time""
""fullscreenenter"",""1"",""2872""
","
","
","""event"",""trial"",""time""
""fullscreenenter"",""1"",""2872""
","
","","","826","","","21","3017","1827","m","elianto","#3366ff99"," "," ","1","+10","[1677]","1","2","","","3017","127","9","1","win","go","0"
"pit-trial","196","1356710","0.0-132.0","battery-v0.2","","""event"",""trial"",""time""
""fullscreenenter"",""1"",""2872""
","
","
","""event"",""trial"",""time""
""fullscreenenter"",""1"",""2872""
","
","","","-1","","","21","3017","1827","y","elianto","#f73b6a7A","-1","-1","1","0","[]","0","2","","","3017","128","7","4","lose","no-go","0"
"pit-trial","197","1360622","0.0-133.0","battery-v0.2","","""event"",""trial"",""time""
""fullscreenenter"",""1"",""2872""
","
","
","""event"",""trial"",""time""
""fullscreenenter"",""1"",""2872""
","
","","","1056.9999999997672","","","21","3017","1827","r","elianto","#3366ff99"," "," ","1","0","[1908]","1","2","","","3017","129","8","1","win","go","1"
"pit-trial","198","1364427","0.0-134.0","battery-v0.2","","""event"",""trial"",""time""
""fullscreenenter"",""1"",""2872""
","
","
","""event"",""trial"",""time""
""fullscreenenter"",""1"",""2872""
","
","","","952","","","21","3017","1827","m","elianto","#3366ff99"," "," ","1","+10","[1802]","1","2","","","3017","130","9","1","win","go","0"
"pit-trial","199","1369281","0.0-135.0","battery-v0.2","","""event"",""trial"",""time""
""fullscreenenter"",""1"",""2872""
","
","
","""event"",""trial"",""time""
""fullscreenenter"",""1"",""2872""
","
","","","-1","","","21","3017","1827","h","elianto","#f73b6a7A"," ","-1","0","-10","[2942]","1","2","","","3017","131","6","3","lose","go","0"
"pit-trial","200","1374136","0.0-136.0","battery-v0.2","","""event"",""trial"",""time""
""fullscreenenter"",""1"",""2872""
","
","
","""event"",""trial"",""time""
""fullscreenenter"",""1"",""2872""
","
","","","-1","","","21","3017","1827","y","elianto","#f73b6a7A","-1","-1","1","0","[]","0","2","","","3017","132","7","4","lose","no-go","0"
"pit-trial","201","1378776","0.0-137.0","battery-v0.2","","""event"",""trial"",""time""
""fullscreenenter"",""1"",""2872""
","
","
","""event"",""trial"",""time""
""fullscreenenter"",""1"",""2872""
","
","","","1785","","","21","3017","1827","r","elianto","#3366ff99"," "," ","1","+10","[2635]","1","2","","","3017","133","8","1","win","go","0"
"pit-trial","202","1383630","0.0-138.0","battery-v0.2","","""event"",""trial"",""time""
""fullscreenenter"",""1"",""2872""
","
","
","""event"",""trial"",""time""
""fullscreenenter"",""1"",""2872""
","
","","","-1","","","21","3017","1827","y","elianto","#f73b6a7A","-1","-1","1","-10","[]","0","2","","","3017","134","7","4","lose","no-go","1"
"pit-trial","203","1388377","0.0-139.0","battery-v0.2","","""event"",""trial"",""time""
""fullscreenenter"",""1"",""2872""
","
","
","""event"",""trial"",""time""
""fullscreenenter"",""1"",""2872""
","
","","","1892","","","21","3017","1827","h","elianto","#f73b6a7A"," "," ","1","0","[2743]","1","2","","","3017","135","6","3","lose","go","0"
"pit-trial","204","1392095","0.0-140.0","battery-v0.2","","""event"",""trial"",""time""
""fullscreenenter"",""1"",""2872""
","
","
","""event"",""trial"",""time""
""fullscreenenter"",""1"",""2872""
","
","","","863","","","21","3017","1827","m","elianto","#3366ff99"," "," ","1","+10","[1713.9999999997672]","1","2","","","3017","136","9","1","win","go","0"
"pit-trial","205","1396950","0.0-141.0","battery-v0.2","","""event"",""trial"",""time""
""fullscreenenter"",""1"",""2872""
","
","
","""event"",""trial"",""time""
""fullscreenenter"",""1"",""2872""
","
","","","-1","","","21","3017","1827","r","elianto","#3366ff99"," ","-1","0","0","[3121]","1","2","","","3017","137","8","1","win","go","0"
"pit-trial","206","1400883","0.0-142.0","battery-v0.2","","""event"",""trial"",""time""
""fullscreenenter"",""1"",""2872""
","
","
","""event"",""trial"",""time""
""fullscreenenter"",""1"",""2872""
","
","","","1077.9999999997672","","","21","3017","1827","h","elianto","#f73b6a7A"," "," ","1","-10","[1928]","1","2","","","3017","138","6","3","lose","go","1"
"pit-trial","207","1404769","0.0-143.0","battery-v0.2","","""event"",""trial"",""time""
""fullscreenenter"",""1"",""2872""
","
","
","""event"",""trial"",""time""
""fullscreenenter"",""1"",""2872""
","
","","","1032","","","21","3017","1827","m","elianto","#3366ff99"," "," ","1","+10","[1883]","1","2","","","3017","139","9","1","win","go","0"
"pit-trial","208","1409625","0.0-144.0","battery-v0.2","","""event"",""trial"",""time""
""fullscreenenter"",""1"",""2872""
","
","
","""event"",""trial"",""time""
""fullscreenenter"",""1"",""2872""
","
","","","-1","","","21","3017","1827","y","elianto","#f73b6a7A","-1","-1","1","0","[]","0","2","","","3017","140","7","4","lose","no-go","0"
"pit-instructions","209","1473208","0.0-145.0","battery-v0.2","","""event"",""trial"",""time""
""fullscreenenter"",""1"",""2872""
","
","
","""event"",""trial"",""time""
""fullscreenenter"",""1"",""2872""
","
","","[{""page_index"":0,""viewing_time"":54128.99999999977},{""page_index"":1,""viewing_time"":9453}]","63581.99999999977","","","","","","","","","","","","","","","","","","","","","","","",""
"pit-trial","210","1477394","0.0-146.0","battery-v0.2","","""event"",""trial"",""time""
""fullscreenenter"",""1"",""2872""
","
","
","""event"",""trial"",""time""
""fullscreenenter"",""1"",""2872""
","
","","","1327","","","21","3017","1827","u","elianto","#f73b6a7A","-1"," ","0","-10","[2179.999999999767]","1","3","","","3017","141","0","4","lose","no-go","0"
"pit-trial","211","1482250","0.0-147.0","battery-v0.2","","""event"",""trial"",""time""
""fullscreenenter"",""1"",""2872""
","
","
","""event"",""trial"",""time""
""fullscreenenter"",""1"",""2872""
","
","","","-1","","","21","3017","1827","g","elianto","#f73b6a7A"," ","-1","0","-10","[2923]","1","3","","","3017","142","3","3","lose","go","0"
"pit-trial","212","1486477","0.0-148.0","battery-v0.2","","""event"",""trial"",""time""
""fullscreenenter"",""1"",""2872""
","
","
","""event"",""trial"",""time""
""fullscreenenter"",""1"",""2872""
","
","","","1371","","","21","3017","1827","a","elianto","#f73b6a7A","-1"," ","0","0","[2222]","1","3","","","3017","143","2","4","lose","no-go","1"
"pit-trial","213","1491332","0.0-149.0","battery-v0.2","","""event"",""trial"",""time""
""fullscreenenter"",""1"",""2872""
","
","
","""event"",""trial"",""time""
""fullscreenenter"",""1"",""2872""
","
","","","-1","","","21","3017","1827","l","elianto","#3366ff99"," ","-1","0","0","[]","0","3","","","3017","144","1","1","win","go","0"
"pit-trial","214","1494921","0.0-150.0","battery-v0.2","","""event"",""trial"",""time""
""fullscreenenter"",""1"",""2872""
","
","
","""event"",""trial"",""time""
""fullscreenenter"",""1"",""2872""
","
","","","734","","","21","3017","1827","l","elianto","#3366ff99"," "," ","1","+10","[1585]","1","3","","","3017","145","1","1","win","go","0"
"pit-trial","215","1499777","0.0-151.0","battery-v0.2","","""event"",""trial"",""time""
""fullscreenenter"",""1"",""2872""
","
","
","""event"",""trial"",""time""
""fullscreenenter"",""1"",""2872""
","
","","","-1","","","21","3017","1827","u","elianto","#f73b6a7A","-1","-1","1","0","[]","0","3","","","3017","146","0","4","lose","no-go","0"
"pit-trial","216","1503929","0.0-152.0","battery-v0.2","","""event"",""trial"",""time""
""fullscreenenter"",""1"",""2872""
","
","
","""event"",""trial"",""time""
""fullscreenenter"",""1"",""2872""
","
","","","1298","","","21","3017","1827","a","elianto","#f73b6a7A","-1"," ","0","0","[2148]","1","3","","","3017","147","2","4","lose","no-go","1"
"pit-trial","217","1508783","0.0-153.0","battery-v0.2","","""event"",""trial"",""time""
""fullscreenenter"",""1"",""2872""
","
","
","""event"",""trial"",""time""
""fullscreenenter"",""1"",""2872""
","
","","","-1","","","21","3017","1827","g","elianto","#f73b6a7A"," ","-1","0","-10","[]","0","3","","","3017","148","3","3","lose","go","0"
"pit-trial","218","1513639","0.0-154.0","battery-v0.2","","""event"",""trial"",""time""
""fullscreenenter"",""1"",""2872""
","
","
","""event"",""trial"",""time""
""fullscreenenter"",""1"",""2872""
","
","","","-1","","","21","3017","1827","u","elianto","#f73b6a7A","-1","-1","1","0","[]","0","3","","","3017","149","0","4","lose","no-go","0"
"pit-trial","219","1517284","0.0-155.0","battery-v0.2","","""event"",""trial"",""time""
""fullscreenenter"",""1"",""2872""
","
","
","""event"",""trial"",""time""
""fullscreenenter"",""1"",""2872""
","
","","","791","","","21","3017","1827","l","elianto","#3366ff99"," "," ","1","+10","[1641]","1","3","","","3017","150","1","1","win","go","0"
"pit-trial","220","1522140","0.0-156.0","battery-v0.2","","""event"",""trial"",""time""
""fullscreenenter"",""1"",""2872""
","
","
","""event"",""trial"",""time""
""fullscreenenter"",""1"",""2872""
","
","","","-1","","","21","3017","1827","g","elianto","#f73b6a7A"," ","-1","0","-10","[]","0","3","","","3017","151","3","3","lose","go","0"
"pit-trial","221","1526815","0.0-157.0","battery-v0.2","","""event"",""trial"",""time""
""fullscreenenter"",""1"",""2872""
","
","
","""event"",""trial"",""time""
""fullscreenenter"",""1"",""2872""
","
","","","1820","","","21","3017","1827","a","elianto","#f73b6a7A","-1"," ","0","-10","[2670.999999999767]","1","3","","","3017","152","2","4","lose","no-go","0"
"pit-trial","222","1531669","0.0-158.0","battery-v0.2","","""event"",""trial"",""time""
""fullscreenenter"",""1"",""2872""
","
","
","""event"",""trial"",""time""
""fullscreenenter"",""1"",""2872""
","
","","","-1","","","21","3017","1827","a","elianto","#f73b6a7A","-1","-1","1","0","[]","0","3","","","3017","153","2","4","lose","no-go","0"
"pit-trial","223","1536525","0.0-159.0","battery-v0.2","","""event"",""trial"",""time""
""fullscreenenter"",""1"",""2872""
","
","
","""event"",""trial"",""time""
""fullscreenenter"",""1"",""2872""
","
","","","-1","","","21","3017","1827","u","elianto","#f73b6a7A","-1","-1","1","-10","[]","0","3","","","3017","154","0","4","lose","no-go","1"
"pit-trial","224","1540117","0.0-160.0","battery-v0.2","","""event"",""trial"",""time""
""fullscreenenter"",""1"",""2872""
","
","
","""event"",""trial"",""time""
""fullscreenenter"",""1"",""2872""
","
","","","739","","","21","3017","1827","g","elianto","#f73b6a7A"," "," ","1","0","[1587.9999999997672]","1","3","","","3017","155","3","3","lose","go","0"
"pit-trial","225","1543963","0.0-161.0","battery-v0.2","","""event"",""trial"",""time""
""fullscreenenter"",""1"",""2872""
","
","
","""event"",""trial"",""time""
""fullscreenenter"",""1"",""2872""
","
","","","992.9999999997672","","","21","3017","1827","l","elianto","#3366ff99"," "," ","1","+10","[1842]","1","3","","","3017","156","1","1","win","go","0"
"pit-trial","226","1548818","0.0-162.0","battery-v0.2","","""event"",""trial"",""time""
""fullscreenenter"",""1"",""2872""
","
","
","""event"",""trial"",""time""
""fullscreenenter"",""1"",""2872""
","
","","","-1","","","21","3017","1827","a","elianto","#f73b6a7A","-1","-1","1","0","[3224.000000000233]","1","3","","","3017","157","2","4","lose","no-go","0"
"pit-trial","227","1553165","0.0-163.0","battery-v0.2","","""event"",""trial"",""time""
""fullscreenenter"",""1"",""2872""
","
","
","""event"",""trial"",""time""
""fullscreenenter"",""1"",""2872""
","
","","","1491","","","21","3017","1827","u","elianto","#f73b6a7A","-1"," ","0","-10","[2342]","1","3","","","3017","158","0","4","lose","no-go","0"
"pit-trial","228","1557540","0.0-164.0","battery-v0.2","","""event"",""trial"",""time""
""fullscreenenter"",""1"",""2872""
","
","
","""event"",""trial"",""time""
""fullscreenenter"",""1"",""2872""
","
","","","1520","","","21","3017","1827","g","elianto","#f73b6a7A"," "," ","1","0","[2370]","1","3","","","3017","159","3","3","lose","go","0"
"pit-trial","229","1561290","0.0-165.0","battery-v0.2","","""event"",""trial"",""time""
""fullscreenenter"",""1"",""2872""
","
","
","""event"",""trial"",""time""
""fullscreenenter"",""1"",""2872""
","
","","","896","","","21","3017","1827","l","elianto","#3366ff99"," "," ","1","+10","[1746]","1","3","","","3017","160","1","1","win","go","0"
"pit-trial","230","1565082","0.0-166.0","battery-v0.2","","""event"",""trial"",""time""
""fullscreenenter"",""1"",""2872""
","
","
","""event"",""trial"",""time""
""fullscreenenter"",""1"",""2872""
","
","","","938","","","21","3017","1827","l","elianto","#3366ff99"," "," ","1","+10","[1788]","1","3","","","3017","161","1","1","win","go","0"
"pit-trial","231","1569938","0.0-167.0","battery-v0.2","","""event"",""trial"",""time""
""fullscreenenter"",""1"",""2872""
","
","
","""event"",""trial"",""time""
""fullscreenenter"",""1"",""2872""
","
","","","-1","","","21","3017","1827","u","elianto","#f73b6a7A","-1","-1","1","0","[2906]","1","3","","","3017","162","0","4","lose","no-go","0"
"pit-trial","232","1574758","0.0-168.0","battery-v0.2","","""event"",""trial"",""time""
""fullscreenenter"",""1"",""2872""
","
","
","""event"",""trial"",""time""
""fullscreenenter"",""1"",""2872""
","
","","","1965.0000000002328","","","21","3017","1827","g","elianto","#f73b6a7A"," "," ","1","-10","[2816.000000000233]","1","3","","","3017","163","3","3","lose","go","1"
"pit-trial","233","1579613","0.0-169.0","battery-v0.2","","""event"",""trial"",""time""
""fullscreenenter"",""1"",""2872""
","
","
","""event"",""trial"",""time""
""fullscreenenter"",""1"",""2872""
","
","","","-1","","","21","3017","1827","a","elianto","#f73b6a7A","-1","-1","1","0","[]","0","3","","","3017","164","2","4","lose","no-go","0"
"pit-trial","234","1584468","0.0-170.0","battery-v0.2","","""event"",""trial"",""time""
""fullscreenenter"",""1"",""2872""
","
","
","""event"",""trial"",""time""
""fullscreenenter"",""1"",""2872""
","
","","","-1","","","21","3017","1827","p","elianto","#3366ff99","-1","-1","1","+10","[]","0","3","","","3017","165","4","2","win","no-go","0"
"pit-trial","235","1588585","0.0-171.0","battery-v0.2","","""event"",""trial"",""time""
""fullscreenenter"",""1"",""2872""
","
","
","""event"",""trial"",""time""
""fullscreenenter"",""1"",""2872""
","
","","","1260.9999999997672","","","21","3017","1827","g","elianto","#f73b6a7A"," "," ","1","0","[2113]","1","3","","","3017","166","3","3","lose","go","0"
"pit-trial","236","1592984","0.0-172.0","battery-v0.2","","""event"",""trial"",""time""
""fullscreenenter"",""1"",""2872""
","
","
","""event"",""trial"",""time""
""fullscreenenter"",""1"",""2872""
","
","","","1543.9999999997672","","","21","3017","1827","a","elianto","#f73b6a7A","-1"," ","0","-10","[2395]","1","3","","","3017","167","2","4","lose","no-go","0"
"pit-trial","237","1597369","0.0-173.0","battery-v0.2","","""event"",""trial"",""time""
""fullscreenenter"",""1"",""2872""
","
","
","""event"",""trial"",""time""
""fullscreenenter"",""1"",""2872""
","
","","","1530","","","21","3017","1827","u","elianto","#f73b6a7A","-1"," ","0","0","[2380.999999999767]","1","3","","","3017","168","0","4","lose","no-go","1"
"pit-trial","238","1601900","0.0-174.0","battery-v0.2","","""event"",""trial"",""time""
""fullscreenenter"",""1"",""2872""
","
","
","""event"",""trial"",""time""
""fullscreenenter"",""1"",""2872""
","
","","","1677.0000000002328","","","21","3017","1827","g","elianto","#f73b6a7A"," "," ","1","0","[2527.000000000233]","1","3","","","3017","169","3","3","lose","go","0"
"pit-trial","239","1605835","0.0-175.0","battery-v0.2","","""event"",""trial"",""time""
""fullscreenenter"",""1"",""2872""
","
","
","""event"",""trial"",""time""
""fullscreenenter"",""1"",""2872""
","
","","","1081","","","21","3017","1827","u","elianto","#f73b6a7A","-1"," ","0","-10","[1931]","1","3","","","3017","170","0","4","lose","no-go","0"
"pit-trial","240","1609467","0.0-176.0","battery-v0.2","","""event"",""trial"",""time""
""fullscreenenter"",""1"",""2872""
","
","
","""event"",""trial"",""time""
""fullscreenenter"",""1"",""2872""
","
","","","777.0000000002328","","","21","3017","1827","l","elianto","#3366ff99"," "," ","1","+10","[1628.0000000002328]","1","3","","","3017","171","1","1","win","go","0"
"pit-trial","241","1613936","0.0-177.0","battery-v0.2","","""event"",""trial"",""time""
""fullscreenenter"",""1"",""2872""
","
","
","""event"",""trial"",""time""
""fullscreenenter"",""1"",""2872""
","
","","","1616","","","21","3017","1827","p","elianto","#3366ff99","-1"," ","0","0","[2466]","1","3","","","3017","172","4","2","win","no-go","0"
"pit-trial","242","1618112","0.0-178.0","battery-v0.2","","""event"",""trial"",""time""
""fullscreenenter"",""1"",""2872""
","
","
","""event"",""trial"",""time""
""fullscreenenter"",""1"",""2872""
","
","","","1322","","","21","3017","1827","l","elianto","#3366ff99"," "," ","1","+10","[2172]","1","3","","","3017","173","1","1","win","go","0"
"pit-trial","243","1622968","0.0-179.0","battery-v0.2","","""event"",""trial"",""time""
""fullscreenenter"",""1"",""2872""
","
","
","""event"",""trial"",""time""
""fullscreenenter"",""1"",""2872""
","
","","","-1","","","21","3017","1827","a","elianto","#f73b6a7A","-1","-1","1","0","[]","0","3","","","3017","174","2","4","lose","no-go","0"
"pit-trial","244","1627823","0.0-180.0","battery-v0.2","","""event"",""trial"",""time""
""fullscreenenter"",""1"",""2872""
","
","
","""event"",""trial"",""time""
""fullscreenenter"",""1"",""2872""
","
","","","-1","","","21","3017","1827","u","elianto","#f73b6a7A","-1","-1","1","0","[]","0","3","","","3017","175","0","4","lose","no-go","0"
"pit-trial","245","1632678","0.0-181.0","battery-v0.2","","""event"",""trial"",""time""
""fullscreenenter"",""1"",""2872""
","
","
","""event"",""trial"",""time""
""fullscreenenter"",""1"",""2872""
","
","","","-1","","","21","3017","1827","p","elianto","#3366ff99","-1","-1","1","+10","[]","0","3","","","3017","176","4","2","win","no-go","0"
"pit-trial","246","1637308","0.0-182.0","battery-v0.2","","""event"",""trial"",""time""
""fullscreenenter"",""1"",""2872""
","
","
","""event"",""trial"",""time""
""fullscreenenter"",""1"",""2872""
","
","","","1776","","","21","3017","1827","u","elianto","#f73b6a7A","-1"," ","0","0","[2626]","1","3","","","3017","177","0","4","lose","no-go","1"
"pit-trial","247","1641250","0.0-183.0","battery-v0.2","","""event"",""trial"",""time""
""fullscreenenter"",""1"",""2872""
","
","
","""event"",""trial"",""time""
""fullscreenenter"",""1"",""2872""
","
","","","1087","","","21","3017","1827","g","elianto","#f73b6a7A"," "," ","1","0","[1936.9999999997672]","1","3","","","3017","178","3","3","lose","go","0"
"pit-trial","248","1645633","0.0-184.0","battery-v0.2","","""event"",""trial"",""time""
""fullscreenenter"",""1"",""2872""
","
","
","""event"",""trial"",""time""
""fullscreenenter"",""1"",""2872""
","
","","","1529","","","21","3017","1827","l","elianto","#3366ff99"," "," ","1","0","[2379]","1","3","","","3017","179","1","1","win","go","1"
"pit-trial","249","1648924","0.0-185.0","battery-v0.2","","""event"",""trial"",""time""
""fullscreenenter"",""1"",""2872""
","
","
","""event"",""trial"",""time""
""fullscreenenter"",""1"",""2872""
","
","","","437","","","21","3017","1827","p","elianto","#3366ff99","-1"," ","0","+10","[1287]","1","3","","","3017","180","4","2","win","no-go","1"
"pit-trial","250","1653148","0.0-186.0","battery-v0.2","","""event"",""trial"",""time""
""fullscreenenter"",""1"",""2872""
","
","
","""event"",""trial"",""time""
""fullscreenenter"",""1"",""2872""
","
","","","1369","","","21","3017","1827","g","elianto","#f73b6a7A"," "," ","1","-10","[173,2219.999999999767,4063.999999999767]","3","3","","","3017","181","3","3","lose","go","1"
"pit-trial","251","1657751","0.0-187.0","battery-v0.2","","""event"",""trial"",""time""
""fullscreenenter"",""1"",""2872""
","
","
","""event"",""trial"",""time""
""fullscreenenter"",""1"",""2872""
","
","","","1749","","","21","3017","1827","l","elianto","#3366ff99"," "," ","1","+10","[2600]","1","3","","","3017","182","1","1","win","go","0"
"pit-trial","252","1662607","0.0-188.0","battery-v0.2","","""event"",""trial"",""time""
""fullscreenenter"",""1"",""2872""
","
","
","""event"",""trial"",""time""
""fullscreenenter"",""1"",""2872""
","
","","","-1","","","21","3017","1827","a","elianto","#f73b6a7A","-1","-1","1","0","[]","0","3","","","3017","183","2","4","lose","no-go","0"
"pit-trial","253","1666906","0.0-189.0","battery-v0.2","","""event"",""trial"",""time""
""fullscreenenter"",""1"",""2872""
","
","
","""event"",""trial"",""time""
""fullscreenenter"",""1"",""2872""
","
","","","1443","","","21","3017","1827","p","elianto","#3366ff99","-1"," ","0","0","[2293]","1","3","","","3017","184","4","2","win","no-go","0"
"pit-trial","254","1671760","0.0-190.0","battery-v0.2","","""event"",""trial"",""time""
""fullscreenenter"",""1"",""2872""
","
","
","""event"",""trial"",""time""
""fullscreenenter"",""1"",""2872""
","
","","","-1","","","21","3017","1827","g","elianto","#f73b6a7A"," ","-1","0","0","[]","0","3","","","3017","185","3","3","lose","go","1"
"pit-trial","255","1676615","0.0-191.0","battery-v0.2","","""event"",""trial"",""time""
""fullscreenenter"",""1"",""2872""
","
","
","""event"",""trial"",""time""
""fullscreenenter"",""1"",""2872""
","
","","","-1","","","21","3017","1827","l","elianto","#3366ff99"," ","-1","0","0","[2963.999999999767,3182]","2","3","","","3017","186","1","1","win","go","0"
"pit-trial","256","1680300","0.0-192.0","battery-v0.2","","""event"",""trial"",""time""
""fullscreenenter"",""1"",""2872""
","
","
","""event"",""trial"",""time""
""fullscreenenter"",""1"",""2872""
","
","","","831","","","21","3017","1827","p","elianto","#3366ff99","-1"," ","0","+10","[1680.9999999997672]","1","3","","","3017","187","4","2","win","no-go","1"
"pit-trial","257","1685157","0.0-193.0","battery-v0.2","","""event"",""trial"",""time""
""fullscreenenter"",""1"",""2872""
","
","
","""event"",""trial"",""time""
""fullscreenenter"",""1"",""2872""
","
","","","-1","","","21","3017","1827","a","elianto","#f73b6a7A","-1","-1","1","-10","[3407]","1","3","","","3017","188","2","4","lose","no-go","1"
"pit-trial","258","1689354","0.0-194.0","battery-v0.2","","""event"",""trial"",""time""
""fullscreenenter"",""1"",""2872""
","
","
","""event"",""trial"",""time""
""fullscreenenter"",""1"",""2872""
","
","","","1344","","","21","3017","1827","s","elianto","#3366ff99"," "," ","1","+10","[2194]","1","3","","","3017","189","5","1","win","go","0"
"pit-trial","259","1693479","0.0-195.0","battery-v0.2","","""event"",""trial"",""time""
""fullscreenenter"",""1"",""2872""
","
","
","""event"",""trial"",""time""
""fullscreenenter"",""1"",""2872""
","
","","","1275.0000000002328","","","21","3017","1827","g","elianto","#f73b6a7A"," "," ","1","0","[2125]","1","3","","","3017","190","3","3","lose","go","0"
"pit-trial","260","1697621","0.0-196.0","battery-v0.2","","""event"",""trial"",""time""
""fullscreenenter"",""1"",""2872""
","
","
","""event"",""trial"",""time""
""fullscreenenter"",""1"",""2872""
","
","","","1298","","","21","3017","1827","p","elianto","#3366ff99","-1"," ","0","0","[2148.000000000233]","1","3","","","3017","191","4","2","win","no-go","0"
"pit-trial","261","1701070","0.0-197.0","battery-v0.2","","""event"",""trial"",""time""
""fullscreenenter"",""1"",""2872""
","
","
","""event"",""trial"",""time""
""fullscreenenter"",""1"",""2872""
","
","","","598.9999999997672","","","21","3017","1827","l","elianto","#3366ff99"," "," ","1","+10","[660,1450]","2","3","","","3017","192","1","1","win","go","0"
"pit-trial","262","1705918","0.0-198.0","battery-v0.2","","""event"",""trial"",""time""
""fullscreenenter"",""1"",""2872""
","
","
","""event"",""trial"",""time""
""fullscreenenter"",""1"",""2872""
","
","","","-1","","","21","3017","1827","p","elianto","#3366ff99","-1","-1","1","+10","[3222]","1","3","","","3017","193","4","2","win","no-go","0"
"pit-trial","263","1709942","0.0-199.0","battery-v0.2","","""event"",""trial"",""time""
""fullscreenenter"",""1"",""2872""
","
","
","""event"",""trial"",""time""
""fullscreenenter"",""1"",""2872""
","
","","","1174","","","21","3017","1827","s","elianto","#3366ff99"," "," ","1","0","[2024]","1","3","","","3017","194","5","1","win","go","1"
"pit-trial","264","1713354","0.0-200.0","battery-v0.2","","""event"",""trial"",""time""
""fullscreenenter"",""1"",""2872""
","
","
","""event"",""trial"",""time""
""fullscreenenter"",""1"",""2872""
","
","","","560","","","21","3017","1827","g","elianto","#f73b6a7A"," "," ","1","0","[1411]","1","3","","","3017","195","3","3","lose","go","0"
"pit-trial","265","1716994","0.0-201.0","battery-v0.2","","""event"",""trial"",""time""
""fullscreenenter"",""1"",""2872""
","
","
","""event"",""trial"",""time""
""fullscreenenter"",""1"",""2872""
","
","","","789","","","21","3017","1827","l","elianto","#3366ff99"," "," ","1","+10","[1639]","1","3","","","3017","196","1","1","win","go","0"
"pit-trial","266","1721847","0.0-202.0","battery-v0.2","","""event"",""trial"",""time""
""fullscreenenter"",""1"",""2872""
","
","
","""event"",""trial"",""time""
""fullscreenenter"",""1"",""2872""
","
","","","-1","","","21","3017","1827","g","elianto","#f73b6a7A"," ","-1","0","-10","[]","0","3","","","3017","197","3","3","lose","go","0"
"pit-trial","267","1725837","0.0-203.0","battery-v0.2","","""event"",""trial"",""time""
""fullscreenenter"",""1"",""2872""
","
","
","""event"",""trial"",""time""
""fullscreenenter"",""1"",""2872""
","
","","","1137","","","21","3017","1827","p","elianto","#3366ff99","-1"," ","0","+10","[1987]","1","3","","","3017","198","4","2","win","no-go","1"
"pit-trial","268","1730475","0.0-204.0","battery-v0.2","","""event"",""trial"",""time""
""fullscreenenter"",""1"",""2872""
","
","
","""event"",""trial"",""time""
""fullscreenenter"",""1"",""2872""
","
","","","1785.0000000002328","","","21","3017","1827","w","elianto","#f73b6a7A","-1"," ","0","0","[2635]","1","3","","","3017","199","6","4","lose","no-go","1"
"pit-trial","269","1733897","0.0-205.0","battery-v0.2","","""event"",""trial"",""time""
""fullscreenenter"",""1"",""2872""
","
","
","""event"",""trial"",""time""
""fullscreenenter"",""1"",""2872""
","
","","","567","","","21","3017","1827","s","elianto","#3366ff99"," "," ","1","+10","[1418.0000000002328]","1","3","","","3017","200","5","1","win","go","0"
"pit-trial","270","1737567","0.0-206.0","battery-v0.2","","""event"",""trial"",""time""
""fullscreenenter"",""1"",""2872""
","
","
","""event"",""trial"",""time""
""fullscreenenter"",""1"",""2872""
","
","","","816","","","21","3017","1827","e","elianto","#f73b6a7A"," "," ","1","0","[1668]","1","3","","","3017","201","7","3","lose","go","0"
"pit-trial","271","1741294","0.0-207.0","battery-v0.2","","""event"",""trial"",""time""
""fullscreenenter"",""1"",""2872""
","
","
","""event"",""trial"",""time""
""fullscreenenter"",""1"",""2872""
","
","","","873","","","21","3017","1827","w","elianto","#f73b6a7A","-1"," ","0","-10","[1723]","1","3","","","3017","202","6","4","lose","no-go","0"
"pit-trial","272","1745158","0.0-208.0","battery-v0.2","","""event"",""trial"",""time""
""fullscreenenter"",""1"",""2872""
","
","
","""event"",""trial"",""time""
""fullscreenenter"",""1"",""2872""
","
","","","1009","","","21","3017","1827","s","elianto","#3366ff99"," "," ","1","+10","[1860]","1","3","","","3017","203","5","1","win","go","0"
"pit-trial","273","1749199","0.0-209.0","battery-v0.2","","""event"",""trial"",""time""
""fullscreenenter"",""1"",""2872""
","
","
","""event"",""trial"",""time""
""fullscreenenter"",""1"",""2872""
","
","","","1185","","","21","3017","1827","p","elianto","#3366ff99","-1"," ","0","0","[2037]","1","3","","","3017","204","4","2","win","no-go","0"
"pit-trial","274","1754053","0.0-210.0","battery-v0.2","","""event"",""trial"",""time""
""fullscreenenter"",""1"",""2872""
","
","
","""event"",""trial"",""time""
""fullscreenenter"",""1"",""2872""
","
","","","-1","","","21","3017","1827","w","elianto","#f73b6a7A","-1","-1","1","0","[]","0","3","","","3017","205","6","4","lose","no-go","0"
