"trial_type","trial_index","time_elapsed","internal_node_id","task_version","subject_id","interactions","blur_events","focus_events","fullscreenenter_events","fullscreenexit_events","success","view_history","rt","responses","num_errors","age","subject","participantId","rune","rune_set","hex","correct","choice","accuracy","outcome","keys","total_keys","block","practice","value","sub","trial","stimulus","robot","valence","action","sham"
"pavlovia","0","7","0.0-0.0","battery-v0.2","","""event"",""trial"",""time""
""fullscreenenter"",""1"",""2226""
","
","
","""event"",""trial"",""time""
""fullscreenenter"",""1"",""2226""
","
","","","","","","","","","","","","","","","","","","","","","","","","","","",""
"fullscreen","1","3198","0.0-1.0","battery-v0.2","","""event"",""trial"",""time""
""fullscreenenter"",""1"",""2226""
","
","
","""event"",""trial"",""time""
""fullscreenenter"",""1"",""2226""
","
","true","","","","","","","","","","","","","","","","","","","","","","","","","",""
"pit-instructions","2","10078","0.0-2.0-0.0","battery-v0.2","","""event"",""trial"",""time""
""fullscreenenter"",""1"",""2226""
","
","
","""event"",""trial"",""time""
""fullscreenenter"",""1"",""2226""
","
","","[{""page_index"":0,""viewing_time"":6872}]","6872","","","","","","","","","","","","","","","","","","","","","","","",""
"pit-comprehension","3","13929","0.0-2.0-1.0-0.0","battery-v0.2","","""event"",""trial"",""time""
""fullscreenenter"",""1"",""2226""
","
","
","""event"",""trial"",""time""
""fullscreenenter"",""1"",""2226""
","
","","","3766.9999999999964","[""shark""]","0","20","10631","5120","","","","","","","","","","","","","","","","","","",""
"pit-instructions","4","15245","0.0-2.0-1.0-1.0","battery-v0.2","","""event"",""trial"",""time""
""fullscreenenter"",""1"",""2226""
","
","
","""event"",""trial"",""time""
""fullscreenenter"",""1"",""2226""
","
","","[{""page_index"":0,""viewing_time"":1313.0000000000018}]","1313.0000000000018","","","","","","","","","","","","","","","","","","","","","","","",""
"pit-comprehension","5","18179","0.0-2.0-2.0-0.0","battery-v0.2","","""event"",""trial"",""time""
""fullscreenenter"",""1"",""2226""
","
","
","""event"",""trial"",""time""
""fullscreenenter"",""1"",""2226""
","
","","","2931","[""tiger""]","0","20","10631","5120","","","","","","","","","","","","","","","","","","",""
"pit-instructions","6","19159","0.0-2.0-2.0-1.0","battery-v0.2","","""event"",""trial"",""time""
""fullscreenenter"",""1"",""2226""
","
","
","""event"",""trial"",""time""
""fullscreenenter"",""1"",""2226""
","
","","[{""page_index"":0,""viewing_time"":977}]","977","","","","","","","","","","","","","","","","","","","","","","","",""
"pit-instructions","7","114909","0.0-2.0-3.0","battery-v0.2","","""event"",""trial"",""time""
""fullscreenenter"",""1"",""2226""
","
","
","""event"",""trial"",""time""
""fullscreenenter"",""1"",""2226""
","
","","[{""page_index"":0,""viewing_time"":7897},{""page_index"":1,""viewing_time"":5653},{""page_index"":2,""viewing_time"":6681},{""page_index"":3,""viewing_time"":5516},{""page_index"":4,""viewing_time"":7103},{""page_index"":5,""viewing_time"":5866},{""page_index"":6,""viewing_time"":7331},{""page_index"":7,""viewing_time"":7153},{""page_index"":8,""viewing_time"":6432},{""page_index"":9,""viewing_time"":8514},{""page_index"":10,""viewing_time"":7151},{""page_index"":11,""viewing_time"":8486},{""page_index"":12,""viewing_time"":6430.000000000015},{""page_index"":13,""viewing_time"":5533.999999999985}]","95748","","","","","","","","","","","","","","","","","","","","","","","",""
"pit-trial","8","118751","0.0-2.0-4.0-0.0","battery-v0.2","","""event"",""trial"",""time""
""fullscreenenter"",""1"",""2226""
","
","
","""event"",""trial"",""time""
""fullscreenenter"",""1"",""2226""
","
","","","985.9999999999854","","","20","10631","5120","&#9784;","elianto","#FFFFF080"," "," ","1","&#10004","[1835.9999999999854,2403.9999999999854,3128]","3","0","0","","","","","","","",""
"pit-trial","9","123609","0.0-2.0-4.1-0.1","battery-v0.2","","""event"",""trial"",""time""
""fullscreenenter"",""1"",""2226""
","
","
","""event"",""trial"",""time""
""fullscreenenter"",""1"",""2226""
","
","","","-1","","","20","10631","5120","&#9784;","elianto","#FFFFF080"," ","-1","0","&#10060","[158.99999999998545,4335.999999999985]","2","0","0","","","","","","","",""
"pit-trial","10","127361","0.0-2.0-4.2-0.2","battery-v0.2","","""event"",""trial"",""time""
""fullscreenenter"",""1"",""2226""
","
","
","""event"",""trial"",""time""
""fullscreenenter"",""1"",""2226""
","
","","","896","","","20","10631","5120","&#9784;","elianto","#FFFFF080"," "," ","1","&#10004","[1747]","1","0","0","","","","","","","",""
"pit-trial","11","130887","0.0-2.0-4.3-0.3","battery-v0.2","","""event"",""trial"",""time""
""fullscreenenter"",""1"",""2226""
","
","
","""event"",""trial"",""time""
""fullscreenenter"",""1"",""2226""
","
","","","670","","","20","10631","5120","&#9784;","elianto","#FFFFF080"," "," ","1","&#10004","[1520]","1","0","0","","","","","","","",""
"pit-trial","12","134361","0.0-2.0-4.4-0.4","battery-v0.2","","""event"",""trial"",""time""
""fullscreenenter"",""1"",""2226""
","
","
","""event"",""trial"",""time""
""fullscreenenter"",""1"",""2226""
","
","","","615.9999999999709","","","20","10631","5120","&#9784;","elianto","#FFFFF080"," "," ","1","&#10004","[1467]","1","0","0","","","","","","","",""
"pit-instructions","13","156041","0.0-2.0-5.0","battery-v0.2","","""event"",""trial"",""time""
""fullscreenenter"",""1"",""2226""
","
","
","""event"",""trial"",""time""
""fullscreenenter"",""1"",""2226""
","
","","[{""page_index"":0,""viewing_time"":5308},{""page_index"":1,""viewing_time"":5699},{""page_index"":2,""viewing_time"":5352},{""page_index"":3,""viewing_time"":5313}]","21672","","","","","","","","","","","","","","","","","","","","","","","",""
"pit-trial","14","160896","0.0-2.0-6.0-0.0","battery-v0.2","","""event"",""trial"",""time""
""fullscreenenter"",""1"",""2226""
","
","
","""event"",""trial"",""time""
""fullscreenenter"",""1"",""2226""
","
","","","-1","","","20","10631","5120","&#9854;","elianto","#FFFFF080","-1","-1","1","&#10004","[]","0","0","1","","","","","","","",""
"pit-trial","15","165754","0.0-2.0-6.1-0.1","battery-v0.2","","""event"",""trial"",""time""
""fullscreenenter"",""1"",""2226""
","
","
","""event"",""trial"",""time""
""fullscreenenter"",""1"",""2226""
","
","","","-1","","","20","10631","5120","&#9854;","elianto","#FFFFF080","-1","-1","1","&#10004","[]","0","0","1","","","","","","","",""
"pit-trial","16","170612","0.0-2.0-6.2-0.2","battery-v0.2","","""event"",""trial"",""time""
""fullscreenenter"",""1"",""2226""
","
","
","""event"",""trial"",""time""
""fullscreenenter"",""1"",""2226""
","
","","","-1","","","20","10631","5120","&#9854;","elianto","#FFFFF080","-1","-1","1","&#10004","[]","0","0","1","","","","","","","",""
"pit-trial","17","175470","0.0-2.0-6.3-0.3","battery-v0.2","","""event"",""trial"",""time""
""fullscreenenter"",""1"",""2226""
","
","
","""event"",""trial"",""time""
""fullscreenenter"",""1"",""2226""
","
","","","-1","","","20","10631","5120","&#9854;","elianto","#FFFFF080","-1","-1","1","&#10004","[]","0","0","1","","","","","","","",""
"pit-trial","18","180329","0.0-2.0-6.4-0.4","battery-v0.2","","""event"",""trial"",""time""
""fullscreenenter"",""1"",""2226""
","
","
","""event"",""trial"",""time""
""fullscreenenter"",""1"",""2226""
","
","","","-1","","","20","10631","5120","&#9854;","elianto","#FFFFF080","-1","-1","1","&#10004","[]","0","0","1","","","","","","","",""
"pit-instructions","19","298840","0.0-2.0-7.0","battery-v0.2","","""event"",""trial"",""time""
""fullscreenenter"",""1"",""2226""
","
","
","""event"",""trial"",""time""
""fullscreenenter"",""1"",""2226""
","
","","[{""page_index"":0,""viewing_time"":5575},{""page_index"":1,""viewing_time"":6950},{""page_index"":2,""viewing_time"":6532},{""page_index"":3,""viewing_time"":6584},{""page_index"":4,""viewing_time"":5848},{""page_index"":5,""viewing_time"":5766},{""page_index"":6,""viewing_time"":4720},{""page_index"":7,""viewing_time"":7948},{""page_index"":8,""viewing_time"":6720},{""page_index"":9,""viewing_time"":6080.000000000029},{""page_index"":10,""viewing_time"":6585.999999999971},{""page_index"":11,""viewing_time"":5182},{""page_index"":12,""viewing_time"":7868},{""page_index"":13,""viewing_time"":7447},{""page_index"":14,""viewing_time"":7401},{""page_index"":15,""viewing_time"":6817},{""page_index"":16,""viewing_time"":6917},{""page_index"":17,""viewing_time"":7564}]","118505","","","","","","","","","","","","","","","","","","","","","","","",""
"pit-trial","20","302454","0.0-2.0-8.0-0.0","battery-v0.2","","""event"",""trial"",""time""
""fullscreenenter"",""1"",""2226""
","
","
","""event"",""trial"",""time""
""fullscreenenter"",""1"",""2226""
","
","","","758.9999999999418","","","20","10631","5120","&#9776;","elianto","#3366ff99"," "," ","1","+10","[1609]","1","0","1","","","","","","","",""
"pit-trial","21","305925","0.0-2.0-8.0-1.0","battery-v0.2","","""event"",""trial"",""time""
""fullscreenenter"",""1"",""2226""
","
","
","""event"",""trial"",""time""
""fullscreenenter"",""1"",""2226""
","
","","","613","","","20","10631","5120","&#9776;","elianto","#3366ff99"," "," ","1","+10","[1463.9999999999418]","1","0","1","","","","","","","",""
"pit-trial","22","309335","0.0-2.0-8.0-2.0","battery-v0.2","","""event"",""trial"",""time""
""fullscreenenter"",""1"",""2226""
","
","
","""event"",""trial"",""time""
""fullscreenenter"",""1"",""2226""
","
","","","551","","","20","10631","5120","&#9776;","elianto","#3366ff99"," "," ","1","+10","[1402.9999999999418]","1","0","1","","","","","","","",""
"pit-trial","23","312913","0.0-2.0-8.0-3.0","battery-v0.2","","""event"",""trial"",""time""
""fullscreenenter"",""1"",""2226""
","
","
","""event"",""trial"",""time""
""fullscreenenter"",""1"",""2226""
","
","","","720","","","20","10631","5120","&#9776;","elianto","#3366ff99"," "," ","1","0","[1571]","1","0","1","","","","","","","",""
"pit-trial","24","316259","0.0-2.0-8.0-4.0","battery-v0.2","","""event"",""trial"",""time""
""fullscreenenter"",""1"",""2226""
","
","
","""event"",""trial"",""time""
""fullscreenenter"",""1"",""2226""
","
","","","488","","","20","10631","5120","&#9776;","elianto","#3366ff99"," "," ","1","+10","[1339]","1","0","1","","","","","","","",""
"pit-trial","25","319625","0.0-2.0-8.1-0.1","battery-v0.2","","""event"",""trial"",""time""
""fullscreenenter"",""1"",""2226""
","
","
","""event"",""trial"",""time""
""fullscreenenter"",""1"",""2226""
","
","","","507","","","20","10631","5120","&#9776;","elianto","#3366ff99"," "," ","1","+10","[1358]","1","0","1","","","","","","","",""
"pit-trial","26","322914","0.0-2.0-8.1-1.1","battery-v0.2","","""event"",""trial"",""time""
""fullscreenenter"",""1"",""2226""
","
","
","""event"",""trial"",""time""
""fullscreenenter"",""1"",""2226""
","
","","","432","","","20","10631","5120","&#9776;","elianto","#3366ff99"," "," ","1","+10","[1282]","1","0","1","","","","","","","",""
"pit-trial","27","326185","0.0-2.0-8.1-2.1","battery-v0.2","","""event"",""trial"",""time""
""fullscreenenter"",""1"",""2226""
","
","
","""event"",""trial"",""time""
""fullscreenenter"",""1"",""2226""
","
","","","413","","","20","10631","5120","&#9776;","elianto","#3366ff99"," "," ","1","+10","[1264]","1","0","1","","","","","","","",""
"pit-trial","28","329444","0.0-2.0-8.1-3.1","battery-v0.2","","""event"",""trial"",""time""
""fullscreenenter"",""1"",""2226""
","
","
","""event"",""trial"",""time""
""fullscreenenter"",""1"",""2226""
","
","","","402","","","20","10631","5120","&#9776;","elianto","#3366ff99"," "," ","1","0","[1253]","1","0","1","","","","","","","",""
"pit-trial","29","332733","0.0-2.0-8.1-4.1","battery-v0.2","","""event"",""trial"",""time""
""fullscreenenter"",""1"",""2226""
","
","
","""event"",""trial"",""time""
""fullscreenenter"",""1"",""2226""
","
","","","430","","","20","10631","5120","&#9776;","elianto","#3366ff99"," "," ","1","+10","[1281]","1","0","1","","","","","","","",""
"pit-trial","30","336003","0.0-2.0-8.2-0.2","battery-v0.2","","""event"",""trial"",""time""
""fullscreenenter"",""1"",""2226""
","
","
","""event"",""trial"",""time""
""fullscreenenter"",""1"",""2226""
","
","","","412","","","20","10631","5120","&#9776;","elianto","#3366ff99"," "," ","1","+10","[1263]","1","0","1","","","","","","","",""
"pit-trial","31","339773","0.0-2.0-8.2-1.2","battery-v0.2","","""event"",""trial"",""time""
""fullscreenenter"",""1"",""2226""
","
","
","""event"",""trial"",""time""
""fullscreenenter"",""1"",""2226""
","
","","","911","","","20","10631","5120","&#9776;","elianto","#3366ff99"," "," ","1","+10","[1762]","1","0","1","","","","","","","",""
"pit-trial","32","343149","0.0-2.0-8.2-2.2","battery-v0.2","","""event"",""trial"",""time""
""fullscreenenter"",""1"",""2226""
","
","
","""event"",""trial"",""time""
""fullscreenenter"",""1"",""2226""
","
","","","518","","","20","10631","5120","&#9776;","elianto","#3366ff99"," "," ","1","+10","[1368]","1","0","1","","","","","","","",""
"pit-trial","33","346695","0.0-2.0-8.2-3.2","battery-v0.2","","""event"",""trial"",""time""
""fullscreenenter"",""1"",""2226""
","
","
","""event"",""trial"",""time""
""fullscreenenter"",""1"",""2226""
","
","","","688","","","20","10631","5120","&#9776;","elianto","#3366ff99"," "," ","1","0","[1539]","1","0","1","","","","","","","",""
"pit-trial","34","350090","0.0-2.0-8.2-4.2","battery-v0.2","","""event"",""trial"",""time""
""fullscreenenter"",""1"",""2226""
","
","
","""event"",""trial"",""time""
""fullscreenenter"",""1"",""2226""
","
","","","538","","","20","10631","5120","&#9776;","elianto","#3366ff99"," "," ","1","+10","[1388]","1","0","1","","","","","","","",""
"call-function","35","350095","0.0-2.0-9.0","battery-v0.2","","""event"",""trial"",""time""
""fullscreenenter"",""1"",""2226""
","
","
","""event"",""trial"",""time""
""fullscreenenter"",""1"",""2226""
","
","","","","","","","","","","","","","","","","","","","","","","","","","","",""
"pit-instructions","36","390160","0.0-2.0-10.0","battery-v0.2","","""event"",""trial"",""time""
""fullscreenenter"",""1"",""2226""
","
","
","""event"",""trial"",""time""
""fullscreenenter"",""1"",""2226""
","
","","[{""page_index"":0,""viewing_time"":6197.999999999942},{""page_index"":1,""viewing_time"":7097},{""page_index"":2,""viewing_time"":9620},{""page_index"":3,""viewing_time"":9330.000000000058},{""page_index"":4,""viewing_time"":7819.999999999942}]","40064.99999999994","","","","","","","","","","","","","","","","","","","","","","","",""
"pit-trial","37","393599","0.0-2.0-11.0-0.0","battery-v0.2","","""event"",""trial"",""time""
""fullscreenenter"",""1"",""2226""
","
","
","""event"",""trial"",""time""
""fullscreenenter"",""1"",""2226""
","
","","","583.9999999999418","","","20","10631","5120","&#9761;","elianto","#3366ff99","-1"," ","0","0","[1434]","1","0","2","","","","","","","",""
"pit-trial","38","397160","0.0-2.0-11.0-1.0","battery-v0.2","","""event"",""trial"",""time""
""fullscreenenter"",""1"",""2226""
","
","
","""event"",""trial"",""time""
""fullscreenenter"",""1"",""2226""
","
","","","703","","","20","10631","5120","&#9761;","elianto","#3366ff99","-1"," ","0","0","[1553]","1","0","2","","","","","","","",""
"pit-trial","39","402018","0.0-2.0-11.0-2.0","battery-v0.2","","""event"",""trial"",""time""
""fullscreenenter"",""1"",""2226""
","
","
","""event"",""trial"",""time""
""fullscreenenter"",""1"",""2226""
","
","","","-1","","","20","10631","5120","&#9761;","elianto","#3366ff99","-1","-1","1","+10","[]","0","0","2","","","","","","","",""
"pit-trial","40","406876","0.0-2.0-11.0-3.0","battery-v0.2","","""event"",""trial"",""time""
""fullscreenenter"",""1"",""2226""
","
","
","""event"",""trial"",""time""
""fullscreenenter"",""1"",""2226""
","
","","","-1","","","20","10631","5120","&#9761;","elianto","#3366ff99","-1","-1","1","0","[]","0","0","2","","","","","","","",""
"pit-trial","41","411733","0.0-2.0-11.0-4.0","battery-v0.2","","""event"",""trial"",""time""
""fullscreenenter"",""1"",""2226""
","
","
","""event"",""trial"",""time""
""fullscreenenter"",""1"",""2226""
","
","","","-1","","","20","10631","5120","&#9761;","elianto","#3366ff99","-1","-1","1","+10","[]","0","0","2","","","","","","","",""
"pit-trial","42","416592","0.0-2.0-11.1-0.1","battery-v0.2","","""event"",""trial"",""time""
""fullscreenenter"",""1"",""2226""
","
","
","""event"",""trial"",""time""
""fullscreenenter"",""1"",""2226""
","
","","","-1","","","20","10631","5120","&#9761;","elianto","#3366ff99","-1","-1","1","+10","[]","0","0","2","","","","","","","",""
"pit-trial","43","421458","0.0-2.0-11.1-1.1","battery-v0.2","","""event"",""trial"",""time""
""fullscreenenter"",""1"",""2226""
","
","
","""event"",""trial"",""time""
""fullscreenenter"",""1"",""2226""
","
","","","-1","","","20","10631","5120","&#9761;","elianto","#3366ff99","-1","-1","1","+10","[]","0","0","2","","","","","","","",""
"pit-trial","44","426348","0.0-2.0-11.1-2.1","battery-v0.2","","""event"",""trial"",""time""
""fullscreenenter"",""1"",""2226""
","
","
","""event"",""trial"",""time""
""fullscreenenter"",""1"",""2226""
","
","","","-1","","","20","10631","5120","&#9761;","elianto","#3366ff99","-1","-1","1","+10","[]","0","0","2","","","","","","","",""
"pit-trial","45","431238","0.0-2.0-11.1-3.1","battery-v0.2","","""event"",""trial"",""time""
""fullscreenenter"",""1"",""2226""
","
","
","""event"",""trial"",""time""
""fullscreenenter"",""1"",""2226""
","
","","","-1","","","20","10631","5120","&#9761;","elianto","#3366ff99","-1","-1","1","0","[]","0","0","2","","","","","","","",""
"pit-trial","46","436128","0.0-2.0-11.1-4.1","battery-v0.2","","""event"",""trial"",""time""
""fullscreenenter"",""1"",""2226""
","
","
","""event"",""trial"",""time""
""fullscreenenter"",""1"",""2226""
","
","","","-1","","","20","10631","5120","&#9761;","elianto","#3366ff99","-1","-1","1","+10","[]","0","0","2","","","","","","","",""
"pit-trial","47","441018","0.0-2.0-11.2-0.2","battery-v0.2","","""event"",""trial"",""time""
""fullscreenenter"",""1"",""2226""
","
","
","""event"",""trial"",""time""
""fullscreenenter"",""1"",""2226""
","
","","","-1","","","20","10631","5120","&#9761;","elianto","#3366ff99","-1","-1","1","+10","[]","0","0","2","","","","","","","",""
"pit-trial","48","445908","0.0-2.0-11.2-1.2","battery-v0.2","","""event"",""trial"",""time""
""fullscreenenter"",""1"",""2226""
","
","
","""event"",""trial"",""time""
""fullscreenenter"",""1"",""2226""
","
","","","-1","","","20","10631","5120","&#9761;","elianto","#3366ff99","-1","-1","1","+10","[]","0","0","2","","","","","","","",""
"pit-trial","49","450798","0.0-2.0-11.2-2.2","battery-v0.2","","""event"",""trial"",""time""
""fullscreenenter"",""1"",""2226""
","
","
","""event"",""trial"",""time""
""fullscreenenter"",""1"",""2226""
","
","","","-1","","","20","10631","5120","&#9761;","elianto","#3366ff99","-1","-1","1","+10","[]","0","0","2","","","","","","","",""
"pit-trial","50","455688","0.0-2.0-11.2-3.2","battery-v0.2","","""event"",""trial"",""time""
""fullscreenenter"",""1"",""2226""
","
","
","""event"",""trial"",""time""
""fullscreenenter"",""1"",""2226""
","
","","","-1","","","20","10631","5120","&#9761;","elianto","#3366ff99","-1","-1","1","0","[]","0","0","2","","","","","","","",""
"pit-trial","51","460578","0.0-2.0-11.2-4.2","battery-v0.2","","""event"",""trial"",""time""
""fullscreenenter"",""1"",""2226""
","
","
","""event"",""trial"",""time""
""fullscreenenter"",""1"",""2226""
","
","","","-1","","","20","10631","5120","&#9761;","elianto","#3366ff99","-1","-1","1","+10","[]","0","0","2","","","","","","","",""
"pit-trial","52","465468","0.0-2.0-11.3-0.3","battery-v0.2","","""event"",""trial"",""time""
""fullscreenenter"",""1"",""2226""
","
","
","""event"",""trial"",""time""
""fullscreenenter"",""1"",""2226""
","
","","","-1","","","20","10631","5120","&#9761;","elianto","#3366ff99","-1","-1","1","+10","[]","0","0","2","","","","","","","",""
"pit-trial","53","470358","0.0-2.0-11.3-1.3","battery-v0.2","","""event"",""trial"",""time""
""fullscreenenter"",""1"",""2226""
","
","
","""event"",""trial"",""time""
""fullscreenenter"",""1"",""2226""
","
","","","-1","","","20","10631","5120","&#9761;","elianto","#3366ff99","-1","-1","1","+10","[]","0","0","2","","","","","","","",""
"pit-trial","54","475248","0.0-2.0-11.3-2.3","battery-v0.2","","""event"",""trial"",""time""
""fullscreenenter"",""1"",""2226""
","
","
","""event"",""trial"",""time""
""fullscreenenter"",""1"",""2226""
","
","","","-1","","","20","10631","5120","&#9761;","elianto","#3366ff99","-1","-1","1","+10","[]","0","0","2","","","","","","","",""
"pit-trial","55","480137","0.0-2.0-11.3-3.3","battery-v0.2","","""event"",""trial"",""time""
""fullscreenenter"",""1"",""2226""
","
","
","""event"",""trial"",""time""
""fullscreenenter"",""1"",""2226""
","
","","","-1","","","20","10631","5120","&#9761;","elianto","#3366ff99","-1","-1","1","0","[]","0","0","2","","","","","","","",""
"pit-trial","56","485028","0.0-2.0-11.3-4.3","battery-v0.2","","""event"",""trial"",""time""
""fullscreenenter"",""1"",""2226""
","
","
","""event"",""trial"",""time""
""fullscreenenter"",""1"",""2226""
","
","","","-1","","","20","10631","5120","&#9761;","elianto","#3366ff99","-1","-1","1","+10","[]","0","0","2","","","","","","","",""
"call-function","57","485032","0.0-2.0-12.0","battery-v0.2","","""event"",""trial"",""time""
""fullscreenenter"",""1"",""2226""
","
","
","""event"",""trial"",""time""
""fullscreenenter"",""1"",""2226""
","
","","","","","","","","","","","","","","","","","","","","","","","","","","",""
"pit-instructions","58","516590","0.0-2.0-13.0","battery-v0.2","","""event"",""trial"",""time""
""fullscreenenter"",""1"",""2226""
","
","
","""event"",""trial"",""time""
""fullscreenenter"",""1"",""2226""
","
","","[{""page_index"":0,""viewing_time"":5288},{""page_index"":1,""viewing_time"":7369.000000000058},{""page_index"":2,""viewing_time"":3163.999999999942},{""page_index"":3,""viewing_time"":10652.000000000058},{""page_index"":4,""viewing_time"":5083.999999999942}]","31557","","","","","","","","","","","","","","","","","","","","","","","",""
"pit-trial","59","520190","0.0-2.0-14.0-0.0","battery-v0.2","","""event"",""trial"",""time""
""fullscreenenter"",""1"",""2226""
","
","
","""event"",""trial"",""time""
""fullscreenenter"",""1"",""2226""
","
","","","744.0000000000582","","","20","10631","5120","&#9826;","elianto","#f73b6a7A","-1"," ","0","-10","[1595.0000000000582]","1","0","3","","","","","","","",""
"pit-trial","60","525049","0.0-2.0-14.0-1.0","battery-v0.2","","""event"",""trial"",""time""
""fullscreenenter"",""1"",""2226""
","
","
","""event"",""trial"",""time""
""fullscreenenter"",""1"",""2226""
","
","","","-1","","","20","10631","5120","&#9826;","elianto","#f73b6a7A","-1","-1","1","0","[]","0","0","3","","","","","","","",""
"pit-trial","61","529907","0.0-2.0-14.0-2.0","battery-v0.2","","""event"",""trial"",""time""
""fullscreenenter"",""1"",""2226""
","
","
","""event"",""trial"",""time""
""fullscreenenter"",""1"",""2226""
","
","","","-1","","","20","10631","5120","&#9826;","elianto","#f73b6a7A","-1","-1","1","0","[]","0","0","3","","","","","","","",""
"pit-trial","62","534765","0.0-2.0-14.0-3.0","battery-v0.2","","""event"",""trial"",""time""
""fullscreenenter"",""1"",""2226""
","
","
","""event"",""trial"",""time""
""fullscreenenter"",""1"",""2226""
","
","","","-1","","","20","10631","5120","&#9826;","elianto","#f73b6a7A","-1","-1","1","-10","[]","0","0","3","","","","","","","",""
"pit-trial","63","539622","0.0-2.0-14.0-4.0","battery-v0.2","","""event"",""trial"",""time""
""fullscreenenter"",""1"",""2226""
","
","
","""event"",""trial"",""time""
""fullscreenenter"",""1"",""2226""
","
","","","-1","","","20","10631","5120","&#9826;","elianto","#f73b6a7A","-1","-1","1","0","[]","0","0","3","","","","","","","",""
"pit-trial","64","544487","0.0-2.0-14.1-0.1","battery-v0.2","","""event"",""trial"",""time""
""fullscreenenter"",""1"",""2226""
","
","
","""event"",""trial"",""time""
""fullscreenenter"",""1"",""2226""
","
","","","-1","","","20","10631","5120","&#9826;","elianto","#f73b6a7A","-1","-1","1","0","[]","0","0","3","","","","","","","",""
"pit-trial","65","549377","0.0-2.0-14.1-1.1","battery-v0.2","","""event"",""trial"",""time""
""fullscreenenter"",""1"",""2226""
","
","
","""event"",""trial"",""time""
""fullscreenenter"",""1"",""2226""
","
","","","-1","","","20","10631","5120","&#9826;","elianto","#f73b6a7A","-1","-1","1","0","[]","0","0","3","","","","","","","",""
"pit-trial","66","554268","0.0-2.0-14.1-2.1","battery-v0.2","","""event"",""trial"",""time""
""fullscreenenter"",""1"",""2226""
","
","
","""event"",""trial"",""time""
""fullscreenenter"",""1"",""2226""
","
","","","-1","","","20","10631","5120","&#9826;","elianto","#f73b6a7A","-1","-1","1","0","[]","0","0","3","","","","","","","",""
"pit-trial","67","559157","0.0-2.0-14.1-3.1","battery-v0.2","","""event"",""trial"",""time""
""fullscreenenter"",""1"",""2226""
","
","
","""event"",""trial"",""time""
""fullscreenenter"",""1"",""2226""
","
","","","-1","","","20","10631","5120","&#9826;","elianto","#f73b6a7A","-1","-1","1","-10","[]","0","0","3","","","","","","","",""
"pit-trial","68","564047","0.0-2.0-14.1-4.1","battery-v0.2","","""event"",""trial"",""time""
""fullscreenenter"",""1"",""2226""
","
","
","""event"",""trial"",""time""
""fullscreenenter"",""1"",""2226""
","
","","","-1","","","20","10631","5120","&#9826;","elianto","#f73b6a7A","-1","-1","1","0","[]","0","0","3","","","","","","","",""
"pit-trial","69","568937","0.0-2.0-14.2-0.2","battery-v0.2","","""event"",""trial"",""time""
""fullscreenenter"",""1"",""2226""
","
","
","""event"",""trial"",""time""
""fullscreenenter"",""1"",""2226""
","
","","","-1","","","20","10631","5120","&#9826;","elianto","#f73b6a7A","-1","-1","1","0","[]","0","0","3","","","","","","","",""
"pit-trial","70","573827","0.0-2.0-14.2-1.2","battery-v0.2","","""event"",""trial"",""time""
""fullscreenenter"",""1"",""2226""
","
","
","""event"",""trial"",""time""
""fullscreenenter"",""1"",""2226""
","
","","","-1","","","20","10631","5120","&#9826;","elianto","#f73b6a7A","-1","-1","1","0","[]","0","0","3","","","","","","","",""
"pit-trial","71","578717","0.0-2.0-14.2-2.2","battery-v0.2","","""event"",""trial"",""time""
""fullscreenenter"",""1"",""2226""
","
","
","""event"",""trial"",""time""
""fullscreenenter"",""1"",""2226""
","
","","","-1","","","20","10631","5120","&#9826;","elianto","#f73b6a7A","-1","-1","1","0","[]","0","0","3","","","","","","","",""
"pit-trial","72","583607","0.0-2.0-14.2-3.2","battery-v0.2","","""event"",""trial"",""time""
""fullscreenenter"",""1"",""2226""
","
","
","""event"",""trial"",""time""
""fullscreenenter"",""1"",""2226""
","
","","","-1","","","20","10631","5120","&#9826;","elianto","#f73b6a7A","-1","-1","1","-10","[]","0","0","3","","","","","","","",""
"pit-trial","73","588497","0.0-2.0-14.2-4.2","battery-v0.2","","""event"",""trial"",""time""
""fullscreenenter"",""1"",""2226""
","
","
","""event"",""trial"",""time""
""fullscreenenter"",""1"",""2226""
","
","","","-1","","","20","10631","5120","&#9826;","elianto","#f73b6a7A","-1","-1","1","0","[]","0","0","3","","","","","","","",""
"pit-trial","74","593387","0.0-2.0-14.3-0.3","battery-v0.2","","""event"",""trial"",""time""
""fullscreenenter"",""1"",""2226""
","
","
","""event"",""trial"",""time""
""fullscreenenter"",""1"",""2226""
","
","","","-1","","","20","10631","5120","&#9826;","elianto","#f73b6a7A","-1","-1","1","0","[]","0","0","3","","","","","","","",""
"pit-trial","75","598277","0.0-2.0-14.3-1.3","battery-v0.2","","""event"",""trial"",""time""
""fullscreenenter"",""1"",""2226""
","
","
","""event"",""trial"",""time""
""fullscreenenter"",""1"",""2226""
","
","","","-1","","","20","10631","5120","&#9826;","elianto","#f73b6a7A","-1","-1","1","0","[]","0","0","3","","","","","","","",""
"pit-trial","76","603166","0.0-2.0-14.3-2.3","battery-v0.2","","""event"",""trial"",""time""
""fullscreenenter"",""1"",""2226""
","
","
","""event"",""trial"",""time""
""fullscreenenter"",""1"",""2226""
","
","","","-1","","","20","10631","5120","&#9826;","elianto","#f73b6a7A","-1","-1","1","0","[]","0","0","3","","","","","","","",""
"pit-trial","77","608057","0.0-2.0-14.3-3.3","battery-v0.2","","""event"",""trial"",""time""
""fullscreenenter"",""1"",""2226""
","
","
","""event"",""trial"",""time""
""fullscreenenter"",""1"",""2226""
","
","","","-1","","","20","10631","5120","&#9826;","elianto","#f73b6a7A","-1","-1","1","-10","[]","0","0","3","","","","","","","",""
"pit-trial","78","612947","0.0-2.0-14.3-4.3","battery-v0.2","","""event"",""trial"",""time""
""fullscreenenter"",""1"",""2226""
","
","
","""event"",""trial"",""time""
""fullscreenenter"",""1"",""2226""
","
","","","-1","","","20","10631","5120","&#9826;","elianto","#f73b6a7A","-1","-1","1","0","[]","0","0","3","","","","","","","",""
"call-function","79","612951","0.0-2.0-15.0","battery-v0.2","","""event"",""trial"",""time""
""fullscreenenter"",""1"",""2226""
","
","
","""event"",""trial"",""time""
""fullscreenenter"",""1"",""2226""
","
","","","","","","","","","","","","","","","","","","","","","","","","","","",""
"pit-instructions","80","637756","0.0-2.0-16.0","battery-v0.2","","""event"",""trial"",""time""
""fullscreenenter"",""1"",""2226""
","
","
","""event"",""trial"",""time""
""fullscreenenter"",""1"",""2226""
","
","","[{""page_index"":0,""viewing_time"":7308},{""page_index"":1,""viewing_time"":8093},{""page_index"":2,""viewing_time"":4551},{""page_index"":3,""viewing_time"":4853}]","24805","","","","","","","","","","","","","","","","","","","","","","","",""
"pit-trial","81","641145","0.0-2.0-17.0-0.0","battery-v0.2","","""event"",""trial"",""time""
""fullscreenenter"",""1"",""2226""
","
","
","""event"",""trial"",""time""
""fullscreenenter"",""1"",""2226""
","
","","","534","","","20","10631","5120","&#9789;","elianto","#f73b6a7A"," "," ","1","0","[1385]","1","0","4","","","","","","","",""
"pit-trial","82","644540","0.0-2.0-17.0-1.0","battery-v0.2","","""event"",""trial"",""time""
""fullscreenenter"",""1"",""2226""
","
","
","""event"",""trial"",""time""
""fullscreenenter"",""1"",""2226""
","
","","","536.9999999998836","","","20","10631","5120","&#9789;","elianto","#f73b6a7A"," "," ","1","0","[1387.9999999998836]","1","0","4","","","","","","","",""
"pit-trial","83","647871","0.0-2.0-17.0-2.0","battery-v0.2","","""event"",""trial"",""time""
""fullscreenenter"",""1"",""2226""
","
","
","""event"",""trial"",""time""
""fullscreenenter"",""1"",""2226""
","
","","","474","","","20","10631","5120","&#9789;","elianto","#f73b6a7A"," "," ","1","0","[1325]","1","0","4","","","","","","","",""
"pit-trial","84","651145","0.0-2.0-17.0-3.0","battery-v0.2","","""event"",""trial"",""time""
""fullscreenenter"",""1"",""2226""
","
","
","""event"",""trial"",""time""
""fullscreenenter"",""1"",""2226""
","
","","","415","","","20","10631","5120","&#9789;","elianto","#f73b6a7A"," "," ","1","-10","[1266]","1","0","4","","","","","","","",""
"pit-trial","85","654435","0.0-2.0-17.0-4.0","battery-v0.2","","""event"",""trial"",""time""
""fullscreenenter"",""1"",""2226""
","
","
","""event"",""trial"",""time""
""fullscreenenter"",""1"",""2226""
","
","","","434.0000000001164","","","20","10631","5120","&#9789;","elianto","#f73b6a7A"," "," ","1","0","[1285.0000000001164]","1","0","4","","","","","","","",""
"pit-trial","86","657700","0.0-2.0-17.1-0.1","battery-v0.2","","""event"",""trial"",""time""
""fullscreenenter"",""1"",""2226""
","
","
","""event"",""trial"",""time""
""fullscreenenter"",""1"",""2226""
","
","","","406","","","20","10631","5120","&#9789;","elianto","#f73b6a7A"," "," ","1","0","[1257]","1","0","4","","","","","","","",""
"pit-trial","87","661023","0.0-2.0-17.1-1.1","battery-v0.2","","""event"",""trial"",""time""
""fullscreenenter"",""1"",""2226""
","
","
","""event"",""trial"",""time""
""fullscreenenter"",""1"",""2226""
","
","","","466","","","20","10631","5120","&#9789;","elianto","#f73b6a7A"," "," ","1","0","[1316]","1","0","4","","","","","","","",""
"pit-trial","88","664338","0.0-2.0-17.1-2.1","battery-v0.2","","""event"",""trial"",""time""
""fullscreenenter"",""1"",""2226""
","
","
","""event"",""trial"",""time""
""fullscreenenter"",""1"",""2226""
","
","","","458","","","20","10631","5120","&#9789;","elianto","#f73b6a7A"," "," ","1","0","[1309]","1","0","4","","","","","","","",""
"pit-trial","89","667625","0.0-2.0-17.1-3.1","battery-v0.2","","""event"",""trial"",""time""
""fullscreenenter"",""1"",""2226""
","
","
","""event"",""trial"",""time""
""fullscreenenter"",""1"",""2226""
","
","","","429","","","20","10631","5120","&#9789;","elianto","#f73b6a7A"," "," ","1","-10","[1280]","1","0","4","","","","","","","",""
"pit-trial","90","670981","0.0-2.0-17.1-4.1","battery-v0.2","","""event"",""trial"",""time""
""fullscreenenter"",""1"",""2226""
","
","
","""event"",""trial"",""time""
""fullscreenenter"",""1"",""2226""
","
","","","499","","","20","10631","5120","&#9789;","elianto","#f73b6a7A"," "," ","1","0","[1349]","1","0","4","","","","","","","",""
"pit-trial","91","674761","0.0-2.0-17.2-0.2","battery-v0.2","","""event"",""trial"",""time""
""fullscreenenter"",""1"",""2226""
","
","
","""event"",""trial"",""time""
""fullscreenenter"",""1"",""2226""
","
","","","919","","","20","10631","5120","&#9789;","elianto","#f73b6a7A"," "," ","1","0","[1770]","1","0","4","","","","","","","",""
"pit-trial","92","678412","0.0-2.0-17.2-1.2","battery-v0.2","","""event"",""trial"",""time""
""fullscreenenter"",""1"",""2226""
","
","
","""event"",""trial"",""time""
""fullscreenenter"",""1"",""2226""
","
","","","792.0000000001164","","","20","10631","5120","&#9789;","elianto","#f73b6a7A"," "," ","1","0","[1643.0000000001164]","1","0","4","","","","","","","",""
"pit-trial","93","681755","0.0-2.0-17.2-2.2","battery-v0.2","","""event"",""trial"",""time""
""fullscreenenter"",""1"",""2226""
","
","
","""event"",""trial"",""time""
""fullscreenenter"",""1"",""2226""
","
","","","485","","","20","10631","5120","&#9789;","elianto","#f73b6a7A"," "," ","1","0","[1336]","1","0","4","","","","","","","",""
"pit-trial","94","685406","0.0-2.0-17.2-3.2","battery-v0.2","","""event"",""trial"",""time""
""fullscreenenter"",""1"",""2226""
","
","
","""event"",""trial"",""time""
""fullscreenenter"",""1"",""2226""
","
","","","794","","","20","10631","5120","&#9789;","elianto","#f73b6a7A"," "," ","1","-10","[1644]","1","0","4","","","","","","","",""
"pit-trial","95","688654","0.0-2.0-17.2-4.2","battery-v0.2","","""event"",""trial"",""time""
""fullscreenenter"",""1"",""2226""
","
","
","""event"",""trial"",""time""
""fullscreenenter"",""1"",""2226""
","
","","","390","","","20","10631","5120","&#9789;","elianto","#f73b6a7A"," "," ","1","0","[1241]","1","0","4","","","","","","","",""
"pit-trial","96","691806","0.0-2.0-17.3-0.3","battery-v0.2","","""event"",""trial"",""time""
""fullscreenenter"",""1"",""2226""
","
","
","""event"",""trial"",""time""
""fullscreenenter"",""1"",""2226""
","
","","","295","","","20","10631","5120","&#9789;","elianto","#f73b6a7A"," "," ","1","0","[1146]","1","0","4","","","","","","","",""
"pit-trial","97","694970","0.0-2.0-17.3-1.3","battery-v0.2","","""event"",""trial"",""time""
""fullscreenenter"",""1"",""2226""
","
","
","""event"",""trial"",""time""
""fullscreenenter"",""1"",""2226""
","
","","","307","","","20","10631","5120","&#9789;","elianto","#f73b6a7A"," "," ","1","0","[1158]","1","0","4","","","","","","","",""
"pit-trial","98","698190","0.0-2.0-17.3-2.3","battery-v0.2","","""event"",""trial"",""time""
""fullscreenenter"",""1"",""2226""
","
","
","""event"",""trial"",""time""
""fullscreenenter"",""1"",""2226""
","
","","","361","","","20","10631","5120","&#9789;","elianto","#f73b6a7A"," "," ","1","0","[1212]","1","0","4","","","","","","","",""
"pit-trial","99","701430","0.0-2.0-17.3-3.3","battery-v0.2","","""event"",""trial"",""time""
""fullscreenenter"",""1"",""2226""
","
","
","""event"",""trial"",""time""
""fullscreenenter"",""1"",""2226""
","
","","","383.0000000001164","","","20","10631","5120","&#9789;","elianto","#f73b6a7A"," "," ","1","-10","[1234.0000000001164]","1","0","4","","","","","","","",""
"pit-trial","100","704628","0.0-2.0-17.3-4.3","battery-v0.2","","""event"",""trial"",""time""
""fullscreenenter"",""1"",""2226""
","
","
","""event"",""trial"",""time""
""fullscreenenter"",""1"",""2226""
","
","","","341","","","20","10631","5120","&#9789;","elianto","#f73b6a7A"," "," ","1","0","[1192]","1","0","4","","","","","","","",""
"call-function","101","704632","0.0-2.0-18.0","battery-v0.2","","""event"",""trial"",""time""
""fullscreenenter"",""1"",""2226""
","
","
","""event"",""trial"",""time""
""fullscreenenter"",""1"",""2226""
","
","","","","","","","","","","","","","","","","","","","","","","","","","","",""
"pit-instructions","102","769736","0.0-2.0-19.0","battery-v0.2","","""event"",""trial"",""time""
""fullscreenenter"",""1"",""2226""
","
","
","""event"",""trial"",""time""
""fullscreenenter"",""1"",""2226""
","
","","[{""page_index"":0,""viewing_time"":7672},{""page_index"":1,""viewing_time"":5998.000000000116},{""page_index"":2,""viewing_time"":8867.999999999884},{""page_index"":3,""viewing_time"":7748},{""page_index"":4,""viewing_time"":8416},{""page_index"":5,""viewing_time"":8220},{""page_index"":6,""viewing_time"":8386},{""page_index"":7,""viewing_time"":5981},{""page_index"":8,""viewing_time"":3814.0000000001164}]","65104","","","","","","","","","","","","","","","","","","","","","","","",""
"pit-comprehension","103","774609","0.0-2.0-20.0-0.0","battery-v0.2","","""event"",""trial"",""time""
""fullscreenenter"",""1"",""2226""
","
","
","""event"",""trial"",""time""
""fullscreenenter"",""1"",""2226""
","
","","","4870","[""SPACE""]","0","20","10631","5120","","","","","","","","","","","","","","","","","","",""
"pit-instructions","104","777154","0.0-2.0-20.0-1.0","battery-v0.2","","""event"",""trial"",""time""
""fullscreenenter"",""1"",""2226""
","
","
","""event"",""trial"",""time""
""fullscreenenter"",""1"",""2226""
","
","","[{""page_index"":0,""viewing_time"":2516.0000000001164}]","2517","","","","","","","","","","","","","","","","","","","","","","","",""
"pit-comprehension","105","782305","0.0-2.0-21.0-0.0","battery-v0.2","","""event"",""trial"",""time""
""fullscreenenter"",""1"",""2226""
","
","
","""event"",""trial"",""time""
""fullscreenenter"",""1"",""2226""
","
","","","5149","[""10""]","0","20","10631","5120","","","","","","","","","","","","","","","","","","",""
"pit-instructions","106","784152","0.0-2.0-21.0-1.0","battery-v0.2","","""event"",""trial"",""time""
""fullscreenenter"",""1"",""2226""
","
","
","""event"",""trial"",""time""
""fullscreenenter"",""1"",""2226""
","
","","[{""page_index"":0,""viewing_time"":1817}]","1818","","","","","","","","","","","","","","","","","","","","","","","",""
"pit-comprehension","107","790553","0.0-2.0-22.0-0.0","battery-v0.2","","""event"",""trial"",""time""
""fullscreenenter"",""1"",""2226""
","
","
","""event"",""trial"",""time""
""fullscreenenter"",""1"",""2226""
","
","","","6398.000000000116","[""0""]","0","20","10631","5120","","","","","","","","","","","","","","","","","","",""
"pit-instructions","108","793402","0.0-2.0-22.0-1.0","battery-v0.2","","""event"",""trial"",""time""
""fullscreenenter"",""1"",""2226""
","
","
","""event"",""trial"",""time""
""fullscreenenter"",""1"",""2226""
","
","","[{""page_index"":0,""viewing_time"":2818}]","2818","","","","","","","","","","","","","","","","","","","","","","","",""
"pit-comprehension","109","802256","0.0-2.0-23.0-0.0","battery-v0.2","","""event"",""trial"",""time""
""fullscreenenter"",""1"",""2226""
","
","
","""event"",""trial"",""time""
""fullscreenenter"",""1"",""2226""
","
","","","8851","[""True""]","0","20","10631","5120","","","","","","","","","","","","","","","","","","",""
"pit-instructions","110","803786","0.0-2.0-23.0-1.0","battery-v0.2","","""event"",""trial"",""time""
""fullscreenenter"",""1"",""2226""
","
","
","""event"",""trial"",""time""
""fullscreenenter"",""1"",""2226""
","
","","[{""page_index"":0,""viewing_time"":1499}]","1499","","","","","","","","","","","","","","","","","","","","","","","",""
"pit-comprehension","111","811189","0.0-2.0-24.0-0.0","battery-v0.2","","""event"",""trial"",""time""
""fullscreenenter"",""1"",""2226""
","
","
","""event"",""trial"",""time""
""fullscreenenter"",""1"",""2226""
","
","","","7399","[""True""]","0","20","10631","5120","","","","","","","","","","","","","","","","","","",""
"pit-instructions","112","812651","0.0-2.0-24.0-1.0","battery-v0.2","","""event"",""trial"",""time""
""fullscreenenter"",""1"",""2226""
","
","
","""event"",""trial"",""time""
""fullscreenenter"",""1"",""2226""
","
","","[{""page_index"":0,""viewing_time"":1432}]","1432","","","","","","","","","","","","","","","","","","","","","","","",""
"pit-comprehension","113","819022","0.0-2.0-25.0-0.0","battery-v0.2","","""event"",""trial"",""time""
""fullscreenenter"",""1"",""2226""
","
","
","""event"",""trial"",""time""
""fullscreenenter"",""1"",""2226""
","
","","","6368.999999999884","[""True""]","0","20","10631","5120","","","","","","","","","","","","","","","","","","",""
"pit-instructions","114","820452","0.0-2.0-25.0-1.0","battery-v0.2","","""event"",""trial"",""time""
""fullscreenenter"",""1"",""2226""
","
","
","""event"",""trial"",""time""
""fullscreenenter"",""1"",""2226""
","
","","[{""page_index"":0,""viewing_time"":1398.0000000001164}]","1399","","","","","","","","","","","","","","","","","","","","","","","",""
"pit-comprehension","115","825054","0.0-2.0-26.0-0.0","battery-v0.2","","""event"",""trial"",""time""
""fullscreenenter"",""1"",""2226""
","
","
","""event"",""trial"",""time""
""fullscreenenter"",""1"",""2226""
","
","","","4600","[""False""]","0","20","10631","5120","","","","","","","","","","","","","","","","","","",""
"pit-instructions","116","826703","0.0-2.0-26.0-1.0","battery-v0.2","","""event"",""trial"",""time""
""fullscreenenter"",""1"",""2226""
","
","
","""event"",""trial"",""time""
""fullscreenenter"",""1"",""2226""
","
","","[{""page_index"":0,""viewing_time"":1616}]","1616","","","","","","","","","","","","","","","","","","","","","","","",""
"pit-instructions","117","843137","0.0-3.0","battery-v0.2","","""event"",""trial"",""time""
""fullscreenenter"",""1"",""2226""
","
","
","""event"",""trial"",""time""
""fullscreenenter"",""1"",""2226""
","
","","[{""page_index"":0,""viewing_time"":3514},{""page_index"":1,""viewing_time"":5330.999999999884},{""page_index"":2,""viewing_time"":7585}]","16430.999999999884","","","","","","","","","","","","","","","","","","","","","","","",""
"pit-trial","118","846538","0.0-4.0","battery-v0.2","","""event"",""trial"",""time""
""fullscreenenter"",""1"",""2226""
","
","
","""event"",""trial"",""time""
""fullscreenenter"",""1"",""2226""
","
","","","543","","","20","10631","5120","&#9730;","elianto","#3366ff99"," "," ","1","+10","[1394]","1","1","","","10631","1","1","1","win","go","0"
"pit-trial","119","850000","0.0-5.0","battery-v0.2","","""event"",""trial"",""time""
""fullscreenenter"",""1"",""2226""
","
","
","""event"",""trial"",""time""
""fullscreenenter"",""1"",""2226""
","
","","","603","","","20","10631","5120","&#9733;","elianto","#3366ff99","-1"," ","0","0","[1454]","1","1","","","10631","2","2","2","win","no-go","0"
"pit-trial","120","853577","0.0-6.0","battery-v0.2","","""event"",""trial"",""time""
""fullscreenenter"",""1"",""2226""
","
","
","""event"",""trial"",""time""
""fullscreenenter"",""1"",""2226""
","
","","","717","","","20","10631","5120","&#9752;","elianto","#f73b6a7A"," "," ","1","-10","[1569]","1","1","","","10631","3","3","3","lose","go","1"
"pit-trial","121","857278","0.0-7.0","battery-v0.2","","""event"",""trial"",""time""
""fullscreenenter"",""1"",""2226""
","
","
","""event"",""trial"",""time""
""fullscreenenter"",""1"",""2226""
","
","","","842","","","20","10631","5120","&#9728;","elianto","#f73b6a7A","-1"," ","0","-10","[1693]","1","1","","","10631","4","0","4","lose","no-go","0"
"pit-trial","122","862138","0.0-8.0","battery-v0.2","","""event"",""trial"",""time""
""fullscreenenter"",""1"",""2226""
","
","
","""event"",""trial"",""time""
""fullscreenenter"",""1"",""2226""
","
","","","-1","","","20","10631","5120","&#9733;","elianto","#3366ff99","-1","-1","1","+10","[]","0","1","","","10631","5","2","2","win","no-go","0"
"pit-trial","123","867000","0.0-9.0","battery-v0.2","","""event"",""trial"",""time""
""fullscreenenter"",""1"",""2226""
","
","
","""event"",""trial"",""time""
""fullscreenenter"",""1"",""2226""
","
","","","-1","","","20","10631","5120","&#9752;","elianto","#f73b6a7A"," ","-1","0","-10","[]","0","1","","","10631","6","3","3","lose","go","0"
"pit-trial","124","870926","0.0-10.0","battery-v0.2","","""event"",""trial"",""time""
""fullscreenenter"",""1"",""2226""
","
","
","""event"",""trial"",""time""
""fullscreenenter"",""1"",""2226""
","
","","","1067","","","20","10631","5120","&#9730;","elianto","#3366ff99"," "," ","1","0","[1918]","1","1","","","10631","7","1","1","win","go","1"
"pit-trial","125","875785","0.0-11.0","battery-v0.2","","""event"",""trial"",""time""
""fullscreenenter"",""1"",""2226""
","
","
","""event"",""trial"",""time""
""fullscreenenter"",""1"",""2226""
","
","","","-1","","","20","10631","5120","&#9728;","elianto","#f73b6a7A","-1","-1","1","0","[]","0","1","","","10631","8","0","4","lose","no-go","0"
"pit-trial","126","880644","0.0-12.0","battery-v0.2","","""event"",""trial"",""time""
""fullscreenenter"",""1"",""2226""
","
","
","""event"",""trial"",""time""
""fullscreenenter"",""1"",""2226""
","
","","","-1","","","20","10631","5120","&#9752;","elianto","#f73b6a7A"," ","-1","0","-10","[]","0","1","","","10631","9","3","3","lose","go","0"
"pit-trial","127","884252","0.0-13.0","battery-v0.2","","""event"",""trial"",""time""
""fullscreenenter"",""1"",""2226""
","
","
","""event"",""trial"",""time""
""fullscreenenter"",""1"",""2226""
","
","","","749","","","20","10631","5120","&#9730;","elianto","#3366ff99"," "," ","1","+10","[1600]","1","1","","","10631","10","1","1","win","go","0"
"pit-trial","128","889111","0.0-14.0","battery-v0.2","","""event"",""trial"",""time""
""fullscreenenter"",""1"",""2226""
","
","
","""event"",""trial"",""time""
""fullscreenenter"",""1"",""2226""
","
","","","-1","","","20","10631","5120","&#9733;","elianto","#3366ff99","-1","-1","1","+10","[]","0","1","","","10631","11","2","2","win","no-go","0"
"pit-trial","129","893745","0.0-15.0","battery-v0.2","","""event"",""trial"",""time""
""fullscreenenter"",""1"",""2226""
","
","
","""event"",""trial"",""time""
""fullscreenenter"",""1"",""2226""
","
","","","1774","","","20","10631","5120","&#9728;","elianto","#f73b6a7A","-1"," ","0","-10","[2625]","1","1","","","10631","12","0","4","lose","no-go","0"
"pit-trial","130","898605","0.0-16.0","battery-v0.2","","""event"",""trial"",""time""
""fullscreenenter"",""1"",""2226""
","
","
","""event"",""trial"",""time""
""fullscreenenter"",""1"",""2226""
","
","","","-1","","","20","10631","5120","&#9733;","elianto","#3366ff99","-1","-1","1","+10","[]","0","1","","","10631","13","2","2","win","no-go","0"
"pit-trial","131","903147","0.0-17.0","battery-v0.2","","""event"",""trial"",""time""
""fullscreenenter"",""1"",""2226""
","
","
","""event"",""trial"",""time""
""fullscreenenter"",""1"",""2226""
","
","","","1682","","","20","10631","5120","&#9730;","elianto","#3366ff99"," "," ","1","0","[2533]","1","1","","","10631","14","1","1","win","go","1"
"pit-trial","132","906913","0.0-18.0","battery-v0.2","","""event"",""trial"",""time""
""fullscreenenter"",""1"",""2226""
","
","
","""event"",""trial"",""time""
""fullscreenenter"",""1"",""2226""
","
","","","906.9999999998836","","","20","10631","5120","&#9728;","elianto","#f73b6a7A","-1"," ","0","-10","[1757.9999999998836]","1","1","","","10631","15","0","4","lose","no-go","0"
"pit-trial","133","911328","0.0-19.0","battery-v0.2","","""event"",""trial"",""time""
""fullscreenenter"",""1"",""2226""
","
","
","""event"",""trial"",""time""
""fullscreenenter"",""1"",""2226""
","
","","","1555.0000000001164","","","20","10631","5120","&#9752;","elianto","#f73b6a7A"," "," ","1","-10","[2406.0000000001164]","1","1","","","10631","16","3","3","lose","go","1"
"pit-trial","134","915822","0.0-20.0","battery-v0.2","","""event"",""trial"",""time""
""fullscreenenter"",""1"",""2226""
","
","
","""event"",""trial"",""time""
""fullscreenenter"",""1"",""2226""
","
","","","1634","","","20","10631","5120","&#9728;","elianto","#f73b6a7A","-1"," ","0","-10","[2485]","1","1","","","10631","17","0","4","lose","no-go","0"
"pit-trial","135","920682","0.0-21.0","battery-v0.2","","""event"",""trial"",""time""
""fullscreenenter"",""1"",""2226""
","
","
","""event"",""trial"",""time""
""fullscreenenter"",""1"",""2226""
","
","","","-1","","","20","10631","5120","&#9752;","elianto","#f73b6a7A"," ","-1","0","-10","[]","0","1","","","10631","18","3","3","lose","go","0"
"pit-trial","136","925542","0.0-22.0","battery-v0.2","","""event"",""trial"",""time""
""fullscreenenter"",""1"",""2226""
","
","
","""event"",""trial"",""time""
""fullscreenenter"",""1"",""2226""
","
","","","-1","","","20","10631","5120","&#9733;","elianto","#3366ff99","-1","-1","1","+10","[]","0","1","","","10631","19","2","2","win","no-go","0"
"pit-trial","137","929238","0.0-23.0","battery-v0.2","","""event"",""trial"",""time""
""fullscreenenter"",""1"",""2226""
","
","
","""event"",""trial"",""time""
""fullscreenenter"",""1"",""2226""
","
","","","836","","","20","10631","5120","&#9730;","elianto","#3366ff99"," "," ","1","+10","[1688]","1","1","","","10631","20","1","1","win","go","0"
"pit-instructions","138","940934","0.0-24.0","battery-v0.2","","""event"",""trial"",""time""
""fullscreenenter"",""1"",""2226""
","
","
","""event"",""trial"",""time""
""fullscreenenter"",""1"",""2226""
","
","","[{""page_index"":0,""viewing_time"":5655},{""page_index"":1,""viewing_time"":6034}]","11689","","","","","","","","","","","","","","","","","","","","","","","",""
"pit-trial","139","944579","0.0-25.0","battery-v0.2","","""event"",""trial"",""time""
""fullscreenenter"",""1"",""2226""
","
","
","""event"",""trial"",""time""
""fullscreenenter"",""1"",""2226""
","
","","","789","","","20","10631","5120","w","elianto","#f73b6a7A","-1"," ","0","-10","[1639]","1","2","","","10631","21","3","4","lose","no-go","0"
"pit-trial","140","948215","0.0-26.0","battery-v0.2","","""event"",""trial"",""time""
""fullscreenenter"",""1"",""2226""
","
","
","""event"",""trial"",""time""
""fullscreenenter"",""1"",""2226""
","
","","","777","","","20","10631","5120","d","elianto","#3366ff99","-1"," ","0","0","[1626]","1","2","","","10631","22","1","2","win","no-go","0"
"pit-trial","141","951808","0.0-27.0","battery-v0.2","","""event"",""trial"",""time""
""fullscreenenter"",""1"",""2226""
","
","
","""event"",""trial"",""time""
""fullscreenenter"",""1"",""2226""
","
","","","734","","","20","10631","5120","e","elianto","#f73b6a7A"," "," ","1","0","[1585]","1","2","","","10631","23","2","3","lose","go","0"
"pit-trial","142","955476","0.0-28.0","battery-v0.2","","""event"",""trial"",""time""
""fullscreenenter"",""1"",""2226""
","
","
","""event"",""trial"",""time""
""fullscreenenter"",""1"",""2226""
","
","","","809.0000000001164","","","20","10631","5120","j","elianto","#f73b6a7A"," "," ","1","0","[1660.0000000001164]","1","2","","","10631","24","0","3","lose","go","0"
"pit-trial","143","960335","0.0-29.0","battery-v0.2","","""event"",""trial"",""time""
""fullscreenenter"",""1"",""2226""
","
","
","""event"",""trial"",""time""
""fullscreenenter"",""1"",""2226""
","
","","","-1","","","20","10631","5120","d","elianto","#3366ff99","-1","-1","1","0","[]","0","2","","","10631","25","1","2","win","no-go","1"
"pit-trial","144","964658","0.0-30.0","battery-v0.2","","""event"",""trial"",""time""
""fullscreenenter"",""1"",""2226""
","
","
","""event"",""trial"",""time""
""fullscreenenter"",""1"",""2226""
","
","","","1463","","","20","10631","5120","j","elianto","#f73b6a7A"," "," ","1","0","[2314]","1","2","","","10631","26","0","3","lose","go","0"
"pit-trial","145","969518","0.0-31.0","battery-v0.2","","""event"",""trial"",""time""
""fullscreenenter"",""1"",""2226""
","
","
","""event"",""trial"",""time""
""fullscreenenter"",""1"",""2226""
","
","","","-1","","","20","10631","5120","w","elianto","#f73b6a7A","-1","-1","1","-10","[]","0","2","","","10631","27","3","4","lose","no-go","1"
"pit-trial","146","973010","0.0-32.0","battery-v0.2","","""event"",""trial"",""time""
""fullscreenenter"",""1"",""2226""
","
","
","""event"",""trial"",""time""
""fullscreenenter"",""1"",""2226""
","
","","","632.0000000001164","","","20","10631","5120","e","elianto","#f73b6a7A"," "," ","1","0","[1483.0000000001164]","1","2","","","10631","28","2","3","lose","go","0"
"pit-trial","147","976526","0.0-33.0","battery-v0.2","","""event"",""trial"",""time""
""fullscreenenter"",""1"",""2226""
","
","
","""event"",""trial"",""time""
""fullscreenenter"",""1"",""2226""
","
","","","654.9999999998836","","","20","10631","5120","j","elianto","#f73b6a7A"," "," ","1","-10","[1507]","1","2","","","10631","29","0","3","lose","go","1"
"pit-trial","148","980093","0.0-34.0","battery-v0.2","","""event"",""trial"",""time""
""fullscreenenter"",""1"",""2226""
","
","
","""event"",""trial"",""time""
""fullscreenenter"",""1"",""2226""
","
","","","709","","","20","10631","5120","e","elianto","#f73b6a7A"," "," ","1","-10","[1560]","1","2","","","10631","30","2","3","lose","go","1"
"pit-trial","149","983845","0.0-35.0","battery-v0.2","","""event"",""trial"",""time""
""fullscreenenter"",""1"",""2226""
","
","
","""event"",""trial"",""time""
""fullscreenenter"",""1"",""2226""
","
","","","891.9999999998836","","","20","10631","5120","d","elianto","#3366ff99","-1"," ","0","0","[1742.9999999998836]","1","2","","","10631","31","1","2","win","no-go","0"
"pit-trial","150","988705","0.0-36.0","battery-v0.2","","""event"",""trial"",""time""
""fullscreenenter"",""1"",""2226""
","
","
","""event"",""trial"",""time""
""fullscreenenter"",""1"",""2226""
","
","","","-1","","","20","10631","5120","w","elianto","#f73b6a7A","-1","-1","1","0","[]","0","2","","","10631","32","3","4","lose","no-go","0"
"pit-trial","151","992248","0.0-37.0","battery-v0.2","","""event"",""trial"",""time""
""fullscreenenter"",""1"",""2226""
","
","
","""event"",""trial"",""time""
""fullscreenenter"",""1"",""2226""
","
","","","683","","","20","10631","5120","e","elianto","#f73b6a7A"," "," ","1","0","[1534]","1","2","","","10631","33","2","3","lose","go","0"
"pit-trial","152","995832","0.0-38.0","battery-v0.2","","""event"",""trial"",""time""
""fullscreenenter"",""1"",""2226""
","
","
","""event"",""trial"",""time""
""fullscreenenter"",""1"",""2226""
","
","","","726","","","20","10631","5120","j","elianto","#f73b6a7A"," "," ","1","-10","[1575.9999999998836]","1","2","","","10631","34","0","3","lose","go","1"
"pit-trial","153","1000692","0.0-39.0","battery-v0.2","","""event"",""trial"",""time""
""fullscreenenter"",""1"",""2226""
","
","
","""event"",""trial"",""time""
""fullscreenenter"",""1"",""2226""
","
","","","-1","","","20","10631","5120","d","elianto","#3366ff99","-1","-1","1","+10","[]","0","2","","","10631","35","1","2","win","no-go","0"
"pit-trial","154","1005552","0.0-40.0","battery-v0.2","","""event"",""trial"",""time""
""fullscreenenter"",""1"",""2226""
","
","
","""event"",""trial"",""time""
""fullscreenenter"",""1"",""2226""
","
","","","-1","","","20","10631","5120","w","elianto","#f73b6a7A","-1","-1","1","0","[]","0","2","","","10631","36","3","4","lose","no-go","0"
"pit-trial","155","1009279","0.0-41.0","battery-v0.2","","""event"",""trial"",""time""
""fullscreenenter"",""1"",""2226""
","
","
","""event"",""trial"",""time""
""fullscreenenter"",""1"",""2226""
","
","","","867.0000000001164","","","20","10631","5120","j","elianto","#f73b6a7A"," "," ","1","0","[1718.0000000001164]","1","2","","","10631","37","0","3","lose","go","0"
"pit-trial","156","1012833","0.0-42.0","battery-v0.2","","""event"",""trial"",""time""
""fullscreenenter"",""1"",""2226""
","
","
","""event"",""trial"",""time""
""fullscreenenter"",""1"",""2226""
","
","","","694.0000000001164","","","20","10631","5120","e","elianto","#f73b6a7A"," "," ","1","0","[1545.0000000001164]","1","2","","","10631","38","2","3","lose","go","0"
"pit-trial","157","1017693","0.0-43.0","battery-v0.2","","""event"",""trial"",""time""
""fullscreenenter"",""1"",""2226""
","
","
","""event"",""trial"",""time""
""fullscreenenter"",""1"",""2226""
","
","","","-1","","","20","10631","5120","d","elianto","#3366ff99","-1","-1","1","+10","[]","0","2","","","10631","39","1","2","win","no-go","0"
"pit-trial","158","1022552","0.0-44.0","battery-v0.2","","""event"",""trial"",""time""
""fullscreenenter"",""1"",""2226""
","
","
","""event"",""trial"",""time""
""fullscreenenter"",""1"",""2226""
","
","","","-1","","","20","10631","5120","w","elianto","#f73b6a7A","-1","-1","1","0","[]","0","2","","","10631","40","3","4","lose","no-go","0"
"pit-trial","159","1027412","0.0-45.0","battery-v0.2","","""event"",""trial"",""time""
""fullscreenenter"",""1"",""2226""
","
","
","""event"",""trial"",""time""
""fullscreenenter"",""1"",""2226""
","
","","","-1","","","20","10631","5120","w","elianto","#f73b6a7A","-1","-1","1","0","[]","0","2","","","10631","41","3","4","lose","no-go","0"
"pit-trial","160","1032272","0.0-46.0","battery-v0.2","","""event"",""trial"",""time""
""fullscreenenter"",""1"",""2226""
","
","
","""event"",""trial"",""time""
""fullscreenenter"",""1"",""2226""
","
","","","-1","","","20","10631","5120","d","elianto","#3366ff99","-1","-1","1","+10","[]","0","2","","","10631","42","1","2","win","no-go","0"
"pit-trial","161","1035771","0.0-47.0","battery-v0.2","","""event"",""trial"",""time""
""fullscreenenter"",""1"",""2226""
","
","
","""event"",""trial"",""time""
""fullscreenenter"",""1"",""2226""
","
","","","639.0000000001164","","","20","10631","5120","j","elianto","#f73b6a7A"," "," ","1","0","[1490]","1","2","","","10631","43","0","3","lose","go","0"
"pit-trial","162","1039194","0.0-48.0","battery-v0.2","","""event"",""trial"",""time""
""fullscreenenter"",""1"",""2226""
","
","
","""event"",""trial"",""time""
""fullscreenenter"",""1"",""2226""
","
","","","564","","","20","10631","5120","e","elianto","#f73b6a7A"," "," ","1","0","[1414.9999999998836]","1","2","","","10631","44","2","3","lose","go","0"
"pit-trial","163","1044054","0.0-49.0","battery-v0.2","","""event"",""trial"",""time""
""fullscreenenter"",""1"",""2226""
","
","
","""event"",""trial"",""time""
""fullscreenenter"",""1"",""2226""
","
","","","-1","","","20","10631","5120","d","elianto","#3366ff99","-1","-1","1","+10","[]","0","2","","","10631","45","1","2","win","no-go","0"
"pit-trial","164","1047823","0.0-50.0","battery-v0.2","","""event"",""trial"",""time""
""fullscreenenter"",""1"",""2226""
","
","
","""event"",""trial"",""time""
""fullscreenenter"",""1"",""2226""
","
","","","908.9999999998836","","","20","10631","5120","j","elianto","#f73b6a7A"," "," ","1","0","[1759.9999999998836]","1","2","","","10631","46","0","3","lose","go","0"
"pit-trial","165","1052683","0.0-51.0","battery-v0.2","","""event"",""trial"",""time""
""fullscreenenter"",""1"",""2226""
","
","
","""event"",""trial"",""time""
""fullscreenenter"",""1"",""2226""
","
","","","-1","","","20","10631","5120","w","elianto","#f73b6a7A","-1","-1","1","0","[]","0","2","","","10631","47","3","4","lose","no-go","0"
"pit-trial","166","1056136","0.0-52.0","battery-v0.2","","""event"",""trial"",""time""
""fullscreenenter"",""1"",""2226""
","
","
","""event"",""trial"",""time""
""fullscreenenter"",""1"",""2226""
","
","","","593","","","20","10631","5120","e","elianto","#f73b6a7A"," "," ","1","0","[1444]","1","2","","","10631","48","2","3","lose","go","0"
"pit-trial","167","1060995","0.0-53.0","battery-v0.2","","""event"",""trial"",""time""
""fullscreenenter"",""1"",""2226""
","
","
","""event"",""trial"",""time""
""fullscreenenter"",""1"",""2226""
","
","","","-1","","","20","10631","5120","d","elianto","#3366ff99","-1","-1","1","+10","[]","0","2","","","10631","49","1","2","win","no-go","0"
"pit-trial","168","1064434","0.0-54.0","battery-v0.2","","""event"",""trial"",""time""
""fullscreenenter"",""1"",""2226""
","
","
","""event"",""trial"",""time""
""fullscreenenter"",""1"",""2226""
","
","","","580","","","20","10631","5120","e","elianto","#f73b6a7A"," "," ","1","0","[1431]","1","2","","","10631","50","2","3","lose","go","0"
"pit-trial","169","1069294","0.0-55.0","battery-v0.2","","""event"",""trial"",""time""
""fullscreenenter"",""1"",""2226""
","
","
","""event"",""trial"",""time""
""fullscreenenter"",""1"",""2226""
","
","","","-1","","","20","10631","5120","w","elianto","#f73b6a7A","-1","-1","1","0","[]","0","2","","","10631","51","3","4","lose","no-go","0"
"pit-trial","170","1072835","0.0-56.0","battery-v0.2","","""event"",""trial"",""time""
""fullscreenenter"",""1"",""2226""
","
","
","""event"",""trial"",""time""
""fullscreenenter"",""1"",""2226""
","
","","","680","","","20","10631","5120","j","elianto","#f73b6a7A"," "," ","1","-10","[1531]","1","2","","","10631","52","0","3","lose","go","1"
"pit-trial","171","1076466","0.0-57.0","battery-v0.2","","""event"",""trial"",""time""
""fullscreenenter"",""1"",""2226""
","
","
","""event"",""trial"",""time""
""fullscreenenter"",""1"",""2226""
","
","","","771","","","20","10631","5120","j","elianto","#f73b6a7A"," "," ","1","0","[1621.9999999997672]","1","2","","","10631","53","0","3","lose","go","0"
"pit-trial","172","1081326","0.0-58.0","battery-v0.2","","""event"",""trial"",""time""
""fullscreenenter"",""1"",""2226""
","
","
","""event"",""trial"",""time""
""fullscreenenter"",""1"",""2226""
","
","","","-1","","","20","10631","5120","w","elianto","#f73b6a7A","-1","-1","1","0","[]","0","2","","","10631","54","3","4","lose","no-go","0"
"pit-trial","173","1086186","0.0-59.0","battery-v0.2","","""event"",""trial"",""time""
""fullscreenenter"",""1"",""2226""
","
","
","""event"",""trial"",""time""
""fullscreenenter"",""1"",""2226""
","
","","","-1","","","20","10631","5120","d","elianto","#3366ff99","-1","-1","1","+10","[]","0","2","","","10631","55","1","2","win","no-go","0"
"pit-trial","174","1089642","0.0-60.0","battery-v0.2","","""event"",""trial"",""time""
""fullscreenenter"",""1"",""2226""
","
","
","""event"",""trial"",""time""
""fullscreenenter"",""1"",""2226""
","
","","","596","","","20","10631","5120","e","elianto","#f73b6a7A"," "," ","1","-10","[1447]","1","2","","","10631","56","2","3","lose","go","1"
"pit-trial","175","1093088","0.0-61.0","battery-v0.2","","""event"",""trial"",""time""
""fullscreenenter"",""1"",""2226""
","
","
","""event"",""trial"",""time""
""fullscreenenter"",""1"",""2226""
","
","","","587","","","20","10631","5120","j","elianto","#f73b6a7A"," "," ","1","0","[1438]","1","2","","","10631","57","0","3","lose","go","0"
"pit-trial","176","1097947","0.0-62.0","battery-v0.2","","""event"",""trial"",""time""
""fullscreenenter"",""1"",""2226""
","
","
","""event"",""trial"",""time""
""fullscreenenter"",""1"",""2226""
","
","","","-1","","","20","10631","5120","w","elianto","#f73b6a7A","-1","-1","1","0","[]","0","2","","","10631","58","3","4","lose","no-go","0"
"pit-trial","177","1102001","0.0-63.0","battery-v0.2","","""event"",""trial"",""time""
""fullscreenenter"",""1"",""2226""
","
","
","""event"",""trial"",""time""
""fullscreenenter"",""1"",""2226""
","
","","","1194","","","20","10631","5120","s","elianto","#3366ff99"," "," ","1","+10","[2045]","1","2","","","10631","59","4","1","win","go","0"
"pit-trial","178","1105507","0.0-64.0","battery-v0.2","","""event"",""trial"",""time""
""fullscreenenter"",""1"",""2226""
","
","
","""event"",""trial"",""time""
""fullscreenenter"",""1"",""2226""
","
","","","646.0000000002328","","","20","10631","5120","e","elianto","#f73b6a7A"," "," ","1","0","[1497.0000000002328]","1","2","","","10631","60","2","3","lose","go","0"
"pit-trial","179","1109118","0.0-65.0","battery-v0.2","","""event"",""trial"",""time""
""fullscreenenter"",""1"",""2226""
","
","
","""event"",""trial"",""time""
""fullscreenenter"",""1"",""2226""
","
","","","752","","","20","10631","5120","s","elianto","#3366ff99"," "," ","1","+10","[1603]","1","2","","","10631","61","4","1","win","go","0"
"pit-trial","180","1113978","0.0-66.0","battery-v0.2","","""event"",""trial"",""time""
""fullscreenenter"",""1"",""2226""
","
","
","""event"",""trial"",""time""
""fullscreenenter"",""1"",""2226""
","
","","","-1","","","20","10631","5120","d","elianto","#3366ff99","-1","-1","1","0","[]","0","2","","","10631","62","1","2","win","no-go","1"
"pit-trial","181","1118837","0.0-67.0","battery-v0.2","","""event"",""trial"",""time""
""fullscreenenter"",""1"",""2226""
","
","
","""event"",""trial"",""time""
""fullscreenenter"",""1"",""2226""
","
","","","-1","","","20","10631","5120","w","elianto","#f73b6a7A","-1","-1","1","0","[]","0","2","","","10631","63","3","4","lose","no-go","0"
"pit-trial","182","1122311","0.0-68.0","battery-v0.2","","""event"",""trial"",""time""
""fullscreenenter"",""1"",""2226""
","
","
","""event"",""trial"",""time""
""fullscreenenter"",""1"",""2226""
","
","","","615","","","20","10631","5120","e","elianto","#f73b6a7A"," "," ","1","0","[1466]","1","2","","","10631","64","2","3","lose","go","0"
"pit-trial","183","1127170","0.0-69.0","battery-v0.2","","""event"",""trial"",""time""
""fullscreenenter"",""1"",""2226""
","
","
","""event"",""trial"",""time""
""fullscreenenter"",""1"",""2226""
","
","","","-1","","","20","10631","5120","w","elianto","#f73b6a7A","-1","-1","1","0","[]","0","2","","","10631","65","3","4","lose","no-go","0"
"pit-trial","184","1131013","0.0-70.0","battery-v0.2","","""event"",""trial"",""time""
""fullscreenenter"",""1"",""2226""
","
","
","""event"",""trial"",""time""
""fullscreenenter"",""1"",""2226""
","
","","","983","","","20","10631","5120","p","elianto","#3366ff99","-1"," ","0","0","[1834]","1","2","","","10631","66","5","2","win","no-go","0"
"pit-trial","185","1134829","0.0-71.0","battery-v0.2","","""event"",""trial"",""time""
""fullscreenenter"",""1"",""2226""
","
","
","""event"",""trial"",""time""
""fullscreenenter"",""1"",""2226""
","
","","","956","","","20","10631","5120","s","elianto","#3366ff99"," "," ","1","+10","[1807]","1","2","","","10631","67","4","1","win","go","0"
"pit-trial","186","1139689","0.0-72.0","battery-v0.2","","""event"",""trial"",""time""
""fullscreenenter"",""1"",""2226""
","
","
","""event"",""trial"",""time""
""fullscreenenter"",""1"",""2226""
","
","","","-1","","","20","10631","5120","d","elianto","#3366ff99","-1","-1","1","+10","[]","0","2","","","10631","68","1","2","win","no-go","0"
"pit-trial","187","1144549","0.0-73.0","battery-v0.2","","""event"",""trial"",""time""
""fullscreenenter"",""1"",""2226""
","
","
","""event"",""trial"",""time""
""fullscreenenter"",""1"",""2226""
","
","","","-1","","","20","10631","5120","d","elianto","#3366ff99","-1","-1","1","+10","[]","0","2","","","10631","69","1","2","win","no-go","0"
"pit-trial","188","1148134","0.0-74.0","battery-v0.2","","""event"",""trial"",""time""
""fullscreenenter"",""1"",""2226""
","
","
","""event"",""trial"",""time""
""fullscreenenter"",""1"",""2226""
","
","","","727","","","20","10631","5120","s","elianto","#3366ff99"," "," ","1","+10","[1578]","1","2","","","10631","70","4","1","win","go","0"
"pit-trial","189","1152992","0.0-75.0","battery-v0.2","","""event"",""trial"",""time""
""fullscreenenter"",""1"",""2226""
","
","
","""event"",""trial"",""time""
""fullscreenenter"",""1"",""2226""
","
","","","-1","","","20","10631","5120","p","elianto","#3366ff99","-1","-1","1","+10","[]","0","2","","","10631","71","5","2","win","no-go","0"
"pit-trial","190","1156485","0.0-76.0","battery-v0.2","","""event"",""trial"",""time""
""fullscreenenter"",""1"",""2226""
","
","
","""event"",""trial"",""time""
""fullscreenenter"",""1"",""2226""
","
","","","633","","","20","10631","5120","e","elianto","#f73b6a7A"," "," ","1","0","[1484]","1","2","","","10631","72","2","3","lose","go","0"
"pit-trial","191","1161344","0.0-77.0","battery-v0.2","","""event"",""trial"",""time""
""fullscreenenter"",""1"",""2226""
","
","
","""event"",""trial"",""time""
""fullscreenenter"",""1"",""2226""
","
","","","-1","","","20","10631","5120","p","elianto","#3366ff99","-1","-1","1","+10","[]","0","2","","","10631","73","5","2","win","no-go","0"
"pit-trial","192","1164992","0.0-78.0","battery-v0.2","","""event"",""trial"",""time""
""fullscreenenter"",""1"",""2226""
","
","
","""event"",""trial"",""time""
""fullscreenenter"",""1"",""2226""
","
","","","787","","","20","10631","5120","s","elianto","#3366ff99"," "," ","1","+10","[1638]","1","2","","","10631","74","4","1","win","go","0"
"pit-trial","193","1169852","0.0-79.0","battery-v0.2","","""event"",""trial"",""time""
""fullscreenenter"",""1"",""2226""
","
","
","""event"",""trial"",""time""
""fullscreenenter"",""1"",""2226""
","
","","","-1","","","20","10631","5120","d","elianto","#3366ff99","-1","-1","1","0","[]","0","2","","","10631","75","1","2","win","no-go","1"
"pit-trial","194","1174712","0.0-80.0","battery-v0.2","","""event"",""trial"",""time""
""fullscreenenter"",""1"",""2226""
","
","
","""event"",""trial"",""time""
""fullscreenenter"",""1"",""2226""
","
","","","-1","","","20","10631","5120","w","elianto","#f73b6a7A","-1","-1","1","-10","[]","0","2","","","10631","76","3","4","lose","no-go","1"
"pit-trial","195","1179572","0.0-81.0","battery-v0.2","","""event"",""trial"",""time""
""fullscreenenter"",""1"",""2226""
","
","
","""event"",""trial"",""time""
""fullscreenenter"",""1"",""2226""
","
","","","-1","","","20","10631","5120","p","elianto","#3366ff99","-1","-1","1","+10","[]","0","2","","","10631","77","5","2","win","no-go","0"
"pit-trial","196","1184432","0.0-82.0","battery-v0.2","","""event"",""trial"",""time""
""fullscreenenter"",""1"",""2226""
","
","
","""event"",""trial"",""time""
""fullscreenenter"",""1"",""2226""
","
","","","-1","","","20","10631","5120","w","elianto","#f73b6a7A","-1","-1","1","0","[]","0","2","","","10631","78","3","4","lose","no-go","0"
"pit-trial","197","1187969","0.0-83.0","battery-v0.2","","""event"",""trial"",""time""
""fullscreenenter"",""1"",""2226""
","
","
","""event"",""trial"",""time""
""fullscreenenter"",""1"",""2226""
","
","","","678","","","20","10631","5120","s","elianto","#3366ff99"," "," ","1","+10","[1529]","1","2","","","10631","79","4","1","win","go","0"
"pit-trial","198","1191449","0.0-84.0","battery-v0.2","","""event"",""trial"",""time""
""fullscreenenter"",""1"",""2226""
","
","
","""event"",""trial"",""time""
""fullscreenenter"",""1"",""2226""
","
","","","622","","","20","10631","5120","s","elianto","#3366ff99"," "," ","1","0","[1473]","1","2","","","10631","80","4","1","win","go","1"
"pit-trial","199","1196309","0.0-85.0","battery-v0.2","","""event"",""trial"",""time""
""fullscreenenter"",""1"",""2226""
","
","
","""event"",""trial"",""time""
""fullscreenenter"",""1"",""2226""
","
","","","-1","","","20","10631","5120","p","elianto","#3366ff99","-1","-1","1","+10","[]","0","2","","","10631","81","5","2","win","no-go","0"
"pit-trial","200","1201169","0.0-86.0","battery-v0.2","","""event"",""trial"",""time""
""fullscreenenter"",""1"",""2226""
","
","
","""event"",""trial"",""time""
""fullscreenenter"",""1"",""2226""
","
","","","-1","","","20","10631","5120","w","elianto","#f73b6a7A","-1","-1","1","0","[]","0","2","","","10631","82","3","4","lose","no-go","0"
"pit-trial","201","1204694","0.0-87.0","battery-v0.2","","""event"",""trial"",""time""
""fullscreenenter"",""1"",""2226""
","
","
","""event"",""trial"",""time""
""fullscreenenter"",""1"",""2226""
","
","","","666","","","20","10631","5120","s","elianto","#3366ff99"," "," ","1","+10","[1517]","1","2","","","10631","83","4","1","win","go","0"
"pit-trial","202","1209142","0.0-88.0","battery-v0.2","","""event"",""trial"",""time""
""fullscreenenter"",""1"",""2226""
","
","
","""event"",""trial"",""time""
""fullscreenenter"",""1"",""2226""
","
","","","1589","","","20","10631","5120","a","elianto","#f73b6a7A","-1"," ","0","-10","[2440]","1","2","","","10631","84","7","4","lose","no-go","0"
"pit-trial","203","1214002","0.0-89.0","battery-v0.2","","""event"",""trial"",""time""
""fullscreenenter"",""1"",""2226""
","
","
","""event"",""trial"",""time""
""fullscreenenter"",""1"",""2226""
","
","","","-1","","","20","10631","5120","p","elianto","#3366ff99","-1","-1","1","+10","[]","0","2","","","10631","85","5","2","win","no-go","0"
"pit-trial","204","1217887","0.0-90.0","battery-v0.2","","""event"",""trial"",""time""
""fullscreenenter"",""1"",""2226""
","
","
","""event"",""trial"",""time""
""fullscreenenter"",""1"",""2226""
","
","","","1024","","","20","10631","5120","g","elianto","#f73b6a7A"," "," ","1","0","[1875]","1","2","","","10631","86","6","3","lose","go","0"
"pit-trial","205","1221431","0.0-91.0","battery-v0.2","","""event"",""trial"",""time""
""fullscreenenter"",""1"",""2226""
","
","
","""event"",""trial"",""time""
""fullscreenenter"",""1"",""2226""
","
","","","684","","","20","10631","5120","s","elianto","#3366ff99"," "," ","1","+10","[1535]","1","2","","","10631","87","4","1","win","go","0"
"pit-trial","206","1226290","0.0-92.0","battery-v0.2","","""event"",""trial"",""time""
""fullscreenenter"",""1"",""2226""
","
","
","""event"",""trial"",""time""
""fullscreenenter"",""1"",""2226""
","
","","","-1","","","20","10631","5120","a","elianto","#f73b6a7A","-1","-1","1","0","[]","0","2","","","10631","88","7","4","lose","no-go","0"
"pit-trial","207","1230219","0.0-93.0","battery-v0.2","","""event"",""trial"",""time""
""fullscreenenter"",""1"",""2226""
","
","
","""event"",""trial"",""time""
""fullscreenenter"",""1"",""2226""
","
","","","1068.9999999997672","","","20","10631","5120","g","elianto","#f73b6a7A"," "," ","1","0","[1920]","1","2","","","10631","89","6","3","lose","go","0"
"pit-trial","208","1233765","0.0-94.0","battery-v0.2","","""event"",""trial"",""time""
""fullscreenenter"",""1"",""2226""
","
","
","""event"",""trial"",""time""
""fullscreenenter"",""1"",""2226""
","
","","","687","","","20","10631","5120","s","elianto","#3366ff99"," "," ","1","+10","[1537.9999999997672]","1","2","","","10631","90","4","1","win","go","0"
"pit-trial","209","1238625","0.0-95.0","battery-v0.2","","""event"",""trial"",""time""
""fullscreenenter"",""1"",""2226""
","
","
","""event"",""trial"",""time""
""fullscreenenter"",""1"",""2226""
","
","","","-1","","","20","10631","5120","a","elianto","#f73b6a7A","-1","-1","1","0","[]","0","2","","","10631","91","7","4","lose","no-go","0"
"pit-trial","210","1243484","0.0-96.0","battery-v0.2","","""event"",""trial"",""time""
""fullscreenenter"",""1"",""2226""
","
","
","""event"",""trial"",""time""
""fullscreenenter"",""1"",""2226""
","
","","","-1","","","20","10631","5120","p","elianto","#3366ff99","-1","-1","1","0","[]","0","2","","","10631","92","5","2","win","no-go","1"
"pit-trial","211","1247129","0.0-97.0","battery-v0.2","","""event"",""trial"",""time""
""fullscreenenter"",""1"",""2226""
","
","
","""event"",""trial"",""time""
""fullscreenenter"",""1"",""2226""
","
","","","786.9999999997672","","","20","10631","5120","g","elianto","#f73b6a7A"," "," ","1","0","[1637]","1","2","","","10631","93","6","3","lose","go","0"
"pit-trial","212","1251989","0.0-98.0","battery-v0.2","","""event"",""trial"",""time""
""fullscreenenter"",""1"",""2226""
","
","
","""event"",""trial"",""time""
""fullscreenenter"",""1"",""2226""
","
","","","-1","","","20","10631","5120","p","elianto","#3366ff99","-1","-1","1","+10","[]","0","2","","","10631","94","5","2","win","no-go","0"
"pit-trial","213","1256849","0.0-99.0","battery-v0.2","","""event"",""trial"",""time""
""fullscreenenter"",""1"",""2226""
","
","
","""event"",""trial"",""time""
""fullscreenenter"",""1"",""2226""
","
","","","-1","","","20","10631","5120","a","elianto","#f73b6a7A","-1","-1","1","0","[]","0","2","","","10631","95","7","4","lose","no-go","0"
"pit-trial","214","1261036","0.0-100.0","battery-v0.2","","""event"",""trial"",""time""
""fullscreenenter"",""1"",""2226""
","
","
","""event"",""trial"",""time""
""fullscreenenter"",""1"",""2226""
","
","","","1327.9999999997672","","","20","10631","5120","l","elianto","#3366ff99"," "," ","1","+10","[2179]","1","2","","","10631","96","8","1","win","go","0"
"pit-trial","215","1265895","0.0-101.0","battery-v0.2","","""event"",""trial"",""time""
""fullscreenenter"",""1"",""2226""
","
","
","""event"",""trial"",""time""
""fullscreenenter"",""1"",""2226""
","
","","","-1","","","20","10631","5120","a","elianto","#f73b6a7A","-1","-1","1","0","[]","0","2","","","10631","97","7","4","lose","no-go","0"
"pit-trial","216","1269588","0.0-102.0","battery-v0.2","","""event"",""trial"",""time""
""fullscreenenter"",""1"",""2226""
","
","
","""event"",""trial"",""time""
""fullscreenenter"",""1"",""2226""
","
","","","833","","","20","10631","5120","l","elianto","#3366ff99"," "," ","1","+10","[1684]","1","2","","","10631","98","8","1","win","go","0"
"pit-trial","217","1274448","0.0-103.0","battery-v0.2","","""event"",""trial"",""time""
""fullscreenenter"",""1"",""2226""
","
","
","""event"",""trial"",""time""
""fullscreenenter"",""1"",""2226""
","
","","","-1","","","20","10631","5120","p","elianto","#3366ff99","-1","-1","1","+10","[]","0","2","","","10631","99","5","2","win","no-go","0"
"pit-trial","218","1277988","0.0-104.0","battery-v0.2","","""event"",""trial"",""time""
""fullscreenenter"",""1"",""2226""
","
","
","""event"",""trial"",""time""
""fullscreenenter"",""1"",""2226""
","
","","","681","","","20","10631","5120","g","elianto","#f73b6a7A"," "," ","1","0","[1531]","1","2","","","10631","100","6","3","lose","go","0"
"pit-trial","219","1282848","0.0-105.0","battery-v0.2","","""event"",""trial"",""time""
""fullscreenenter"",""1"",""2226""
","
","
","""event"",""trial"",""time""
""fullscreenenter"",""1"",""2226""
","
","","","-1","","","20","10631","5120","a","elianto","#f73b6a7A","-1","-1","1","-10","[]","0","2","","","10631","101","7","4","lose","no-go","1"
"pit-trial","220","1287709","0.0-106.0","battery-v0.2","","""event"",""trial"",""time""
""fullscreenenter"",""1"",""2226""
","
","
","""event"",""trial"",""time""
""fullscreenenter"",""1"",""2226""
","
","","","-1","","","20","10631","5120","p","elianto","#3366ff99","-1","-1","1","+10","[]","0","2","","","10631","102","5","2","win","no-go","0"
"pit-trial","221","1291589","0.0-107.0","battery-v0.2","","""event"",""trial"",""time""
""fullscreenenter"",""1"",""2226""
","
","
","""event"",""trial"",""time""
""fullscreenenter"",""1"",""2226""
","
","","","1021","","","20","10631","5120","u","elianto","#3366ff99"," "," ","1","+10","[1872]","1","2","","","10631","103","9","1","win","go","0"
"pit-trial","222","1295187","0.0-108.0","battery-v0.2","","""event"",""trial"",""time""
""fullscreenenter"",""1"",""2226""
","
","
","""event"",""trial"",""time""
""fullscreenenter"",""1"",""2226""
","
","","","738.9999999997672","","","20","10631","5120","l","elianto","#3366ff99"," "," ","1","+10","[1590]","1","2","","","10631","104","8","1","win","go","0"
"pit-trial","223","1298681","0.0-109.0","battery-v0.2","","""event"",""trial"",""time""
""fullscreenenter"",""1"",""2226""
","
","
","""event"",""trial"",""time""
""fullscreenenter"",""1"",""2226""
","
","","","636","","","20","10631","5120","s","elianto","#3366ff99"," "," ","1","+10","[1487]","1","2","","","10631","105","4","1","win","go","0"
"pit-trial","224","1302554","0.0-110.0","battery-v0.2","","""event"",""trial"",""time""
""fullscreenenter"",""1"",""2226""
","
","
","""event"",""trial"",""time""
""fullscreenenter"",""1"",""2226""
","
","","","1013.0000000002328","","","20","10631","5120","u","elianto","#3366ff99"," "," ","1","+10","[1864.0000000002328]","1","2","","","10631","106","9","1","win","go","0"
"pit-trial","225","1306269","0.0-111.0","battery-v0.2","","""event"",""trial"",""time""
""fullscreenenter"",""1"",""2226""
","
","
","""event"",""trial"",""time""
""fullscreenenter"",""1"",""2226""
","
","","","855","","","20","10631","5120","g","elianto","#f73b6a7A"," "," ","1","0","[1706]","1","2","","","10631","107","6","3","lose","go","0"
"pit-trial","226","1309777","0.0-112.0","battery-v0.2","","""event"",""trial"",""time""
""fullscreenenter"",""1"",""2226""
","
","
","""event"",""trial"",""time""
""fullscreenenter"",""1"",""2226""
","
","","","649","","","20","10631","5120","l","elianto","#3366ff99"," "," ","1","+10","[1500]","1","2","","","10631","108","8","1","win","go","0"
"pit-trial","227","1313260","0.0-113.0","battery-v0.2","","""event"",""trial"",""time""
""fullscreenenter"",""1"",""2226""
","
","
","""event"",""trial"",""time""
""fullscreenenter"",""1"",""2226""
","
","","","624","","","20","10631","5120","u","elianto","#3366ff99"," "," ","1","+10","[1474.9999999997672]","1","2","","","10631","109","9","1","win","go","0"
"pit-trial","228","1318120","0.0-114.0","battery-v0.2","","""event"",""trial"",""time""
""fullscreenenter"",""1"",""2226""
","
","
","""event"",""trial"",""time""
""fullscreenenter"",""1"",""2226""
","
","","","-1","","","20","10631","5120","p","elianto","#3366ff99","-1","-1","1","+10","[]","0","2","","","10631","110","5","2","win","no-go","0"
"pit-trial","229","1321577","0.0-115.0","battery-v0.2","","""event"",""trial"",""time""
""fullscreenenter"",""1"",""2226""
","
","
","""event"",""trial"",""time""
""fullscreenenter"",""1"",""2226""
","
","","","597","","","20","10631","5120","l","elianto","#3366ff99"," "," ","1","+10","[1448]","1","2","","","10631","111","8","1","win","go","0"
"pit-trial","230","1325106","0.0-116.0","battery-v0.2","","""event"",""trial"",""time""
""fullscreenenter"",""1"",""2226""
","
","
","""event"",""trial"",""time""
""fullscreenenter"",""1"",""2226""
","
","","","668","","","20","10631","5120","g","elianto","#f73b6a7A"," "," ","1","0","[1520]","1","2","","","10631","112","6","3","lose","go","0"
"pit-trial","231","1329966","0.0-117.0","battery-v0.2","","""event"",""trial"",""time""
""fullscreenenter"",""1"",""2226""
","
","
","""event"",""trial"",""time""
""fullscreenenter"",""1"",""2226""
","
","","","-1","","","20","10631","5120","p","elianto","#3366ff99","-1","-1","1","0","[]","0","2","","","10631","113","5","2","win","no-go","1"
"pit-trial","232","1333517","0.0-118.0","battery-v0.2","","""event"",""trial"",""time""
""fullscreenenter"",""1"",""2226""
","
","
","""event"",""trial"",""time""
""fullscreenenter"",""1"",""2226""
","
","","","692","","","20","10631","5120","u","elianto","#3366ff99"," "," ","1","+10","[1543]","1","2","","","10631","114","9","1","win","go","0"
"pit-trial","233","1336943","0.0-119.0","battery-v0.2","","""event"",""trial"",""time""
""fullscreenenter"",""1"",""2226""
","
","
","""event"",""trial"",""time""
""fullscreenenter"",""1"",""2226""
","
","","","566","","","20","10631","5120","l","elianto","#3366ff99"," "," ","1","+10","[1417]","1","2","","","10631","115","8","1","win","go","0"
"pit-trial","234","1340431","0.0-120.0","battery-v0.2","","""event"",""trial"",""time""
""fullscreenenter"",""1"",""2226""
","
","
","""event"",""trial"",""time""
""fullscreenenter"",""1"",""2226""
","
","","","628","","","20","10631","5120","g","elianto","#f73b6a7A"," "," ","1","0","[1479]","1","2","","","10631","116","6","3","lose","go","0"
"pit-trial","235","1345291","0.0-121.0","battery-v0.2","","""event"",""trial"",""time""
""fullscreenenter"",""1"",""2226""
","
","
","""event"",""trial"",""time""
""fullscreenenter"",""1"",""2226""
","
","","","-1","","","20","10631","5120","p","elianto","#3366ff99","-1","-1","1","0","[]","0","2","","","10631","117","5","2","win","no-go","1"
"pit-trial","236","1348766","0.0-122.0","battery-v0.2","","""event"",""trial"",""time""
""fullscreenenter"",""1"",""2226""
","
","
","""event"",""trial"",""time""
""fullscreenenter"",""1"",""2226""
","
","","","617.9999999997672","","","20","10631","5120","l","elianto","#3366ff99"," "," ","1","0","[1469]","1","2","","","10631","118","8","1","win","go","1"
"pit-trial","237","1352162","0.0-123.0","battery-v0.2","","""event"",""trial"",""time""
""fullscreenenter"",""1"",""2226""
","
","
","""event"",""trial"",""time""
""fullscreenenter"",""1"",""2226""
","
","","","536","","","20","10631","5120","g","elianto","#f73b6a7A"," "," ","1","0","[1386.9999999997672]","1","2","","","10631","119","6","3","lose","go","0"
"pit-trial","238","1355714","0.0-124.0","battery-v0.2","","""event"",""trial"",""time""
""fullscreenenter"",""1"",""2226""
","
","
","""event"",""trial"",""time""
""fullscreenenter"",""1"",""2226""
","
","","","693","","","20","10631","5120","u","elianto","#3366ff99"," "," ","1","+10","[1544]","1","2","","","10631","120","9","1","win","go","0"
"pit-trial","239","1359262","0.0-125.0","battery-v0.2","","""event"",""trial"",""time""
""fullscreenenter"",""1"",""2226""
","
","
","""event"",""trial"",""time""
""fullscreenenter"",""1"",""2226""
","
","","","689","","","20","10631","5120","u","elianto","#3366ff99"," "," ","1","0","[1540]","1","2","","","10631","121","9","1","win","go","1"
"pit-trial","240","1362599","0.0-126.0","battery-v0.2","","""event"",""trial"",""time""
""fullscreenenter"",""1"",""2226""
","
","
","""event"",""trial"",""time""
""fullscreenenter"",""1"",""2226""
","
","","","477","","","20","10631","5120","l","elianto","#3366ff99"," "," ","1","+10","[1328]","1","2","","","10631","122","8","1","win","go","0"
"pit-trial","241","1366028","0.0-127.0","battery-v0.2","","""event"",""trial"",""time""
""fullscreenenter"",""1"",""2226""
","
","
","""event"",""trial"",""time""
""fullscreenenter"",""1"",""2226""
","
","","","570","","","20","10631","5120","g","elianto","#f73b6a7A"," "," ","1","0","[1421]","1","2","","","10631","123","6","3","lose","go","0"
"pit-trial","242","1370889","0.0-128.0","battery-v0.2","","""event"",""trial"",""time""
""fullscreenenter"",""1"",""2226""
","
","
","""event"",""trial"",""time""
""fullscreenenter"",""1"",""2226""
","
","","","-1","","","20","10631","5120","a","elianto","#f73b6a7A","-1","-1","1","0","[]","0","2","","","10631","124","7","4","lose","no-go","0"
"pit-trial","243","1374414","0.0-129.0","battery-v0.2","","""event"",""trial"",""time""
""fullscreenenter"",""1"",""2226""
","
","
","""event"",""trial"",""time""
""fullscreenenter"",""1"",""2226""
","
","","","666","","","20","10631","5120","l","elianto","#3366ff99"," "," ","1","+10","[1518]","1","2","","","10631","125","8","1","win","go","0"
"pit-trial","244","1377845","0.0-130.0","battery-v0.2","","""event"",""trial"",""time""
""fullscreenenter"",""1"",""2226""
","
","
","""event"",""trial"",""time""
""fullscreenenter"",""1"",""2226""
","
","","","570.9999999997672","","","20","10631","5120","u","elianto","#3366ff99"," "," ","1","0","[1423]","1","2","","","10631","126","9","1","win","go","1"
"pit-trial","245","1381321","0.0-131.0","battery-v0.2","","""event"",""trial"",""time""
""fullscreenenter"",""1"",""2226""
","
","
","""event"",""trial"",""time""
""fullscreenenter"",""1"",""2226""
","
","","","617","","","20","10631","5120","g","elianto","#f73b6a7A"," "," ","1","-10","[1468]","1","2","","","10631","127","6","3","lose","go","1"
"pit-trial","246","1386181","0.0-132.0","battery-v0.2","","""event"",""trial"",""time""
""fullscreenenter"",""1"",""2226""
","
","
","""event"",""trial"",""time""
""fullscreenenter"",""1"",""2226""
","
","","","-1","","","20","10631","5120","a","elianto","#f73b6a7A","-1","-1","1","0","[]","0","2","","","10631","128","7","4","lose","no-go","0"
"pit-trial","247","1389735","0.0-133.0","battery-v0.2","","""event"",""trial"",""time""
""fullscreenenter"",""1"",""2226""
","
","
","""event"",""trial"",""time""
""fullscreenenter"",""1"",""2226""
","
","","","694","","","20","10631","5120","l","elianto","#3366ff99"," "," ","1","+10","[1545]","1","2","","","10631","129","8","1","win","go","0"
"pit-trial","248","1394595","0.0-134.0","battery-v0.2","","""event"",""trial"",""time""
""fullscreenenter"",""1"",""2226""
","
","
","""event"",""trial"",""time""
""fullscreenenter"",""1"",""2226""
","
","","","-1","","","20","10631","5120","a","elianto","#f73b6a7A","-1","-1","1","0","[]","0","2","","","10631","130","7","4","lose","no-go","0"
"pit-trial","249","1398046","0.0-135.0","battery-v0.2","","""event"",""trial"",""time""
""fullscreenenter"",""1"",""2226""
","
","
","""event"",""trial"",""time""
""fullscreenenter"",""1"",""2226""
","
","","","590","","","20","10631","5120","g","elianto","#f73b6a7A"," "," ","1","0","[1441]","1","2","","","10631","131","6","3","lose","go","0"
"pit-trial","250","1401538","0.0-136.0","battery-v0.2","","""event"",""trial"",""time""
""fullscreenenter"",""1"",""2226""
","
","
","""event"",""trial"",""time""
""fullscreenenter"",""1"",""2226""
","
","","","631","","","20","10631","5120","u","elianto","#3366ff99"," "," ","1","+10","[1483]","1","2","","","10631","132","9","1","win","go","0"
"pit-trial","251","1406397","0.0-137.0","battery-v0.2","","""event"",""trial"",""time""
""fullscreenenter"",""1"",""2226""
","
","
","""event"",""trial"",""time""
""fullscreenenter"",""1"",""2226""
","
","","","-1","","","20","10631","5120","a","elianto","#f73b6a7A","-1","-1","1","0","[]","0","2","","","10631","133","7","4","lose","no-go","0"
"pit-trial","252","1409795","0.0-138.0","battery-v0.2","","""event"",""trial"",""time""
""fullscreenenter"",""1"",""2226""
","
","
","""event"",""trial"",""time""
""fullscreenenter"",""1"",""2226""
","
","","","538","","","20","10631","5120","l","elianto","#3366ff99"," "," ","1","+10","[1389]","1","2","","","10631","134","8","1","win","go","0"
"pit-trial","253","1413246","0.0-139.0","battery-v0.2","","""event"",""trial"",""time""
""fullscreenenter"",""1"",""2226""
","
","
","""event"",""trial"",""time""
""fullscreenenter"",""1"",""2226""
","
","","","590","","","20","10631","5120","g","elianto","#f73b6a7A"," "," ","1","0","[1441]","1","2","","","10631","135","6","3","lose","go","0"
"pit-trial","254","1416709","0.0-140.0","battery-v0.2","","""event"",""trial"",""time""
""fullscreenenter"",""1"",""2226""
","
","
","""event"",""trial"",""time""
""fullscreenenter"",""1"",""2226""
","
","","","603","","","20","10631","5120","u","elianto","#3366ff99"," "," ","1","+10","[1455]","1","2","","","10631","136","9","1","win","go","0"
"pit-trial","255","1421569","0.0-141.0","battery-v0.2","","""event"",""trial"",""time""
""fullscreenenter"",""1"",""2226""
","
","
","""event"",""trial"",""time""
""fullscreenenter"",""1"",""2226""
","
","","","-1","","","20","10631","5120","a","elianto","#f73b6a7A","-1","-1","1","0","[]","0","2","","","10631","137","7","4","lose","no-go","0"
"pit-trial","256","1425024","0.0-142.0","battery-v0.2","","""event"",""trial"",""time""
""fullscreenenter"",""1"",""2226""
","
","
","""event"",""trial"",""time""
""fullscreenenter"",""1"",""2226""
","
","","","596","","","20","10631","5120","u","elianto","#3366ff99"," "," ","1","0","[1447.0000000002328]","1","2","","","10631","138","9","1","win","go","1"
"pit-trial","257","1428681","0.0-143.0","battery-v0.2","","""event"",""trial"",""time""
""fullscreenenter"",""1"",""2226""
","
","
","""event"",""trial"",""time""
""fullscreenenter"",""1"",""2226""
","
","","","797","","","20","10631","5120","g","elianto","#f73b6a7A"," "," ","1","0","[1648]","1","2","","","10631","139","6","3","lose","go","0"
"pit-trial","258","1432243","0.0-144.0","battery-v0.2","","""event"",""trial"",""time""
""fullscreenenter"",""1"",""2226""
","
","
","""event"",""trial"",""time""
""fullscreenenter"",""1"",""2226""
","
","","","703","","","20","10631","5120","l","elianto","#3366ff99"," "," ","1","+10","[1554]","1","2","","","10631","140","8","1","win","go","0"
"pit-instructions","259","1446812","0.0-145.0","battery-v0.2","","""event"",""trial"",""time""
""fullscreenenter"",""1"",""2226""
","
","
","""event"",""trial"",""time""
""fullscreenenter"",""1"",""2226""
","
","","[{""page_index"":0,""viewing_time"":6531},{""page_index"":1,""viewing_time"":8031}]","14562","","","","","","","","","","","","","","","","","","","","","","","",""
"pit-trial","260","1450376","0.0-146.0","battery-v0.2","","""event"",""trial"",""time""
""fullscreenenter"",""1"",""2226""
","
","
","""event"",""trial"",""time""
""fullscreenenter"",""1"",""2226""
","
","","","706.9999999997672","","","20","10631","5120","f","elianto","#3366ff99"," "," ","1","+10","[1558]","1","3","","","10631","141","1","1","win","go","0"
"pit-trial","261","1453906","0.0-147.0","battery-v0.2","","""event"",""trial"",""time""
""fullscreenenter"",""1"",""2226""
","
","
","""event"",""trial"",""time""
""fullscreenenter"",""1"",""2226""
","
","","","672","","","20","10631","5120","n","elianto","#f73b6a7A","-1"," ","0","-10","[1522]","1","3","","","10631","142","0","4","lose","no-go","0"
"pit-trial","262","1457441","0.0-148.0","battery-v0.2","","""event"",""trial"",""time""
""fullscreenenter"",""1"",""2226""
","
","
","""event"",""trial"",""time""
""fullscreenenter"",""1"",""2226""
","
","","","675","","","20","10631","5120","t","elianto","#f73b6a7A","-1"," ","0","-10","[1526]","1","3","","","10631","143","2","4","lose","no-go","0"
"pit-trial","263","1460912","0.0-149.0","battery-v0.2","","""event"",""trial"",""time""
""fullscreenenter"",""1"",""2226""
","
","
","""event"",""trial"",""time""
""fullscreenenter"",""1"",""2226""
","
","","","612","","","20","10631","5120","b","elianto","#f73b6a7A"," "," ","1","0","[1462]","1","3","","","10631","144","3","3","lose","go","0"
"pit-trial","264","1465770","0.0-150.0","battery-v0.2","","""event"",""trial"",""time""
""fullscreenenter"",""1"",""2226""
","
","
","""event"",""trial"",""time""
""fullscreenenter"",""1"",""2226""
","
","","","-1","","","20","10631","5120","t","elianto","#f73b6a7A","-1","-1","1","0","[]","0","3","","","10631","145","2","4","lose","no-go","0"
"pit-trial","265","1469383","0.0-151.0","battery-v0.2","","""event"",""trial"",""time""
""fullscreenenter"",""1"",""2226""
","
","
","""event"",""trial"",""time""
""fullscreenenter"",""1"",""2226""
","
","","","753.9999999997672","","","20","10631","5120","f","elianto","#3366ff99"," "," ","1","0","[1604]","1","3","","","10631","146","1","1","win","go","1"
"pit-trial","266","1474243","0.0-152.0","battery-v0.2","","""event"",""trial"",""time""
""fullscreenenter"",""1"",""2226""
","
","
","""event"",""trial"",""time""
""fullscreenenter"",""1"",""2226""
","
","","","-1","","","20","10631","5120","n","elianto","#f73b6a7A","-1","-1","1","-10","[]","0","3","","","10631","147","0","4","lose","no-go","1"
"pit-trial","267","1478164","0.0-153.0","battery-v0.2","","""event"",""trial"",""time""
""fullscreenenter"",""1"",""2226""
","
","
","""event"",""trial"",""time""
""fullscreenenter"",""1"",""2226""
","
","","","1062","","","20","10631","5120","b","elianto","#f73b6a7A"," "," ","1","0","[1913]","1","3","","","10631","148","3","3","lose","go","0"
"pit-trial","268","1481545","0.0-154.0","battery-v0.2","","""event"",""trial"",""time""
""fullscreenenter"",""1"",""2226""
","
","
","""event"",""trial"",""time""
""fullscreenenter"",""1"",""2226""
","
","","","522","","","20","10631","5120","f","elianto","#3366ff99"," "," ","1","0","[1373]","1","3","","","10631","149","1","1","win","go","1"
"pit-trial","269","1485315","0.0-155.0","battery-v0.2","","""event"",""trial"",""time""
""fullscreenenter"",""1"",""2226""
","
","
","""event"",""trial"",""time""
""fullscreenenter"",""1"",""2226""
","
","","","910","","","20","10631","5120","b","elianto","#f73b6a7A"," "," ","1","-10","[1761]","1","3","","","10631","150","3","3","lose","go","1"
"pit-trial","270","1488903","0.0-156.0","battery-v0.2","","""event"",""trial"",""time""
""fullscreenenter"",""1"",""2226""
","
","
","""event"",""trial"",""time""
""fullscreenenter"",""1"",""2226""
","
","","","729","","","20","10631","5120","n","elianto","#f73b6a7A","-1"," ","0","0","[1580]","1","3","","","10631","151","0","4","lose","no-go","1"
"pit-trial","271","1493763","0.0-157.0","battery-v0.2","","""event"",""trial"",""time""
""fullscreenenter"",""1"",""2226""
","
","
","""event"",""trial"",""time""
""fullscreenenter"",""1"",""2226""
","
","","","-1","","","20","10631","5120","t","elianto","#f73b6a7A","-1","-1","1","-10","[]","0","3","","","10631","152","2","4","lose","no-go","1"
"pit-trial","272","1497514","0.0-158.0","battery-v0.2","","""event"",""trial"",""time""
""fullscreenenter"",""1"",""2226""
","
","
","""event"",""trial"",""time""
""fullscreenenter"",""1"",""2226""
","
","","","891","","","20","10631","5120","n","elianto","#f73b6a7A","-1"," ","0","0","[1742]","1","3","","","10631","153","0","4","lose","no-go","1"
"pit-trial","273","1502372","0.0-159.0","battery-v0.2","","""event"",""trial"",""time""
""fullscreenenter"",""1"",""2226""
","
","
","""event"",""trial"",""time""
""fullscreenenter"",""1"",""2226""
","
","","","-1","","","20","10631","5120","t","elianto","#f73b6a7A","-1","-1","1","0","[]","0","3","","","10631","154","2","4","lose","no-go","0"
"pit-trial","274","1505930","0.0-160.0","battery-v0.2","","""event"",""trial"",""time""
""fullscreenenter"",""1"",""2226""
","
","
","""event"",""trial"",""time""
""fullscreenenter"",""1"",""2226""
","
","","","698","","","20","10631","5120","f","elianto","#3366ff99"," "," ","1","+10","[1549]","1","3","","","10631","155","1","1","win","go","0"
"pit-trial","275","1509433","0.0-161.0","battery-v0.2","","""event"",""trial"",""time""
