"trial_type","trial_index","time_elapsed","internal_node_id","task_version","subject_id","interactions","blur_events","focus_events","fullscreenenter_events","fullscreenexit_events","success","view_history","rt","responses","num_errors","age","subject","participantId","rune","rune_set","hex","correct","choice","accuracy","outcome","keys","total_keys","block","practice","value","sub","trial","stimulus","robot","valence","action","sham"
"pavlovia","0","9","0.0-0.0","battery-v0.2","","""event"",""trial"",""time""
""fullscreenenter"",""1"",""2673""
","
","
","""event"",""trial"",""time""
""fullscreenenter"",""1"",""2673""
","
","","","","","","","","","","","","","","","","","","","","","","","","","","",""
"fullscreen","1","3653","0.0-1.0","battery-v0.2","","""event"",""trial"",""time""
""fullscreenenter"",""1"",""2673""
","
","
","""event"",""trial"",""time""
""fullscreenenter"",""1"",""2673""
","
","true","","","","","","","","","","","","","","","","","","","","","","","","","",""
"pit-instructions","2","11080","0.0-2.0-0.0","battery-v0.2","","""event"",""trial"",""time""
""fullscreenenter"",""1"",""2673""
","
","
","""event"",""trial"",""time""
""fullscreenenter"",""1"",""2673""
","
","","[{""page_index"":0,""viewing_time"":7423.0999999940395}]","7423.9000000059605","","","","","","","","","","","","","","","","","","","","","","","",""
"pit-comprehension","3","14933","0.0-2.0-1.0-0.0","battery-v0.2","","""event"",""trial"",""time""
""fullscreenenter"",""1"",""2673""
","
","
","""event"",""trial"",""time""
""fullscreenenter"",""1"",""2673""
","
","","","3848.5","[""shark""]","0","19","10630","4914","","","","","","","","","","","","","","","","","","",""
"pit-instructions","4","16736","0.0-2.0-1.0-1.0","battery-v0.2","","""event"",""trial"",""time""
""fullscreenenter"",""1"",""2673""
","
","
","""event"",""trial"",""time""
""fullscreenenter"",""1"",""2673""
","
","","[{""page_index"":0,""viewing_time"":1786.699999988079}]","1787.4000000059605","","","","","","","","","","","","","","","","","","","","","","","",""
"pit-comprehension","5","21583","0.0-2.0-2.0-0.0","battery-v0.2","","""event"",""trial"",""time""
""fullscreenenter"",""1"",""2673""
","
","
","""event"",""trial"",""time""
""fullscreenenter"",""1"",""2673""
","
","","","4835.9000000059605","[""tiger""]","0","19","10630","4914","","","","","","","","","","","","","","","","","","",""
"pit-instructions","6","23700","0.0-2.0-2.0-1.0","battery-v0.2","","""event"",""trial"",""time""
""fullscreenenter"",""1"",""2673""
","
","
","""event"",""trial"",""time""
""fullscreenenter"",""1"",""2673""
","
","","[{""page_index"":0,""viewing_time"":2111.800000011921}]","2112.300000011921","","","","","","","","","","","","","","","","","","","","","","","",""
"pit-instructions","7","336550","0.0-2.0-3.0","battery-v0.2","","""event"",""trial"",""time""
""fullscreenenter"",""1"",""2673""
","
","
","""event"",""trial"",""time""
""fullscreenenter"",""1"",""2673""
","
","","[{""page_index"":0,""viewing_time"":10219.799999982119},{""page_index"":1,""viewing_time"":6067.4000000059605},{""page_index"":2,""viewing_time"":73883.09999999404},{""page_index"":3,""viewing_time"":127540.20000001788},{""page_index"":4,""viewing_time"":19479},{""page_index"":5,""viewing_time"":6397.799999982119},{""page_index"":6,""viewing_time"":6958.5999999940395},{""page_index"":7,""viewing_time"":8040.700000017881},{""page_index"":8,""viewing_time"":16467.5},{""page_index"":9,""viewing_time"":7957},{""page_index"":10,""viewing_time"":8877.59999999404},{""page_index"":11,""viewing_time"":7062.5},{""page_index"":12,""viewing_time"":8479.199999988079},{""page_index"":13,""viewing_time"":5442.600000023842}]","312873.59999999404","","","","","","","","","","","","","","","","","","","","","","","",""
"pit-trial","8","340218","0.0-2.0-4.0-0.0","battery-v0.2","","""event"",""trial"",""time""
""fullscreenenter"",""1"",""2673""
","
","
","""event"",""trial"",""time""
""fullscreenenter"",""1"",""2673""
","
","","","813.8000000119209","","","19","10630","4914","&#9784;","elianto","#FFFFF080"," "," ","1","&#10004","[1664.3999999761581]","1","0","0","","","","","","","",""
"pit-trial","9","343711","0.0-2.0-4.1-0.1","battery-v0.2","","""event"",""trial"",""time""
""fullscreenenter"",""1"",""2673""
","
","
","""event"",""trial"",""time""
""fullscreenenter"",""1"",""2673""
","
","","","623.6999999880791","","","19","10630","4914","&#9784;","elianto","#FFFFF080"," "," ","1","&#10004","[1476.699999988079]","1","0","0","","","","","","","",""
"pit-trial","10","347239","0.0-2.0-4.2-0.2","battery-v0.2","","""event"",""trial"",""time""
""fullscreenenter"",""1"",""2673""
","
","
","""event"",""trial"",""time""
""fullscreenenter"",""1"",""2673""
","
","","","658.1999999880791","","","19","10630","4914","&#9784;","elianto","#FFFFF080"," "," ","1","&#10004","[1508.7000000178814]","1","0","0","","","","","","","",""
"pit-trial","11","350634","0.0-2.0-4.3-0.3","battery-v0.2","","""event"",""trial"",""time""
""fullscreenenter"",""1"",""2673""
","
","
","""event"",""trial"",""time""
""fullscreenenter"",""1"",""2673""
","
","","","526.2000000178814","","","19","10630","4914","&#9784;","elianto","#FFFFF080"," "," ","1","&#10004","[1377.2999999821186]","1","0","0","","","","","","","",""
"pit-trial","12","354127","0.0-2.0-4.4-0.4","battery-v0.2","","""event"",""trial"",""time""
""fullscreenenter"",""1"",""2673""
","
","
","""event"",""trial"",""time""
""fullscreenenter"",""1"",""2673""
","
","","","615.5","","","19","10630","4914","&#9784;","elianto","#FFFFF080"," "," ","1","&#10004","[1473.5999999940395]","1","0","0","","","","","","","",""
"pit-instructions","13","378252","0.0-2.0-5.0","battery-v0.2","","""event"",""trial"",""time""
""fullscreenenter"",""1"",""2673""
","
","
","""event"",""trial"",""time""
""fullscreenenter"",""1"",""2673""
","
","","[{""page_index"":0,""viewing_time"":8312.799999982119},{""page_index"":1,""viewing_time"":5709.200000017881},{""page_index"":2,""viewing_time"":4964.899999976158},{""page_index"":3,""viewing_time"":5134.4000000059605}]","24122","","","","","","","","","","","","","","","","","","","","","","","",""
"pit-trial","14","383127","0.0-2.0-6.0-0.0","battery-v0.2","","""event"",""trial"",""time""
""fullscreenenter"",""1"",""2673""
","
","
","""event"",""trial"",""time""
""fullscreenenter"",""1"",""2673""
","
","","","-1","","","19","10630","4914","&#9854;","elianto","#FFFFF080","-1","-1","1","&#10004","[]","0","0","1","","","","","","","",""
"pit-trial","15","388005","0.0-2.0-6.1-0.1","battery-v0.2","","""event"",""trial"",""time""
""fullscreenenter"",""1"",""2673""
","
","
","""event"",""trial"",""time""
""fullscreenenter"",""1"",""2673""
","
","","","-1","","","19","10630","4914","&#9854;","elianto","#FFFFF080","-1","-1","1","&#10004","[]","0","0","1","","","","","","","",""
"pit-trial","16","392878","0.0-2.0-6.2-0.2","battery-v0.2","","""event"",""trial"",""time""
""fullscreenenter"",""1"",""2673""
","
","
","""event"",""trial"",""time""
""fullscreenenter"",""1"",""2673""
","
","","","-1","","","19","10630","4914","&#9854;","elianto","#FFFFF080","-1","-1","1","&#10004","[]","0","0","1","","","","","","","",""
"pit-trial","17","397748","0.0-2.0-6.3-0.3","battery-v0.2","","""event"",""trial"",""time""
""fullscreenenter"",""1"",""2673""
","
","
","""event"",""trial"",""time""
""fullscreenenter"",""1"",""2673""
","
","","","-1","","","19","10630","4914","&#9854;","elianto","#FFFFF080","-1","-1","1","&#10004","[]","0","0","1","","","","","","","",""
"pit-trial","18","402610","0.0-2.0-6.4-0.4","battery-v0.2","","""event"",""trial"",""time""
""fullscreenenter"",""1"",""2673""
","
","
","""event"",""trial"",""time""
""fullscreenenter"",""1"",""2673""
","
","","","-1","","","19","10630","4914","&#9854;","elianto","#FFFFF080","-1","-1","1","&#10004","[]","0","0","1","","","","","","","",""
"pit-instructions","19","527399","0.0-2.0-7.0","battery-v0.2","","""event"",""trial"",""time""
""fullscreenenter"",""1"",""2673""
","
","
","""event"",""trial"",""time""
""fullscreenenter"",""1"",""2673""
","
","","[{""page_index"":0,""viewing_time"":5942.299999982119},{""page_index"":1,""viewing_time"":6966.700000017881},{""page_index"":2,""viewing_time"":6930.299999982119},{""page_index"":3,""viewing_time"":7191.100000023842},{""page_index"":4,""viewing_time"":1983},{""page_index"":3,""viewing_time"":5578.899999976158},{""page_index"":4,""viewing_time"":5132},{""page_index"":5,""viewing_time"":6975.300000011921},{""page_index"":6,""viewing_time"":4762.0999999940395},{""page_index"":7,""viewing_time"":8342.09999999404},{""page_index"":8,""viewing_time"":7650.5},{""page_index"":9,""viewing_time"":5858},{""page_index"":10,""viewing_time"":6076.9000000059605},{""page_index"":11,""viewing_time"":4377.4000000059605},{""page_index"":12,""viewing_time"":6641.0999999940395},{""page_index"":13,""viewing_time"":7084.700000017881},{""page_index"":14,""viewing_time"":7324.799999982119},{""page_index"":15,""viewing_time"":6530.5999999940395},{""page_index"":16,""viewing_time"":6457.9000000059605},{""page_index"":17,""viewing_time"":6992}]","124798.29999998212","","","","","","","","","","","","","","","","","","","","","","","",""
"pit-trial","20","530860","0.0-2.0-8.0-0.0","battery-v0.2","","""event"",""trial"",""time""
""fullscreenenter"",""1"",""2673""
","
","
","""event"",""trial"",""time""
""fullscreenenter"",""1"",""2673""
","
","","","593.5999999940395","","","19","10630","4914","&#9776;","elianto","#3366ff99"," "," ","1","+10","[1446.5999999940395]","1","0","1","","","","","","","",""
"pit-trial","21","534187","0.0-2.0-8.0-1.0","battery-v0.2","","""event"",""trial"",""time""
""fullscreenenter"",""1"",""2673""
","
","
","""event"",""trial"",""time""
""fullscreenenter"",""1"",""2673""
","
","","","465.80000001192093","","","19","10630","4914","&#9776;","elianto","#3366ff99"," "," ","1","+10","[1316]","1","0","1","","","","","","","",""
"pit-trial","22","537487","0.0-2.0-8.0-2.0","battery-v0.2","","""event"",""trial"",""time""
""fullscreenenter"",""1"",""2673""
","
","
","""event"",""trial"",""time""
""fullscreenenter"",""1"",""2673""
","
","","","433.09999999403954","","","19","10630","4914","&#9776;","elianto","#3366ff99"," "," ","1","+10","[1289]","1","0","1","","","","","","","",""
"pit-trial","23","540790","0.0-2.0-8.0-3.0","battery-v0.2","","""event"",""trial"",""time""
""fullscreenenter"",""1"",""2673""
","
","
","""event"",""trial"",""time""
""fullscreenenter"",""1"",""2673""
","
","","","427.2000000178814","","","19","10630","4914","&#9776;","elianto","#3366ff99"," "," ","1","0","[1284.300000011921]","1","0","1","","","","","","","",""
"pit-trial","24","544128","0.0-2.0-8.0-4.0","battery-v0.2","","""event"",""trial"",""time""
""fullscreenenter"",""1"",""2673""
","
","
","""event"",""trial"",""time""
""fullscreenenter"",""1"",""2673""
","
","","","474.60000002384186","","","19","10630","4914","&#9776;","elianto","#3366ff99"," "," ","1","+10","[1326.3999999761581]","1","0","1","","","","","","","",""
"pit-trial","25","547333","0.0-2.0-8.1-0.1","battery-v0.2","","""event"",""trial"",""time""
""fullscreenenter"",""1"",""2673""
","
","
","""event"",""trial"",""time""
""fullscreenenter"",""1"",""2673""
","
","","","340.5","","","19","10630","4914","&#9776;","elianto","#3366ff99"," "," ","1","+10","[1193.0999999940395]","1","0","1","","","","","","","",""
"pit-trial","26","550655","0.0-2.0-8.1-1.1","battery-v0.2","","""event"",""trial"",""time""
""fullscreenenter"",""1"",""2673""
","
","
","""event"",""trial"",""time""
""fullscreenenter"",""1"",""2673""
","
","","","454","","","19","10630","4914","&#9776;","elianto","#3366ff99"," "," ","1","+10","[1313.9000000059605]","1","0","1","","","","","","","",""
"pit-trial","27","554013","0.0-2.0-8.1-2.1","battery-v0.2","","""event"",""trial"",""time""
""fullscreenenter"",""1"",""2673""
","
","
","""event"",""trial"",""time""
""fullscreenenter"",""1"",""2673""
","
","","","499.80000001192093","","","19","10630","4914","&#9776;","elianto","#3366ff99"," "," ","1","+10","[1352.6000000238419]","1","0","1","","","","","","","",""
"pit-trial","28","557276","0.0-2.0-8.1-3.1","battery-v0.2","","""event"",""trial"",""time""
""fullscreenenter"",""1"",""2673""
","
","
","""event"",""trial"",""time""
""fullscreenenter"",""1"",""2673""
","
","","","408.2999999821186","","","19","10630","4914","&#9776;","elianto","#3366ff99"," "," ","1","0","[1258.5999999940395]","1","0","1","","","","","","","",""
"pit-trial","29","560749","0.0-2.0-8.1-4.1","battery-v0.2","","""event"",""trial"",""time""
""fullscreenenter"",""1"",""2673""
","
","
","""event"",""trial"",""time""
""fullscreenenter"",""1"",""2673""
","
","","","619.9000000059605","","","19","10630","4914","&#9776;","elianto","#3366ff99"," "," ","1","+10","[1470.5]","1","0","1","","","","","","","",""
"pit-trial","30","563966","0.0-2.0-8.2-0.2","battery-v0.2","","""event"",""trial"",""time""
""fullscreenenter"",""1"",""2673""
","
","
","""event"",""trial"",""time""
""fullscreenenter"",""1"",""2673""
","
","","","362.30000001192093","","","19","10630","4914","&#9776;","elianto","#3366ff99"," "," ","1","+10","[1213.199999988079]","1","0","1","","","","","","","",""
"pit-trial","31","567228","0.0-2.0-8.2-1.2","battery-v0.2","","""event"",""trial"",""time""
""fullscreenenter"",""1"",""2673""
","
","
","""event"",""trial"",""time""
""fullscreenenter"",""1"",""2673""
","
","","","403.2000000178814","","","19","10630","4914","&#9776;","elianto","#3366ff99"," "," ","1","+10","[1259.5]","1","0","1","","","","","","","",""
"pit-trial","32","570458","0.0-2.0-8.2-2.2","battery-v0.2","","""event"",""trial"",""time""
""fullscreenenter"",""1"",""2673""
","
","
","""event"",""trial"",""time""
""fullscreenenter"",""1"",""2673""
","
","","","375.40000000596046","","","19","10630","4914","&#9776;","elianto","#3366ff99"," "," ","1","+10","[1226.0999999940395]","1","0","1","","","","","","","",""
"pit-trial","33","573739","0.0-2.0-8.2-3.2","battery-v0.2","","""event"",""trial"",""time""
""fullscreenenter"",""1"",""2673""
","
","
","""event"",""trial"",""time""
""fullscreenenter"",""1"",""2673""
","
","","","425.30000001192093","","","19","10630","4914","&#9776;","elianto","#3366ff99"," "," ","1","0","[1276]","1","0","1","","","","","","","",""
"pit-trial","34","577083","0.0-2.0-8.2-4.2","battery-v0.2","","""event"",""trial"",""time""
""fullscreenenter"",""1"",""2673""
","
","
","""event"",""trial"",""time""
""fullscreenenter"",""1"",""2673""
","
","","","490.60000002384186","","","19","10630","4914","&#9776;","elianto","#3366ff99"," "," ","1","+10","[1340.699999988079]","1","0","1","","","","","","","",""
"call-function","35","577086","0.0-2.0-9.0","battery-v0.2","","""event"",""trial"",""time""
""fullscreenenter"",""1"",""2673""
","
","
","""event"",""trial"",""time""
""fullscreenenter"",""1"",""2673""
","
","","","","","","","","","","","","","","","","","","","","","","","","","","",""
"pit-instructions","36","617467","0.0-2.0-10.0","battery-v0.2","","""event"",""trial"",""time""
""fullscreenenter"",""1"",""2673""
","
","
","""event"",""trial"",""time""
""fullscreenenter"",""1"",""2673""
","
","","[{""page_index"":0,""viewing_time"":7363.100000023842},{""page_index"":1,""viewing_time"":6805.399999976158},{""page_index"":2,""viewing_time"":9646.800000011921},{""page_index"":3,""viewing_time"":9206.09999999404},{""page_index"":4,""viewing_time"":7363.200000017881}]","40385.10000002384","","","","","","","","","","","","","","","","","","","","","","","",""
"pit-trial","37","620612","0.0-2.0-11.0-0.0","battery-v0.2","","""event"",""trial"",""time""
""fullscreenenter"",""1"",""2673""
","
","
","""event"",""trial"",""time""
""fullscreenenter"",""1"",""2673""
","
","","","278.90000000596046","","","19","10630","4914","&#9761;","elianto","#3366ff99","-1"," ","0","0","[1136.9000000059605]","1","0","2","","","","","","","",""
"pit-trial","38","625485","0.0-2.0-11.0-1.0","battery-v0.2","","""event"",""trial"",""time""
""fullscreenenter"",""1"",""2673""
","
","
","""event"",""trial"",""time""
""fullscreenenter"",""1"",""2673""
","
","","","-1","","","19","10630","4914","&#9761;","elianto","#3366ff99","-1","-1","1","+10","[]","0","0","2","","","","","","","",""
"pit-trial","39","630356","0.0-2.0-11.0-2.0","battery-v0.2","","""event"",""trial"",""time""
""fullscreenenter"",""1"",""2673""
","
","
","""event"",""trial"",""time""
""fullscreenenter"",""1"",""2673""
","
","","","-1","","","19","10630","4914","&#9761;","elianto","#3366ff99","-1","-1","1","+10","[]","0","0","2","","","","","","","",""
"pit-trial","40","635220","0.0-2.0-11.0-3.0","battery-v0.2","","""event"",""trial"",""time""
""fullscreenenter"",""1"",""2673""
","
","
","""event"",""trial"",""time""
""fullscreenenter"",""1"",""2673""
","
","","","-1","","","19","10630","4914","&#9761;","elianto","#3366ff99","-1","-1","1","0","[]","0","0","2","","","","","","","",""
"pit-trial","41","640090","0.0-2.0-11.0-4.0","battery-v0.2","","""event"",""trial"",""time""
""fullscreenenter"",""1"",""2673""
","
","
","""event"",""trial"",""time""
""fullscreenenter"",""1"",""2673""
","
","","","-1","","","19","10630","4914","&#9761;","elianto","#3366ff99","-1","-1","1","+10","[]","0","0","2","","","","","","","",""
"pit-trial","42","644961","0.0-2.0-11.1-0.1","battery-v0.2","","""event"",""trial"",""time""
""fullscreenenter"",""1"",""2673""
","
","
","""event"",""trial"",""time""
""fullscreenenter"",""1"",""2673""
","
","","","-1","","","19","10630","4914","&#9761;","elianto","#3366ff99","-1","-1","1","+10","[]","0","0","2","","","","","","","",""
"pit-trial","43","649814","0.0-2.0-11.1-1.1","battery-v0.2","","""event"",""trial"",""time""
""fullscreenenter"",""1"",""2673""
","
","
","""event"",""trial"",""time""
""fullscreenenter"",""1"",""2673""
","
","","","-1","","","19","10630","4914","&#9761;","elianto","#3366ff99","-1","-1","1","+10","[]","0","0","2","","","","","","","",""
"pit-trial","44","654668","0.0-2.0-11.1-2.1","battery-v0.2","","""event"",""trial"",""time""
""fullscreenenter"",""1"",""2673""
","
","
","""event"",""trial"",""time""
""fullscreenenter"",""1"",""2673""
","
","","","-1","","","19","10630","4914","&#9761;","elianto","#3366ff99","-1","-1","1","+10","[]","0","0","2","","","","","","","",""
"pit-trial","45","659522","0.0-2.0-11.1-3.1","battery-v0.2","","""event"",""trial"",""time""
""fullscreenenter"",""1"",""2673""
","
","
","""event"",""trial"",""time""
""fullscreenenter"",""1"",""2673""
","
","","","-1","","","19","10630","4914","&#9761;","elianto","#3366ff99","-1","-1","1","0","[]","0","0","2","","","","","","","",""
"pit-trial","46","664376","0.0-2.0-11.1-4.1","battery-v0.2","","""event"",""trial"",""time""
""fullscreenenter"",""1"",""2673""
","
","
","""event"",""trial"",""time""
""fullscreenenter"",""1"",""2673""
","
","","","-1","","","19","10630","4914","&#9761;","elianto","#3366ff99","-1","-1","1","+10","[]","0","0","2","","","","","","","",""
"pit-trial","47","669234","0.0-2.0-11.2-0.2","battery-v0.2","","""event"",""trial"",""time""
""fullscreenenter"",""1"",""2673""
","
","
","""event"",""trial"",""time""
""fullscreenenter"",""1"",""2673""
","
","","","-1","","","19","10630","4914","&#9761;","elianto","#3366ff99","-1","-1","1","+10","[]","0","0","2","","","","","","","",""
"pit-trial","48","674089","0.0-2.0-11.2-1.2","battery-v0.2","","""event"",""trial"",""time""
""fullscreenenter"",""1"",""2673""
","
","
","""event"",""trial"",""time""
""fullscreenenter"",""1"",""2673""
","
","","","-1","","","19","10630","4914","&#9761;","elianto","#3366ff99","-1","-1","1","+10","[]","0","0","2","","","","","","","",""
"pit-trial","49","678937","0.0-2.0-11.2-2.2","battery-v0.2","","""event"",""trial"",""time""
""fullscreenenter"",""1"",""2673""
","
","
","""event"",""trial"",""time""
""fullscreenenter"",""1"",""2673""
","
","","","-1","","","19","10630","4914","&#9761;","elianto","#3366ff99","-1","-1","1","+10","[]","0","0","2","","","","","","","",""
"pit-trial","50","683790","0.0-2.0-11.2-3.2","battery-v0.2","","""event"",""trial"",""time""
""fullscreenenter"",""1"",""2673""
","
","
","""event"",""trial"",""time""
""fullscreenenter"",""1"",""2673""
","
","","","-1","","","19","10630","4914","&#9761;","elianto","#3366ff99","-1","-1","1","0","[]","0","0","2","","","","","","","",""
"pit-trial","51","688645","0.0-2.0-11.2-4.2","battery-v0.2","","""event"",""trial"",""time""
""fullscreenenter"",""1"",""2673""
","
","
","""event"",""trial"",""time""
""fullscreenenter"",""1"",""2673""
","
","","","-1","","","19","10630","4914","&#9761;","elianto","#3366ff99","-1","-1","1","+10","[]","0","0","2","","","","","","","",""
"pit-trial","52","693500","0.0-2.0-11.3-0.3","battery-v0.2","","""event"",""trial"",""time""
""fullscreenenter"",""1"",""2673""
","
","
","""event"",""trial"",""time""
""fullscreenenter"",""1"",""2673""
","
","","","-1","","","19","10630","4914","&#9761;","elianto","#3366ff99","-1","-1","1","+10","[]","0","0","2","","","","","","","",""
"pit-trial","53","698354","0.0-2.0-11.3-1.3","battery-v0.2","","""event"",""trial"",""time""
""fullscreenenter"",""1"",""2673""
","
","
","""event"",""trial"",""time""
""fullscreenenter"",""1"",""2673""
","
","","","-1","","","19","10630","4914","&#9761;","elianto","#3366ff99","-1","-1","1","+10","[]","0","0","2","","","","","","","",""
"pit-trial","54","703221","0.0-2.0-11.3-2.3","battery-v0.2","","""event"",""trial"",""time""
""fullscreenenter"",""1"",""2673""
","
","
","""event"",""trial"",""time""
""fullscreenenter"",""1"",""2673""
","
","","","-1","","","19","10630","4914","&#9761;","elianto","#3366ff99","-1","-1","1","+10","[]","0","0","2","","","","","","","",""
"pit-trial","55","708079","0.0-2.0-11.3-3.3","battery-v0.2","","""event"",""trial"",""time""
""fullscreenenter"",""1"",""2673""
","
","
","""event"",""trial"",""time""
""fullscreenenter"",""1"",""2673""
","
","","","-1","","","19","10630","4914","&#9761;","elianto","#3366ff99","-1","-1","1","0","[]","0","0","2","","","","","","","",""
"pit-trial","56","712933","0.0-2.0-11.3-4.3","battery-v0.2","","""event"",""trial"",""time""
""fullscreenenter"",""1"",""2673""
","
","
","""event"",""trial"",""time""
""fullscreenenter"",""1"",""2673""
","
","","","-1","","","19","10630","4914","&#9761;","elianto","#3366ff99","-1","-1","1","+10","[3595.2000000178814]","1","0","2","","","","","","","",""
"call-function","57","712935","0.0-2.0-12.0","battery-v0.2","","""event"",""trial"",""time""
""fullscreenenter"",""1"",""2673""
","
","
","""event"",""trial"",""time""
""fullscreenenter"",""1"",""2673""
","
","","","","","","","","","","","","","","","","","","","","","","","","","","",""
"pit-instructions","58","748582","0.0-2.0-13.0","battery-v0.2","","""event"",""trial"",""time""
""fullscreenenter"",""1"",""2673""
","
","
","""event"",""trial"",""time""
""fullscreenenter"",""1"",""2673""
","
","","[{""page_index"":0,""viewing_time"":5318.100000023842},{""page_index"":1,""viewing_time"":7124.899999976158},{""page_index"":2,""viewing_time"":3457.4000000059605},{""page_index"":3,""viewing_time"":12441.59999999404},{""page_index"":4,""viewing_time"":7309.300000011921}]","35652.10000002384","","","","","","","","","","","","","","","","","","","","","","","",""
"pit-trial","59","751683","0.0-2.0-14.0-0.0","battery-v0.2","","""event"",""trial"",""time""
""fullscreenenter"",""1"",""2673""
","
","
","""event"",""trial"",""time""
""fullscreenenter"",""1"",""2673""
","
","","","234.59999999403954","","","19","10630","4914","&#9826;","elianto","#f73b6a7A","-1"," ","0","-10","[1093]","1","0","3","","","","","","","",""
"pit-trial","60","756555","0.0-2.0-14.0-1.0","battery-v0.2","","""event"",""trial"",""time""
""fullscreenenter"",""1"",""2673""
","
","
","""event"",""trial"",""time""
""fullscreenenter"",""1"",""2673""
","
","","","-1","","","19","10630","4914","&#9826;","elianto","#f73b6a7A","-1","-1","1","0","[]","0","0","3","","","","","","","",""
"pit-trial","61","761430","0.0-2.0-14.0-2.0","battery-v0.2","","""event"",""trial"",""time""
""fullscreenenter"",""1"",""2673""
","
","
","""event"",""trial"",""time""
""fullscreenenter"",""1"",""2673""
","
","","","-1","","","19","10630","4914","&#9826;","elianto","#f73b6a7A","-1","-1","1","0","[]","0","0","3","","","","","","","",""
"pit-trial","62","766286","0.0-2.0-14.0-3.0","battery-v0.2","","""event"",""trial"",""time""
""fullscreenenter"",""1"",""2673""
","
","
","""event"",""trial"",""time""
""fullscreenenter"",""1"",""2673""
","
","","","-1","","","19","10630","4914","&#9826;","elianto","#f73b6a7A","-1","-1","1","-10","[]","0","0","3","","","","","","","",""
"pit-trial","63","771151","0.0-2.0-14.0-4.0","battery-v0.2","","""event"",""trial"",""time""
""fullscreenenter"",""1"",""2673""
","
","
","""event"",""trial"",""time""
""fullscreenenter"",""1"",""2673""
","
","","","-1","","","19","10630","4914","&#9826;","elianto","#f73b6a7A","-1","-1","1","0","[]","0","0","3","","","","","","","",""
"pit-trial","64","776012","0.0-2.0-14.1-0.1","battery-v0.2","","""event"",""trial"",""time""
""fullscreenenter"",""1"",""2673""
","
","
","""event"",""trial"",""time""
""fullscreenenter"",""1"",""2673""
","
","","","-1","","","19","10630","4914","&#9826;","elianto","#f73b6a7A","-1","-1","1","0","[]","0","0","3","","","","","","","",""
"pit-trial","65","780865","0.0-2.0-14.1-1.1","battery-v0.2","","""event"",""trial"",""time""
""fullscreenenter"",""1"",""2673""
","
","
","""event"",""trial"",""time""
""fullscreenenter"",""1"",""2673""
","
","","","-1","","","19","10630","4914","&#9826;","elianto","#f73b6a7A","-1","-1","1","0","[]","0","0","3","","","","","","","",""
"pit-trial","66","785718","0.0-2.0-14.1-2.1","battery-v0.2","","""event"",""trial"",""time""
""fullscreenenter"",""1"",""2673""
","
","
","""event"",""trial"",""time""
""fullscreenenter"",""1"",""2673""
","
","","","-1","","","19","10630","4914","&#9826;","elianto","#f73b6a7A","-1","-1","1","0","[]","0","0","3","","","","","","","",""
"pit-trial","67","790573","0.0-2.0-14.1-3.1","battery-v0.2","","""event"",""trial"",""time""
""fullscreenenter"",""1"",""2673""
","
","
","""event"",""trial"",""time""
""fullscreenenter"",""1"",""2673""
","
","","","-1","","","19","10630","4914","&#9826;","elianto","#f73b6a7A","-1","-1","1","-10","[]","0","0","3","","","","","","","",""
"pit-trial","68","794824","0.0-2.0-14.1-4.1","battery-v0.2","","""event"",""trial"",""time""
""fullscreenenter"",""1"",""2673""
","
","
","""event"",""trial"",""time""
""fullscreenenter"",""1"",""2673""
","
","","","1397.5999999940395","","","19","10630","4914","&#9826;","elianto","#f73b6a7A","-1"," ","0","-10","[2247.9000000059605]","1","0","3","","","","","","","",""
"pit-trial","69","799681","0.0-2.0-14.2-0.2","battery-v0.2","","""event"",""trial"",""time""
""fullscreenenter"",""1"",""2673""
","
","
","""event"",""trial"",""time""
""fullscreenenter"",""1"",""2673""
","
","","","-1","","","19","10630","4914","&#9826;","elianto","#f73b6a7A","-1","-1","1","0","[]","0","0","3","","","","","","","",""
"pit-trial","70","804530","0.0-2.0-14.2-1.2","battery-v0.2","","""event"",""trial"",""time""
""fullscreenenter"",""1"",""2673""
","
","
","""event"",""trial"",""time""
""fullscreenenter"",""1"",""2673""
","
","","","-1","","","19","10630","4914","&#9826;","elianto","#f73b6a7A","-1","-1","1","0","[4615.699999988079]","1","0","3","","","","","","","",""
"pit-trial","71","809384","0.0-2.0-14.2-2.2","battery-v0.2","","""event"",""trial"",""time""
""fullscreenenter"",""1"",""2673""
","
","
","""event"",""trial"",""time""
""fullscreenenter"",""1"",""2673""
","
","","","-1","","","19","10630","4914","&#9826;","elianto","#f73b6a7A","-1","-1","1","0","[3990.199999988079]","1","0","3","","","","","","","",""
"pit-trial","72","814237","0.0-2.0-14.2-3.2","battery-v0.2","","""event"",""trial"",""time""
""fullscreenenter"",""1"",""2673""
","
","
","""event"",""trial"",""time""
""fullscreenenter"",""1"",""2673""
","
","","","-1","","","19","10630","4914","&#9826;","elianto","#f73b6a7A","-1","-1","1","-10","[310.2000000178814]","1","0","3","","","","","","","",""
"pit-trial","73","819091","0.0-2.0-14.2-4.2","battery-v0.2","","""event"",""trial"",""time""
""fullscreenenter"",""1"",""2673""
","
","
","""event"",""trial"",""time""
""fullscreenenter"",""1"",""2673""
","
","","","-1","","","19","10630","4914","&#9826;","elianto","#f73b6a7A","-1","-1","1","0","[]","0","0","3","","","","","","","",""
"pit-trial","74","823946","0.0-2.0-14.3-0.3","battery-v0.2","","""event"",""trial"",""time""
""fullscreenenter"",""1"",""2673""
","
","
","""event"",""trial"",""time""
""fullscreenenter"",""1"",""2673""
","
","","","-1","","","19","10630","4914","&#9826;","elianto","#f73b6a7A","-1","-1","1","0","[]","0","0","3","","","","","","","",""
"pit-trial","75","828799","0.0-2.0-14.3-1.3","battery-v0.2","","""event"",""trial"",""time""
""fullscreenenter"",""1"",""2673""
","
","
","""event"",""trial"",""time""
""fullscreenenter"",""1"",""2673""
","
","","","-1","","","19","10630","4914","&#9826;","elianto","#f73b6a7A","-1","-1","1","0","[]","0","0","3","","","","","","","",""
"pit-trial","76","833653","0.0-2.0-14.3-2.3","battery-v0.2","","""event"",""trial"",""time""
""fullscreenenter"",""1"",""2673""
","
","
","""event"",""trial"",""time""
""fullscreenenter"",""1"",""2673""
","
","","","-1","","","19","10630","4914","&#9826;","elianto","#f73b6a7A","-1","-1","1","0","[]","0","0","3","","","","","","","",""
"pit-trial","77","838367","0.0-2.0-14.3-3.3","battery-v0.2","","""event"",""trial"",""time""
""fullscreenenter"",""1"",""2673""
","
","
","""event"",""trial"",""time""
""fullscreenenter"",""1"",""2673""
","
","","","1854.0999999940395","","","19","10630","4914","&#9826;","elianto","#f73b6a7A","-1"," ","0","0","[367.59999999403954,576.6999999880791,2704.199999988079,4205.5,4603]","5","0","3","","","","","","","",""
"pit-trial","78","841671","0.0-2.0-14.3-4.3","battery-v0.2","","""event"",""trial"",""time""
""fullscreenenter"",""1"",""2673""
","
","
","""event"",""trial"",""time""
""fullscreenenter"",""1"",""2673""
","
","","","449.5","","","19","10630","4914","&#9826;","elianto","#f73b6a7A","-1"," ","0","-10","[344.60000002384186,1299.9000000059605]","2","0","3","","","","","","","",""
"call-function","79","841674","0.0-2.0-15.0","battery-v0.2","","""event"",""trial"",""time""
""fullscreenenter"",""1"",""2673""
","
","
","""event"",""trial"",""time""
""fullscreenenter"",""1"",""2673""
","
","","","","","","","","","","","","","","","","","","","","","","","","","","",""
"pit-instructions","80","866570","0.0-2.0-16.0","battery-v0.2","","""event"",""trial"",""time""
""fullscreenenter"",""1"",""2673""
","
","
","""event"",""trial"",""time""
""fullscreenenter"",""1"",""2673""
","
","","[{""page_index"":0,""viewing_time"":6724.199999988079},{""page_index"":1,""viewing_time"":8023},{""page_index"":2,""viewing_time"":4991.200000017881},{""page_index"":3,""viewing_time"":5162}]","24900.69999998808","","","","","","","","","","","","","","","","","","","","","","","",""
"pit-trial","81","869669","0.0-2.0-17.0-0.0","battery-v0.2","","""event"",""trial"",""time""
""fullscreenenter"",""1"",""2673""
","
","
","""event"",""trial"",""time""
""fullscreenenter"",""1"",""2673""
","
","","","227.2999999821186","","","19","10630","4914","&#9789;","elianto","#f73b6a7A"," "," ","1","0","[1082.800000011921]","1","0","4","","","","","","","",""
"pit-trial","82","872860","0.0-2.0-17.0-1.0","battery-v0.2","","""event"",""trial"",""time""
""fullscreenenter"",""1"",""2673""
","
","
","""event"",""trial"",""time""
""fullscreenenter"",""1"",""2673""
","
","","","323.2000000178814","","","19","10630","4914","&#9789;","elianto","#f73b6a7A"," "," ","1","0","[1175.7000000178814]","1","0","4","","","","","","","",""
"pit-trial","83","876122","0.0-2.0-17.0-2.0","battery-v0.2","","""event"",""trial"",""time""
""fullscreenenter"",""1"",""2673""
","
","
","""event"",""trial"",""time""
""fullscreenenter"",""1"",""2673""
","
","","","389","","","19","10630","4914","&#9789;","elianto","#f73b6a7A"," "," ","1","0","[1244.800000011921]","1","0","4","","","","","","","",""
"pit-trial","84","879339","0.0-2.0-17.0-3.0","battery-v0.2","","""event"",""trial"",""time""
""fullscreenenter"",""1"",""2673""
","
","
","""event"",""trial"",""time""
""fullscreenenter"",""1"",""2673""
","
","","","350.39999997615814","","","19","10630","4914","&#9789;","elianto","#f73b6a7A"," "," ","1","-10","[1202.7999999821186]","1","0","4","","","","","","","",""
"pit-trial","85","882558","0.0-2.0-17.0-4.0","battery-v0.2","","""event"",""trial"",""time""
""fullscreenenter"",""1"",""2673""
","
","
","""event"",""trial"",""time""
""fullscreenenter"",""1"",""2673""
","
","","","352.30000001192093","","","19","10630","4914","&#9789;","elianto","#f73b6a7A"," "," ","1","0","[1202.5999999940395]","1","0","4","","","","","","","",""
"pit-trial","86","885735","0.0-2.0-17.1-0.1","battery-v0.2","","""event"",""trial"",""time""
""fullscreenenter"",""1"",""2673""
","
","
","""event"",""trial"",""time""
""fullscreenenter"",""1"",""2673""
","
","","","314.40000000596046","","","19","10630","4914","&#9789;","elianto","#f73b6a7A"," "," ","1","0","[1165.0999999940395]","1","0","4","","","","","","","",""
"pit-trial","87","888802","0.0-2.0-17.1-1.1","battery-v0.2","","""event"",""trial"",""time""
""fullscreenenter"",""1"",""2673""
","
","
","""event"",""trial"",""time""
""fullscreenenter"",""1"",""2673""
","
","","","198","","","19","10630","4914","&#9789;","elianto","#f73b6a7A"," "," ","1","0","[1052.7999999821186]","1","0","4","","","","","","","",""
"pit-trial","88","891889","0.0-2.0-17.1-2.1","battery-v0.2","","""event"",""trial"",""time""
""fullscreenenter"",""1"",""2673""
","
","
","""event"",""trial"",""time""
""fullscreenenter"",""1"",""2673""
","
","","","226.09999999403954","","","19","10630","4914","&#9789;","elianto","#f73b6a7A"," "," ","1","0","[1082]","1","0","4","","","","","","","",""
"pit-trial","89","894970","0.0-2.0-17.1-3.1","battery-v0.2","","""event"",""trial"",""time""
""fullscreenenter"",""1"",""2673""
","
","
","""event"",""trial"",""time""
""fullscreenenter"",""1"",""2673""
","
","","","216","","","19","10630","4914","&#9789;","elianto","#f73b6a7A"," "," ","1","-10","[1070.5]","1","0","4","","","","","","","",""
"pit-trial","90","898091","0.0-2.0-17.1-4.1","battery-v0.2","","""event"",""trial"",""time""
""fullscreenenter"",""1"",""2673""
","
","
","""event"",""trial"",""time""
""fullscreenenter"",""1"",""2673""
","
","","","263.69999998807907","","","19","10630","4914","&#9789;","elianto","#f73b6a7A"," "," ","1","0","[1117]","1","0","4","","","","","","","",""
"pit-trial","91","901155","0.0-2.0-17.2-0.2","battery-v0.2","","""event"",""trial"",""time""
""fullscreenenter"",""1"",""2673""
","
","
","""event"",""trial"",""time""
""fullscreenenter"",""1"",""2673""
","
","","","210.2000000178814","","","19","10630","4914","&#9789;","elianto","#f73b6a7A"," "," ","1","0","[1061.4000000059605]","1","0","4","","","","","","","",""
"pit-trial","92","904182","0.0-2.0-17.2-1.2","battery-v0.2","","""event"",""trial"",""time""
""fullscreenenter"",""1"",""2673""
","
","
","""event"",""trial"",""time""
""fullscreenenter"",""1"",""2673""
","
","","","173.7000000178814","","","19","10630","4914","&#9789;","elianto","#f73b6a7A"," "," ","1","0","[1024.800000011921]","1","0","4","","","","","","","",""
"pit-trial","93","907255","0.0-2.0-17.2-2.2","battery-v0.2","","""event"",""trial"",""time""
""fullscreenenter"",""1"",""2673""
","
","
","""event"",""trial"",""time""
""fullscreenenter"",""1"",""2673""
","
","","","218.40000000596046","","","19","10630","4914","&#9789;","elianto","#f73b6a7A"," "," ","1","0","[1069.4000000059605]","1","0","4","","","","","","","",""
"pit-trial","94","910317","0.0-2.0-17.2-3.2","battery-v0.2","","""event"",""trial"",""time""
""fullscreenenter"",""1"",""2673""
","
","
","""event"",""trial"",""time""
""fullscreenenter"",""1"",""2673""
","
","","","209.59999999403954","","","19","10630","4914","&#9789;","elianto","#f73b6a7A"," "," ","1","-10","[1059.9000000059605]","1","0","4","","","","","","","",""
"pit-trial","95","913398","0.0-2.0-17.2-4.2","battery-v0.2","","""event"",""trial"",""time""
""fullscreenenter"",""1"",""2673""
","
","
","""event"",""trial"",""time""
""fullscreenenter"",""1"",""2673""
","
","","","227.59999999403954","","","19","10630","4914","&#9789;","elianto","#f73b6a7A"," "," ","1","0","[1077.699999988079]","1","0","4","","","","","","","",""
"pit-trial","96","916556","0.0-2.0-17.3-0.3","battery-v0.2","","""event"",""trial"",""time""
""fullscreenenter"",""1"",""2673""
","
","
","""event"",""trial"",""time""
""fullscreenenter"",""1"",""2673""
","
","","","301","","","19","10630","4914","&#9789;","elianto","#f73b6a7A"," "," ","1","0","[1151.800000011921]","1","0","4","","","","","","","",""
"pit-trial","97","919565","0.0-2.0-17.3-1.3","battery-v0.2","","""event"",""trial"",""time""
""fullscreenenter"",""1"",""2673""
","
","
","""event"",""trial"",""time""
""fullscreenenter"",""1"",""2673""
","
","","","154.2999999821186","","","19","10630","4914","&#9789;","elianto","#f73b6a7A"," "," ","1","0","[1006.2999999821186]","1","0","4","","","","","","","",""
"pit-trial","98","922646","0.0-2.0-17.3-2.3","battery-v0.2","","""event"",""trial"",""time""
""fullscreenenter"",""1"",""2673""
","
","
","""event"",""trial"",""time""
""fullscreenenter"",""1"",""2673""
","
","","","232.30000001192093","","","19","10630","4914","&#9789;","elianto","#f73b6a7A"," "," ","1","0","[1083.7000000178814]","1","0","4","","","","","","","",""
"pit-trial","99","925662","0.0-2.0-17.3-3.3","battery-v0.2","","""event"",""trial"",""time""
""fullscreenenter"",""1"",""2673""
","
","
","""event"",""trial"",""time""
""fullscreenenter"",""1"",""2673""
","
","","","162.2000000178814","","","19","10630","4914","&#9789;","elianto","#f73b6a7A"," "," ","1","-10","[1013.3000000119209]","1","0","4","","","","","","","",""
"pit-trial","100","928709","0.0-2.0-17.3-4.3","battery-v0.2","","""event"",""trial"",""time""
""fullscreenenter"",""1"",""2673""
","
","
","""event"",""trial"",""time""
""fullscreenenter"",""1"",""2673""
","
","","","194.69999998807907","","","19","10630","4914","&#9789;","elianto","#f73b6a7A"," "," ","1","0","[1045.4000000059605]","1","0","4","","","","","","","",""
"call-function","101","928710","0.0-2.0-18.0","battery-v0.2","","""event"",""trial"",""time""
""fullscreenenter"",""1"",""2673""
","
","
","""event"",""trial"",""time""
""fullscreenenter"",""1"",""2673""
","
","","","","","","","","","","","","","","","","","","","","","","","","","","",""
"pit-instructions","102","1000937","0.0-2.0-19.0","battery-v0.2","","""event"",""trial"",""time""
""fullscreenenter"",""1"",""2673""
","
","
","""event"",""trial"",""time""
""fullscreenenter"",""1"",""2673""
","
","","[{""page_index"":0,""viewing_time"":6477.5999999940395},{""page_index"":1,""viewing_time"":6279.4000000059605},{""page_index"":2,""viewing_time"":14396.800000011921},{""page_index"":3,""viewing_time"":7917.399999976158},{""page_index"":4,""viewing_time"":8855.700000017881},{""page_index"":5,""viewing_time"":9467},{""page_index"":6,""viewing_time"":8358.90000000596},{""page_index"":7,""viewing_time"":6110.399999976158},{""page_index"":8,""viewing_time"":4367.200000017881}]","72231","","","","","","","","","","","","","","","","","","","","","","","",""
"pit-comprehension","103","1005779","0.0-2.0-20.0-0.0","battery-v0.2","","""event"",""trial"",""time""
""fullscreenenter"",""1"",""2673""
","
","
","""event"",""trial"",""time""
""fullscreenenter"",""1"",""2673""
","
","","","4834.800000011921","[""SPACE""]","0","19","10630","4914","","","","","","","","","","","","","","","","","","",""
"pit-instructions","104","1009255","0.0-2.0-20.0-1.0","battery-v0.2","","""event"",""trial"",""time""
""fullscreenenter"",""1"",""2673""
","
","
","""event"",""trial"",""time""
""fullscreenenter"",""1"",""2673""
","
","","[{""page_index"":0,""viewing_time"":3440.5}]","3441.199999988079","","","","","","","","","","","","","","","","","","","","","","","",""
"pit-comprehension","105","1015785","0.0-2.0-21.0-0.0","battery-v0.2","","""event"",""trial"",""time""
""fullscreenenter"",""1"",""2673""
","
","
","""event"",""trial"",""time""
""fullscreenenter"",""1"",""2673""
","
","","","6523","[""10""]","0","19","10630","4914","","","","","","","","","","","","","","","","","","",""
"pit-instructions","106","1017664","0.0-2.0-21.0-1.0","battery-v0.2","","""event"",""trial"",""time""
""fullscreenenter"",""1"",""2673""
","
","
","""event"",""trial"",""time""
""fullscreenenter"",""1"",""2673""
","
","","[{""page_index"":0,""viewing_time"":1833.5}]","1834.0999999940395","","","","","","","","","","","","","","","","","","","","","","","",""
"pit-comprehension","107","1024595","0.0-2.0-22.0-0.0","battery-v0.2","","""event"",""trial"",""time""
""fullscreenenter"",""1"",""2673""
","
","
","""event"",""trial"",""time""
""fullscreenenter"",""1"",""2673""
","
","","","6921.800000011921","[""0""]","0","19","10630","4914","","","","","","","","","","","","","","","","","","",""
"pit-instructions","108","1027620","0.0-2.0-22.0-1.0","battery-v0.2","","""event"",""trial"",""time""
""fullscreenenter"",""1"",""2673""
","
","
","""event"",""trial"",""time""
""fullscreenenter"",""1"",""2673""
","
","","[{""page_index"":0,""viewing_time"":2989.699999988079}]","2990.300000011921","","","","","","","","","","","","","","","","","","","","","","","",""
"pit-comprehension","109","1036396","0.0-2.0-23.0-0.0","battery-v0.2","","""event"",""trial"",""time""
""fullscreenenter"",""1"",""2673""
","
","
","""event"",""trial"",""time""
""fullscreenenter"",""1"",""2673""
","
","","","8766.5","[""True""]","0","19","10630","4914","","","","","","","","","","","","","","","","","","",""
"pit-instructions","110","1039394","0.0-2.0-23.0-1.0","battery-v0.2","","""event"",""trial"",""time""
""fullscreenenter"",""1"",""2673""
","
","
","""event"",""trial"",""time""
""fullscreenenter"",""1"",""2673""
","
","","[{""page_index"":0,""viewing_time"":2955.4000000059605}]","2956.100000023842","","","","","","","","","","","","","","","","","","","","","","","",""
"pit-comprehension","111","1048383","0.0-2.0-24.0-0.0","battery-v0.2","","""event"",""trial"",""time""
""fullscreenenter"",""1"",""2673""
","
","
","""event"",""trial"",""time""
""fullscreenenter"",""1"",""2673""
","
","","","8988.800000011921","[""True""]","0","19","10630","4914","","","","","","","","","","","","","","","","","","",""
"pit-instructions","112","1050141","0.0-2.0-24.0-1.0","battery-v0.2","","""event"",""trial"",""time""
""fullscreenenter"",""1"",""2673""
","
","
","""event"",""trial"",""time""
""fullscreenenter"",""1"",""2673""
","
","","[{""page_index"":0,""viewing_time"":1714.3999999761581}]","1714.7999999821186","","","","","","","","","","","","","","","","","","","","","","","",""
"pit-comprehension","113","1056845","0.0-2.0-25.0-0.0","battery-v0.2","","""event"",""trial"",""time""
""fullscreenenter"",""1"",""2673""
","
","
","""event"",""trial"",""time""
""fullscreenenter"",""1"",""2673""
","
","","","6700.199999988079","[""True""]","0","19","10630","4914","","","","","","","","","","","","","","","","","","",""
"pit-instructions","114","1058774","0.0-2.0-25.0-1.0","battery-v0.2","","""event"",""trial"",""time""
""fullscreenenter"",""1"",""2673""
","
","
","""event"",""trial"",""time""
""fullscreenenter"",""1"",""2673""
","
","","[{""page_index"":0,""viewing_time"":1894.199999988079}]","1894.5999999940395","","","","","","","","","","","","","","","","","","","","","","","",""
"pit-comprehension","115","1063859","0.0-2.0-26.0-0.0","battery-v0.2","","""event"",""trial"",""time""
""fullscreenenter"",""1"",""2673""
","
","
","""event"",""trial"",""time""
""fullscreenenter"",""1"",""2673""
","
","","","5080.5","[""False""]","0","19","10630","4914","","","","","","","","","","","","","","","","","","",""
"pit-instructions","116","1066176","0.0-2.0-26.0-1.0","battery-v0.2","","""event"",""trial"",""time""
""fullscreenenter"",""1"",""2673""
","
","
","""event"",""trial"",""time""
""fullscreenenter"",""1"",""2673""
","
","","[{""page_index"":0,""viewing_time"":2271.2000000178814}]","2271.800000011921","","","","","","","","","","","","","","","","","","","","","","","",""
"pit-instructions","117","1083610","0.0-3.0","battery-v0.2","","""event"",""trial"",""time""
""fullscreenenter"",""1"",""2673""
","
","
","""event"",""trial"",""time""
""fullscreenenter"",""1"",""2673""
","
","","[{""page_index"":0,""viewing_time"":4561.9000000059605},{""page_index"":1,""viewing_time"":5107.799999982119},{""page_index"":2,""viewing_time"":7760.700000017881}]","17431.09999999404","","","","","","","","","","","","","","","","","","","","","","","",""
"pit-trial","118","1087512","0.0-4.0","battery-v0.2","","""event"",""trial"",""time""
""fullscreenenter"",""1"",""2673""
","
","
","""event"",""trial"",""time""
""fullscreenenter"",""1"",""2673""
","
","","","1028.0999999940395","","","19","10630","4914","&#9752;","elianto","#f73b6a7A"," "," ","1","0","[1880.0999999940395]","1","1","","","10630","1","3","3","lose","go","0"
"pit-trial","119","1090848","0.0-5.0","battery-v0.2","","""event"",""trial"",""time""
""fullscreenenter"",""1"",""2673""
","
","
","""event"",""trial"",""time""
""fullscreenenter"",""1"",""2673""
","
","","","480.19999998807907","","","19","10630","4914","&#9730;","elianto","#3366ff99"," "," ","1","0","[1331.9000000059605]","1","1","","","10630","2","1","1","win","go","1"
"pit-trial","120","1094119","0.0-6.0","battery-v0.2","","""event"",""trial"",""time""
""fullscreenenter"",""1"",""2673""
","
","
","""event"",""trial"",""time""
""fullscreenenter"",""1"",""2673""
","
","","","399.90000000596046","","","19","10630","4914","&#9733;","elianto","#3366ff99","-1"," ","0","+10","[1255.800000011921]","1","1","","","10630","3","2","2","win","no-go","1"
"pit-trial","121","1097600","0.0-7.0","battery-v0.2","","""event"",""trial"",""time""
""fullscreenenter"",""1"",""2673""
","
","
","""event"",""trial"",""time""
""fullscreenenter"",""1"",""2673""
","
","","","611.4000000059605","","","19","10630","4914","&#9728;","elianto","#f73b6a7A","-1"," ","0","-10","[1469.4000000059605]","1","1","","","10630","4","0","4","lose","no-go","0"
"pit-trial","122","1101114","0.0-8.0","battery-v0.2","","""event"",""trial"",""time""
""fullscreenenter"",""1"",""2673""
","
","
","""event"",""trial"",""time""
""fullscreenenter"",""1"",""2673""
","
","","","656.3000000119209","","","19","10630","4914","&#9752;","elianto","#f73b6a7A"," "," ","1","-10","[1506.800000011921]","1","1","","","10630","5","3","3","lose","go","1"
"pit-trial","123","1104728","0.0-9.0","battery-v0.2","","""event"",""trial"",""time""
""fullscreenenter"",""1"",""2673""
","
","
","""event"",""trial"",""time""
""fullscreenenter"",""1"",""2673""
","
","","","753.0999999940395","","","19","10630","4914","&#9728;","elianto","#f73b6a7A","-1"," ","0","-10","[1606.5999999940395]","1","1","","","10630","6","0","4","lose","no-go","0"
"pit-trial","124","1108397","0.0-10.0","battery-v0.2","","""event"",""trial"",""time""
""fullscreenenter"",""1"",""2673""
","
","
","""event"",""trial"",""time""
""fullscreenenter"",""1"",""2673""
","
","","","795.9000000059605","","","19","10630","4914","&#9730;","elianto","#3366ff99"," "," ","1","0","[1656.4000000059605]","1","1","","","10630","7","1","1","win","go","1"
"pit-trial","125","1112156","0.0-11.0","battery-v0.2","","""event"",""trial"",""time""
""fullscreenenter"",""1"",""2673""
","
","
","""event"",""trial"",""time""
""fullscreenenter"",""1"",""2673""
","
","","","887.3999999761581","","","19","10630","4914","&#9733;","elianto","#3366ff99","-1"," ","0","0","[1739.8999999761581]","1","1","","","10630","8","2","2","win","no-go","0"
"pit-trial","126","1115873","0.0-12.0","battery-v0.2","","""event"",""trial"",""time""
""fullscreenenter"",""1"",""2673""
","
","
","""event"",""trial"",""time""
""fullscreenenter"",""1"",""2673""
","
","","","860.5","","","19","10630","4914","&#9752;","elianto","#f73b6a7A"," "," ","1","0","[1713.4000000059605]","1","1","","","10630","9","3","3","lose","go","0"
"pit-trial","127","1120730","0.0-13.0","battery-v0.2","","""event"",""trial"",""time""
""fullscreenenter"",""1"",""2673""
","
","
","""event"",""trial"",""time""
""fullscreenenter"",""1"",""2673""
","
","","","-1","","","19","10630","4914","&#9730;","elianto","#3366ff99"," ","-1","0","+10","[]","0","1","","","10630","10","1","1","win","go","1"
"pit-trial","128","1124278","0.0-14.0","battery-v0.2","","""event"",""trial"",""time""
""fullscreenenter"",""1"",""2673""
","
","
","""event"",""trial"",""time""
""fullscreenenter"",""1"",""2673""
","
","","","693.3000000119209","","","19","10630","4914","&#9733;","elianto","#3366ff99","-1"," ","0","+10","[1543.4000000059605]","1","1","","","10630","11","2","2","win","no-go","1"
"pit-trial","129","1129133","0.0-15.0","battery-v0.2","","""event"",""trial"",""time""
""fullscreenenter"",""1"",""2673""
","
","
","""event"",""trial"",""time""
""fullscreenenter"",""1"",""2673""
","
","","","-1","","","19","10630","4914","&#9728;","elianto","#f73b6a7A","-1","-1","1","0","[]","0","1","","","10630","12","0","4","lose","no-go","0"
"pit-trial","130","1132850","0.0-16.0","battery-v0.2","","""event"",""trial"",""time""
""fullscreenenter"",""1"",""2673""
","
","
","""event"",""trial"",""time""
""fullscreenenter"",""1"",""2673""
","
","","","864","","","19","10630","4914","&#9733;","elianto","#3366ff99","-1"," ","0","0","[1714.5999999940395]","1","1","","","10630","13","2","2","win","no-go","0"
"pit-trial","131","1137704","0.0-17.0","battery-v0.2","","""event"",""trial"",""time""
""fullscreenenter"",""1"",""2673""
","
","
","""event"",""trial"",""time""
""fullscreenenter"",""1"",""2673""
","
","","","-1","","","19","10630","4914","&#9730;","elianto","#3366ff99"," ","-1","0","0","[]","0","1","","","10630","14","1","1","win","go","0"
"pit-trial","132","1142565","0.0-18.0","battery-v0.2","","""event"",""trial"",""time""
""fullscreenenter"",""1"",""2673""
","
","
","""event"",""trial"",""time""
""fullscreenenter"",""1"",""2673""
","
","","","-1","","","19","10630","4914","&#9728;","elianto","#f73b6a7A","-1","-1","1","0","[]","0","1","","","10630","15","0","4","lose","no-go","0"
"pit-trial","133","1147374","0.0-19.0","battery-v0.2","","""event"",""trial"",""time""
""fullscreenenter"",""1"",""2673""
","
","
","""event"",""trial"",""time""
""fullscreenenter"",""1"",""2673""
","
","","","1954","","","19","10630","4914","&#9752;","elianto","#f73b6a7A"," "," ","1","0","[2805.100000023842]","1","1","","","10630","16","3","3","lose","go","0"
"pit-trial","134","1152227","0.0-20.0","battery-v0.2","","""event"",""trial"",""time""
""fullscreenenter"",""1"",""2673""
","
","
","""event"",""trial"",""time""
""fullscreenenter"",""1"",""2673""
","
","","","-1","","","19","10630","4914","&#9728;","elianto","#f73b6a7A","-1","-1","1","0","[]","0","1","","","10630","17","0","4","lose","no-go","0"
"pit-trial","135","1155610","0.0-21.0","battery-v0.2","","""event"",""trial"",""time""
""fullscreenenter"",""1"",""2673""
","
","
","""event"",""trial"",""time""
""fullscreenenter"",""1"",""2673""
","
","","","517.7000000178814","","","19","10630","4914","&#9733;","elianto","#3366ff99","-1"," ","0","0","[1367.800000011921]","1","1","","","10630","18","2","2","win","no-go","0"
"pit-trial","136","1160465","0.0-22.0","battery-v0.2","","""event"",""trial"",""time""
""fullscreenenter"",""1"",""2673""
","
","
","""event"",""trial"",""time""
""fullscreenenter"",""1"",""2673""
","
","","","-1","","","19","10630","4914","&#9730;","elianto","#3366ff99"," ","-1","0","0","[]","0","1","","","10630","19","1","1","win","go","0"
"pit-trial","137","1164679","0.0-23.0","battery-v0.2","","""event"",""trial"",""time""
""fullscreenenter"",""1"",""2673""
","
","
","""event"",""trial"",""time""
""fullscreenenter"",""1"",""2673""
","
","","","1359.4000000059605","","","19","10630","4914","&#9752;","elianto","#f73b6a7A"," "," ","1","0","[2211]","1","1","","","10630","20","3","3","lose","go","0"
"pit-instructions","138","1177481","0.0-24.0","battery-v0.2","","""event"",""trial"",""time""
""fullscreenenter"",""1"",""2673""
","
","
","""event"",""trial"",""time""
""fullscreenenter"",""1"",""2673""
","
","","[{""page_index"":0,""viewing_time"":5833.4000000059605},{""page_index"":1,""viewing_time"":6969.699999988079}]","12803.40000000596","","","","","","","","","","","","","","","","","","","","","","","",""
"pit-trial","139","1180838","0.0-25.0","battery-v0.2","","""event"",""trial"",""time""
""fullscreenenter"",""1"",""2673""
","
","
","""event"",""trial"",""time""
""fullscreenenter"",""1"",""2673""
","
","","","481.2000000178814","","","19","10630","4914","r","elianto","#3366ff99"," "," ","1","+10","[1341.5999999940395]","1","2","","","10630","21","1","1","win","go","0"
"pit-trial","140","1184793","0.0-26.0","battery-v0.2","","""event"",""trial"",""time""
""fullscreenenter"",""1"",""2673""
","
","
","""event"",""trial"",""time""
""fullscreenenter"",""1"",""2673""
","
","","","1085.5","","","19","10630","4914","h","elianto","#f73b6a7A"," "," ","1","-10","[1937.7999999821186]","1","2","","","10630","22","3","3","lose","go","1"
"pit-trial","141","1188377","0.0-27.0","battery-v0.2","","""event"",""trial"",""time""
""fullscreenenter"",""1"",""2673""
","
","
","""event"",""trial"",""time""
""fullscreenenter"",""1"",""2673""
","
","","","721.7000000178814","","","19","10630","4914","m","elianto","#f73b6a7A","-1"," ","0","-10","[1577.199999988079]","1","2","","","10630","23","0","4","lose","no-go","0"
"pit-trial","142","1192251","0.0-28.0","battery-v0.2","","""event"",""trial"",""time""
""fullscreenenter"",""1"",""2673""
","
","
","""event"",""trial"",""time""
""fullscreenenter"",""1"",""2673""
","
","","","1017.8999999761581","","","19","10630","4914","y","elianto","#f73b6a7A","-1"," ","0","-10","[1868.3999999761581]","1","2","","","10630","24","2","4","lose","no-go","0"
"pit-trial","143","1197123","0.0-29.0","battery-v0.2","","""event"",""trial"",""time""
""fullscreenenter"",""1"",""2673""
","
","
","""event"",""trial"",""time""
""fullscreenenter"",""1"",""2673""
","
","","","-1","","","19","10630","4914","y","elianto","#f73b6a7A","-1","-1","1","0","[]","0","2","","","10630","25","2","4","lose","no-go","0"
"pit-trial","144","1201992","0.0-30.0","battery-v0.2","","""event"",""trial"",""time""
""fullscreenenter"",""1"",""2673""
","
","
","""event"",""trial"",""time""
""fullscreenenter"",""1"",""2673""
","
","","","-1","","","19","10630","4914","h","elianto","#f73b6a7A"," ","-1","0","0","[]","0","2","","","10630","26","3","3","lose","go","1"
"pit-trial","145","1205473","0.0-31.0","battery-v0.2","","""event"",""trial"",""time""
""fullscreenenter"",""1"",""2673""
","
","
","""event"",""trial"",""time""
""fullscreenenter"",""1"",""2673""
","
","","","604.0999999940395","","","19","10630","4914","r","elianto","#3366ff99"," "," ","1","+10","[1461.5999999940395]","1","2","","","10630","27","1","1","win","go","0"
"pit-trial","146","1210328","0.0-32.0","battery-v0.2","","""event"",""trial"",""time""
""fullscreenenter"",""1"",""2673""
","
","
","""event"",""trial"",""time""
""fullscreenenter"",""1"",""2673""
","
","","","-1","","","19","10630","4914","m","elianto","#f73b6a7A","-1","-1","1","0","[]","0","2","","","10630","28","0","4","lose","no-go","0"
"pit-trial","147","1213770","0.0-33.0","battery-v0.2","","""event"",""trial"",""time""
""fullscreenenter"",""1"",""2673""
","
","
","""event"",""trial"",""time""
""fullscreenenter"",""1"",""2673""
","
","","","587.9000000059605","","","19","10630","4914","r","elianto","#3366ff99"," "," ","1","+10","[1438.2999999821186]","1","2","","","10630","29","1","1","win","go","0"
"pit-trial","148","1218625","0.0-34.0","battery-v0.2","","""event"",""trial"",""time""
""fullscreenenter"",""1"",""2673""
","
","
","""event"",""trial"",""time""
""fullscreenenter"",""1"",""2673""
","
","","","-1","","","19","10630","4914","y","elianto","#f73b6a7A","-1","-1","1","0","[]","0","2","","","10630","30","2","4","lose","no-go","0"
"pit-trial","149","1223488","0.0-35.0","battery-v0.2","","""event"",""trial"",""time""
""fullscreenenter"",""1"",""2673""
","
","
","""event"",""trial"",""time""
""fullscreenenter"",""1"",""2673""
","
","","","-1","","","19","10630","4914","m","elianto","#f73b6a7A","-1","-1","1","0","[]","0","2","","","10630","31","0","4","lose","no-go","0"
"pit-trial","150","1228342","0.0-36.0","battery-v0.2","","""event"",""trial"",""time""
""fullscreenenter"",""1"",""2673""
","
","
","""event"",""trial"",""time""
""fullscreenenter"",""1"",""2673""
","
","","","-1","","","19","10630","4914","h","elianto","#f73b6a7A"," ","-1","0","-10","[]","0","2","","","10630","32","3","3","lose","go","0"
"pit-trial","151","1231658","0.0-37.0","battery-v0.2","","""event"",""trial"",""time""
""fullscreenenter"",""1"",""2673""
","
","
","""event"",""trial"",""time""
""fullscreenenter"",""1"",""2673""
","
","","","465.19999998807907","","","19","10630","4914","r","elianto","#3366ff99"," "," ","1","+10","[1316.9000000059605]","1","2","","","10630","33","1","1","win","go","0"
"pit-trial","152","1236512","0.0-38.0","battery-v0.2","","""event"",""trial"",""time""
""fullscreenenter"",""1"",""2673""
","
","
","""event"",""trial"",""time""
""fullscreenenter"",""1"",""2673""
","
","","","-1","","","19","10630","4914","y","elianto","#f73b6a7A","-1","-1","1","0","[]","0","2","","","10630","34","2","4","lose","no-go","0"
"pit-trial","153","1241365","0.0-39.0","battery-v0.2","","""event"",""trial"",""time""
""fullscreenenter"",""1"",""2673""
","
","
","""event"",""trial"",""time""
""fullscreenenter"",""1"",""2673""
","
","","","-1","","","19","10630","4914","h","elianto","#f73b6a7A"," ","-1","0","0","[]","0","2","","","10630","35","3","3","lose","go","1"
"pit-trial","154","1246218","0.0-40.0","battery-v0.2","","""event"",""trial"",""time""
""fullscreenenter"",""1"",""2673""
","
","
","""event"",""trial"",""time""
""fullscreenenter"",""1"",""2673""
","
","","","-1","","","19","10630","4914","m","elianto","#f73b6a7A","-1","-1","1","0","[]","0","2","","","10630","36","0","4","lose","no-go","0"
"pit-trial","155","1251073","0.0-41.0","battery-v0.2","","""event"",""trial"",""time""
""fullscreenenter"",""1"",""2673""
","
","
","""event"",""trial"",""time""
""fullscreenenter"",""1"",""2673""
","
","","","-1","","","19","10630","4914","y","elianto","#f73b6a7A","-1","-1","1","0","[]","0","2","","","10630","37","2","4","lose","no-go","0"
"pit-trial","156","1254400","0.0-42.0","battery-v0.2","","""event"",""trial"",""time""
""fullscreenenter"",""1"",""2673""
","
","
","""event"",""trial"",""time""
""fullscreenenter"",""1"",""2673""
","
","","","473.5","","","19","10630","4914","r","elianto","#3366ff99"," "," ","1","+10","[1325.0999999940395]","1","2","","","10630","38","1","1","win","go","0"
"pit-trial","157","1259253","0.0-43.0","battery-v0.2","","""event"",""trial"",""time""
""fullscreenenter"",""1"",""2673""
","
","
","""event"",""trial"",""time""
""fullscreenenter"",""1"",""2673""
","
","","","-1","","","19","10630","4914","m","elianto","#f73b6a7A","-1","-1","1","0","[]","0","2","","","10630","39","0","4","lose","no-go","0"
"pit-trial","158","1264107","0.0-44.0","battery-v0.2","","""event"",""trial"",""time""
""fullscreenenter"",""1"",""2673""
","
","
","""event"",""trial"",""time""
""fullscreenenter"",""1"",""2673""
","
","","","-1","","","19","10630","4914","h","elianto","#f73b6a7A"," ","-1","0","-10","[]","0","2","","","10630","40","3","3","lose","go","0"
"pit-trial","159","1268961","0.0-45.0","battery-v0.2","","""event"",""trial"",""time""
""fullscreenenter"",""1"",""2673""
","
","
","""event"",""trial"",""time""
""fullscreenenter"",""1"",""2673""
","
","","","-1","","","19","10630","4914","y","elianto","#f73b6a7A","-1","-1","1","0","[]","0","2","","","10630","41","2","4","lose","no-go","0"
"pit-trial","160","1272283","0.0-46.0","battery-v0.2","","""event"",""trial"",""time""
""fullscreenenter"",""1"",""2673""
","
","
","""event"",""trial"",""time""
""fullscreenenter"",""1"",""2673""
","
","","","458.7999999821186","","","19","10630","4914","r","elianto","#3366ff99"," "," ","1","+10","[1319.5999999940395]","1","2","","","10630","42","1","1","win","go","0"
"pit-trial","161","1277137","0.0-47.0","battery-v0.2","","""event"",""trial"",""time""
""fullscreenenter"",""1"",""2673""
","
","
","""event"",""trial"",""time""
""fullscreenenter"",""1"",""2673""
","
","","","-1","","","19","10630","4914","h","elianto","#f73b6a7A"," ","-1","0","-10","[]","0","2","","","10630","43","3","3","lose","go","0"
"pit-trial","162","1281991","0.0-48.0","battery-v0.2","","""event"",""trial"",""time""
""fullscreenenter"",""1"",""2673""
","
","
","""event"",""trial"",""time""
""fullscreenenter"",""1"",""2673""
","
","","","-1","","","19","10630","4914","m","elianto","#f73b6a7A","-1","-1","1","0","[]","0","2","","","10630","44","0","4","lose","no-go","0"
"pit-trial","163","1286845","0.0-49.0","battery-v0.2","","""event"",""trial"",""time""
""fullscreenenter"",""1"",""2673""
","
","
","""event"",""trial"",""time""
""fullscreenenter"",""1"",""2673""
","
","","","-1","","","19","10630","4914","h","elianto","#f73b6a7A"," ","-1","0","-10","[]","0","2","","","10630","45","3","3","lose","go","0"
"pit-trial","164","1291696","0.0-50.0","battery-v0.2","","""event"",""trial"",""time""
""fullscreenenter"",""1"",""2673""
","
","
","""event"",""trial"",""time""
""fullscreenenter"",""1"",""2673""
","
","","","-1","","","19","10630","4914","y","elianto","#f73b6a7A","-1","-1","1","-10","[]","0","2","","","10630","46","2","4","lose","no-go","1"
"pit-trial","165","1296551","0.0-51.0","battery-v0.2","","""event"",""trial"",""time""
""fullscreenenter"",""1"",""2673""
","
","
","""event"",""trial"",""time""
""fullscreenenter"",""1"",""2673""
","
","","","-1","","","19","10630","4914","m","elianto","#f73b6a7A","-1","-1","1","0","[]","0","2","","","10630","47","0","4","lose","no-go","0"
"pit-trial","166","1300052","0.0-52.0","battery-v0.2","","""event"",""trial"",""time""
""fullscreenenter"",""1"",""2673""
","
","
","""event"",""trial"",""time""
""fullscreenenter"",""1"",""2673""
","
","","","647.4000000059605","","","19","10630","4914","z","elianto","#3366ff99","-1"," ","0","0","[1497.5999999940395]","1","2","","","10630","48","4","2","win","no-go","0"
"pit-trial","167","1304907","0.0-53.0","battery-v0.2","","""event"",""trial"",""time""
""fullscreenenter"",""1"",""2673""
","
","
","""event"",""trial"",""time""
""fullscreenenter"",""1"",""2673""
","
","","","-1","","","19","10630","4914","m","elianto","#f73b6a7A","-1","-1","1","0","[]","0","2","","","10630","49","0","4","lose","no-go","0"
"pit-trial","168","1308313","0.0-54.0","battery-v0.2","","""event"",""trial"",""time""
""fullscreenenter"",""1"",""2673""
","
","
","""event"",""trial"",""time""
""fullscreenenter"",""1"",""2673""
","
","","","552.1000000238419","","","19","10630","4914","r","elianto","#3366ff99"," "," ","1","+10","[1403.1000000238419]","1","2","","","10630","50","1","1","win","go","0"
"pit-trial","169","1312085","0.0-55.0","battery-v0.2","","""event"",""trial"",""time""
""fullscreenenter"",""1"",""2673""
","
","
","""event"",""trial"",""time""
""fullscreenenter"",""1"",""2673""
","
","","","918.5999999940395","","","19","10630","4914","h","elianto","#f73b6a7A"," "," ","1","0","[1768.800000011921]","1","2","","","10630","51","3","3","lose","go","0"
"pit-trial","170","1315713","0.0-56.0","battery-v0.2","","""event"",""trial"",""time""
""fullscreenenter"",""1"",""2673""
","
","
","""event"",""trial"",""time""
""fullscreenenter"",""1"",""2673""
","
","","","774.9000000059605","","","19","10630","4914","z","elianto","#3366ff99","-1"," ","0","0","[1625.300000011921]","1","2","","","10630","52","4","2","win","no-go","0"
"pit-trial","171","1320569","0.0-57.0","battery-v0.2","","""event"",""trial"",""time""
""fullscreenenter"",""1"",""2673""
","
","
","""event"",""trial"",""time""
""fullscreenenter"",""1"",""2673""
","
","","","-1","","","19","10630","4914","m","elianto","#f73b6a7A","-1","-1","1","0","[2931.699999988079]","1","2","","","10630","53","0","4","lose","no-go","0"
"pit-trial","172","1324039","0.0-58.0","battery-v0.2","","""event"",""trial"",""time""
""fullscreenenter"",""1"",""2673""
","
","
","""event"",""trial"",""time""
""fullscreenenter"",""1"",""2673""
","
","","","616","","","19","10630","4914","r","elianto","#3366ff99"," "," ","1","+10","[1466.0999999940395]","1","2","","","10630","54","1","1","win","go","0"
"pit-trial","173","1328894","0.0-59.0","battery-v0.2","","""event"",""trial"",""time""
""fullscreenenter"",""1"",""2673""
","
","
","""event"",""trial"",""time""
""fullscreenenter"",""1"",""2673""
","
","","","-1","","","19","10630","4914","y","elianto","#f73b6a7A","-1","-1","1","0","[]","0","2","","","10630","55","2","4","lose","no-go","0"
"pit-trial","174","1332329","0.0-60.0","battery-v0.2","","""event"",""trial"",""time""
""fullscreenenter"",""1"",""2673""
","
","
","""event"",""trial"",""time""
""fullscreenenter"",""1"",""2673""
","
","","","580.5999999940395","","","19","10630","4914","z","elianto","#3366ff99","-1"," ","0","0","[1430.7000000178814]","1","2","","","10630","56","4","2","win","no-go","0"
"pit-trial","175","1336291","0.0-61.0","battery-v0.2","","""event"",""trial"",""time""
""fullscreenenter"",""1"",""2673""
","
","
","""event"",""trial"",""time""
""fullscreenenter"",""1"",""2673""
","
","","","1107","","","19","10630","4914","m","elianto","#f73b6a7A","-1"," ","0","0","[1957.199999988079]","1","2","","","10630","57","0","4","lose","no-go","1"
"pit-trial","176","1339700","0.0-62.0","battery-v0.2","","""event"",""trial"",""time""
""fullscreenenter"",""1"",""2673""
","
","
","""event"",""trial"",""time""
""fullscreenenter"",""1"",""2673""
","
","","","554.5999999940395","","","19","10630","4914","r","elianto","#3366ff99"," "," ","1","+10","[1404.5999999940395]","1","2","","","10630","58","1","1","win","go","0"
"pit-trial","177","1343440","0.0-63.0","battery-v0.2","","""event"",""trial"",""time""
""fullscreenenter"",""1"",""2673""
","
","
","""event"",""trial"",""time""
""fullscreenenter"",""1"",""2673""
","
","","","886.4000000059605","","","19","10630","4914","h","elianto","#f73b6a7A"," "," ","1","-10","[1737.300000011921]","1","2","","","10630","59","3","3","lose","go","1"
"pit-trial","178","1346811","0.0-64.0","battery-v0.2","","""event"",""trial"",""time""
""fullscreenenter"",""1"",""2673""
","
","
","""event"",""trial"",""time""
""fullscreenenter"",""1"",""2673""
","
","","","517.0999999940395","","","19","10630","4914","z","elianto","#3366ff99","-1"," ","0","0","[1367.0999999940395]","1","2","","","10630","60","4","2","win","no-go","0"
"pit-trial","179","1351665","0.0-65.0","battery-v0.2","","""event"",""trial"",""time""
""fullscreenenter"",""1"",""2673""
","
","
","""event"",""trial"",""time""
""fullscreenenter"",""1"",""2673""
","
","","","-1","","","19","10630","4914","z","elianto","#3366ff99","-1","-1","1","+10","[]","0","2","","","10630","61","4","2","win","no-go","0"
"pit-trial","180","1356515","0.0-66.0","battery-v0.2","","""event"",""trial"",""time""
""fullscreenenter"",""1"",""2673""
","
","
","""event"",""trial"",""time""
""fullscreenenter"",""1"",""2673""
","
","","","-1","","","19","10630","4914","y","elianto","#f73b6a7A","-1","-1","1","0","[]","0","2","","","10630","62","2","4","lose","no-go","0"
"pit-trial","181","1361406","0.0-67.0","battery-v0.2","","""event"",""trial"",""time""
""fullscreenenter"",""1"",""2673""
","
","
","""event"",""trial"",""time""
""fullscreenenter"",""1"",""2673""
","
","","","-1","","","19","10630","4914","h","elianto","#f73b6a7A"," ","-1","0","-10","[]","0","2","","","10630","63","3","3","lose","go","0"
"pit-trial","182","1364924","0.0-68.0","battery-v0.2","","""event"",""trial"",""time""
""fullscreenenter"",""1"",""2673""
","
","
","""event"",""trial"",""time""
""fullscreenenter"",""1"",""2673""
","
","","","663.1000000238419","","","19","10630","4914","r","elianto","#3366ff99"," "," ","1","+10","[1515.1000000238419]","1","2","","","10630","64","1","1","win","go","0"
"pit-trial","183","1369778","0.0-69.0","battery-v0.2","","""event"",""trial"",""time""
""fullscreenenter"",""1"",""2673""
","
","
","""event"",""trial"",""time""
""fullscreenenter"",""1"",""2673""
","
","","","-1","","","19","10630","4914","z","elianto","#3366ff99","-1","-1","1","+10","[]","0","2","","","10630","65","4","2","win","no-go","0"
"pit-trial","184","1374644","0.0-70.0","battery-v0.2","","""event"",""trial"",""time""
""fullscreenenter"",""1"",""2673""
","
","
","""event"",""trial"",""time""
""fullscreenenter"",""1"",""2673""
","
","","","-1","","","19","10630","4914","h","elianto","#f73b6a7A"," ","-1","0","-10","[]","0","2","","","10630","66","3","3","lose","go","0"
"pit-trial","185","1379498","0.0-71.0","battery-v0.2","","""event"",""trial"",""time""
""fullscreenenter"",""1"",""2673""
","
","
","""event"",""trial"",""time""
""fullscreenenter"",""1"",""2673""
","
","","","-1","","","19","10630","4914","y","elianto","#f73b6a7A","-1","-1","1","-10","[]","0","2","","","10630","67","2","4","lose","no-go","1"
"pit-trial","186","1383011","0.0-72.0","battery-v0.2","","""event"",""trial"",""time""
""fullscreenenter"",""1"",""2673""
","
","
","""event"",""trial"",""time""
""fullscreenenter"",""1"",""2673""
","
","","","658.8000000119209","","","19","10630","4914","r","elianto","#3366ff99"," "," ","1","+10","[1509]","1","2","","","10630","68","1","1","win","go","0"
"pit-trial","187","1387863","0.0-73.0","battery-v0.2","","""event"",""trial"",""time""
""fullscreenenter"",""1"",""2673""
","
","
","""event"",""trial"",""time""
""fullscreenenter"",""1"",""2673""
","
","","","-1","","","19","10630","4914","z","elianto","#3366ff99","-1","-1","1","+10","[]","0","2","","","10630","69","4","2","win","no-go","0"
"pit-trial","188","1391381","0.0-74.0","battery-v0.2","","""event"",""trial"",""time""
""fullscreenenter"",""1"",""2673""
","
","
","""event"",""trial"",""time""
""fullscreenenter"",""1"",""2673""
","
","","","664","","","19","10630","4914","r","elianto","#3366ff99"," "," ","1","0","[1514.2999999821186]","1","2","","","10630","70","1","1","win","go","1"
"pit-trial","189","1395342","0.0-75.0","battery-v0.2","","""event"",""trial"",""time""
""fullscreenenter"",""1"",""2673""
","
","
","""event"",""trial"",""time""
""fullscreenenter"",""1"",""2673""
","
","","","1105.800000011921","","","19","10630","4914","h","elianto","#f73b6a7A"," "," ","1","0","[1956.7999999821186]","1","2","","","10630","71","3","3","lose","go","0"
"pit-trial","190","1399438","0.0-76.0","battery-v0.2","","""event"",""trial"",""time""
""fullscreenenter"",""1"",""2673""
","
","
","""event"",""trial"",""time""
""fullscreenenter"",""1"",""2673""
","
","","","1240.2000000178814","","","19","10630","4914","c","elianto","#3366ff99"," "," ","1","+10","[2090.9000000059605]","1","2","","","10630","72","5","1","win","go","0"
"pit-trial","191","1403295","0.0-77.0","battery-v0.2","","""event"",""trial"",""time""
""fullscreenenter"",""1"",""2673""
","
","
","""event"",""trial"",""time""
""fullscreenenter"",""1"",""2673""
","
","","","1002.5","","","19","10630","4914","h","elianto","#f73b6a7A"," "," ","1","-10","[1853.2999999821186]","1","2","","","10630","73","3","3","lose","go","1"
"pit-trial","192","1406852","0.0-78.0","battery-v0.2","","""event"",""trial"",""time""
""fullscreenenter"",""1"",""2673""
","
","
","""event"",""trial"",""time""
""fullscreenenter"",""1"",""2673""
","
","","","703.9000000059605","","","19","10630","4914","c","elianto","#3366ff99"," "," ","1","+10","[1554.0999999940395]","1","2","","","10630","74","5","1","win","go","0"
"pit-trial","193","1410307","0.0-79.0","battery-v0.2","","""event"",""trial"",""time""
""fullscreenenter"",""1"",""2673""
","
","
","""event"",""trial"",""time""
""fullscreenenter"",""1"",""2673""
","
","","","601.7999999821186","","","19","10630","4914","r","elianto","#3366ff99"," "," ","1","0","[1452]","1","2","","","10630","75","1","1","win","go","1"
"pit-trial","194","1415157","0.0-80.0","battery-v0.2","","""event"",""trial"",""time""
""fullscreenenter"",""1"",""2673""
","
","
","""event"",""trial"",""time""
""fullscreenenter"",""1"",""2673""
","
","","","-1","","","19","10630","4914","z","elianto","#3366ff99","-1","-1","1","+10","[]","0","2","","","10630","76","4","2","win","no-go","0"
"pit-trial","195","1418758","0.0-81.0","battery-v0.2","","""event"",""trial"",""time""
""fullscreenenter"",""1"",""2673""
","
","
","""event"",""trial"",""time""
""fullscreenenter"",""1"",""2673""
","
","","","747.0999999940395","","","19","10630","4914","h","elianto","#f73b6a7A"," "," ","1","0","[1597.300000011921]","1","2","","","10630","77","3","3","lose","go","0"
"pit-trial","196","1423613","0.0-82.0","battery-v0.2","","""event"",""trial"",""time""
""fullscreenenter"",""1"",""2673""
","
","
","""event"",""trial"",""time""
""fullscreenenter"",""1"",""2673""
","
","","","-1","","","19","10630","4914","b","elianto","#f73b6a7A","-1","-1","1","0","[]","0","2","","","10630","78","6","4","lose","no-go","0"
"pit-trial","197","1427644","0.0-83.0","battery-v0.2","","""event"",""trial"",""time""
""fullscreenenter"",""1"",""2673""
","
","
","""event"",""trial"",""time""
""fullscreenenter"",""1"",""2673""
","
","","","1175.4000000059605","","","19","10630","4914","c","elianto","#3366ff99"," "," ","1","+10","[2026.9000000059605]","1","2","","","10630","79","5","1","win","go","0"
"pit-trial","198","1432497","0.0-84.0","battery-v0.2","","""event"",""trial"",""time""
""fullscreenenter"",""1"",""2673""
","
","
","""event"",""trial"",""time""
""fullscreenenter"",""1"",""2673""
","
","","","-1","","","19","10630","4914","z","elianto","#3366ff99","-1","-1","1","+10","[]","0","2","","","10630","80","4","2","win","no-go","0"
"pit-trial","199","1435954","0.0-85.0","battery-v0.2","","""event"",""trial"",""time""
""fullscreenenter"",""1"",""2673""
","
","
","""event"",""trial"",""time""
""fullscreenenter"",""1"",""2673""
","
","","","604.1999999880791","","","19","10630","4914","z","elianto","#3366ff99","-1"," ","0","+10","[1454.0999999940395]","1","2","","","10630","81","4","2","win","no-go","1"
"pit-trial","200","1440326","0.0-86.0","battery-v0.2","","""event"",""trial"",""time""
""fullscreenenter"",""1"",""2673""
","
","
","""event"",""trial"",""time""
""fullscreenenter"",""1"",""2673""
","
","","","1518.5999999940395","","","19","10630","4914","b","elianto","#f73b6a7A","-1"," ","0","-10","[2368.7999999821186]","1","2","","","10630","82","6","4","lose","no-go","0"
"pit-trial","201","1444085","0.0-87.0","battery-v0.2","","""event"",""trial"",""time""
""fullscreenenter"",""1"",""2673""
","
","
","""event"",""trial"",""time""
""fullscreenenter"",""1"",""2673""
","
","","","905.0999999940395","","","19","10630","4914","c","elianto","#3366ff99"," "," ","1","+10","[1755.4000000059605]","1","2","","","10630","83","5","1","win","go","0"
"pit-trial","202","1448459","0.0-88.0","battery-v0.2","","""event"",""trial"",""time""
""fullscreenenter"",""1"",""2673""
","
","
","""event"",""trial"",""time""
""fullscreenenter"",""1"",""2673""
","
","","","1519.5999999940395","","","19","10630","4914","t","elianto","#f73b6a7A"," "," ","1","0","[2370]","1","2","","","10630","84","7","3","lose","go","0"
"pit-trial","203","1453314","0.0-89.0","battery-v0.2","","""event"",""trial"",""time""
""fullscreenenter"",""1"",""2673""
","
","
","""event"",""trial"",""time""
""fullscreenenter"",""1"",""2673""
","
","","","-1","","","19","10630","4914","b","elianto","#f73b6a7A","-1","-1","1","0","[]","0","2","","","10630","85","6","4","lose","no-go","0"
"pit-trial","204","1457135","0.0-90.0","battery-v0.2","","""event"",""trial"",""time""
""fullscreenenter"",""1"",""2673""
","
","
","""event"",""trial"",""time""
""fullscreenenter"",""1"",""2673""
","
","","","967.7000000178814","","","19","10630","4914","c","elianto","#3366ff99"," "," ","1","+10","[1818.5]","1","2","","","10630","86","5","1","win","go","0"
"pit-trial","205","1461991","0.0-91.0","battery-v0.2","","""event"",""trial"",""time""
""fullscreenenter"",""1"",""2673""
","
","
","""event"",""trial"",""time""
""fullscreenenter"",""1"",""2673""
","
","","","-1","","","19","10630","4914","z","elianto","#3366ff99","-1","-1","1","+10","[]","0","2","","","10630","87","4","2","win","no-go","0"
"pit-trial","206","1466845","0.0-92.0","battery-v0.2","","""event"",""trial"",""time""
""fullscreenenter"",""1"",""2673""
","
","
","""event"",""trial"",""time""
""fullscreenenter"",""1"",""2673""
","
","","","-1","","","19","10630","4914","t","elianto","#f73b6a7A"," ","-1","0","0","[]","0","2","","","10630","88","7","3","lose","go","1"
"pit-trial","207","1471698","0.0-93.0","battery-v0.2","","""event"",""trial"",""time""
""fullscreenenter"",""1"",""2673""
","
","
","""event"",""trial"",""time""
""fullscreenenter"",""1"",""2673""
","
","","","-1","","","19","10630","4914","z","elianto","#3366ff99","-1","-1","1","+10","[]","0","2","","","10630","89","4","2","win","no-go","0"
"pit-trial","208","1476548","0.0-94.0","battery-v0.2","","""event"",""trial"",""time""
""fullscreenenter"",""1"",""2673""
","
","
","""event"",""trial"",""time""
""fullscreenenter"",""1"",""2673""
","
","","","-1","","","19","10630","4914","t","elianto","#f73b6a7A"," ","-1","0","-10","[]","0","2","","","10630","90","7","3","lose","go","0"
"pit-trial","209","1481403","0.0-95.0","battery-v0.2","","""event"",""trial"",""time""
""fullscreenenter"",""1"",""2673""
","
","
","""event"",""trial"",""time""
""fullscreenenter"",""1"",""2673""
","
","","","-1","","","19","10630","4914","b","elianto","#f73b6a7A","-1","-1","1","-10","[]","0","2","","","10630","91","6","4","lose","no-go","1"
"pit-trial","210","1485492","0.0-96.0","battery-v0.2","","""event"",""trial"",""time""
""fullscreenenter"",""1"",""2673""
","
","
","""event"",""trial"",""time""
""fullscreenenter"",""1"",""2673""
","
","","","1233","","","19","10630","4914","c","elianto","#3366ff99"," "," ","1","+10","[2084.7000000178814]","1","2","","","10630","92","5","1","win","go","0"
"pit-trial","211","1489425","0.0-97.0","battery-v0.2","","""event"",""trial"",""time""
""fullscreenenter"",""1"",""2673""
","
","
","""event"",""trial"",""time""
""fullscreenenter"",""1"",""2673""
","
","","","1079.9000000059605","","","19","10630","4914","t","elianto","#f73b6a7A"," "," ","1","0","[1930.4000000059605]","1","2","","","10630","93","7","3","lose","go","0"
"pit-trial","212","1493110","0.0-98.0","battery-v0.2","","""event"",""trial"",""time""
""fullscreenenter"",""1"",""2673""
","
","
","""event"",""trial"",""time""
""fullscreenenter"",""1"",""2673""
","
","","","829.7999999821186","","","19","10630","4914","c","elianto","#3366ff99"," "," ","1","+10","[1681.199999988079]","1","2","","","10630","94","5","1","win","go","0"
"pit-trial","213","1496932","0.0-99.0","battery-v0.2","","""event"",""trial"",""time""
""fullscreenenter"",""1"",""2673""
","
","
","""event"",""trial"",""time""
""fullscreenenter"",""1"",""2673""
","
","","","966.0999999940395","","","19","10630","4914","f","elianto","#3366ff99","-1"," ","0","+10","[1817.5]","1","2","","","10630","95","8","2","win","no-go","1"
"pit-trial","214","1500774","0.0-100.0","battery-v0.2","","""event"",""trial"",""time""
""fullscreenenter"",""1"",""2673""
","
","
","""event"",""trial"",""time""
""fullscreenenter"",""1"",""2673""
","
","","","987.3000000119209","","","19","10630","4914","b","elianto","#f73b6a7A","-1"," ","0","-10","[1838.7000000178814]","1","2","","","10630","96","6","4","lose","no-go","0"
"pit-trial","215","1504619","0.0-101.0","battery-v0.2","","""event"",""trial"",""time""
""fullscreenenter"",""1"",""2673""
","
","
","""event"",""trial"",""time""
""fullscreenenter"",""1"",""2673""
","
","","","992.2000000178814","","","19","10630","4914","t","elianto","#f73b6a7A"," "," ","1","0","[1842.3999999761581]","1","2","","","10630","97","7","3","lose","go","0"
"pit-trial","216","1508253","0.0-102.0","battery-v0.2","","""event"",""trial"",""time""
""fullscreenenter"",""1"",""2673""
","
","
","""event"",""trial"",""time""
""fullscreenenter"",""1"",""2673""
","
","","","779.9000000059605","","","19","10630","4914","c","elianto","#3366ff99"," "," ","1","+10","[1630.7000000178814]","1","2","","","10630","98","5","1","win","go","0"
"pit-trial","217","1513108","0.0-103.0","battery-v0.2","","""event"",""trial"",""time""
""fullscreenenter"",""1"",""2673""
","
","
","""event"",""trial"",""time""
""fullscreenenter"",""1"",""2673""
","
","","","-1","","","19","10630","4914","b","elianto","#f73b6a7A","-1","-1","1","-10","[]","0","2","","","10630","99","6","4","lose","no-go","1"
"pit-trial","218","1516876","0.0-104.0","battery-v0.2","","""event"",""trial"",""time""
""fullscreenenter"",""1"",""2673""
","
","
","""event"",""trial"",""time""
""fullscreenenter"",""1"",""2673""
","
","","","913.5999999940395","","","19","10630","4914","f","elianto","#3366ff99","-1"," ","0","0","[1763.8999999761581]","1","2","","","10630","100","8","2","win","no-go","0"
"pit-trial","219","1521730","0.0-105.0","battery-v0.2","","""event"",""trial"",""time""
""fullscreenenter"",""1"",""2673""
","
","
","""event"",""trial"",""time""
""fullscreenenter"",""1"",""2673""
","
","","","-1","","","19","10630","4914","f","elianto","#3366ff99","-1","-1","1","+10","[]","0","2","","","10630","101","8","2","win","no-go","0"
"pit-trial","220","1525624","0.0-106.0","battery-v0.2","","""event"",""trial"",""time""
""fullscreenenter"",""1"",""2673""
","
","
","""event"",""trial"",""time""
""fullscreenenter"",""1"",""2673""
","
","","","1040.8999999761581","","","19","10630","4914","n","elianto","#3366ff99","-1"," ","0","+10","[1890.7999999821186]","1","2","","","10630","102","9","2","win","no-go","1"
"pit-trial","221","1529738","0.0-107.0","battery-v0.2","","""event"",""trial"",""time""
""fullscreenenter"",""1"",""2673""
","
","
","""event"",""trial"",""time""
""fullscreenenter"",""1"",""2673""
","
","","","1260.300000011921","","","19","10630","4914","c","elianto","#3366ff99"," "," ","1","+10","[2110.600000023842]","1","2","","","10630","103","5","1","win","go","0"
"pit-trial","222","1534588","0.0-108.0","battery-v0.2","","""event"",""trial"",""time""
""fullscreenenter"",""1"",""2673""
","
","
","""event"",""trial"",""time""
""fullscreenenter"",""1"",""2673""
","
","","","-1","","","19","10630","4914","b","elianto","#f73b6a7A","-1","-1","1","0","[]","0","2","","","10630","104","6","4","lose","no-go","0"
"pit-trial","223","1538369","0.0-109.0","battery-v0.2","","""event"",""trial"",""time""
""fullscreenenter"",""1"",""2673""
","
","
","""event"",""trial"",""time""
""fullscreenenter"",""1"",""2673""
","
","","","925.3000000119209","","","19","10630","4914","n","elianto","#3366ff99","-1"," ","0","0","[1776.800000011921]","1","2","","","10630","105","9","2","win","no-go","0"
"pit-trial","224","1542059","0.0-110.0","battery-v0.2","","""event"",""trial"",""time""
""fullscreenenter"",""1"",""2673""
","
","
","""event"",""trial"",""time""
""fullscreenenter"",""1"",""2673""
","
","","","834.6999999880791","","","19","10630","4914","b","elianto","#f73b6a7A","-1"," ","0","0","[1686.5999999940395]","1","2","","","10630","106","6","4","lose","no-go","1"
"pit-trial","225","1545604","0.0-111.0","battery-v0.2","","""event"",""trial"",""time""
""fullscreenenter"",""1"",""2673""
","
","
","""event"",""trial"",""time""
""fullscreenenter"",""1"",""2673""
","
","","","690.5999999940395","","","19","10630","4914","c","elianto","#3366ff99"," "," ","1","+10","[1540.9000000059605]","1","2","","","10630","107","5","1","win","go","0"
"pit-trial","226","1550458","0.0-112.0","battery-v0.2","","""event"",""trial"",""time""
""fullscreenenter"",""1"",""2673""
","
","
","""event"",""trial"",""time""
""fullscreenenter"",""1"",""2673""
","
","","","-1","","","19","10630","4914","f","elianto","#3366ff99","-1","-1","1","+10","[]","0","2","","","10630","108","8","2","win","no-go","0"
"pit-trial","227","1555314","0.0-113.0","battery-v0.2","","""event"",""trial"",""time""
""fullscreenenter"",""1"",""2673""
","
","
","""event"",""trial"",""time""
""fullscreenenter"",""1"",""2673""
","
","","","-1","","","19","10630","4914","n","elianto","#3366ff99","-1","-1","1","0","[]","0","2","","","10630","109","9","2","win","no-go","1"
"pit-trial","228","1560167","0.0-114.0","battery-v0.2","","""event"",""trial"",""time""
""fullscreenenter"",""1"",""2673""
","
","
","""event"",""trial"",""time""
""fullscreenenter"",""1"",""2673""
","
","","","-1","","","19","10630","4914","f","elianto","#3366ff99","-1","-1","1","+10","[]","0","2","","","10630","110","8","2","win","no-go","0"
"pit-trial","229","1565021","0.0-115.0","battery-v0.2","","""event"",""trial"",""time""
""fullscreenenter"",""1"",""2673""
","
","
","""event"",""trial"",""time""
""fullscreenenter"",""1"",""2673""
","
","","","-1","","","19","10630","4914","b","elianto","#f73b6a7A","-1","-1","1","-10","[]","0","2","","","10630","111","6","4","lose","no-go","1"
"pit-trial","230","1568500","0.0-116.0","battery-v0.2","","""event"",""trial"",""time""
""fullscreenenter"",""1"",""2673""
","
","
","""event"",""trial"",""time""
""fullscreenenter"",""1"",""2673""
","
","","","626.7000000178814","","","19","10630","4914","c","elianto","#3366ff99"," "," ","1","+10","[1477]","1","2","","","10630","112","5","1","win","go","0"
"pit-trial","231","1573355","0.0-117.0","battery-v0.2","","""event"",""trial"",""time""
""fullscreenenter"",""1"",""2673""
","
","
","""event"",""trial"",""time""
""fullscreenenter"",""1"",""2673""
","
","","","-1","","","19","10630","4914","f","elianto","#3366ff99","-1","-1","1","0","[]","0","2","","","10630","113","8","2","win","no-go","1"
"pit-trial","232","1577308","0.0-118.0","battery-v0.2","","""event"",""trial"",""time""
""fullscreenenter"",""1"",""2673""
","
","
","""event"",""trial"",""time""
""fullscreenenter"",""1"",""2673""
","
","","","1098.7999999821186","","","19","10630","4914","t","elianto","#f73b6a7A"," "," ","1","-10","[1949.699999988079]","1","2","","","10630","114","7","3","lose","go","1"
"pit-trial","233","1581653","0.0-119.0","battery-v0.2","","""event"",""trial"",""time""
""fullscreenenter"",""1"",""2673""
","
","
","""event"",""trial"",""time""
""fullscreenenter"",""1"",""2673""
","
","","","1490.800000011921","","","19","10630","4914","c","elianto","#3366ff99"," "," ","1","+10","[2340.7999999821186]","1","2","","","10630","115","5","1","win","go","0"
"pit-trial","234","1585394","0.0-120.0","battery-v0.2","","""event"",""trial"",""time""
""fullscreenenter"",""1"",""2673""
","
","
","""event"",""trial"",""time""
""fullscreenenter"",""1"",""2673""
","
","","","888","","","19","10630","4914","n","elianto","#3366ff99","-1"," ","0","+10","[1738.1000000238419]","1","2","","","10630","116","9","2","win","no-go","1"
"pit-trial","235","1590248","0.0-121.0","battery-v0.2","","""event"",""trial"",""time""
""fullscreenenter"",""1"",""2673""
","
","
","""event"",""trial"",""time""
""fullscreenenter"",""1"",""2673""
","
","","","-1","","","19","10630","4914","f","elianto","#3366ff99","-1","-1","1","+10","[]","0","2","","","10630","117","8","2","win","no-go","0"
"pit-trial","236","1593868","0.0-122.0","battery-v0.2","","""event"",""trial"",""time""
""fullscreenenter"",""1"",""2673""
","
","
","""event"",""trial"",""time""
""fullscreenenter"",""1"",""2673""
","
","","","767.0999999940395","","","19","10630","4914","c","elianto","#3366ff99"," "," ","1","0","[1618]","1","2","","","10630","118","5","1","win","go","1"
"pit-trial","237","1598719","0.0-123.0","battery-v0.2","","""event"",""trial"",""time""
""fullscreenenter"",""1"",""2673""
","
","
","""event"",""trial"",""time""
""fullscreenenter"",""1"",""2673""
","
","","","-1","","","19","10630","4914","b","elianto","#f73b6a7A","-1","-1","1","0","[]","0","2","","","10630","119","6","4","lose","no-go","0"
"pit-trial","238","1602452","0.0-124.0","battery-v0.2","","""event"",""trial"",""time""
""fullscreenenter"",""1"",""2673""
","
","
","""event"",""trial"",""time""
""fullscreenenter"",""1"",""2673""
","
","","","880.2999999821186","","","19","10630","4914","n","elianto","#3366ff99","-1"," ","0","0","[1730.2999999821186]","1","2","","","10630","120","9","2","win","no-go","0"
"pit-trial","239","1606404","0.0-125.0","battery-v0.2","","""event"",""trial"",""time""
""fullscreenenter"",""1"",""2673""
","
","
","""event"",""trial"",""time""
""fullscreenenter"",""1"",""2673""
","
","","","1097.4000000059605","","","19","10630","4914","t","elianto","#f73b6a7A"," "," ","1","0","[1949.0999999940395]","1","2","","","10630","121","7","3","lose","go","0"
"pit-trial","240","1610280","0.0-126.0","battery-v0.2","","""event"",""trial"",""time""
""fullscreenenter"",""1"",""2673""
","
","
","""event"",""trial"",""time""
""fullscreenenter"",""1"",""2673""
","
","","","1021.1999999880791","","","19","10630","4914","n","elianto","#3366ff99","-1"," ","0","0","[1872.9000000059605]","1","2","","","10630","122","9","2","win","no-go","0"
"pit-trial","241","1614039","0.0-127.0","battery-v0.2","","""event"",""trial"",""time""
""fullscreenenter"",""1"",""2673""
","
","
","""event"",""trial"",""time""
""fullscreenenter"",""1"",""2673""
","
","","","904.1000000238419","","","19","10630","4914","c","elianto","#3366ff99"," "," ","1","+10","[1755.7000000178814]","1","2","","","10630","123","5","1","win","go","0"
"pit-trial","242","1618908","0.0-128.0","battery-v0.2","","""event"",""trial"",""time""
""fullscreenenter"",""1"",""2673""
","
","
","""event"",""trial"",""time""
""fullscreenenter"",""1"",""2673""
","
","","","-1","","","19","10630","4914","f","elianto","#3366ff99","-1","-1","1","+10","[]","0","2","","","10630","124","8","2","win","no-go","0"
"pit-trial","243","1623762","0.0-129.0","battery-v0.2","","""event"",""trial"",""time""
""fullscreenenter"",""1"",""2673""
","
","
","""event"",""trial"",""time""
""fullscreenenter"",""1"",""2673""
","
","","","-1","","","19","10630","4914","b","elianto","#f73b6a7A","-1","-1","1","0","[]","0","2","","","10630","125","6","4","lose","no-go","0"
"pit-trial","244","1627279","0.0-130.0","battery-v0.2","","""event"",""trial"",""time""
""fullscreenenter"",""1"",""2673""
","
","
","""event"",""trial"",""time""
""fullscreenenter"",""1"",""2673""
","
","","","662.9000000059605","","","19","10630","4914","n","elianto","#3366ff99","-1"," ","0","+10","[1513.4000000059605]","1","2","","","10630","126","9","2","win","no-go","1"
"pit-trial","245","1632134","0.0-131.0","battery-v0.2","","""event"",""trial"",""time""
""fullscreenenter"",""1"",""2673""
","
","
","""event"",""trial"",""time""
""fullscreenenter"",""1"",""2673""
","
","","","-1","","","19","10630","4914","f","elianto","#3366ff99","-1","-1","1","0","[]","0","2","","","10630","127","8","2","win","no-go","1"
"pit-trial","246","1635948","0.0-132.0","battery-v0.2","","""event"",""trial"",""time""
""fullscreenenter"",""1"",""2673""
","
","
","""event"",""trial"",""time""
""fullscreenenter"",""1"",""2673""
","
","","","960.9000000059605","","","19","10630","4914","t","elianto","#f73b6a7A"," "," ","1","0","[1811.0999999940395]","1","2","","","10630","128","7","3","lose","go","0"
"pit-trial","247","1640803","0.0-133.0","battery-v0.2","","""event"",""trial"",""time""
""fullscreenenter"",""1"",""2673""
","
","
","""event"",""trial"",""time""
""fullscreenenter"",""1"",""2673""
","
","","","-1","","","19","10630","4914","b","elianto","#f73b6a7A","-1","-1","1","0","[]","0","2","","","10630","129","6","4","lose","no-go","0"
"pit-trial","248","1644317","0.0-134.0","battery-v0.2","","""event"",""trial"",""time""
""fullscreenenter"",""1"",""2673""
","
","
","""event"",""trial"",""time""
""fullscreenenter"",""1"",""2673""
","
","","","658.5999999940395","","","19","10630","4914","n","elianto","#3366ff99","-1"," ","0","0","[1510.300000011921]","1","2","","","10630","130","9","2","win","no-go","0"
"pit-trial","249","1648104","0.0-135.0","battery-v0.2","","""event"",""trial"",""time""
""fullscreenenter"",""1"",""2673""
","
","
","""event"",""trial"",""time""
""fullscreenenter"",""1"",""2673""
","
","","","933.3000000119209","","","19","10630","4914","t","elianto","#f73b6a7A"," "," ","1","0","[1784.0999999940395]","1","2","","","10630","131","7","3","lose","go","0"
"pit-trial","250","1652957","0.0-136.0","battery-v0.2","","""event"",""trial"",""time""
""fullscreenenter"",""1"",""2673""
","
","
","""event"",""trial"",""time""
""fullscreenenter"",""1"",""2673""
","
","","","-1","","","19","10630","4914","f","elianto","#3366ff99","-1","-1","1","+10","[]","0","2","","","10630","132","8","2","win","no-go","0"
"pit-trial","251","1656610","0.0-137.0","battery-v0.2","","""event"",""trial"",""time""
""fullscreenenter"",""1"",""2673""
","
","
","""event"",""trial"",""time""
""fullscreenenter"",""1"",""2673""
","
","","","803","","","19","10630","4914","t","elianto","#f73b6a7A"," "," ","1","-10","[1653.5]","1","2","","","10630","133","7","3","lose","go","1"
"pit-trial","252","1661464","0.0-138.0","battery-v0.2","","""event"",""trial"",""time""
""fullscreenenter"",""1"",""2673""
","
","
","""event"",""trial"",""time""
""fullscreenenter"",""1"",""2673""
","
","","","-1","","","19","10630","4914","f","elianto","#3366ff99","-1","-1","1","0","[]","0","2","","","10630","134","8","2","win","no-go","1"
"pit-trial","253","1666318","0.0-139.0","battery-v0.2","","""event"",""trial"",""time""
""fullscreenenter"",""1"",""2673""
","
","
","""event"",""trial"",""time""
""fullscreenenter"",""1"",""2673""
","
","","","-1","","","19","10630","4914","n","elianto","#3366ff99","-1","-1","1","+10","[]","0","2","","","10630","135","9","2","win","no-go","0"
"pit-trial","254","1671178","0.0-140.0","battery-v0.2","","""event"",""trial"",""time""
""fullscreenenter"",""1"",""2673""
","
","
","""event"",""trial"",""time""
""fullscreenenter"",""1"",""2673""
","
","","","-1","","","19","10630","4914","b","elianto","#f73b6a7A","-1","-1","1","0","[]","0","2","","","10630","136","6","4","lose","no-go","0"
"pit-trial","255","1676034","0.0-141.0","battery-v0.2","","""event"",""trial"",""time""
""fullscreenenter"",""1"",""2673""
","
","
","""event"",""trial"",""time""
""fullscreenenter"",""1"",""2673""
","
","","","-1","","","19","10630","4914","n","elianto","#3366ff99","-1","-1","1","+10","[]","0","2","","","10630","137","9","2","win","no-go","0"
"pit-trial","256","1679941","0.0-142.0","battery-v0.2","","""event"",""trial"",""time""
""fullscreenenter"",""1"",""2673""
","
","
","""event"",""trial"",""time""
""fullscreenenter"",""1"",""2673""
","
","","","1052.5999999940395","","","19","10630","4914","t","elianto","#f73b6a7A"," "," ","1","0","[1903.0999999940395]","1","2","","","10630","138","7","3","lose","go","0"
"pit-trial","257","1684798","0.0-143.0","battery-v0.2","","""event"",""trial"",""time""
""fullscreenenter"",""1"",""2673""
","
","
","""event"",""trial"",""time""
""fullscreenenter"",""1"",""2673""
","
","","","-1","","","19","10630","4914","b","elianto","#f73b6a7A","-1","-1","1","-10","[]","0","2","","","10630","139","6","4","lose","no-go","1"
"pit-trial","258","1689666","0.0-144.0","battery-v0.2","","""event"",""trial"",""time""
""fullscreenenter"",""1"",""2673""
","
","
","""event"",""trial"",""time""
""fullscreenenter"",""1"",""2673""
","
","","","-1","","","19","10630","4914","f","elianto","#3366ff99","-1","-1","1","+10","[]","0","2","","","10630","140","8","2","win","no-go","0"
"pit-instructions","259","1820237","0.0-145.0","battery-v0.2","","""event"",""trial"",""time""
""fullscreenenter"",""1"",""2673""
","
","
","""event"",""trial"",""time""
""fullscreenenter"",""1"",""2673""
","
","","[{""page_index"":0,""viewing_time"":121961.90000000596},{""page_index"":1,""viewing_time"":8616.5}]","130578.80000001192","","","","","","","","","","","","","","","","","","","","","","","",""
"pit-trial","260","1825112","0.0-146.0","battery-v0.2","","""event"",""trial"",""time""
""fullscreenenter"",""1"",""2673""
","
","
","""event"",""trial"",""time""
""fullscreenenter"",""1"",""2673""
","
","","","-1","","","19","10630","4914","a","elianto","#f73b6a7A"," ","-1","0","-10","[]","0","3","","","10630","141","2","3","lose","go","0"
"pit-trial","261","1828897","0.0-147.0","battery-v0.2","","""event"",""trial"",""time""
""fullscreenenter"",""1"",""2673""
","
","
","""event"",""trial"",""time""
""fullscreenenter"",""1"",""2673""
","
","","","923.0999999940395","","","19","10630","4914","g","elianto","#f73b6a7A","-1"," ","0","-10","[1773.9000000059605]","1","3","","","10630","142","3","4","lose","no-go","0"
"pit-trial","262","1832425","0.0-148.0","battery-v0.2","","""event"",""trial"",""time""
""fullscreenenter"",""1"",""2673""
","
","
","""event"",""trial"",""time""
""fullscreenenter"",""1"",""2673""
","
","","","661.5","","","19","10630","4914","l","elianto","#3366ff99","-1"," ","0","+10","[1511.800000011921]","1","3","","","10630","143","1","2","win","no-go","1"
"pit-trial","263","1836447","0.0-149.0","battery-v0.2","","""event"",""trial"",""time""
""fullscreenenter"",""1"",""2673""
","
","
","""event"",""trial"",""time""
""fullscreenenter"",""1"",""2673""
","
","","","1162.699999988079","","","19","10630","4914","u","elianto","#f73b6a7A"," "," ","1","0","[2015]","1","3","","","10630","144","0","3","lose","go","0"
"pit-trial","264","1840233","0.0-150.0","battery-v0.2","","""event"",""trial"",""time""
""fullscreenenter"",""1"",""2673""
","
","
","""event"",""trial"",""time""
""fullscreenenter"",""1"",""2673""
","
","","","919.9000000059605","","","19","10630","4914","u","elianto","#f73b6a7A"," "," ","1","0","[1770.4000000059605]","1","3","","","10630","145","0","3","lose","go","0"
"pit-trial","265","1843836","0.0-151.0","battery-v0.2","","""event"",""trial"",""time""
""fullscreenenter"",""1"",""2673""
","
","
","""event"",""trial"",""time""
""fullscreenenter"",""1"",""2673""
","
