"trial_type","trial_index","time_elapsed","internal_node_id","task_version","subject_id","interactions","blur_events","focus_events","fullscreenenter_events","fullscreenexit_events","success","view_history","rt","responses","num_errors","age","subject","participantId","rune","rune_set","hex","correct","choice","accuracy","outcome","keys","total_keys","block","practice","value","sub","trial","stimulus","robot","valence","action","sham"
"pavlovia","0","30","0.0-0.0","battery-v0.2","","""event"",""trial"",""time""
""focus"",""0"",""2""
""fullscreenenter"",""1"",""3097""
","
","""event"",""trial"",""time""
""focus"",""0"",""2""
","""event"",""trial"",""time""
""fullscreenenter"",""1"",""3097""
","
","","","","","","","","","","","","","","","","","","","","","","","","","","",""
"fullscreen","1","4099","0.0-1.0","battery-v0.2","","""event"",""trial"",""time""
""focus"",""0"",""2""
""fullscreenenter"",""1"",""3097""
","
","""event"",""trial"",""time""
""focus"",""0"",""2""
","""event"",""trial"",""time""
""fullscreenenter"",""1"",""3097""
","
","true","","","","","","","","","","","","","","","","","","","","","","","","","",""
"pit-instructions","2","10271","0.0-2.0-0.0","battery-v0.2","","""event"",""trial"",""time""
""focus"",""0"",""2""
""fullscreenenter"",""1"",""3097""
","
","""event"",""trial"",""time""
""focus"",""0"",""2""
","""event"",""trial"",""time""
""fullscreenenter"",""1"",""3097""
","
","","[{""page_index"":0,""viewing_time"":6165}]","6166","","","","","","","","","","","","","","","","","","","","","","","",""
"pit-comprehension","3","17598","0.0-2.0-1.0-0.0","battery-v0.2","","""event"",""trial"",""time""
""focus"",""0"",""2""
""fullscreenenter"",""1"",""3097""
","
","""event"",""trial"",""time""
""focus"",""0"",""2""
","""event"",""trial"",""time""
""fullscreenenter"",""1"",""3097""
","
","","","7322","[""shark""]","0","15","5979","3495","","","","","","","","","","","","","","","","","","",""
"pit-instructions","4","19383","0.0-2.0-1.0-1.0","battery-v0.2","","""event"",""trial"",""time""
""focus"",""0"",""2""
""fullscreenenter"",""1"",""3097""
","
","""event"",""trial"",""time""
""focus"",""0"",""2""
","""event"",""trial"",""time""
""fullscreenenter"",""1"",""3097""
","
","","[{""page_index"":0,""viewing_time"":1775}]","1776","","","","","","","","","","","","","","","","","","","","","","","",""
"pit-comprehension","5","26848","0.0-2.0-2.0-0.0","battery-v0.2","","""event"",""trial"",""time""
""focus"",""0"",""2""
""fullscreenenter"",""1"",""3097""
","
","""event"",""trial"",""time""
""focus"",""0"",""2""
","""event"",""trial"",""time""
""fullscreenenter"",""1"",""3097""
","
","","","7461","[""tiger""]","0","15","5979","3495","","","","","","","","","","","","","","","","","","",""
"pit-instructions","6","28687","0.0-2.0-2.0-1.0","battery-v0.2","","""event"",""trial"",""time""
""focus"",""0"",""2""
""fullscreenenter"",""1"",""3097""
","
","""event"",""trial"",""time""
""focus"",""0"",""2""
","""event"",""trial"",""time""
""fullscreenenter"",""1"",""3097""
","
","","[{""page_index"":0,""viewing_time"":1833}]","1833","","","","","","","","","","","","","","","","","","","","","","","",""
"pit-instructions","7","158143","0.0-2.0-3.0","battery-v0.2","","""event"",""trial"",""time""
""focus"",""0"",""2""
""fullscreenenter"",""1"",""3097""
","
","""event"",""trial"",""time""
""focus"",""0"",""2""
","""event"",""trial"",""time""
""fullscreenenter"",""1"",""3097""
","
","","[{""page_index"":0,""viewing_time"":13508},{""page_index"":1,""viewing_time"":12319},{""page_index"":2,""viewing_time"":16464},{""page_index"":3,""viewing_time"":5992},{""page_index"":4,""viewing_time"":6992},{""page_index"":5,""viewing_time"":7536},{""page_index"":6,""viewing_time"":10976},{""page_index"":7,""viewing_time"":6049},{""page_index"":8,""viewing_time"":6288},{""page_index"":9,""viewing_time"":11268},{""page_index"":10,""viewing_time"":10011},{""page_index"":11,""viewing_time"":8768},{""page_index"":12,""viewing_time"":8168},{""page_index"":13,""viewing_time"":5112}]","129451","","","","","","","","","","","","","","","","","","","","","","","",""
"pit-trial","8","161649","0.0-2.0-4.0-0.0","battery-v0.2","","""event"",""trial"",""time""
""focus"",""0"",""2""
""fullscreenenter"",""1"",""3097""
","
","""event"",""trial"",""time""
""focus"",""0"",""2""
","""event"",""trial"",""time""
""fullscreenenter"",""1"",""3097""
","
","","","631","","","15","5979","3495","&#9784;","elianto","#FFFFF080"," "," ","1","&#10004","[1490]","1","0","0","","","","","","","",""
"pit-trial","9","165328","0.0-2.0-4.1-0.1","battery-v0.2","","""event"",""trial"",""time""
""focus"",""0"",""2""
""fullscreenenter"",""1"",""3097""
","
","""event"",""trial"",""time""
""focus"",""0"",""2""
","""event"",""trial"",""time""
""fullscreenenter"",""1"",""3097""
","
","","","802","","","15","5979","3495","&#9784;","elianto","#FFFFF080"," "," ","1","&#10004","[1662]","1","0","0","","","","","","","",""
"pit-trial","10","168794","0.0-2.0-4.2-0.2","battery-v0.2","","""event"",""trial"",""time""
""focus"",""0"",""2""
""fullscreenenter"",""1"",""3097""
","
","""event"",""trial"",""time""
""focus"",""0"",""2""
","""event"",""trial"",""time""
""fullscreenenter"",""1"",""3097""
","
","","","595","","","15","5979","3495","&#9784;","elianto","#FFFFF080"," "," ","1","&#10004","[1448]","1","0","0","","","","","","","",""
"pit-trial","11","172213","0.0-2.0-4.3-0.3","battery-v0.2","","""event"",""trial"",""time""
""focus"",""0"",""2""
""fullscreenenter"",""1"",""3097""
","
","""event"",""trial"",""time""
""focus"",""0"",""2""
","""event"",""trial"",""time""
""fullscreenenter"",""1"",""3097""
","
","","","551","","","15","5979","3495","&#9784;","elianto","#FFFFF080"," "," ","1","&#10004","[1413]","1","0","0","","","","","","","",""
"pit-trial","12","175828","0.0-2.0-4.4-0.4","battery-v0.2","","""event"",""trial"",""time""
""focus"",""0"",""2""
""fullscreenenter"",""1"",""3097""
","
","""event"",""trial"",""time""
""focus"",""0"",""2""
","""event"",""trial"",""time""
""fullscreenenter"",""1"",""3097""
","
","","","736","","","15","5979","3495","&#9784;","elianto","#FFFFF080"," "," ","1","&#10004","[1595]","1","0","0","","","","","","","",""
"pit-instructions","13","201462","0.0-2.0-5.0","battery-v0.2","","""event"",""trial"",""time""
""focus"",""0"",""2""
""fullscreenenter"",""1"",""3097""
","
","""event"",""trial"",""time""
""focus"",""0"",""2""
","""event"",""trial"",""time""
""fullscreenenter"",""1"",""3097""
","
","","[{""page_index"":0,""viewing_time"":8572},{""page_index"":1,""viewing_time"":6704},{""page_index"":2,""viewing_time"":4656},{""page_index"":3,""viewing_time"":5695}]","25628","","","","","","","","","","","","","","","","","","","","","","","",""
"pit-trial","14","206328","0.0-2.0-6.0-0.0","battery-v0.2","","""event"",""trial"",""time""
""focus"",""0"",""2""
""fullscreenenter"",""1"",""3097""
","
","""event"",""trial"",""time""
""focus"",""0"",""2""
","""event"",""trial"",""time""
""fullscreenenter"",""1"",""3097""
","
","","","-1","","","15","5979","3495","&#9854;","elianto","#FFFFF080","-1","-1","1","&#10004","[]","0","0","1","","","","","","","",""
"pit-trial","15","211209","0.0-2.0-6.1-0.1","battery-v0.2","","""event"",""trial"",""time""
""focus"",""0"",""2""
""fullscreenenter"",""1"",""3097""
","
","""event"",""trial"",""time""
""focus"",""0"",""2""
","""event"",""trial"",""time""
""fullscreenenter"",""1"",""3097""
","
","","","-1","","","15","5979","3495","&#9854;","elianto","#FFFFF080","-1","-1","1","&#10004","[]","0","0","1","","","","","","","",""
"pit-trial","16","216088","0.0-2.0-6.2-0.2","battery-v0.2","","""event"",""trial"",""time""
""focus"",""0"",""2""
""fullscreenenter"",""1"",""3097""
","
","""event"",""trial"",""time""
""focus"",""0"",""2""
","""event"",""trial"",""time""
""fullscreenenter"",""1"",""3097""
","
","","","-1","","","15","5979","3495","&#9854;","elianto","#FFFFF080","-1","-1","1","&#10004","[]","0","0","1","","","","","","","",""
"pit-trial","17","220969","0.0-2.0-6.3-0.3","battery-v0.2","","""event"",""trial"",""time""
""focus"",""0"",""2""
""fullscreenenter"",""1"",""3097""
","
","""event"",""trial"",""time""
""focus"",""0"",""2""
","""event"",""trial"",""time""
""fullscreenenter"",""1"",""3097""
","
","","","-1","","","15","5979","3495","&#9854;","elianto","#FFFFF080","-1","-1","1","&#10004","[]","0","0","1","","","","","","","",""
"pit-trial","18","225844","0.0-2.0-6.4-0.4","battery-v0.2","","""event"",""trial"",""time""
""focus"",""0"",""2""
""fullscreenenter"",""1"",""3097""
","
","""event"",""trial"",""time""
""focus"",""0"",""2""
","""event"",""trial"",""time""
""fullscreenenter"",""1"",""3097""
","
","","","-1","","","15","5979","3495","&#9854;","elianto","#FFFFF080","-1","-1","1","&#10004","[]","0","0","1","","","","","","","",""
"pit-instructions","19","362157","0.0-2.0-7.0","battery-v0.2","","""event"",""trial"",""time""
""focus"",""0"",""2""
""fullscreenenter"",""1"",""3097""
","
","""event"",""trial"",""time""
""focus"",""0"",""2""
","""event"",""trial"",""time""
""fullscreenenter"",""1"",""3097""
","
","","[{""page_index"":0,""viewing_time"":7458},{""page_index"":1,""viewing_time"":6856},{""page_index"":2,""viewing_time"":5975},{""page_index"":3,""viewing_time"":7121},{""page_index"":4,""viewing_time"":7743},{""page_index"":5,""viewing_time"":7632},{""page_index"":6,""viewing_time"":8897},{""page_index"":7,""viewing_time"":10583},{""page_index"":8,""viewing_time"":9760},{""page_index"":9,""viewing_time"":6880},{""page_index"":10,""viewing_time"":6305},{""page_index"":11,""viewing_time"":6215},{""page_index"":12,""viewing_time"":7656},{""page_index"":13,""viewing_time"":8152},{""page_index"":14,""viewing_time"":7768},{""page_index"":15,""viewing_time"":6656},{""page_index"":16,""viewing_time"":7800},{""page_index"":17,""viewing_time"":6848}]","136305","","","","","","","","","","","","","","","","","","","","","","","",""
"pit-trial","20","367023","0.0-2.0-8.0-0.0","battery-v0.2","","""event"",""trial"",""time""
""focus"",""0"",""2""
""fullscreenenter"",""1"",""3097""
","
","""event"",""trial"",""time""
""focus"",""0"",""2""
","""event"",""trial"",""time""
""fullscreenenter"",""1"",""3097""
","
","","","-1","","","15","5979","3495","&#9776;","elianto","#3366ff99"," ","-1","0","0","[]","0","0","1","","","","","","","",""
"pit-trial","21","371907","0.0-2.0-8.0-1.0","battery-v0.2","","""event"",""trial"",""time""
""focus"",""0"",""2""
""fullscreenenter"",""1"",""3097""
","
","""event"",""trial"",""time""
""focus"",""0"",""2""
","""event"",""trial"",""time""
""fullscreenenter"",""1"",""3097""
","
","","","-1","","","15","5979","3495","&#9776;","elianto","#3366ff99"," ","-1","0","0","[]","0","0","1","","","","","","","",""
"pit-trial","22","375283","0.0-2.0-8.0-2.0","battery-v0.2","","""event"",""trial"",""time""
""focus"",""0"",""2""
""fullscreenenter"",""1"",""3097""
","
","""event"",""trial"",""time""
""focus"",""0"",""2""
","""event"",""trial"",""time""
""fullscreenenter"",""1"",""3097""
","
","","","497","","","15","5979","3495","&#9776;","elianto","#3366ff99"," "," ","1","+10","[1358]","1","0","1","","","","","","","",""
"pit-trial","23","378512","0.0-2.0-8.0-3.0","battery-v0.2","","""event"",""trial"",""time""
""focus"",""0"",""2""
""fullscreenenter"",""1"",""3097""
","
","""event"",""trial"",""time""
""focus"",""0"",""2""
","""event"",""trial"",""time""
""fullscreenenter"",""1"",""3097""
","
","","","349","","","15","5979","3495","&#9776;","elianto","#3366ff99"," "," ","1","0","[1204,2620]","2","0","1","","","","","","","",""
"pit-trial","24","381912","0.0-2.0-8.0-4.0","battery-v0.2","","""event"",""trial"",""time""
""focus"",""0"",""2""
""fullscreenenter"",""1"",""3097""
","
","""event"",""trial"",""time""
""focus"",""0"",""2""
","""event"",""trial"",""time""
""fullscreenenter"",""1"",""3097""
","
","","","533","","","15","5979","3495","&#9776;","elianto","#3366ff99"," "," ","1","+10","[1385]","1","0","1","","","","","","","",""
"pit-trial","25","385271","0.0-2.0-8.1-0.1","battery-v0.2","","""event"",""trial"",""time""
""focus"",""0"",""2""
""fullscreenenter"",""1"",""3097""
","
","""event"",""trial"",""time""
""focus"",""0"",""2""
","""event"",""trial"",""time""
""fullscreenenter"",""1"",""3097""
","
","","","485","","","15","5979","3495","&#9776;","elianto","#3366ff99"," "," ","1","+10","[1343]","1","0","1","","","","","","","",""
"pit-trial","26","388622","0.0-2.0-8.1-1.1","battery-v0.2","","""event"",""trial"",""time""
""focus"",""0"",""2""
""fullscreenenter"",""1"",""3097""
","
","""event"",""trial"",""time""
""focus"",""0"",""2""
","""event"",""trial"",""time""
""fullscreenenter"",""1"",""3097""
","
","","","487","","","15","5979","3495","&#9776;","elianto","#3366ff99"," "," ","1","+10","[1345]","1","0","1","","","","","","","",""
"pit-trial","27","391962","0.0-2.0-8.1-2.1","battery-v0.2","","""event"",""trial"",""time""
""focus"",""0"",""2""
""fullscreenenter"",""1"",""3097""
","
","""event"",""trial"",""time""
""focus"",""0"",""2""
","""event"",""trial"",""time""
""fullscreenenter"",""1"",""3097""
","
","","","461","","","15","5979","3495","&#9776;","elianto","#3366ff99"," "," ","1","+10","[1322]","1","0","1","","","","","","","",""
"pit-trial","28","395008","0.0-2.0-8.1-3.1","battery-v0.2","","""event"",""trial"",""time""
""focus"",""0"",""2""
""fullscreenenter"",""1"",""3097""
","
","""event"",""trial"",""time""
""focus"",""0"",""2""
","""event"",""trial"",""time""
""fullscreenenter"",""1"",""3097""
","
","","","177","","","15","5979","3495","&#9776;","elianto","#3366ff99"," "," ","1","0","[1038]","1","0","1","","","","","","","",""
"pit-trial","29","398258","0.0-2.0-8.1-4.1","battery-v0.2","","""event"",""trial"",""time""
""focus"",""0"",""2""
""fullscreenenter"",""1"",""3097""
","
","""event"",""trial"",""time""
""focus"",""0"",""2""
","""event"",""trial"",""time""
""fullscreenenter"",""1"",""3097""
","
","","","386","","","15","5979","3495","&#9776;","elianto","#3366ff99"," "," ","1","+10","[1240]","1","0","1","","","","","","","",""
"pit-trial","30","401772","0.0-2.0-8.2-0.2","battery-v0.2","","""event"",""trial"",""time""
""focus"",""0"",""2""
""fullscreenenter"",""1"",""3097""
","
","""event"",""trial"",""time""
""focus"",""0"",""2""
","""event"",""trial"",""time""
""fullscreenenter"",""1"",""3097""
","
","","","637","","","15","5979","3495","&#9776;","elianto","#3366ff99"," "," ","1","+10","[1502]","1","0","1","","","","","","","",""
"pit-trial","31","405197","0.0-2.0-8.2-1.2","battery-v0.2","","""event"",""trial"",""time""
""focus"",""0"",""2""
""fullscreenenter"",""1"",""3097""
","
","""event"",""trial"",""time""
""focus"",""0"",""2""
","""event"",""trial"",""time""
""fullscreenenter"",""1"",""3097""
","
","","","568","","","15","5979","3495","&#9776;","elianto","#3366ff99"," "," ","1","+10","[1420]","1","0","1","","","","","","","",""
"pit-trial","32","408657","0.0-2.0-8.2-2.2","battery-v0.2","","""event"",""trial"",""time""
""focus"",""0"",""2""
""fullscreenenter"",""1"",""3097""
","
","""event"",""trial"",""time""
""focus"",""0"",""2""
","""event"",""trial"",""time""
""fullscreenenter"",""1"",""3097""
","
","","","582","","","15","5979","3495","&#9776;","elianto","#3366ff99"," "," ","1","+10","[1444]","1","0","1","","","","","","","",""
"pit-trial","33","412012","0.0-2.0-8.2-3.2","battery-v0.2","","""event"",""trial"",""time""
""focus"",""0"",""2""
""fullscreenenter"",""1"",""3097""
","
","""event"",""trial"",""time""
""focus"",""0"",""2""
","""event"",""trial"",""time""
""fullscreenenter"",""1"",""3097""
","
","","","499","","","15","5979","3495","&#9776;","elianto","#3366ff99"," "," ","1","0","[1350]","1","0","1","","","","","","","",""
"pit-trial","34","415267","0.0-2.0-8.2-4.2","battery-v0.2","","""event"",""trial"",""time""
""focus"",""0"",""2""
""fullscreenenter"",""1"",""3097""
","
","""event"",""trial"",""time""
""focus"",""0"",""2""
","""event"",""trial"",""time""
""fullscreenenter"",""1"",""3097""
","
","","","393","","","15","5979","3495","&#9776;","elianto","#3366ff99"," "," ","1","+10","[1244]","1","0","1","","","","","","","",""
"call-function","35","415270","0.0-2.0-9.0","battery-v0.2","","""event"",""trial"",""time""
""focus"",""0"",""2""
""fullscreenenter"",""1"",""3097""
","
","""event"",""trial"",""time""
""focus"",""0"",""2""
","""event"",""trial"",""time""
""fullscreenenter"",""1"",""3097""
","
","","","","","","","","","","","","","","","","","","","","","","","","","","",""
"pit-instructions","36","456052","0.0-2.0-10.0","battery-v0.2","","""event"",""trial"",""time""
""focus"",""0"",""2""
""fullscreenenter"",""1"",""3097""
","
","""event"",""trial"",""time""
""focus"",""0"",""2""
","""event"",""trial"",""time""
""fullscreenenter"",""1"",""3097""
","
","","[{""page_index"":0,""viewing_time"":5756},{""page_index"":1,""viewing_time"":7784},{""page_index"":2,""viewing_time"":9160},{""page_index"":3,""viewing_time"":9528},{""page_index"":4,""viewing_time"":8551}]","40780","","","","","","","","","","","","","","","","","","","","","","","",""
"pit-trial","37","460039","0.0-2.0-11.0-0.0","battery-v0.2","","""event"",""trial"",""time""
""focus"",""0"",""2""
""fullscreenenter"",""1"",""3097""
","
","""event"",""trial"",""time""
""focus"",""0"",""2""
","""event"",""trial"",""time""
""fullscreenenter"",""1"",""3097""
","
","","","1118","","","15","5979","3495","&#9761;","elianto","#3366ff99","-1"," ","0","0","[1974]","1","0","2","","","","","","","",""
"pit-trial","38","463337","0.0-2.0-11.0-1.0","battery-v0.2","","""event"",""trial"",""time""
""focus"",""0"",""2""
""fullscreenenter"",""1"",""3097""
","
","""event"",""trial"",""time""
""focus"",""0"",""2""
","""event"",""trial"",""time""
""fullscreenenter"",""1"",""3097""
","
","","","431","","","15","5979","3495","&#9761;","elianto","#3366ff99","-1"," ","0","0","[1289]","1","0","2","","","","","","","",""
"pit-trial","39","468208","0.0-2.0-11.0-2.0","battery-v0.2","","""event"",""trial"",""time""
""focus"",""0"",""2""
""fullscreenenter"",""1"",""3097""
","
","""event"",""trial"",""time""
""focus"",""0"",""2""
","""event"",""trial"",""time""
""fullscreenenter"",""1"",""3097""
","
","","","-1","","","15","5979","3495","&#9761;","elianto","#3366ff99","-1","-1","1","+10","[]","0","0","2","","","","","","","",""
"pit-trial","40","473097","0.0-2.0-11.0-3.0","battery-v0.2","","""event"",""trial"",""time""
""focus"",""0"",""2""
""fullscreenenter"",""1"",""3097""
","
","""event"",""trial"",""time""
""focus"",""0"",""2""
","""event"",""trial"",""time""
""fullscreenenter"",""1"",""3097""
","
","","","-1","","","15","5979","3495","&#9761;","elianto","#3366ff99","-1","-1","1","0","[]","0","0","2","","","","","","","",""
"pit-trial","41","477957","0.0-2.0-11.0-4.0","battery-v0.2","","""event"",""trial"",""time""
""focus"",""0"",""2""
""fullscreenenter"",""1"",""3097""
","
","""event"",""trial"",""time""
""focus"",""0"",""2""
","""event"",""trial"",""time""
""fullscreenenter"",""1"",""3097""
","
","","","-1","","","15","5979","3495","&#9761;","elianto","#3366ff99","-1","-1","1","+10","[]","0","0","2","","","","","","","",""
"pit-trial","42","482832","0.0-2.0-11.1-0.1","battery-v0.2","","""event"",""trial"",""time""
""focus"",""0"",""2""
""fullscreenenter"",""1"",""3097""
","
","""event"",""trial"",""time""
""focus"",""0"",""2""
","""event"",""trial"",""time""
""fullscreenenter"",""1"",""3097""
","
","","","-1","","","15","5979","3495","&#9761;","elianto","#3366ff99","-1","-1","1","+10","[]","0","0","2","","","","","","","",""
"pit-trial","43","487692","0.0-2.0-11.1-1.1","battery-v0.2","","""event"",""trial"",""time""
""focus"",""0"",""2""
""fullscreenenter"",""1"",""3097""
","
","""event"",""trial"",""time""
""focus"",""0"",""2""
","""event"",""trial"",""time""
""fullscreenenter"",""1"",""3097""
","
","","","-1","","","15","5979","3495","&#9761;","elianto","#3366ff99","-1","-1","1","+10","[]","0","0","2","","","","","","","",""
"pit-trial","44","492557","0.0-2.0-11.1-2.1","battery-v0.2","","""event"",""trial"",""time""
""focus"",""0"",""2""
""fullscreenenter"",""1"",""3097""
","
","""event"",""trial"",""time""
""focus"",""0"",""2""
","""event"",""trial"",""time""
""fullscreenenter"",""1"",""3097""
","
","","","-1","","","15","5979","3495","&#9761;","elianto","#3366ff99","-1","-1","1","+10","[]","0","0","2","","","","","","","",""
"pit-trial","45","497427","0.0-2.0-11.1-3.1","battery-v0.2","","""event"",""trial"",""time""
""focus"",""0"",""2""
""fullscreenenter"",""1"",""3097""
","
","""event"",""trial"",""time""
""focus"",""0"",""2""
","""event"",""trial"",""time""
""fullscreenenter"",""1"",""3097""
","
","","","-1","","","15","5979","3495","&#9761;","elianto","#3366ff99","-1","-1","1","0","[]","0","0","2","","","","","","","",""
"pit-trial","46","502292","0.0-2.0-11.1-4.1","battery-v0.2","","""event"",""trial"",""time""
""focus"",""0"",""2""
""fullscreenenter"",""1"",""3097""
","
","""event"",""trial"",""time""
""focus"",""0"",""2""
","""event"",""trial"",""time""
""fullscreenenter"",""1"",""3097""
","
","","","-1","","","15","5979","3495","&#9761;","elianto","#3366ff99","-1","-1","1","+10","[]","0","0","2","","","","","","","",""
"pit-trial","47","507152","0.0-2.0-11.2-0.2","battery-v0.2","","""event"",""trial"",""time""
""focus"",""0"",""2""
""fullscreenenter"",""1"",""3097""
","
","""event"",""trial"",""time""
""focus"",""0"",""2""
","""event"",""trial"",""time""
""fullscreenenter"",""1"",""3097""
","
","","","-1","","","15","5979","3495","&#9761;","elianto","#3366ff99","-1","-1","1","+10","[]","0","0","2","","","","","","","",""
"pit-trial","48","512038","0.0-2.0-11.2-1.2","battery-v0.2","","""event"",""trial"",""time""
""focus"",""0"",""2""
""fullscreenenter"",""1"",""3097""
","
","""event"",""trial"",""time""
""focus"",""0"",""2""
","""event"",""trial"",""time""
""fullscreenenter"",""1"",""3097""
","
","","","-1","","","15","5979","3495","&#9761;","elianto","#3366ff99","-1","-1","1","+10","[]","0","0","2","","","","","","","",""
"pit-trial","49","516918","0.0-2.0-11.2-2.2","battery-v0.2","","""event"",""trial"",""time""
""focus"",""0"",""2""
""fullscreenenter"",""1"",""3097""
","
","""event"",""trial"",""time""
""focus"",""0"",""2""
","""event"",""trial"",""time""
""fullscreenenter"",""1"",""3097""
","
","","","-1","","","15","5979","3495","&#9761;","elianto","#3366ff99","-1","-1","1","+10","[]","0","0","2","","","","","","","",""
"pit-trial","50","521787","0.0-2.0-11.2-3.2","battery-v0.2","","""event"",""trial"",""time""
""focus"",""0"",""2""
""fullscreenenter"",""1"",""3097""
","
","""event"",""trial"",""time""
""focus"",""0"",""2""
","""event"",""trial"",""time""
""fullscreenenter"",""1"",""3097""
","
","","","-1","","","15","5979","3495","&#9761;","elianto","#3366ff99","-1","-1","1","0","[]","0","0","2","","","","","","","",""
"pit-trial","51","526668","0.0-2.0-11.2-4.2","battery-v0.2","","""event"",""trial"",""time""
""focus"",""0"",""2""
""fullscreenenter"",""1"",""3097""
","
","""event"",""trial"",""time""
""focus"",""0"",""2""
","""event"",""trial"",""time""
""fullscreenenter"",""1"",""3097""
","
","","","-1","","","15","5979","3495","&#9761;","elianto","#3366ff99","-1","-1","1","+10","[]","0","0","2","","","","","","","",""
"pit-trial","52","531547","0.0-2.0-11.3-0.3","battery-v0.2","","""event"",""trial"",""time""
""focus"",""0"",""2""
""fullscreenenter"",""1"",""3097""
","
","""event"",""trial"",""time""
""focus"",""0"",""2""
","""event"",""trial"",""time""
""fullscreenenter"",""1"",""3097""
","
","","","-1","","","15","5979","3495","&#9761;","elianto","#3366ff99","-1","-1","1","+10","[]","0","0","2","","","","","","","",""
"pit-trial","53","536422","0.0-2.0-11.3-1.3","battery-v0.2","","""event"",""trial"",""time""
""focus"",""0"",""2""
""fullscreenenter"",""1"",""3097""
","
","""event"",""trial"",""time""
""focus"",""0"",""2""
","""event"",""trial"",""time""
""fullscreenenter"",""1"",""3097""
","
","","","-1","","","15","5979","3495","&#9761;","elianto","#3366ff99","-1","-1","1","+10","[]","0","0","2","","","","","","","",""
"pit-trial","54","541297","0.0-2.0-11.3-2.3","battery-v0.2","","""event"",""trial"",""time""
""focus"",""0"",""2""
""fullscreenenter"",""1"",""3097""
","
","""event"",""trial"",""time""
""focus"",""0"",""2""
","""event"",""trial"",""time""
""fullscreenenter"",""1"",""3097""
","
","","","-1","","","15","5979","3495","&#9761;","elianto","#3366ff99","-1","-1","1","+10","[]","0","0","2","","","","","","","",""
"pit-trial","55","546151","0.0-2.0-11.3-3.3","battery-v0.2","","""event"",""trial"",""time""
""focus"",""0"",""2""
""fullscreenenter"",""1"",""3097""
","
","""event"",""trial"",""time""
""focus"",""0"",""2""
","""event"",""trial"",""time""
""fullscreenenter"",""1"",""3097""
","
","","","-1","","","15","5979","3495","&#9761;","elianto","#3366ff99","-1","-1","1","0","[]","0","0","2","","","","","","","",""
"pit-trial","56","551021","0.0-2.0-11.3-4.3","battery-v0.2","","""event"",""trial"",""time""
""focus"",""0"",""2""
""fullscreenenter"",""1"",""3097""
","
","""event"",""trial"",""time""
""focus"",""0"",""2""
","""event"",""trial"",""time""
""fullscreenenter"",""1"",""3097""
","
","","","-1","","","15","5979","3495","&#9761;","elianto","#3366ff99","-1","-1","1","+10","[]","0","0","2","","","","","","","",""
"call-function","57","551024","0.0-2.0-12.0","battery-v0.2","","""event"",""trial"",""time""
""focus"",""0"",""2""
""fullscreenenter"",""1"",""3097""
","
","""event"",""trial"",""time""
""focus"",""0"",""2""
","""event"",""trial"",""time""
""fullscreenenter"",""1"",""3097""
","
","","","","","","","","","","","","","","","","","","","","","","","","","","",""
"pit-instructions","58","587548","0.0-2.0-13.0","battery-v0.2","","""event"",""trial"",""time""
""focus"",""0"",""2""
""fullscreenenter"",""1"",""3097""
","
","""event"",""trial"",""time""
""focus"",""0"",""2""
","""event"",""trial"",""time""
""fullscreenenter"",""1"",""3097""
","
","","[{""page_index"":0,""viewing_time"":7354},{""page_index"":1,""viewing_time"":8120},{""page_index"":2,""viewing_time"":4960},{""page_index"":3,""viewing_time"":11152},{""page_index"":4,""viewing_time"":4936}]","36522","","","","","","","","","","","","","","","","","","","","","","","",""
"pit-trial","59","590877","0.0-2.0-14.0-0.0","battery-v0.2","","""event"",""trial"",""time""
""focus"",""0"",""2""
""fullscreenenter"",""1"",""3097""
","
","""event"",""trial"",""time""
""focus"",""0"",""2""
","""event"",""trial"",""time""
""fullscreenenter"",""1"",""3097""
","
","","","452","","","15","5979","3495","&#9826;","elianto","#f73b6a7A","-1"," ","0","-10","[1322]","1","0","3","","","","","","","",""
"pit-trial","60","595756","0.0-2.0-14.0-1.0","battery-v0.2","","""event"",""trial"",""time""
""focus"",""0"",""2""
""fullscreenenter"",""1"",""3097""
","
","""event"",""trial"",""time""
""focus"",""0"",""2""
","""event"",""trial"",""time""
""fullscreenenter"",""1"",""3097""
","
","","","-1","","","15","5979","3495","&#9826;","elianto","#f73b6a7A","-1","-1","1","0","[]","0","0","3","","","","","","","",""
"pit-trial","61","600646","0.0-2.0-14.0-2.0","battery-v0.2","","""event"",""trial"",""time""
""focus"",""0"",""2""
""fullscreenenter"",""1"",""3097""
","
","""event"",""trial"",""time""
""focus"",""0"",""2""
","""event"",""trial"",""time""
""fullscreenenter"",""1"",""3097""
","
","","","-1","","","15","5979","3495","&#9826;","elianto","#f73b6a7A","-1","-1","1","0","[]","0","0","3","","","","","","","",""
"pit-trial","62","605507","0.0-2.0-14.0-3.0","battery-v0.2","","""event"",""trial"",""time""
""focus"",""0"",""2""
""fullscreenenter"",""1"",""3097""
","
","""event"",""trial"",""time""
""focus"",""0"",""2""
","""event"",""trial"",""time""
""fullscreenenter"",""1"",""3097""
","
","","","-1","","","15","5979","3495","&#9826;","elianto","#f73b6a7A","-1","-1","1","-10","[]","0","0","3","","","","","","","",""
"pit-trial","63","610391","0.0-2.0-14.0-4.0","battery-v0.2","","""event"",""trial"",""time""
""focus"",""0"",""2""
""fullscreenenter"",""1"",""3097""
","
","""event"",""trial"",""time""
""focus"",""0"",""2""
","""event"",""trial"",""time""
""fullscreenenter"",""1"",""3097""
","
","","","-1","","","15","5979","3495","&#9826;","elianto","#f73b6a7A","-1","-1","1","0","[]","0","0","3","","","","","","","",""
"pit-trial","64","615271","0.0-2.0-14.1-0.1","battery-v0.2","","""event"",""trial"",""time""
""focus"",""0"",""2""
""fullscreenenter"",""1"",""3097""
","
","""event"",""trial"",""time""
""focus"",""0"",""2""
","""event"",""trial"",""time""
""fullscreenenter"",""1"",""3097""
","
","","","-1","","","15","5979","3495","&#9826;","elianto","#f73b6a7A","-1","-1","1","0","[]","0","0","3","","","","","","","",""
"pit-trial","65","620147","0.0-2.0-14.1-1.1","battery-v0.2","","""event"",""trial"",""time""
""focus"",""0"",""2""
""fullscreenenter"",""1"",""3097""
","
","""event"",""trial"",""time""
""focus"",""0"",""2""
","""event"",""trial"",""time""
""fullscreenenter"",""1"",""3097""
","
","","","-1","","","15","5979","3495","&#9826;","elianto","#f73b6a7A","-1","-1","1","0","[]","0","0","3","","","","","","","",""
"pit-trial","66","625011","0.0-2.0-14.1-2.1","battery-v0.2","","""event"",""trial"",""time""
""focus"",""0"",""2""
""fullscreenenter"",""1"",""3097""
","
","""event"",""trial"",""time""
""focus"",""0"",""2""
","""event"",""trial"",""time""
""fullscreenenter"",""1"",""3097""
","
","","","-1","","","15","5979","3495","&#9826;","elianto","#f73b6a7A","-1","-1","1","0","[]","0","0","3","","","","","","","",""
"pit-trial","67","629876","0.0-2.0-14.1-3.1","battery-v0.2","","""event"",""trial"",""time""
""focus"",""0"",""2""
""fullscreenenter"",""1"",""3097""
","
","""event"",""trial"",""time""
""focus"",""0"",""2""
","""event"",""trial"",""time""
""fullscreenenter"",""1"",""3097""
","
","","","-1","","","15","5979","3495","&#9826;","elianto","#f73b6a7A","-1","-1","1","-10","[]","0","0","3","","","","","","","",""
"pit-trial","68","634751","0.0-2.0-14.1-4.1","battery-v0.2","","""event"",""trial"",""time""
""focus"",""0"",""2""
""fullscreenenter"",""1"",""3097""
","
","""event"",""trial"",""time""
""focus"",""0"",""2""
","""event"",""trial"",""time""
""fullscreenenter"",""1"",""3097""
","
","","","-1","","","15","5979","3495","&#9826;","elianto","#f73b6a7A","-1","-1","1","0","[]","0","0","3","","","","","","","",""
"pit-trial","69","639626","0.0-2.0-14.2-0.2","battery-v0.2","","""event"",""trial"",""time""
""focus"",""0"",""2""
""fullscreenenter"",""1"",""3097""
","
","""event"",""trial"",""time""
""focus"",""0"",""2""
","""event"",""trial"",""time""
""fullscreenenter"",""1"",""3097""
","
","","","-1","","","15","5979","3495","&#9826;","elianto","#f73b6a7A","-1","-1","1","0","[]","0","0","3","","","","","","","",""
"pit-trial","70","644496","0.0-2.0-14.2-1.2","battery-v0.2","","""event"",""trial"",""time""
""focus"",""0"",""2""
""fullscreenenter"",""1"",""3097""
","
","""event"",""trial"",""time""
""focus"",""0"",""2""
","""event"",""trial"",""time""
""fullscreenenter"",""1"",""3097""
","
","","","-1","","","15","5979","3495","&#9826;","elianto","#f73b6a7A","-1","-1","1","0","[]","0","0","3","","","","","","","",""
"pit-trial","71","649361","0.0-2.0-14.2-2.2","battery-v0.2","","""event"",""trial"",""time""
""focus"",""0"",""2""
""fullscreenenter"",""1"",""3097""
","
","""event"",""trial"",""time""
""focus"",""0"",""2""
","""event"",""trial"",""time""
""fullscreenenter"",""1"",""3097""
","
","","","-1","","","15","5979","3495","&#9826;","elianto","#f73b6a7A","-1","-1","1","0","[]","0","0","3","","","","","","","",""
"pit-trial","72","654231","0.0-2.0-14.2-3.2","battery-v0.2","","""event"",""trial"",""time""
""focus"",""0"",""2""
""fullscreenenter"",""1"",""3097""
","
","""event"",""trial"",""time""
""focus"",""0"",""2""
","""event"",""trial"",""time""
""fullscreenenter"",""1"",""3097""
","
","","","-1","","","15","5979","3495","&#9826;","elianto","#f73b6a7A","-1","-1","1","-10","[]","0","0","3","","","","","","","",""
"pit-trial","73","657631","0.0-2.0-14.2-4.2","battery-v0.2","","""event"",""trial"",""time""
""focus"",""0"",""2""
""fullscreenenter"",""1"",""3097""
","
","""event"",""trial"",""time""
""focus"",""0"",""2""
","""event"",""trial"",""time""
""fullscreenenter"",""1"",""3097""
","
","","","532","","","15","5979","3495","&#9826;","elianto","#f73b6a7A","-1"," ","0","-10","[1393]","1","0","3","","","","","","","",""
"pit-trial","74","661125","0.0-2.0-14.3-0.3","battery-v0.2","","""event"",""trial"",""time""
""focus"",""0"",""2""
""fullscreenenter"",""1"",""3097""
","
","""event"",""trial"",""time""
""focus"",""0"",""2""
","""event"",""trial"",""time""
""fullscreenenter"",""1"",""3097""
","
","","","629","","","15","5979","3495","&#9826;","elianto","#f73b6a7A","-1"," ","0","-10","[1479]","1","0","3","","","","","","","",""
"pit-trial","75","665991","0.0-2.0-14.3-1.3","battery-v0.2","","""event"",""trial"",""time""
""focus"",""0"",""2""
""fullscreenenter"",""1"",""3097""
","
","""event"",""trial"",""time""
""focus"",""0"",""2""
","""event"",""trial"",""time""
""fullscreenenter"",""1"",""3097""
","
","","","-1","","","15","5979","3495","&#9826;","elianto","#f73b6a7A","-1","-1","1","0","[]","0","0","3","","","","","","","",""
"pit-trial","76","670871","0.0-2.0-14.3-2.3","battery-v0.2","","""event"",""trial"",""time""
""focus"",""0"",""2""
""fullscreenenter"",""1"",""3097""
","
","""event"",""trial"",""time""
""focus"",""0"",""2""
","""event"",""trial"",""time""
""fullscreenenter"",""1"",""3097""
","
","","","-1","","","15","5979","3495","&#9826;","elianto","#f73b6a7A","-1","-1","1","0","[]","0","0","3","","","","","","","",""
"pit-trial","77","675737","0.0-2.0-14.3-3.3","battery-v0.2","","""event"",""trial"",""time""
""focus"",""0"",""2""
""fullscreenenter"",""1"",""3097""
","
","""event"",""trial"",""time""
""focus"",""0"",""2""
","""event"",""trial"",""time""
""fullscreenenter"",""1"",""3097""
","
","","","-1","","","15","5979","3495","&#9826;","elianto","#f73b6a7A","-1","-1","1","-10","[]","0","0","3","","","","","","","",""
"pit-trial","78","680617","0.0-2.0-14.3-4.3","battery-v0.2","","""event"",""trial"",""time""
""focus"",""0"",""2""
""fullscreenenter"",""1"",""3097""
","
","""event"",""trial"",""time""
""focus"",""0"",""2""
","""event"",""trial"",""time""
""fullscreenenter"",""1"",""3097""
","
","","","-1","","","15","5979","3495","&#9826;","elianto","#f73b6a7A","-1","-1","1","0","[]","0","0","3","","","","","","","",""
"call-function","79","680618","0.0-2.0-15.0","battery-v0.2","","""event"",""trial"",""time""
""focus"",""0"",""2""
""fullscreenenter"",""1"",""3097""
","
","""event"",""trial"",""time""
""focus"",""0"",""2""
","""event"",""trial"",""time""
""fullscreenenter"",""1"",""3097""
","
","","","","","","","","","","","","","","","","","","","","","","","","","","",""
"pit-instructions","80","704459","0.0-2.0-16.0","battery-v0.2","","""event"",""trial"",""time""
""focus"",""0"",""2""
""fullscreenenter"",""1"",""3097""
","
","""event"",""trial"",""time""
""focus"",""0"",""2""
","""event"",""trial"",""time""
""fullscreenenter"",""1"",""3097""
","
","","[{""page_index"":0,""viewing_time"":6671},{""page_index"":1,""viewing_time"":8417},{""page_index"":2,""viewing_time"":4080},{""page_index"":3,""viewing_time"":4672}]","23840","","","","","","","","","","","","","","","","","","","","","","","",""
"pit-trial","81","707930","0.0-2.0-17.0-0.0","battery-v0.2","","""event"",""trial"",""time""
""focus"",""0"",""2""
""fullscreenenter"",""1"",""3097""
","
","""event"",""trial"",""time""
""focus"",""0"",""2""
","""event"",""trial"",""time""
""fullscreenenter"",""1"",""3097""
","
","","","608","","","15","5979","3495","&#9789;","elianto","#f73b6a7A"," "," ","1","0","[1467]","1","0","4","","","","","","","",""
"pit-trial","82","711411","0.0-2.0-17.0-1.0","battery-v0.2","","""event"",""trial"",""time""
""focus"",""0"",""2""
""fullscreenenter"",""1"",""3097""
","
","""event"",""trial"",""time""
""focus"",""0"",""2""
","""event"",""trial"",""time""
""fullscreenenter"",""1"",""3097""
","
","","","613","","","15","5979","3495","&#9789;","elianto","#f73b6a7A"," "," ","1","0","[1475]","1","0","4","","","","","","","",""
"pit-trial","83","714650","0.0-2.0-17.0-2.0","battery-v0.2","","""event"",""trial"",""time""
""focus"",""0"",""2""
""fullscreenenter"",""1"",""3097""
","
","""event"",""trial"",""time""
""focus"",""0"",""2""
","""event"",""trial"",""time""
""fullscreenenter"",""1"",""3097""
","
","","","379","","","15","5979","3495","&#9789;","elianto","#f73b6a7A"," "," ","1","0","[1236]","1","0","4","","","","","","","",""
"pit-trial","84","717836","0.0-2.0-17.0-3.0","battery-v0.2","","""event"",""trial"",""time""
""focus"",""0"",""2""
""fullscreenenter"",""1"",""3097""
","
","""event"",""trial"",""time""
""focus"",""0"",""2""
","""event"",""trial"",""time""
""fullscreenenter"",""1"",""3097""
","
","","","323","","","15","5979","3495","&#9789;","elianto","#f73b6a7A"," "," ","1","-10","[1180]","1","0","4","","","","","","","",""
"pit-trial","85","721166","0.0-2.0-17.0-4.0","battery-v0.2","","""event"",""trial"",""time""
""focus"",""0"",""2""
""fullscreenenter"",""1"",""3097""
","
","""event"",""trial"",""time""
""focus"",""0"",""2""
","""event"",""trial"",""time""
""fullscreenenter"",""1"",""3097""
","
","","","452","","","15","5979","3495","&#9789;","elianto","#f73b6a7A"," "," ","1","0","[1308]","1","0","4","","","","","","","",""
"pit-trial","86","724191","0.0-2.0-17.1-0.1","battery-v0.2","","""event"",""trial"",""time""
""focus"",""0"",""2""
""fullscreenenter"",""1"",""3097""
","
","""event"",""trial"",""time""
""focus"",""0"",""2""
","""event"",""trial"",""time""
""fullscreenenter"",""1"",""3097""
","
","","","156","","","15","5979","3495","&#9789;","elianto","#f73b6a7A"," "," ","1","0","[1008]","1","0","4","","","","","","","",""
"pit-trial","87","727480","0.0-2.0-17.1-1.1","battery-v0.2","","""event"",""trial"",""time""
""focus"",""0"",""2""
""fullscreenenter"",""1"",""3097""
","
","""event"",""trial"",""time""
""focus"",""0"",""2""
","""event"",""trial"",""time""
""fullscreenenter"",""1"",""3097""
","
","","","419","","","15","5979","3495","&#9789;","elianto","#f73b6a7A"," "," ","1","0","[1279]","1","0","4","","","","","","","",""
"pit-trial","88","730756","0.0-2.0-17.1-2.1","battery-v0.2","","""event"",""trial"",""time""
""focus"",""0"",""2""
""fullscreenenter"",""1"",""3097""
","
","""event"",""trial"",""time""
""focus"",""0"",""2""
","""event"",""trial"",""time""
""fullscreenenter"",""1"",""3097""
","
","","","404","","","15","5979","3495","&#9789;","elianto","#f73b6a7A"," "," ","1","0","[1269]","1","0","4","","","","","","","",""
"pit-trial","89","734017","0.0-2.0-17.1-3.1","battery-v0.2","","""event"",""trial"",""time""
""focus"",""0"",""2""
""fullscreenenter"",""1"",""3097""
","
","""event"",""trial"",""time""
""focus"",""0"",""2""
","""event"",""trial"",""time""
""fullscreenenter"",""1"",""3097""
","
","","","395","","","15","5979","3495","&#9789;","elianto","#f73b6a7A"," "," ","1","-10","[380,1251]","2","0","4","","","","","","","",""
"pit-trial","90","737316","0.0-2.0-17.1-4.1","battery-v0.2","","""event"",""trial"",""time""
""focus"",""0"",""2""
""fullscreenenter"",""1"",""3097""
","
","""event"",""trial"",""time""
""focus"",""0"",""2""
","""event"",""trial"",""time""
""fullscreenenter"",""1"",""3097""
","
","","","428","","","15","5979","3495","&#9789;","elianto","#f73b6a7A"," "," ","1","0","[1287]","1","0","4","","","","","","","",""
"pit-trial","91","740630","0.0-2.0-17.2-0.2","battery-v0.2","","""event"",""trial"",""time""
""focus"",""0"",""2""
""fullscreenenter"",""1"",""3097""
","
","""event"",""trial"",""time""
""focus"",""0"",""2""
","""event"",""trial"",""time""
""fullscreenenter"",""1"",""3097""
","
","","","445","","","15","5979","3495","&#9789;","elianto","#f73b6a7A"," "," ","1","0","[1307]","1","0","4","","","","","","","",""
"pit-trial","92","744027","0.0-2.0-17.2-1.2","battery-v0.2","","""event"",""trial"",""time""
""focus"",""0"",""2""
""fullscreenenter"",""1"",""3097""
","
","""event"",""trial"",""time""
""focus"",""0"",""2""
","""event"",""trial"",""time""
""fullscreenenter"",""1"",""3097""
","
","","","527","","","15","5979","3495","&#9789;","elianto","#f73b6a7A"," "," ","1","0","[1385]","1","0","4","","","","","","","",""
"pit-trial","93","747221","0.0-2.0-17.2-2.2","battery-v0.2","","""event"",""trial"",""time""
""focus"",""0"",""2""
""fullscreenenter"",""1"",""3097""
","
","""event"",""trial"",""time""
""focus"",""0"",""2""
","""event"",""trial"",""time""
""fullscreenenter"",""1"",""3097""
","
","","","319","","","15","5979","3495","&#9789;","elianto","#f73b6a7A"," "," ","1","0","[1179]","1","0","4","","","","","","","",""
"pit-trial","94","750516","0.0-2.0-17.2-3.2","battery-v0.2","","""event"",""trial"",""time""
""focus"",""0"",""2""
""fullscreenenter"",""1"",""3097""
","
","""event"",""trial"",""time""
""focus"",""0"",""2""
","""event"",""trial"",""time""
""fullscreenenter"",""1"",""3097""
","
","","","431","","","15","5979","3495","&#9789;","elianto","#f73b6a7A"," "," ","1","-10","[1282]","1","0","4","","","","","","","",""
"pit-trial","95","753796","0.0-2.0-17.2-4.2","battery-v0.2","","""event"",""trial"",""time""
""focus"",""0"",""2""
""fullscreenenter"",""1"",""3097""
","
","""event"",""trial"",""time""
""focus"",""0"",""2""
","""event"",""trial"",""time""
""fullscreenenter"",""1"",""3097""
","
","","","411","","","15","5979","3495","&#9789;","elianto","#f73b6a7A"," "," ","1","0","[1267]","1","0","4","","","","","","","",""
"pit-trial","96","756901","0.0-2.0-17.3-0.3","battery-v0.2","","""event"",""trial"",""time""
""focus"",""0"",""2""
""fullscreenenter"",""1"",""3097""
","
","""event"",""trial"",""time""
""focus"",""0"",""2""
","""event"",""trial"",""time""
""fullscreenenter"",""1"",""3097""
","
","","","232","","","15","5979","3495","&#9789;","elianto","#f73b6a7A"," "," ","1","0","[354,1099]","2","0","4","","","","","","","",""
"pit-trial","97","760226","0.0-2.0-17.3-1.3","battery-v0.2","","""event"",""trial"",""time""
""focus"",""0"",""2""
""fullscreenenter"",""1"",""3097""
","
","""event"",""trial"",""time""
""focus"",""0"",""2""
","""event"",""trial"",""time""
""fullscreenenter"",""1"",""3097""
","
","","","463","","","15","5979","3495","&#9789;","elianto","#f73b6a7A"," "," ","1","0","[1314]","1","0","4","","","","","","","",""
"pit-trial","98","763577","0.0-2.0-17.3-2.3","battery-v0.2","","""event"",""trial"",""time""
""focus"",""0"",""2""
""fullscreenenter"",""1"",""3097""
","
","""event"",""trial"",""time""
""focus"",""0"",""2""
","""event"",""trial"",""time""
""fullscreenenter"",""1"",""3097""
","
","","","481","","","15","5979","3495","&#9789;","elianto","#f73b6a7A"," "," ","1","0","[1341]","1","0","4","","","","","","","",""
"pit-trial","99","767126","0.0-2.0-17.3-3.3","battery-v0.2","","""event"",""trial"",""time""
""focus"",""0"",""2""
""fullscreenenter"",""1"",""3097""
","
","""event"",""trial"",""time""
""focus"",""0"",""2""
","""event"",""trial"",""time""
""fullscreenenter"",""1"",""3097""
","
","","","670","","","15","5979","3495","&#9789;","elianto","#f73b6a7A"," "," ","1","-10","[1535]","1","0","4","","","","","","","",""
"pit-trial","100","770466","0.0-2.0-17.3-4.3","battery-v0.2","","""event"",""trial"",""time""
""focus"",""0"",""2""
""fullscreenenter"",""1"",""3097""
","
","""event"",""trial"",""time""
""focus"",""0"",""2""
","""event"",""trial"",""time""
""fullscreenenter"",""1"",""3097""
","
","","","472","","","15","5979","3495","&#9789;","elianto","#f73b6a7A"," "," ","1","0","[1329]","1","0","4","","","","","","","",""
"call-function","101","770468","0.0-2.0-18.0","battery-v0.2","","""event"",""trial"",""time""
""focus"",""0"",""2""
""fullscreenenter"",""1"",""3097""
","
","""event"",""trial"",""time""
""focus"",""0"",""2""
","""event"",""trial"",""time""
""fullscreenenter"",""1"",""3097""
","
","","","","","","","","","","","","","","","","","","","","","","","","","","",""
"pit-instructions","102","844939","0.0-2.0-19.0","battery-v0.2","","""event"",""trial"",""time""
""focus"",""0"",""2""
""fullscreenenter"",""1"",""3097""
","
","""event"",""trial"",""time""
""focus"",""0"",""2""
","""event"",""trial"",""time""
""fullscreenenter"",""1"",""3097""
","
","","[{""page_index"":0,""viewing_time"":6541},{""page_index"":1,""viewing_time"":5624},{""page_index"":2,""viewing_time"":13240},{""page_index"":3,""viewing_time"":10184},{""page_index"":4,""viewing_time"":8064},{""page_index"":5,""viewing_time"":8352},{""page_index"":6,""viewing_time"":8280},{""page_index"":7,""viewing_time"":4912},{""page_index"":8,""viewing_time"":9272}]","74469","","","","","","","","","","","","","","","","","","","","","","","",""
"pit-comprehension","103","851348","0.0-2.0-20.0-0.0","battery-v0.2","","""event"",""trial"",""time""
""focus"",""0"",""2""
""fullscreenenter"",""1"",""3097""
","
","""event"",""trial"",""time""
""focus"",""0"",""2""
","""event"",""trial"",""time""
""fullscreenenter"",""1"",""3097""
","
","","","6405","[""SPACE""]","0","15","5979","3495","","","","","","","","","","","","","","","","","","",""
"pit-instructions","104","854203","0.0-2.0-20.0-1.0","battery-v0.2","","""event"",""trial"",""time""
""focus"",""0"",""2""
""fullscreenenter"",""1"",""3097""
","
","""event"",""trial"",""time""
""focus"",""0"",""2""
","""event"",""trial"",""time""
""fullscreenenter"",""1"",""3097""
","
","","[{""page_index"":0,""viewing_time"":2786}]","2786","","","","","","","","","","","","","","","","","","","","","","","",""
"pit-comprehension","105","861197","0.0-2.0-21.0-0.0","battery-v0.2","","""event"",""trial"",""time""
""focus"",""0"",""2""
""fullscreenenter"",""1"",""3097""
","
","""event"",""trial"",""time""
""focus"",""0"",""2""
","""event"",""trial"",""time""
""fullscreenenter"",""1"",""3097""
","
","","","6989","[""10""]","0","15","5979","3495","","","","","","","","","","","","","","","","","","",""
"pit-instructions","106","862851","0.0-2.0-21.0-1.0","battery-v0.2","","""event"",""trial"",""time""
""focus"",""0"",""2""
""fullscreenenter"",""1"",""3097""
","
","""event"",""trial"",""time""
""focus"",""0"",""2""
","""event"",""trial"",""time""
""fullscreenenter"",""1"",""3097""
","
","","[{""page_index"":0,""viewing_time"":1582}]","1583","","","","","","","","","","","","","","","","","","","","","","","",""
"pit-comprehension","107","869348","0.0-2.0-22.0-0.0","battery-v0.2","","""event"",""trial"",""time""
""focus"",""0"",""2""
""fullscreenenter"",""1"",""3097""
","
","""event"",""trial"",""time""
""focus"",""0"",""2""
","""event"",""trial"",""time""
""fullscreenenter"",""1"",""3097""
","
","","","6494","[""0""]","0","15","5979","3495","","","","","","","","","","","","","","","","","","",""
"pit-instructions","108","871011","0.0-2.0-22.0-1.0","battery-v0.2","","""event"",""trial"",""time""
""focus"",""0"",""2""
""fullscreenenter"",""1"",""3097""
","
","""event"",""trial"",""time""
""focus"",""0"",""2""
","""event"",""trial"",""time""
""fullscreenenter"",""1"",""3097""
","
","","[{""page_index"":0,""viewing_time"":1592}]","1593","","","","","","","","","","","","","","","","","","","","","","","",""
"pit-comprehension","109","880140","0.0-2.0-23.0-0.0","battery-v0.2","","""event"",""trial"",""time""
""focus"",""0"",""2""
""fullscreenenter"",""1"",""3097""
","
","""event"",""trial"",""time""
""focus"",""0"",""2""
","""event"",""trial"",""time""
""fullscreenenter"",""1"",""3097""
","
","","","9125","[""True""]","0","15","5979","3495","","","","","","","","","","","","","","","","","","",""
"pit-instructions","110","881939","0.0-2.0-23.0-1.0","battery-v0.2","","""event"",""trial"",""time""
""focus"",""0"",""2""
""fullscreenenter"",""1"",""3097""
","
","""event"",""trial"",""time""
""focus"",""0"",""2""
","""event"",""trial"",""time""
""fullscreenenter"",""1"",""3097""
","
","","[{""page_index"":0,""viewing_time"":1726}]","1727","","","","","","","","","","","","","","","","","","","","","","","",""
"pit-comprehension","111","889628","0.0-2.0-24.0-0.0","battery-v0.2","","""event"",""trial"",""time""
""focus"",""0"",""2""
""fullscreenenter"",""1"",""3097""
","
","""event"",""trial"",""time""
""focus"",""0"",""2""
","""event"",""trial"",""time""
""fullscreenenter"",""1"",""3097""
","
","","","7685","[""True""]","0","15","5979","3495","","","","","","","","","","","","","","","","","","",""
"pit-instructions","112","891291","0.0-2.0-24.0-1.0","battery-v0.2","","""event"",""trial"",""time""
""focus"",""0"",""2""
""fullscreenenter"",""1"",""3097""
","
","""event"",""trial"",""time""
""focus"",""0"",""2""
","""event"",""trial"",""time""
""fullscreenenter"",""1"",""3097""
","
","","[{""page_index"":0,""viewing_time"":1590}]","1590","","","","","","","","","","","","","","","","","","","","","","","",""
"pit-comprehension","113","897652","0.0-2.0-25.0-0.0","battery-v0.2","","""event"",""trial"",""time""
""focus"",""0"",""2""
""fullscreenenter"",""1"",""3097""
","
","""event"",""trial"",""time""
""focus"",""0"",""2""
","""event"",""trial"",""time""
""fullscreenenter"",""1"",""3097""
","
","","","6357","[""True""]","0","15","5979","3495","","","","","","","","","","","","","","","","","","",""
"pit-instructions","114","899731","0.0-2.0-25.0-1.0","battery-v0.2","","""event"",""trial"",""time""
""focus"",""0"",""2""
""fullscreenenter"",""1"",""3097""
","
","""event"",""trial"",""time""
""focus"",""0"",""2""
","""event"",""trial"",""time""
""fullscreenenter"",""1"",""3097""
","
","","[{""page_index"":0,""viewing_time"":2005}]","2005","","","","","","","","","","","","","","","","","","","","","","","",""
"pit-comprehension","115","904916","0.0-2.0-26.0-0.0","battery-v0.2","","""event"",""trial"",""time""
""focus"",""0"",""2""
""fullscreenenter"",""1"",""3097""
","
","""event"",""trial"",""time""
""focus"",""0"",""2""
","""event"",""trial"",""time""
""fullscreenenter"",""1"",""3097""
","
","","","5180","[""False""]","0","15","5979","3495","","","","","","","","","","","","","","","","","","",""
"pit-instructions","116","906514","0.0-2.0-26.0-1.0","battery-v0.2","","""event"",""trial"",""time""
""focus"",""0"",""2""
""fullscreenenter"",""1"",""3097""
","
","""event"",""trial"",""time""
""focus"",""0"",""2""
","""event"",""trial"",""time""
""fullscreenenter"",""1"",""3097""
","
","","[{""page_index"":0,""viewing_time"":1526}]","1526","","","","","","","","","","","","","","","","","","","","","","","",""
"pit-instructions","117","922954","0.0-3.0","battery-v0.2","","""event"",""trial"",""time""
""focus"",""0"",""2""
""fullscreenenter"",""1"",""3097""
","
","""event"",""trial"",""time""
""focus"",""0"",""2""
","""event"",""trial"",""time""
""fullscreenenter"",""1"",""3097""
","
","","[{""page_index"":0,""viewing_time"":4365},{""page_index"":1,""viewing_time"":5040},{""page_index"":2,""viewing_time"":7032}]","16438","","","","","","","","","","","","","","","","","","","","","","","",""
"pit-trial","118","927015","0.0-4.0","battery-v0.2","","""event"",""trial"",""time""
""focus"",""0"",""2""
""fullscreenenter"",""1"",""3097""
","
","""event"",""trial"",""time""
""focus"",""0"",""2""
","""event"",""trial"",""time""
""fullscreenenter"",""1"",""3097""
","
","","","1195","","","15","5979","3495","&#9728;","elianto","#f73b6a7A","-1"," ","0","0","[2049]","1","1","","","5979","1","0","4","lose","no-go","1"
"pit-trial","119","930579","0.0-5.0","battery-v0.2","","""event"",""trial"",""time""
""focus"",""0"",""2""
""fullscreenenter"",""1"",""3097""
","
","""event"",""trial"",""time""
""focus"",""0"",""2""
","""event"",""trial"",""time""
""fullscreenenter"",""1"",""3097""
","
","","","687","","","15","5979","3495","&#9733;","elianto","#3366ff99","-1"," ","0","0","[1542]","1","1","","","5979","2","2","2","win","no-go","0"
"pit-trial","120","934550","0.0-6.0","battery-v0.2","","""event"",""trial"",""time""
""focus"",""0"",""2""
""fullscreenenter"",""1"",""3097""
","
","""event"",""trial"",""time""
""focus"",""0"",""2""
","""event"",""trial"",""time""
""fullscreenenter"",""1"",""3097""
","
","","","1101","","","15","5979","3495","&#9752;","elianto","#f73b6a7A"," "," ","1","0","[1963]","1","1","","","5979","3","3","3","lose","go","0"
"pit-trial","121","938396","0.0-7.0","battery-v0.2","","""event"",""trial"",""time""
""focus"",""0"",""2""
""fullscreenenter"",""1"",""3097""
","
","""event"",""trial"",""time""
""focus"",""0"",""2""
","""event"",""trial"",""time""
""fullscreenenter"",""1"",""3097""
","
","","","958","","","15","5979","3495","&#9730;","elianto","#3366ff99"," "," ","1","+10","[1824]","1","1","","","5979","4","1","1","win","go","0"
"pit-trial","122","943266","0.0-8.0","battery-v0.2","","""event"",""trial"",""time""
""focus"",""0"",""2""
""fullscreenenter"",""1"",""3097""
","
","""event"",""trial"",""time""
""focus"",""0"",""2""
","""event"",""trial"",""time""
""fullscreenenter"",""1"",""3097""
","
","","","-1","","","15","5979","3495","&#9733;","elianto","#3366ff99","-1","-1","1","+10","[]","0","1","","","5979","5","2","2","win","no-go","0"
"pit-trial","123","946815","0.0-9.0","battery-v0.2","","""event"",""trial"",""time""
""focus"",""0"",""2""
""fullscreenenter"",""1"",""3097""
","
","""event"",""trial"",""time""
""focus"",""0"",""2""
","""event"",""trial"",""time""
""fullscreenenter"",""1"",""3097""
","
","","","685","","","15","5979","3495","&#9752;","elianto","#f73b6a7A"," "," ","1","-10","[1540]","1","1","","","5979","6","3","3","lose","go","1"
"pit-trial","124","950329","0.0-10.0","battery-v0.2","","""event"",""trial"",""time""
""focus"",""0"",""2""
""fullscreenenter"",""1"",""3097""
","
","""event"",""trial"",""time""
""focus"",""0"",""2""
","""event"",""trial"",""time""
""fullscreenenter"",""1"",""3097""
","
","","","642","","","15","5979","3495","&#9728;","elianto","#f73b6a7A","-1"," ","0","-10","[1503]","1","1","","","5979","7","0","4","lose","no-go","0"
"pit-trial","125","954020","0.0-11.0","battery-v0.2","","""event"",""trial"",""time""
""focus"",""0"",""2""
""fullscreenenter"",""1"",""3097""
","
","""event"",""trial"",""time""
""focus"",""0"",""2""
","""event"",""trial"",""time""
""fullscreenenter"",""1"",""3097""
","
","","","820","","","15","5979","3495","&#9730;","elianto","#3366ff99"," "," ","1","+10","[1685]","1","1","","","5979","8","1","1","win","go","0"
"pit-trial","126","957575","0.0-12.0","battery-v0.2","","""event"",""trial"",""time""
""focus"",""0"",""2""
""fullscreenenter"",""1"",""3097""
","
","""event"",""trial"",""time""
""focus"",""0"",""2""
","""event"",""trial"",""time""
""fullscreenenter"",""1"",""3097""
","
","","","685","","","15","5979","3495","&#9730;","elianto","#3366ff99"," "," ","1","+10","[1546]","1","1","","","5979","9","1","1","win","go","0"
"pit-trial","127","962005","0.0-13.0","battery-v0.2","","""event"",""trial"",""time""
""focus"",""0"",""2""
""fullscreenenter"",""1"",""3097""
","
","""event"",""trial"",""time""
""focus"",""0"",""2""
","""event"",""trial"",""time""
""fullscreenenter"",""1"",""3097""
","
","","","1540","","","15","5979","3495","&#9733;","elianto","#3366ff99","-1"," ","0","0","[2406]","1","1","","","5979","10","2","2","win","no-go","0"
"pit-trial","128","966870","0.0-14.0","battery-v0.2","","""event"",""trial"",""time""
""focus"",""0"",""2""
""fullscreenenter"",""1"",""3097""
","
","""event"",""trial"",""time""
""focus"",""0"",""2""
","""event"",""trial"",""time""
""fullscreenenter"",""1"",""3097""
","
","","","-1","","","15","5979","3495","&#9728;","elianto","#f73b6a7A","-1","-1","1","-10","[]","0","1","","","5979","11","0","4","lose","no-go","1"
"pit-trial","129","970735","0.0-15.0","battery-v0.2","","""event"",""trial"",""time""
""focus"",""0"",""2""
""fullscreenenter"",""1"",""3097""
","
","""event"",""trial"",""time""
""focus"",""0"",""2""
","""event"",""trial"",""time""
""fullscreenenter"",""1"",""3097""
","
","","","983","","","15","5979","3495","&#9752;","elianto","#f73b6a7A"," "," ","1","0","[1849]","1","1","","","5979","12","3","3","lose","go","0"
"pit-trial","130","975076","0.0-16.0","battery-v0.2","","""event"",""trial"",""time""
""focus"",""0"",""2""
""fullscreenenter"",""1"",""3097""
","
","""event"",""trial"",""time""
""focus"",""0"",""2""
","""event"",""trial"",""time""
""fullscreenenter"",""1"",""3097""
","
","","","1478","","","15","5979","3495","&#9733;","elianto","#3366ff99","-1"," ","0","0","[2334]","1","1","","","5979","13","2","2","win","no-go","0"
"pit-trial","131","978755","0.0-17.0","battery-v0.2","","""event"",""trial"",""time""
""focus"",""0"",""2""
""fullscreenenter"",""1"",""3097""
","
","""event"",""trial"",""time""
""focus"",""0"",""2""
","""event"",""trial"",""time""
""fullscreenenter"",""1"",""3097""
","
","","","805","","","15","5979","3495","&#9728;","elianto","#f73b6a7A","-1"," ","0","-10","[1665]","1","1","","","5979","14","0","4","lose","no-go","0"
"pit-trial","132","982340","0.0-18.0","battery-v0.2","","""event"",""trial"",""time""
""focus"",""0"",""2""
""fullscreenenter"",""1"",""3097""
","
","""event"",""trial"",""time""
""focus"",""0"",""2""
","""event"",""trial"",""time""
""fullscreenenter"",""1"",""3097""
","
","","","721","","","15","5979","3495","&#9730;","elianto","#3366ff99"," "," ","1","0","[1580]","1","1","","","5979","15","1","1","win","go","1"
"pit-trial","133","985875","0.0-19.0","battery-v0.2","","""event"",""trial"",""time""
""focus"",""0"",""2""
""fullscreenenter"",""1"",""3097""
","
","""event"",""trial"",""time""
""focus"",""0"",""2""
","""event"",""trial"",""time""
""fullscreenenter"",""1"",""3097""
","
","","","674","","","15","5979","3495","&#9752;","elianto","#f73b6a7A"," "," ","1","-10","[1529]","1","1","","","5979","16","3","3","lose","go","1"
"pit-trial","134","989569","0.0-20.0","battery-v0.2","","""event"",""trial"",""time""
""focus"",""0"",""2""
""fullscreenenter"",""1"",""3097""
","
","""event"",""trial"",""time""
""focus"",""0"",""2""
","""event"",""trial"",""time""
""fullscreenenter"",""1"",""3097""
","
","","","830","","","15","5979","3495","&#9730;","elianto","#3366ff99"," "," ","1","+10","[1690]","1","1","","","5979","17","1","1","win","go","0"
"pit-trial","135","993679","0.0-21.0","battery-v0.2","","""event"",""trial"",""time""
""focus"",""0"",""2""
""fullscreenenter"",""1"",""3097""
","
","""event"",""trial"",""time""
""focus"",""0"",""2""
","""event"",""trial"",""time""
""fullscreenenter"",""1"",""3097""
","
","","","1227","","","15","5979","3495","&#9752;","elianto","#f73b6a7A"," "," ","1","0","[2093]","1","1","","","5979","18","3","3","lose","go","0"
"pit-trial","136","998535","0.0-22.0","battery-v0.2","","""event"",""trial"",""time""
""focus"",""0"",""2""
""fullscreenenter"",""1"",""3097""
","
","""event"",""trial"",""time""
""focus"",""0"",""2""
","""event"",""trial"",""time""
""fullscreenenter"",""1"",""3097""
","
","","","-1","","","15","5979","3495","&#9728;","elianto","#f73b6a7A","-1","-1","1","-10","[]","0","1","","","5979","19","0","4","lose","no-go","1"
"pit-trial","137","1002145","0.0-23.0","battery-v0.2","","""event"",""trial"",""time""
""focus"",""0"",""2""
""fullscreenenter"",""1"",""3097""
","
","""event"",""trial"",""time""
""focus"",""0"",""2""
","""event"",""trial"",""time""
""fullscreenenter"",""1"",""3097""
","
","","","731","","","15","5979","3495","&#9733;","elianto","#3366ff99","-1"," ","0","0","[1591]","1","1","","","5979","20","2","2","win","no-go","0"
"pit-instructions","138","1014522","0.0-24.0","battery-v0.2","","""event"",""trial"",""time""
""focus"",""0"",""2""
""fullscreenenter"",""1"",""3097""
","
","""event"",""trial"",""time""
""focus"",""0"",""2""
","""event"",""trial"",""time""
""fullscreenenter"",""1"",""3097""
","
","","[{""page_index"":0,""viewing_time"":5615},{""page_index"":1,""viewing_time"":6759}]","12375","","","","","","","","","","","","","","","","","","","","","","","",""
"pit-trial","139","1018344","0.0-25.0","battery-v0.2","","""event"",""trial"",""time""
""focus"",""0"",""2""
""fullscreenenter"",""1"",""3097""
","
","""event"",""trial"",""time""
""focus"",""0"",""2""
","""event"",""trial"",""time""
""fullscreenenter"",""1"",""3097""
","
","","","949","","","15","5979","3495","b","elianto","#f73b6a7A"," "," ","1","0","[1802]","1","2","","","5979","21","3","3","lose","go","0"
"pit-trial","140","1022099","0.0-26.0","battery-v0.2","","""event"",""trial"",""time""
""focus"",""0"",""2""
""fullscreenenter"",""1"",""3097""
","
","""event"",""trial"",""time""
""focus"",""0"",""2""
","""event"",""trial"",""time""
""fullscreenenter"",""1"",""3097""
","
","","","887","","","15","5979","3495","n","elianto","#f73b6a7A","-1"," ","0","-10","[1749]","1","2","","","5979","22","0","4","lose","no-go","0"
"pit-trial","141","1025554","0.0-27.0","battery-v0.2","","""event"",""trial"",""time""
""focus"",""0"",""2""
""fullscreenenter"",""1"",""3097""
","
","""event"",""trial"",""time""
""focus"",""0"",""2""
","""event"",""trial"",""time""
""fullscreenenter"",""1"",""3097""
","
","","","588","","","15","5979","3495","t","elianto","#f73b6a7A","-1"," ","0","-10","[1450]","1","2","","","5979","23","2","4","lose","no-go","0"
"pit-trial","142","1029225","0.0-28.0","battery-v0.2","","""event"",""trial"",""time""
""focus"",""0"",""2""
""fullscreenenter"",""1"",""3097""
","
","""event"",""trial"",""time""
""focus"",""0"",""2""
","""event"",""trial"",""time""
""fullscreenenter"",""1"",""3097""
","
","","","794","","","15","5979","3495","f","elianto","#3366ff99"," "," ","1","+10","[1658]","1","2","","","5979","24","1","1","win","go","0"
"pit-trial","143","1032774","0.0-29.0","battery-v0.2","","""event"",""trial"",""time""
""focus"",""0"",""2""
""fullscreenenter"",""1"",""3097""
","
","""event"",""trial"",""time""
""focus"",""0"",""2""
","""event"",""trial"",""time""
""fullscreenenter"",""1"",""3097""
","
","","","682","","","15","5979","3495","b","elianto","#f73b6a7A"," "," ","1","0","[1533]","1","2","","","5979","25","3","3","lose","go","0"
"pit-trial","144","1037644","0.0-30.0","battery-v0.2","","""event"",""trial"",""time""
""focus"",""0"",""2""
""fullscreenenter"",""1"",""3097""
","
","""event"",""trial"",""time""
""focus"",""0"",""2""
","""event"",""trial"",""time""
""fullscreenenter"",""1"",""3097""
","
","","","-1","","","15","5979","3495","n","elianto","#f73b6a7A","-1","-1","1","0","[]","0","2","","","5979","26","0","4","lose","no-go","0"
"pit-trial","145","1041404","0.0-31.0","battery-v0.2","","""event"",""trial"",""time""
""focus"",""0"",""2""
""fullscreenenter"",""1"",""3097""
","
","""event"",""trial"",""time""
""focus"",""0"",""2""
","""event"",""trial"",""time""
""fullscreenenter"",""1"",""3097""
","
","","","890","","","15","5979","3495","f","elianto","#3366ff99"," "," ","1","+10","[1753]","1","2","","","5979","27","1","1","win","go","0"
"pit-trial","146","1046284","0.0-32.0","battery-v0.2","","""event"",""trial"",""time""
""focus"",""0"",""2""
""fullscreenenter"",""1"",""3097""
","
","""event"",""trial"",""time""
""focus"",""0"",""2""
","""event"",""trial"",""time""
""fullscreenenter"",""1"",""3097""
","
","","","-1","","","15","5979","3495","t","elianto","#f73b6a7A","-1","-1","1","0","[]","0","2","","","5979","28","2","4","lose","no-go","0"
"pit-trial","147","1051160","0.0-33.0","battery-v0.2","","""event"",""trial"",""time""
""focus"",""0"",""2""
""fullscreenenter"",""1"",""3097""
","
","""event"",""trial"",""time""
""focus"",""0"",""2""
","""event"",""trial"",""time""
""fullscreenenter"",""1"",""3097""
","
","","","-1","","","15","5979","3495","t","elianto","#f73b6a7A","-1","-1","1","-10","[]","0","2","","","5979","29","2","4","lose","no-go","1"
"pit-trial","148","1054764","0.0-34.0","battery-v0.2","","""event"",""trial"",""time""
""focus"",""0"",""2""
""fullscreenenter"",""1"",""3097""
","
","""event"",""trial"",""time""
""focus"",""0"",""2""
","""event"",""trial"",""time""
""fullscreenenter"",""1"",""3097""
","
","","","731","","","15","5979","3495","b","elianto","#f73b6a7A"," "," ","1","0","[1581]","1","2","","","5979","30","3","3","lose","go","0"
"pit-trial","149","1058229","0.0-35.0","battery-v0.2","","""event"",""trial"",""time""
""focus"",""0"",""2""
""fullscreenenter"",""1"",""3097""
","
","""event"",""trial"",""time""
""focus"",""0"",""2""
","""event"",""trial"",""time""
""fullscreenenter"",""1"",""3097""
","
","","","598","","","15","5979","3495","n","elianto","#f73b6a7A","-1"," ","0","-10","[1450]","1","2","","","5979","31","0","4","lose","no-go","0"
"pit-trial","150","1062350","0.0-36.0","battery-v0.2","","""event"",""trial"",""time""
""focus"",""0"",""2""
""fullscreenenter"",""1"",""3097""
","
","""event"",""trial"",""time""
""focus"",""0"",""2""
","""event"",""trial"",""time""
""fullscreenenter"",""1"",""3097""
","
","","","1243","","","15","5979","3495","f","elianto","#3366ff99"," "," ","1","+10","[2104]","1","2","","","5979","32","1","1","win","go","0"
"pit-trial","151","1067225","0.0-37.0","battery-v0.2","","""event"",""trial"",""time""
""focus"",""0"",""2""
""fullscreenenter"",""1"",""3097""
","
","""event"",""trial"",""time""
""focus"",""0"",""2""
","""event"",""trial"",""time""
""fullscreenenter"",""1"",""3097""
","
","","","-1","","","15","5979","3495","t","elianto","#f73b6a7A","-1","-1","1","0","[]","0","2","","","5979","33","2","4","lose","no-go","0"
"pit-trial","152","1070689","0.0-38.0","battery-v0.2","","""event"",""trial"",""time""
""focus"",""0"",""2""
""fullscreenenter"",""1"",""3097""
","
","""event"",""trial"",""time""
""focus"",""0"",""2""
","""event"",""trial"",""time""
""fullscreenenter"",""1"",""3097""
","
","","","597","","","15","5979","3495","b","elianto","#f73b6a7A"," "," ","1","0","[1453]","1","2","","","5979","34","3","3","lose","go","0"
"pit-trial","153","1075549","0.0-39.0","battery-v0.2","","""event"",""trial"",""time""
""focus"",""0"",""2""
""fullscreenenter"",""1"",""3097""
","
","""event"",""trial"",""time""
""focus"",""0"",""2""
","""event"",""trial"",""time""
""fullscreenenter"",""1"",""3097""
","
","","","-1","","","15","5979","3495","n","elianto","#f73b6a7A","-1","-1","1","0","[]","0","2","","","5979","35","0","4","lose","no-go","0"
"pit-trial","154","1079224","0.0-40.0","battery-v0.2","","""event"",""trial"",""time""
""focus"",""0"",""2""
""fullscreenenter"",""1"",""3097""
","
","""event"",""trial"",""time""
""focus"",""0"",""2""
","""event"",""trial"",""time""
""fullscreenenter"",""1"",""3097""
","
","","","807","","","15","5979","3495","f","elianto","#3366ff99"," "," ","1","0","[1663]","1","2","","","5979","36","1","1","win","go","1"
"pit-trial","155","1084099","0.0-41.0","battery-v0.2","","""event"",""trial"",""time""
""focus"",""0"",""2""
""fullscreenenter"",""1"",""3097""
","
","""event"",""trial"",""time""
""focus"",""0"",""2""
","""event"",""trial"",""time""
""fullscreenenter"",""1"",""3097""
","
","","","-1","","","15","5979","3495","t","elianto","#f73b6a7A","-1","-1","1","-10","[]","0","2","","","5979","37","2","4","lose","no-go","1"
"pit-trial","156","1087604","0.0-42.0","battery-v0.2","","""event"",""trial"",""time""
""focus"",""0"",""2""
""fullscreenenter"",""1"",""3097""
","
","""event"",""trial"",""time""
""focus"",""0"",""2""
","""event"",""trial"",""time""
""fullscreenenter"",""1"",""3097""
","
","","","641","","","15","5979","3495","f","elianto","#3366ff99"," "," ","1","+10","[1498]","1","2","","","5979","38","1","1","win","go","0"
"pit-trial","157","1092479","0.0-43.0","battery-v0.2","","""event"",""trial"",""time""
""focus"",""0"",""2""
""fullscreenenter"",""1"",""3097""
","
","""event"",""trial"",""time""
""focus"",""0"",""2""
","""event"",""trial"",""time""
""fullscreenenter"",""1"",""3097""
","
","","","-1","","","15","5979","3495","n","elianto","#f73b6a7A","-1","-1","1","0","[]","0","2","","","5979","39","0","4","lose","no-go","0"
"pit-trial","158","1097339","0.0-44.0","battery-v0.2","","""event"",""trial"",""time""
""focus"",""0"",""2""
""fullscreenenter"",""1"",""3097""
","
","""event"",""trial"",""time""
""focus"",""0"",""2""
","""event"",""trial"",""time""
""fullscreenenter"",""1"",""3097""
","
","","","-1","","","15","5979","3495","b","elianto","#f73b6a7A"," ","-1","0","-10","[]","0","2","","","5979","40","3","3","lose","go","0"
"pit-trial","159","1101439","0.0-45.0","battery-v0.2","","""event"",""trial"",""time""
""focus"",""0"",""2""
""fullscreenenter"",""1"",""3097""
","
","""event"",""trial"",""time""
""focus"",""0"",""2""
","""event"",""trial"",""time""
""fullscreenenter"",""1"",""3097""
","
","","","1228","","","15","5979","3495","t","elianto","#f73b6a7A","-1"," ","0","-10","[2089]","1","2","","","5979","41","2","4","lose","no-go","0"
"pit-trial","160","1104848","0.0-46.0","battery-v0.2","","""event"",""trial"",""time""
""focus"",""0"",""2""
""fullscreenenter"",""1"",""3097""
","
","""event"",""trial"",""time""
""focus"",""0"",""2""
","""event"",""trial"",""time""
""fullscreenenter"",""1"",""3097""
","
","","","542","","","15","5979","3495","b","elianto","#f73b6a7A"," "," ","1","0","[1398]","1","2","","","5979","42","3","3","lose","go","0"
"pit-trial","161","1109718","0.0-47.0","battery-v0.2","","""event"",""trial"",""time""
""focus"",""0"",""2""
""fullscreenenter"",""1"",""3097""
","
","""event"",""trial"",""time""
""focus"",""0"",""2""
","""event"",""trial"",""time""
""fullscreenenter"",""1"",""3097""
","
","","","-1","","","15","5979","3495","n","elianto","#f73b6a7A","-1","-1","1","0","[]","0","2","","","5979","43","0","4","lose","no-go","0"
"pit-trial","162","1113289","0.0-48.0","battery-v0.2","","""event"",""trial"",""time""
""focus"",""0"",""2""
""fullscreenenter"",""1"",""3097""
","
","""event"",""trial"",""time""
""focus"",""0"",""2""
","""event"",""trial"",""time""
""fullscreenenter"",""1"",""3097""
","
","","","701","","","15","5979","3495","f","elianto","#3366ff99"," "," ","1","+10","[1557]","1","2","","","5979","44","1","1","win","go","0"
"pit-trial","163","1118155","0.0-49.0","battery-v0.2","","""event"",""trial"",""time""
""focus"",""0"",""2""
""fullscreenenter"",""1"",""3097""
","
","""event"",""trial"",""time""
""focus"",""0"",""2""
","""event"",""trial"",""time""
""fullscreenenter"",""1"",""3097""
","
","","","-1","","","15","5979","3495","n","elianto","#f73b6a7A","-1","-1","1","0","[]","0","2","","","5979","45","0","4","lose","no-go","0"
"pit-trial","164","1123018","0.0-50.0","battery-v0.2","","""event"",""trial"",""time""
""focus"",""0"",""2""
""fullscreenenter"",""1"",""3097""
","
","""event"",""trial"",""time""
""focus"",""0"",""2""
","""event"",""trial"",""time""
""fullscreenenter"",""1"",""3097""
","
","","","-1","","","15","5979","3495","t","elianto","#f73b6a7A","-1","-1","1","-10","[]","0","2","","","5979","46","2","4","lose","no-go","1"
"pit-trial","165","1126698","0.0-51.0","battery-v0.2","","""event"",""trial"",""time""
""focus"",""0"",""2""
""fullscreenenter"",""1"",""3097""
","
","""event"",""trial"",""time""
""focus"",""0"",""2""
","""event"",""trial"",""time""
""fullscreenenter"",""1"",""3097""
","
","","","803","","","15","5979","3495","c","elianto","#3366ff99","-1"," ","0","0","[1667]","1","2","","","5979","47","4","2","win","no-go","0"
"pit-trial","166","1131568","0.0-52.0","battery-v0.2","","""event"",""trial"",""time""
""focus"",""0"",""2""
""fullscreenenter"",""1"",""3097""
","
","""event"",""trial"",""time""
""focus"",""0"",""2""
","""event"",""trial"",""time""
""fullscreenenter"",""1"",""3097""
","
","","","-1","","","15","5979","3495","b","elianto","#f73b6a7A"," ","-1","0","-10","[2994]","1","2","","","5979","48","3","3","lose","go","0"
"pit-trial","167","1135113","0.0-53.0","battery-v0.2","","""event"",""trial"",""time""
""focus"",""0"",""2""
""fullscreenenter"",""1"",""3097""
","
","""event"",""trial"",""time""
""focus"",""0"",""2""
","""event"",""trial"",""time""
""fullscreenenter"",""1"",""3097""
","
","","","674","","","15","5979","3495","c","elianto","#3366ff99","-1"," ","0","0","[1542]","1","2","","","5979","49","4","2","win","no-go","0"
"pit-trial","168","1139249","0.0-54.0","battery-v0.2","","""event"",""trial"",""time""
""focus"",""0"",""2""
""fullscreenenter"",""1"",""3097""
","
","""event"",""trial"",""time""
""focus"",""0"",""2""
","""event"",""trial"",""time""
""fullscreenenter"",""1"",""3097""
","
","","","1265","","","15","5979","3495","f","elianto","#3366ff99"," "," ","1","0","[2124]","1","2","","","5979","50","1","1","win","go","1"
"pit-trial","169","1144123","0.0-55.0","battery-v0.2","","""event"",""trial"",""time""
""focus"",""0"",""2""
""fullscreenenter"",""1"",""3097""
","
","""event"",""trial"",""time""
""focus"",""0"",""2""
","""event"",""trial"",""time""
""fullscreenenter"",""1"",""3097""
","
","","","-1","","","15","5979","3495","n","elianto","#f73b6a7A","-1","-1","1","0","[]","0","2","","","5979","51","0","4","lose","no-go","0"
"pit-trial","170","1147809","0.0-56.0","battery-v0.2","","""event"",""trial"",""time""
""focus"",""0"",""2""
""fullscreenenter"",""1"",""3097""
","
","""event"",""trial"",""time""
""focus"",""0"",""2""
","""event"",""trial"",""time""
""fullscreenenter"",""1"",""3097""
","
","","","818","","","15","5979","3495","b","elianto","#f73b6a7A"," "," ","1","0","[1674]","1","2","","","5979","52","3","3","lose","go","0"
"pit-trial","171","1151514","0.0-57.0","battery-v0.2","","""event"",""trial"",""time""
""focus"",""0"",""2""
""fullscreenenter"",""1"",""3097""
","
","""event"",""trial"",""time""
""focus"",""0"",""2""
","""event"",""trial"",""time""
""fullscreenenter"",""1"",""3097""
","
","","","836","","","15","5979","3495","f","elianto","#3366ff99"," "," ","1","+10","[1692]","1","2","","","5979","53","1","1","win","go","0"
"pit-trial","172","1155054","0.0-58.0","battery-v0.2","","""event"",""trial"",""time""
""focus"",""0"",""2""
""fullscreenenter"",""1"",""3097""
","
","""event"",""trial"",""time""
""focus"",""0"",""2""
","""event"",""trial"",""time""
""fullscreenenter"",""1"",""3097""
","
","","","670","","","15","5979","3495","c","elianto","#3366ff99","-1"," ","0","+10","[1523]","1","2","","","5979","54","4","2","win","no-go","1"
"pit-trial","173","1159914","0.0-59.0","battery-v0.2","","""event"",""trial"",""time""
""focus"",""0"",""2""
""fullscreenenter"",""1"",""3097""
","
","""event"",""trial"",""time""
""focus"",""0"",""2""
","""event"",""trial"",""time""
""fullscreenenter"",""1"",""3097""
","
","","","-1","","","15","5979","3495","t","elianto","#f73b6a7A","-1","-1","1","0","[]","0","2","","","5979","55","2","4","lose","no-go","0"
"pit-trial","174","1164789","0.0-60.0","battery-v0.2","","""event"",""trial"",""time""
""focus"",""0"",""2""
""fullscreenenter"",""1"",""3097""
","
","""event"",""trial"",""time""
""focus"",""0"",""2""
","""event"",""trial"",""time""
""fullscreenenter"",""1"",""3097""
","
","","","-1","","","15","5979","3495","n","elianto","#f73b6a7A","-1","-1","1","0","[]","0","2","","","5979","56","0","4","lose","no-go","0"
"pit-trial","175","1169668","0.0-61.0","battery-v0.2","","""event"",""trial"",""time""
""focus"",""0"",""2""
""fullscreenenter"",""1"",""3097""
","
","""event"",""trial"",""time""
""focus"",""0"",""2""
","""event"",""trial"",""time""
""fullscreenenter"",""1"",""3097""
","
","","","-1","","","15","5979","3495","n","elianto","#f73b6a7A","-1","-1","1","0","[]","0","2","","","5979","57","0","4","lose","no-go","0"
"pit-trial","176","1174549","0.0-62.0","battery-v0.2","","""event"",""trial"",""time""
""focus"",""0"",""2""
""fullscreenenter"",""1"",""3097""
","
","""event"",""trial"",""time""
""focus"",""0"",""2""
","""event"",""trial"",""time""
""fullscreenenter"",""1"",""3097""
","
","","","-1","","","15","5979","3495","c","elianto","#3366ff99","-1","-1","1","+10","[]","0","2","","","5979","58","4","2","win","no-go","0"
"pit-trial","177","1178263","0.0-63.0","battery-v0.2","","""event"",""trial"",""time""
""focus"",""0"",""2""
""fullscreenenter"",""1"",""3097""
","
","""event"",""trial"",""time""
""focus"",""0"",""2""
","""event"",""trial"",""time""
""fullscreenenter"",""1"",""3097""
","
","","","842","","","15","5979","3495","b","elianto","#f73b6a7A"," "," ","1","0","[1705]","1","2","","","5979","59","3","3","lose","go","0"
"pit-trial","178","1181893","0.0-64.0","battery-v0.2","","""event"",""trial"",""time""
""focus"",""0"",""2""
""fullscreenenter"",""1"",""3097""
","
","""event"",""trial"",""time""
""focus"",""0"",""2""
","""event"",""trial"",""time""
""fullscreenenter"",""1"",""3097""
","
","","","752","","","15","5979","3495","f","elianto","#3366ff99"," "," ","1","+10","[1613]","1","2","","","5979","60","1","1","win","go","0"
"pit-trial","179","1186764","0.0-65.0","battery-v0.2","","""event"",""trial"",""time""
""focus"",""0"",""2""
""fullscreenenter"",""1"",""3097""
","
","""event"",""trial"",""time""
""focus"",""0"",""2""
","""event"",""trial"",""time""
""fullscreenenter"",""1"",""3097""
","
","","","-1","","","15","5979","3495","c","elianto","#3366ff99","-1","-1","1","+10","[]","0","2","","","5979","61","4","2","win","no-go","0"
"pit-trial","180","1190548","0.0-66.0","battery-v0.2","","""event"",""trial"",""time""
""focus"",""0"",""2""
""fullscreenenter"",""1"",""3097""
","
","""event"",""trial"",""time""
""focus"",""0"",""2""
","""event"",""trial"",""time""
""fullscreenenter"",""1"",""3097""
","
","","","923","","","15","5979","3495","b","elianto","#f73b6a7A"," "," ","1","0","[1776]","1","2","","","5979","62","3","3","lose","go","0"
"pit-trial","181","1195429","0.0-67.0","battery-v0.2","","""event"",""trial"",""time""
""focus"",""0"",""2""
""fullscreenenter"",""1"",""3097""
","
","""event"",""trial"",""time""
""focus"",""0"",""2""
","""event"",""trial"",""time""
""fullscreenenter"",""1"",""3097""
","
","","","-1","","","15","5979","3495","t","elianto","#f73b6a7A","-1","-1","1","0","[]","0","2","","","5979","63","2","4","lose","no-go","0"
"pit-trial","182","1199284","0.0-68.0","battery-v0.2","","""event"",""trial"",""time""
""focus"",""0"",""2""
""fullscreenenter"",""1"",""3097""
","
","""event"",""trial"",""time""
""focus"",""0"",""2""
","""event"",""trial"",""time""
""fullscreenenter"",""1"",""3097""
","
","","","981","","","15","5979","3495","f","elianto","#3366ff99"," "," ","1","+10","[1848]","1","2","","","5979","64","1","1","win","go","0"
"pit-trial","183","1204158","0.0-69.0","battery-v0.2","","""event"",""trial"",""time""
""focus"",""0"",""2""
""fullscreenenter"",""1"",""3097""
","
","""event"",""trial"",""time""
""focus"",""0"",""2""
","""event"",""trial"",""time""
""fullscreenenter"",""1"",""3097""
","
","","","-1","","","15","5979","3495","c","elianto","#3366ff99","-1","-1","1","+10","[]","0","2","","","5979","65","4","2","win","no-go","0"
"pit-trial","184","1209032","0.0-70.0","battery-v0.2","","""event"",""trial"",""time""
""focus"",""0"",""2""
""fullscreenenter"",""1"",""3097""
","
","""event"",""trial"",""time""
""focus"",""0"",""2""
","""event"",""trial"",""time""
""fullscreenenter"",""1"",""3097""
","
","","","-1","","","15","5979","3495","t","elianto","#f73b6a7A","-1","-1","1","0","[]","0","2","","","5979","66","2","4","lose","no-go","0"
"pit-trial","185","1212812","0.0-71.0","battery-v0.2","","""event"",""trial"",""time""
""focus"",""0"",""2""
""fullscreenenter"",""1"",""3097""
","
","""event"",""trial"",""time""
""focus"",""0"",""2""
","""event"",""trial"",""time""
""fullscreenenter"",""1"",""3097""
","
","","","903","","","15","5979","3495","b","elianto","#f73b6a7A"," "," ","1","0","[1765]","1","2","","","5979","67","3","3","lose","go","0"
"pit-trial","186","1216403","0.0-72.0","battery-v0.2","","""event"",""trial"",""time""
""focus"",""0"",""2""
""fullscreenenter"",""1"",""3097""
","
","""event"",""trial"",""time""
""focus"",""0"",""2""
","""event"",""trial"",""time""
""fullscreenenter"",""1"",""3097""
","
","","","719","","","15","5979","3495","f","elianto","#3366ff99"," "," ","1","+10","[1576]","1","2","","","5979","68","1","1","win","go","0"
"pit-trial","187","1219993","0.0-73.0","battery-v0.2","","""event"",""trial"",""time""
""focus"",""0"",""2""
""fullscreenenter"",""1"",""3097""
","
","""event"",""trial"",""time""
""focus"",""0"",""2""
","""event"",""trial"",""time""
""fullscreenenter"",""1"",""3097""
","
","","","716","","","15","5979","3495","f","elianto","#3366ff99"," "," ","1","+10","[1570]","1","2","","","5979","69","1","1","win","go","0"
"pit-trial","188","1224863","0.0-74.0","battery-v0.2","","""event"",""trial"",""time""
""focus"",""0"",""2""
""fullscreenenter"",""1"",""3097""
","
","""event"",""trial"",""time""
""focus"",""0"",""2""
","""event"",""trial"",""time""
""fullscreenenter"",""1"",""3097""
","
","","","-1","","","15","5979","3495","c","elianto","#3366ff99","-1","-1","1","+10","[]","0","2","","","5979","70","4","2","win","no-go","0"
"pit-trial","189","1228563","0.0-75.0","battery-v0.2","","""event"",""trial"",""time""
""focus"",""0"",""2""
""fullscreenenter"",""1"",""3097""
","
","""event"",""trial"",""time""
""focus"",""0"",""2""
","""event"",""trial"",""time""
""fullscreenenter"",""1"",""3097""
","
","","","825","","","15","5979","3495","z","elianto","#3366ff99"," "," ","1","0","[1686]","1","2","","","5979","71","5","1","win","go","1"
"pit-trial","190","1232784","0.0-76.0","battery-v0.2","","""event"",""trial"",""time""
""focus"",""0"",""2""
""fullscreenenter"",""1"",""3097""
","
","""event"",""trial"",""time""
""focus"",""0"",""2""
","""event"",""trial"",""time""
""fullscreenenter"",""1"",""3097""
","
","","","1349","","","15","5979","3495","b","elianto","#f73b6a7A"," "," ","1","0","[2201]","1","2","","","5979","72","3","3","lose","go","0"
"pit-trial","191","1236728","0.0-77.0","battery-v0.2","","""event"",""trial"",""time""
""focus"",""0"",""2""
""fullscreenenter"",""1"",""3097""
","
","""event"",""trial"",""time""
""focus"",""0"",""2""
","""event"",""trial"",""time""
""fullscreenenter"",""1"",""3097""
","
","","","1073","","","15","5979","3495","b","elianto","#f73b6a7A"," "," ","1","0","[1933]","1","2","","","5979","73","3","3","lose","go","0"
"pit-trial","192","1241604","0.0-78.0","battery-v0.2","","""event"",""trial"",""time""
""focus"",""0"",""2""
""fullscreenenter"",""1"",""3097""
","
","""event"",""trial"",""time""
""focus"",""0"",""2""
","""event"",""trial"",""time""
""fullscreenenter"",""1"",""3097""
","
","","","-1","","","15","5979","3495","c","elianto","#3366ff99","-1","-1","1","+10","[]","0","2","","","5979","74","4","2","win","no-go","0"
"pit-trial","193","1245338","0.0-79.0","battery-v0.2","","""event"",""trial"",""time""
""focus"",""0"",""2""
""fullscreenenter"",""1"",""3097""
","
","""event"",""trial"",""time""
""focus"",""0"",""2""
","""event"",""trial"",""time""
""fullscreenenter"",""1"",""3097""
","
","","","874","","","15","5979","3495","f","elianto","#3366ff99"," "," ","1","+10","[1730]","1","2","","","5979","75","1","1","win","go","0"
"pit-trial","194","1250204","0.0-80.0","battery-v0.2","","""event"",""trial"",""time""
""focus"",""0"",""2""
""fullscreenenter"",""1"",""3097""
","
","""event"",""trial"",""time""
""focus"",""0"",""2""
","""event"",""trial"",""time""
""fullscreenenter"",""1"",""3097""
","
","","","-1","","","15","5979","3495","z","elianto","#3366ff99"," ","-1","0","0","[]","0","2","","","5979","76","5","1","win","go","0"
"pit-trial","195","1254144","0.0-81.0","battery-v0.2","","""event"",""trial"",""time""
""focus"",""0"",""2""
""fullscreenenter"",""1"",""3097""
","
","""event"",""trial"",""time""
""focus"",""0"",""2""
","""event"",""trial"",""time""
""fullscreenenter"",""1"",""3097""
","
","","","1064","","","15","5979","3495","h","elianto","#f73b6a7A","-1"," ","0","-10","[1929]","1","2","","","5979","77","6","4","lose","no-go","0"
"pit-trial","196","1257707","0.0-82.0","battery-v0.2","","""event"",""trial"",""time""
""focus"",""0"",""2""
""fullscreenenter"",""1"",""3097""
","
","""event"",""trial"",""time""
""focus"",""0"",""2""
","""event"",""trial"",""time""
""fullscreenenter"",""1"",""3097""
","
","","","692","","","15","5979","3495","b","elianto","#f73b6a7A"," "," ","1","0","[1558]","1","2","","","5979","78","3","3","lose","go","0"
"pit-trial","197","1261913","0.0-83.0","battery-v0.2","","""event"",""trial"",""time""
""focus"",""0"",""2""
""fullscreenenter"",""1"",""3097""
","
","""event"",""trial"",""time""
""focus"",""0"",""2""
","""event"",""trial"",""time""
""fullscreenenter"",""1"",""3097""
","
","","","1348","","","15","5979","3495","z","elianto","#3366ff99"," "," ","1","+10","[2200]","1","2","","","5979","79","5","1","win","go","0"
"pit-trial","198","1265723","0.0-84.0","battery-v0.2","","""event"",""trial"",""time""
""focus"",""0"",""2""
""fullscreenenter"",""1"",""3097""
","
","""event"",""trial"",""time""
""focus"",""0"",""2""
","""event"",""trial"",""time""
""fullscreenenter"",""1"",""3097""
","
","","","922","","","15","5979","3495","c","elianto","#3366ff99","-1"," ","0","0","[1789]","1","2","","","5979","80","4","2","win","no-go","0"
"pit-trial","199","1269844","0.0-85.0","battery-v0.2","","""event"",""trial"",""time""
""focus"",""0"",""2""
""fullscreenenter"",""1"",""3097""
","
","""event"",""trial"",""time""
""focus"",""0"",""2""
","""event"",""trial"",""time""
""fullscreenenter"",""1"",""3097""
","
","","","1253","","","15","5979","3495","y","elianto","#f73b6a7A"," "," ","1","-10","[2105]","1","2","","","5979","81","7","3","lose","go","1"
"pit-trial","200","1273798","0.0-86.0","battery-v0.2","","""event"",""trial"",""time""
""focus"",""0"",""2""
""fullscreenenter"",""1"",""3097""
","
","""event"",""trial"",""time""
""focus"",""0"",""2""
","""event"",""trial"",""time""
""fullscreenenter"",""1"",""3097""
","
","","","1076","","","15","5979","3495","h","elianto","#f73b6a7A","-1"," ","0","-10","[1937]","1","2","","","5979","82","6","4","lose","no-go","0"
"pit-trial","201","1277963","0.0-87.0","battery-v0.2","","""event"",""trial"",""time""
""focus"",""0"",""2""
""fullscreenenter"",""1"",""3097""
","
","""event"",""trial"",""time""
""focus"",""0"",""2""
","""event"",""trial"",""time""
""fullscreenenter"",""1"",""3097""
","
","","","1293","","","15","5979","3495","z","elianto","#3366ff99"," "," ","1","+10","[2150]","1","2","","","5979","83","5","1","win","go","0"
"pit-trial","202","1282828","0.0-88.0","battery-v0.2","","""event"",""trial"",""time""
""focus"",""0"",""2""
""fullscreenenter"",""1"",""3097""
","
","""event"",""trial"",""time""
""focus"",""0"",""2""
","""event"",""trial"",""time""
""fullscreenenter"",""1"",""3097""
","
","","","-1","","","15","5979","3495","c","elianto","#3366ff99","-1","-1","1","+10","[]","0","2","","","5979","84","4","2","win","no-go","0"
"pit-trial","203","1287699","0.0-89.0","battery-v0.2","","""event"",""trial"",""time""
""focus"",""0"",""2""
""fullscreenenter"",""1"",""3097""
","
","""event"",""trial"",""time""
""focus"",""0"",""2""
","""event"",""trial"",""time""
""fullscreenenter"",""1"",""3097""
","
","","","1996","","","15","5979","3495","h","elianto","#f73b6a7A","-1"," ","0","-10","[2858]","1","2","","","5979","85","6","4","lose","no-go","0"
"pit-trial","204","1291708","0.0-90.0","battery-v0.2","","""event"",""trial"",""time""
""focus"",""0"",""2""
""fullscreenenter"",""1"",""3097""
","
","""event"",""trial"",""time""
""focus"",""0"",""2""
","""event"",""trial"",""time""
""fullscreenenter"",""1"",""3097""
","
","","","1143","","","15","5979","3495","z","elianto","#3366ff99"," "," ","1","+10","[1994]","1","2","","","5979","86","5","1","win","go","0"
"pit-trial","205","1296578","0.0-91.0","battery-v0.2","","""event"",""trial"",""time""
""focus"",""0"",""2""
""fullscreenenter"",""1"",""3097""
","
","""event"",""trial"",""time""
""focus"",""0"",""2""
","""event"",""trial"",""time""
""fullscreenenter"",""1"",""3097""
","
","","","-1","","","15","5979","3495","y","elianto","#f73b6a7A"," ","-1","0","-10","[]","0","2","","","5979","87","7","3","lose","go","0"
"pit-trial","206","1301447","0.0-92.0","battery-v0.2","","""event"",""trial"",""time""
""focus"",""0"",""2""
""fullscreenenter"",""1"",""3097""
","
","""event"",""trial"",""time""
""focus"",""0"",""2""
","""event"",""trial"",""time""
""fullscreenenter"",""1"",""3097""
","
","","","-1","","","15","5979","3495","c","elianto","#3366ff99","-1","-1","1","+10","[]","0","2","","","5979","88","4","2","win","no-go","0"
"pit-trial","207","1306324","0.0-93.0","battery-v0.2","","""event"",""trial"",""time""
""focus"",""0"",""2""
""fullscreenenter"",""1"",""3097""
","
","""event"",""trial"",""time""
""focus"",""0"",""2""
","""event"",""trial"",""time""
""fullscreenenter"",""1"",""3097""
","
","","","-1","","","15","5979","3495","c","elianto","#3366ff99","-1","-1","1","+10","[]","0","2","","","5979","89","4","2","win","no-go","0"
"pit-trial","208","1310278","0.0-94.0","battery-v0.2","","""event"",""trial"",""time""
""focus"",""0"",""2""
""fullscreenenter"",""1"",""3097""
","
","""event"",""trial"",""time""
""focus"",""0"",""2""
","""event"",""trial"",""time""
""fullscreenenter"",""1"",""3097""
","
","","","1081","","","15","5979","3495","z","elianto","#3366ff99"," "," ","1","0","[1937]","1","2","","","5979","90","5","1","win","go","1"
"pit-trial","209","1314593","0.0-95.0","battery-v0.2","","""event"",""trial"",""time""
""focus"",""0"",""2""
""fullscreenenter"",""1"",""3097""
","
","""event"",""trial"",""time""
""focus"",""0"",""2""
","""event"",""trial"",""time""
""fullscreenenter"",""1"",""3097""
","
","","","1457","","","15","5979","3495","h","elianto","#f73b6a7A","-1"," ","0","-10","[2310]","1","2","","","5979","91","6","4","lose","no-go","0"
"pit-trial","210","1319453","0.0-96.0","battery-v0.2","","""event"",""trial"",""time""
""focus"",""0"",""2""
""fullscreenenter"",""1"",""3097""
","
","""event"",""trial"",""time""
""focus"",""0"",""2""
","""event"",""trial"",""time""
""fullscreenenter"",""1"",""3097""
","
","","","-1","","","15","5979","3495","y","elianto","#f73b6a7A"," ","-1","0","-10","[]","0","2","","","5979","92","7","3","lose","go","0"
"pit-trial","211","1323413","0.0-97.0","battery-v0.2","","""event"",""trial"",""time""
""focus"",""0"",""2""
""fullscreenenter"",""1"",""3097""
","
","""event"",""trial"",""time""
""focus"",""0"",""2""
","""event"",""trial"",""time""
""fullscreenenter"",""1"",""3097""
","
","","","1081","","","15","5979","3495","y","elianto","#f73b6a7A"," "," ","1","0","[1943]","1","2","","","5979","93","7","3","lose","go","0"
"pit-trial","212","1327508","0.0-98.0","battery-v0.2","","""event"",""trial"",""time""
""focus"",""0"",""2""
""fullscreenenter"",""1"",""3097""
","
","""event"",""trial"",""time""
""focus"",""0"",""2""
","""event"",""trial"",""time""
""fullscreenenter"",""1"",""3097""
","
","","","1220","","","15","5979","3495","r","elianto","#3366ff99","-1"," ","0","0","[2079]","1","2","","","5979","94","8","2","win","no-go","0"
"pit-trial","213","1331097","0.0-99.0","battery-v0.2","","""event"",""trial"",""time""
""focus"",""0"",""2""
""fullscreenenter"",""1"",""3097""
","
","""event"",""trial"",""time""
""focus"",""0"",""2""
","""event"",""trial"",""time""
""fullscreenenter"",""1"",""3097""
","
","","","728","","","15","5979","3495","z","elianto","#3366ff99"," "," ","1","+10","[1582]","1","2","","","5979","95","5","1","win","go","0"
"pit-trial","214","1334953","0.0-100.0","battery-v0.2","","""event"",""trial"",""time""
""focus"",""0"",""2""
""fullscreenenter"",""1"",""3097""
","
","""event"",""trial"",""time""
""focus"",""0"",""2""
","""event"",""trial"",""time""
""fullscreenenter"",""1"",""3097""
","
","","","985","","","15","5979","3495","h","elianto","#f73b6a7A","-1"," ","0","-10","[1851]","1","2","","","5979","96","6","4","lose","no-go","0"
"pit-trial","215","1339144","0.0-101.0","battery-v0.2","","""event"",""trial"",""time""
""focus"",""0"",""2""
""fullscreenenter"",""1"",""3097""
","
","""event"",""trial"",""time""
""focus"",""0"",""2""
","""event"",""trial"",""time""
""fullscreenenter"",""1"",""3097""
","
","","","1319","","","15","5979","3495","y","elianto","#f73b6a7A"," "," ","1","0","[2170]","1","2","","","5979","97","7","3","lose","go","0"
"pit-trial","216","1344008","0.0-102.0","battery-v0.2","","""event"",""trial"",""time""
""focus"",""0"",""2""
""fullscreenenter"",""1"",""3097""
","
","""event"",""trial"",""time""
""focus"",""0"",""2""
","""event"",""trial"",""time""
""fullscreenenter"",""1"",""3097""
","
","","","-1","","","15","5979","3495","r","elianto","#3366ff99","-1","-1","1","+10","[]","0","2","","","5979","98","8","2","win","no-go","0"
"pit-trial","217","1348158","0.0-103.0","battery-v0.2","","""event"",""trial"",""time""
""focus"",""0"",""2""
""fullscreenenter"",""1"",""3097""
","
","""event"",""trial"",""time""
""focus"",""0"",""2""
","""event"",""trial"",""time""
""fullscreenenter"",""1"",""3097""
","
","","","1279","","","15","5979","3495","z","elianto","#3366ff99"," "," ","1","+10","[2130]","1","2","","","5979","99","5","1","win","go","0"
"pit-trial","218","1353023","0.0-104.0","battery-v0.2","","""event"",""trial"",""time""
""focus"",""0"",""2""
""fullscreenenter"",""1"",""3097""
","
","""event"",""trial"",""time""
""focus"",""0"",""2""
","""event"",""trial"",""time""
""fullscreenenter"",""1"",""3097""
","
","","","-1","","","15","5979","3495","h","elianto","#f73b6a7A","-1","-1","1","0","[]","0","2","","","5979","100","6","4","lose","no-go","0"
"pit-trial","219","1357223","0.0-105.0","battery-v0.2","","""event"",""trial"",""time""
""focus"",""0"",""2""
""fullscreenenter"",""1"",""3097""
","
","""event"",""trial"",""time""
""focus"",""0"",""2""
","""event"",""trial"",""time""
""fullscreenenter"",""1"",""3097""
","
","","","1328","","","15","5979","3495","m","elianto","#3366ff99","-1"," ","0","+10","[2189]","1","2","","","5979","101","9","2","win","no-go","1"
"pit-trial","220","1362088","0.0-106.0","battery-v0.2","","""event"",""trial"",""time""
""focus"",""0"",""2""
""fullscreenenter"",""1"",""3097""
","
","""event"",""trial"",""time""
""focus"",""0"",""2""
","""event"",""trial"",""time""
""fullscreenenter"",""1"",""3097""
","
","","","-1","","","15","5979","3495","h","elianto","#f73b6a7A","-1","-1","1","0","[]","0","2","","","5979","102","6","4","lose","no-go","0"
"pit-trial","221","1366963","0.0-107.0","battery-v0.2","","""event"",""trial"",""time""
""focus"",""0"",""2""
""fullscreenenter"",""1"",""3097""
","
","""event"",""trial"",""time""
""focus"",""0"",""2""
","""event"",""trial"",""time""
""fullscreenenter"",""1"",""3097""
","
","","","-1","","","15","5979","3495","r","elianto","#3366ff99","-1","-1","1","+10","[]","0","2","","","5979","103","8","2","win","no-go","0"
"pit-trial","222","1371179","0.0-108.0","battery-v0.2","","""event"",""trial"",""time""
""focus"",""0"",""2""
""fullscreenenter"",""1"",""3097""
","
","""event"",""trial"",""time""
""focus"",""0"",""2""
","""event"",""trial"",""time""
""fullscreenenter"",""1"",""3097""
","
","","","1335","","","15","5979","3495","z","elianto","#3366ff99"," "," ","1","+10","[2193]","1","2","","","5979","104","5","1","win","go","0"
"pit-trial","223","1375429","0.0-109.0","battery-v0.2","","""event"",""trial"",""time""
""focus"",""0"",""2""
""fullscreenenter"",""1"",""3097""
","
","""event"",""trial"",""time""
""focus"",""0"",""2""
","""event"",""trial"",""time""
""fullscreenenter"",""1"",""3097""
","
","","","1386","","","15","5979","3495","z","elianto","#3366ff99"," "," ","1","+10","[2240]","1","2","","","5979","105","5","1","win","go","0"
"pit-trial","224","1380312","0.0-110.0","battery-v0.2","","""event"",""trial"",""time""
""focus"",""0"",""2""
""fullscreenenter"",""1"",""3097""
","
","""event"",""trial"",""time""
""focus"",""0"",""2""
","""event"",""trial"",""time""
""fullscreenenter"",""1"",""3097""
","
","","","-1","","","15","5979","3495","h","elianto","#f73b6a7A","-1","-1","1","-10","[]","0","2","","","5979","106","6","4","lose","no-go","1"
"pit-trial","225","1384322","0.0-111.0","battery-v0.2","","""event"",""trial"",""time""
""focus"",""0"",""2""
""fullscreenenter"",""1"",""3097""
","
","""event"",""trial"",""time""
""focus"",""0"",""2""
","""event"",""trial"",""time""
""fullscreenenter"",""1"",""3097""
","
","","","1134","","","15","5979","3495","m","elianto","#3366ff99","-1"," ","0","0","[1995]","1","2","","","5979","107","9","2","win","no-go","0"
"pit-trial","226","1389182","0.0-112.0","battery-v0.2","","""event"",""trial"",""time""
""focus"",""0"",""2""
""fullscreenenter"",""1"",""3097""
","
","""event"",""trial"",""time""
""focus"",""0"",""2""
","""event"",""trial"",""time""
""fullscreenenter"",""1"",""3097""
","
","","","-1","","","15","5979","3495","r","elianto","#3366ff99","-1","-1","1","+10","[]","0","2","","","5979","108","8","2","win","no-go","0"
"pit-trial","227","1393282","0.0-113.0","battery-v0.2","","""event"",""trial"",""time""
""focus"",""0"",""2""
""fullscreenenter"",""1"",""3097""
","
","""event"",""trial"",""time""
""focus"",""0"",""2""
","""event"",""trial"",""time""
""fullscreenenter"",""1"",""3097""
","
","","","1223","","","15","5979","3495","m","elianto","#3366ff99","-1"," ","0","0","[2085]","1","2","","","5979","109","9","2","win","no-go","0"
"pit-trial","228","1397303","0.0-114.0","battery-v0.2","","""event"",""trial"",""time""
""focus"",""0"",""2""
""fullscreenenter"",""1"",""3097""
","
","""event"",""trial"",""time""
""focus"",""0"",""2""
","""event"",""trial"",""time""
""fullscreenenter"",""1"",""3097""
","
","","","1154","","","15","5979","3495","z","elianto","#3366ff99"," "," ","1","+10","[2010]","1","2","","","5979","110","5","1","win","go","0"
"pit-trial","229","1402163","0.0-115.0","battery-v0.2","","""event"",""trial"",""time""
""focus"",""0"",""2""
""fullscreenenter"",""1"",""3097""
","
","""event"",""trial"",""time""
""focus"",""0"",""2""
","""event"",""trial"",""time""
""fullscreenenter"",""1"",""3097""
","
","","","-1","","","15","5979","3495","r","elianto","#3366ff99","-1","-1","1","+10","[]","0","2","","","5979","111","8","2","win","no-go","0"
"pit-trial","230","1407034","0.0-116.0","battery-v0.2","","""event"",""trial"",""time""
""focus"",""0"",""2""
""fullscreenenter"",""1"",""3097""
","
","""event"",""trial"",""time""
""focus"",""0"",""2""
","""event"",""trial"",""time""
""fullscreenenter"",""1"",""3097""
","
