"trial_type","trial_index","time_elapsed","internal_node_id","task_version","subject_id","interactions","blur_events","focus_events","fullscreenenter_events","fullscreenexit_events","success","view_history","rt","responses","num_errors","age","subject","participantId","rune","rune_set","hex","correct","choice","accuracy","outcome","keys","total_keys","block","practice","value","sub","trial","stimulus","robot","valence","action","sham"
"pavlovia","0","7","0.0-0.0","battery-v0.2","","""event"",""trial"",""time""
""fullscreenenter"",""1"",""2375""
","
","
","""event"",""trial"",""time""
""fullscreenenter"",""1"",""2375""
","
","","","","","","","","","","","","","","","","","","","","","","","","","","",""
"fullscreen","1","3367","0.0-1.0","battery-v0.2","","""event"",""trial"",""time""
""fullscreenenter"",""1"",""2375""
","
","
","""event"",""trial"",""time""
""fullscreenenter"",""1"",""2375""
","
","true","","","","","","","","","","","","","","","","","","","","","","","","","",""
"pit-instructions","2","8904","0.0-2.0-0.0","battery-v0.2","","""event"",""trial"",""time""
""fullscreenenter"",""1"",""2375""
","
","
","""event"",""trial"",""time""
""fullscreenenter"",""1"",""2375""
","
","","[{""page_index"":0,""viewing_time"":5534.799999999988}]","5535.299999999988","","","","","","","","","","","","","","","","","","","","","","","",""
"pit-comprehension","3","12184","0.0-2.0-1.0-0.0","battery-v0.2","","""event"",""trial"",""time""
""fullscreenenter"",""1"",""2375""
","
","
","""event"",""trial"",""time""
""fullscreenenter"",""1"",""2375""
","
","","","3276.79999999993","[""shark""]","0","13","3365","1981","","","","","","","","","","","","","","","","","","",""
"pit-instructions","4","13602","0.0-2.0-1.0-1.0","battery-v0.2","","""event"",""trial"",""time""
""fullscreenenter"",""1"",""2375""
","
","
","""event"",""trial"",""time""
""fullscreenenter"",""1"",""2375""
","
","","[{""page_index"":0,""viewing_time"":1409.8000000000466}]","1410","","","","","","","","","","","","","","","","","","","","","","","",""
"pit-comprehension","5","16018","0.0-2.0-2.0-0.0","battery-v0.2","","""event"",""trial"",""time""
""fullscreenenter"",""1"",""2375""
","
","
","""event"",""trial"",""time""
""fullscreenenter"",""1"",""2375""
","
","","","2414.3000000000466","[""tiger""]","0","13","3365","1981","","","","","","","","","","","","","","","","","","",""
"pit-instructions","6","17774","0.0-2.0-2.0-1.0","battery-v0.2","","""event"",""trial"",""time""
""fullscreenenter"",""1"",""2375""
","
","
","""event"",""trial"",""time""
""fullscreenenter"",""1"",""2375""
","
","","[{""page_index"":0,""viewing_time"":1753.3999999999069}]","1753.6999999999534","","","","","","","","","","","","","","","","","","","","","","","",""
"pit-instructions","7","123497","0.0-2.0-3.0","battery-v0.2","","""event"",""trial"",""time""
""fullscreenenter"",""1"",""2375""
","
","
","""event"",""trial"",""time""
""fullscreenenter"",""1"",""2375""
","
","","[{""page_index"":0,""viewing_time"":8725.800000000047},{""page_index"":1,""viewing_time"":8610.699999999953},{""page_index"":2,""viewing_time"":7542.5},{""page_index"":3,""viewing_time"":6126.400000000023},{""page_index"":4,""viewing_time"":7400.300000000047},{""page_index"":5,""viewing_time"":6386.400000000023},{""page_index"":6,""viewing_time"":7196.399999999907},{""page_index"":7,""viewing_time"":7224.5},{""page_index"":8,""viewing_time"":8784.5},{""page_index"":9,""viewing_time"":8738.900000000023},{""page_index"":10,""viewing_time"":7298.099999999977},{""page_index"":11,""viewing_time"":7890.400000000023},{""page_index"":12,""viewing_time"":6876.400000000023},{""page_index"":13,""viewing_time"":6918.5}]","105720.1000000001","","","","","","","","","","","","","","","","","","","","","","","",""
"pit-trial","8","126929","0.0-2.0-4.0-0.0","battery-v0.2","","""event"",""trial"",""time""
""fullscreenenter"",""1"",""2375""
","
","
","""event"",""trial"",""time""
""fullscreenenter"",""1"",""2375""
","
","","","571.4000000000233","","","13","3365","1981","&#9784;","elianto","#FFFFF080"," "," ","1","&#10004","[1422.8000000000466]","1","0","0","","","","","","","",""
"pit-trial","9","130383","0.0-2.0-4.1-0.1","battery-v0.2","","""event"",""trial"",""time""
""fullscreenenter"",""1"",""2375""
","
","
","""event"",""trial"",""time""
""fullscreenenter"",""1"",""2375""
","
","","","586.8999999999069","","","13","3365","1981","&#9784;","elianto","#FFFFF080"," "," ","1","&#10004","[1438.1999999999534]","1","0","0","","","","","","","",""
"pit-trial","10","133837","0.0-2.0-4.2-0.2","battery-v0.2","","""event"",""trial"",""time""
""fullscreenenter"",""1"",""2375""
","
","
","""event"",""trial"",""time""
""fullscreenenter"",""1"",""2375""
","
","","","579","","","13","3365","1981","&#9784;","elianto","#FFFFF080"," "," ","1","&#10004","[1432.4000000000233]","1","0","0","","","","","","","",""
"pit-trial","11","137213","0.0-2.0-4.3-0.3","battery-v0.2","","""event"",""trial"",""time""
""fullscreenenter"",""1"",""2375""
","
","
","""event"",""trial"",""time""
""fullscreenenter"",""1"",""2375""
","
","","","507","","","13","3365","1981","&#9784;","elianto","#FFFFF080"," "," ","1","&#10004","[1363]","1","0","0","","","","","","","",""
"pit-trial","12","140667","0.0-2.0-4.4-0.4","battery-v0.2","","""event"",""trial"",""time""
""fullscreenenter"",""1"",""2375""
","
","
","""event"",""trial"",""time""
""fullscreenenter"",""1"",""2375""
","
","","","587.6000000000931","","","13","3365","1981","&#9784;","elianto","#FFFFF080"," "," ","1","&#10004","[1442.8999999999069]","1","0","0","","","","","","","",""
"pit-instructions","13","164594","0.0-2.0-5.0","battery-v0.2","","""event"",""trial"",""time""
""fullscreenenter"",""1"",""2375""
","
","
","""event"",""trial"",""time""
""fullscreenenter"",""1"",""2375""
","
","","[{""page_index"":0,""viewing_time"":5225.400000000023},{""page_index"":1,""viewing_time"":5450.400000000023},{""page_index"":2,""viewing_time"":6678.29999999993},{""page_index"":3,""viewing_time"":6570.400000000023}]","23924.800000000047","","","","","","","","","","","","","","","","","","","","","","","",""
"pit-trial","14","169475","0.0-2.0-6.0-0.0","battery-v0.2","","""event"",""trial"",""time""
""fullscreenenter"",""1"",""2375""
","
","
","""event"",""trial"",""time""
""fullscreenenter"",""1"",""2375""
","
","","","-1","","","13","3365","1981","&#9854;","elianto","#FFFFF080","-1","-1","1","&#10004","[]","0","0","1","","","","","","","",""
"pit-trial","15","174354","0.0-2.0-6.1-0.1","battery-v0.2","","""event"",""trial"",""time""
""fullscreenenter"",""1"",""2375""
","
","
","""event"",""trial"",""time""
""fullscreenenter"",""1"",""2375""
","
","","","-1","","","13","3365","1981","&#9854;","elianto","#FFFFF080","-1","-1","1","&#10004","[]","0","0","1","","","","","","","",""
"pit-trial","16","179232","0.0-2.0-6.2-0.2","battery-v0.2","","""event"",""trial"",""time""
""fullscreenenter"",""1"",""2375""
","
","
","""event"",""trial"",""time""
""fullscreenenter"",""1"",""2375""
","
","","","-1","","","13","3365","1981","&#9854;","elianto","#FFFFF080","-1","-1","1","&#10004","[3777.4000000000233]","1","0","1","","","","","","","",""
"pit-trial","17","184111","0.0-2.0-6.3-0.3","battery-v0.2","","""event"",""trial"",""time""
""fullscreenenter"",""1"",""2375""
","
","
","""event"",""trial"",""time""
""fullscreenenter"",""1"",""2375""
","
","","","-1","","","13","3365","1981","&#9854;","elianto","#FFFFF080","-1","-1","1","&#10004","[]","0","0","1","","","","","","","",""
"pit-trial","18","188989","0.0-2.0-6.4-0.4","battery-v0.2","","""event"",""trial"",""time""
""fullscreenenter"",""1"",""2375""
","
","
","""event"",""trial"",""time""
""fullscreenenter"",""1"",""2375""
","
","","","-1","","","13","3365","1981","&#9854;","elianto","#FFFFF080","-1","-1","1","&#10004","[]","0","0","1","","","","","","","",""
"pit-instructions","19","340348","0.0-2.0-7.0","battery-v0.2","","""event"",""trial"",""time""
""fullscreenenter"",""1"",""2375""
","
","
","""event"",""trial"",""time""
""fullscreenenter"",""1"",""2375""
","
","","[{""page_index"":0,""viewing_time"":7826.29999999993},{""page_index"":1,""viewing_time"":7804.400000000023},{""page_index"":2,""viewing_time"":8974.300000000047},{""page_index"":3,""viewing_time"":8978.699999999953},{""page_index"":4,""viewing_time"":7904.400000000023},{""page_index"":5,""viewing_time"":5698.599999999977},{""page_index"":6,""viewing_time"":6076.400000000023},{""page_index"":7,""viewing_time"":10400.400000000023},{""page_index"":8,""viewing_time"":13292.79999999993},{""page_index"":9,""viewing_time"":8378.5},{""page_index"":10,""viewing_time"":7436.5},{""page_index"":11,""viewing_time"":8246.400000000023},{""page_index"":12,""viewing_time"":10068.800000000047},{""page_index"":13,""viewing_time"":8378.29999999993},{""page_index"":14,""viewing_time"":7490.800000000047},{""page_index"":15,""viewing_time"":6860.099999999977},{""page_index"":16,""viewing_time"":8730.5},{""page_index"":17,""viewing_time"":8810.599999999977}]","151357","","","","","","","","","","","","","","","","","","","","","","","",""
"pit-trial","20","345077","0.0-2.0-8.0-0.0","battery-v0.2","","""event"",""trial"",""time""
""fullscreenenter"",""1"",""2375""
","
","
","""event"",""trial"",""time""
""fullscreenenter"",""1"",""2375""
","
","","","1853.4000000000233","","","13","3365","1981","&#9776;","elianto","#3366ff99"," "," ","1","+10","[2704.9000000000233]","1","0","1","","","","","","","",""
"pit-trial","21","348840","0.0-2.0-8.0-1.0","battery-v0.2","","""event"",""trial"",""time""
""fullscreenenter"",""1"",""2375""
","
","
","""event"",""trial"",""time""
""fullscreenenter"",""1"",""2375""
","
","","","896","","","13","3365","1981","&#9776;","elianto","#3366ff99"," "," ","1","+10","[1752.1000000000931]","1","0","1","","","","","","","",""
"pit-trial","22","352372","0.0-2.0-8.0-2.0","battery-v0.2","","""event"",""trial"",""time""
""fullscreenenter"",""1"",""2375""
","
","
","""event"",""trial"",""time""
""fullscreenenter"",""1"",""2375""
","
","","","665.3999999999069","","","13","3365","1981","&#9776;","elianto","#3366ff99"," "," ","1","+10","[1517.1999999999534]","1","0","1","","","","","","","",""
"pit-trial","23","355919","0.0-2.0-8.0-3.0","battery-v0.2","","""event"",""trial"",""time""
""fullscreenenter"",""1"",""2375""
","
","
","""event"",""trial"",""time""
""fullscreenenter"",""1"",""2375""
","
","","","672.9000000000233","","","13","3365","1981","&#9776;","elianto","#3366ff99"," "," ","1","0","[1530.0999999999767]","1","0","1","","","","","","","",""
"pit-trial","24","359450","0.0-2.0-8.0-4.0","battery-v0.2","","""event"",""trial"",""time""
""fullscreenenter"",""1"",""2375""
","
","
","""event"",""trial"",""time""
""fullscreenenter"",""1"",""2375""
","
","","","657.1999999999534","","","13","3365","1981","&#9776;","elianto","#3366ff99"," "," ","1","+10","[1511]","1","0","1","","","","","","","",""
"call-function","25","359451","0.0-2.0-9.0","battery-v0.2","","""event"",""trial"",""time""
""fullscreenenter"",""1"",""2375""
","
","
","""event"",""trial"",""time""
""fullscreenenter"",""1"",""2375""
","
","","","","","","","","","","","","","","","","","","","","","","","","","","",""
"pit-instructions","26","405166","0.0-2.0-10.0","battery-v0.2","","""event"",""trial"",""time""
""fullscreenenter"",""1"",""2375""
","
","
","""event"",""trial"",""time""
""fullscreenenter"",""1"",""2375""
","
","","[{""page_index"":0,""viewing_time"":8634.300000000047},{""page_index"":1,""viewing_time"":8272.5},{""page_index"":2,""viewing_time"":10980.699999999953},{""page_index"":3,""viewing_time"":9604.800000000047},{""page_index"":4,""viewing_time"":8222.29999999993}]","45714.90000000002","","","","","","","","","","","","","","","","","","","","","","","",""
"pit-trial","27","408964","0.0-2.0-11.0-0.0","battery-v0.2","","""event"",""trial"",""time""
""fullscreenenter"",""1"",""2375""
","
","
","""event"",""trial"",""time""
""fullscreenenter"",""1"",""2375""
","
","","","927.1999999999534","","","13","3365","1981","&#9761;","elianto","#3366ff99","-1"," ","0","0","[1778.6999999999534]","1","0","2","","","","","","","",""
"pit-trial","28","412945","0.0-2.0-11.0-1.0","battery-v0.2","","""event"",""trial"",""time""
""fullscreenenter"",""1"",""2375""
","
","
","""event"",""trial"",""time""
""fullscreenenter"",""1"",""2375""
","
","","","1107.6999999999534","","","13","3365","1981","&#9761;","elianto","#3366ff99","-1"," ","0","0","[1964.3999999999069]","1","0","2","","","","","","","",""
"pit-trial","29","417823","0.0-2.0-11.0-2.0","battery-v0.2","","""event"",""trial"",""time""
""fullscreenenter"",""1"",""2375""
","
","
","""event"",""trial"",""time""
""fullscreenenter"",""1"",""2375""
","
","","","-1","","","13","3365","1981","&#9761;","elianto","#3366ff99","-1","-1","1","+10","[]","0","0","2","","","","","","","",""
"pit-trial","30","422702","0.0-2.0-11.0-3.0","battery-v0.2","","""event"",""trial"",""time""
""fullscreenenter"",""1"",""2375""
","
","
","""event"",""trial"",""time""
""fullscreenenter"",""1"",""2375""
","
","","","-1","","","13","3365","1981","&#9761;","elianto","#3366ff99","-1","-1","1","0","[]","0","0","2","","","","","","","",""
"pit-trial","31","427581","0.0-2.0-11.0-4.0","battery-v0.2","","""event"",""trial"",""time""
""fullscreenenter"",""1"",""2375""
","
","
","""event"",""trial"",""time""
""fullscreenenter"",""1"",""2375""
","
","","","-1","","","13","3365","1981","&#9761;","elianto","#3366ff99","-1","-1","1","+10","[]","0","0","2","","","","","","","",""
"pit-trial","32","432459","0.0-2.0-11.1-0.1","battery-v0.2","","""event"",""trial"",""time""
""fullscreenenter"",""1"",""2375""
","
","
","""event"",""trial"",""time""
""fullscreenenter"",""1"",""2375""
","
","","","-1","","","13","3365","1981","&#9761;","elianto","#3366ff99","-1","-1","1","+10","[]","0","0","2","","","","","","","",""
"pit-trial","33","437326","0.0-2.0-11.1-1.1","battery-v0.2","","""event"",""trial"",""time""
""fullscreenenter"",""1"",""2375""
","
","
","""event"",""trial"",""time""
""fullscreenenter"",""1"",""2375""
","
","","","-1","","","13","3365","1981","&#9761;","elianto","#3366ff99","-1","-1","1","+10","[]","0","0","2","","","","","","","",""
"pit-trial","34","442190","0.0-2.0-11.1-2.1","battery-v0.2","","""event"",""trial"",""time""
""fullscreenenter"",""1"",""2375""
","
","
","""event"",""trial"",""time""
""fullscreenenter"",""1"",""2375""
","
","","","-1","","","13","3365","1981","&#9761;","elianto","#3366ff99","-1","-1","1","+10","[]","0","0","2","","","","","","","",""
"pit-trial","35","447054","0.0-2.0-11.1-3.1","battery-v0.2","","""event"",""trial"",""time""
""fullscreenenter"",""1"",""2375""
","
","
","""event"",""trial"",""time""
""fullscreenenter"",""1"",""2375""
","
","","","-1","","","13","3365","1981","&#9761;","elianto","#3366ff99","-1","-1","1","0","[]","0","0","2","","","","","","","",""
"pit-trial","36","451917","0.0-2.0-11.1-4.1","battery-v0.2","","""event"",""trial"",""time""
""fullscreenenter"",""1"",""2375""
","
","
","""event"",""trial"",""time""
""fullscreenenter"",""1"",""2375""
","
","","","-1","","","13","3365","1981","&#9761;","elianto","#3366ff99","-1","-1","1","+10","[]","0","0","2","","","","","","","",""
"call-function","37","451918","0.0-2.0-12.0","battery-v0.2","","""event"",""trial"",""time""
""fullscreenenter"",""1"",""2375""
","
","
","""event"",""trial"",""time""
""fullscreenenter"",""1"",""2375""
","
","","","","","","","","","","","","","","","","","","","","","","","","","","",""
"pit-instructions","38","489381","0.0-2.0-13.0","battery-v0.2","","""event"",""trial"",""time""
""fullscreenenter"",""1"",""2375""
","
","
","""event"",""trial"",""time""
""fullscreenenter"",""1"",""2375""
","
","","[{""page_index"":0,""viewing_time"":5676.100000000093},{""page_index"":1,""viewing_time"":9528.5},{""page_index"":2,""viewing_time"":5764.29999999993},{""page_index"":3,""viewing_time"":11220.800000000047},{""page_index"":4,""viewing_time"":5272.29999999993}]","37462.20000000007","","","","","","","","","","","","","","","","","","","","","","","",""
"pit-trial","39","493389","0.0-2.0-14.0-0.0","battery-v0.2","","""event"",""trial"",""time""
""fullscreenenter"",""1"",""2375""
","
","
","""event"",""trial"",""time""
""fullscreenenter"",""1"",""2375""
","
","","","1129.1999999999534","","","13","3365","1981","&#9826;","elianto","#f73b6a7A","-1"," ","0","-10","[1984.6999999999534]","1","0","3","","","","","","","",""
"pit-trial","40","497060","0.0-2.0-14.0-1.0","battery-v0.2","","""event"",""trial"",""time""
""fullscreenenter"",""1"",""2375""
","
","
","""event"",""trial"",""time""
""fullscreenenter"",""1"",""2375""
","
","","","803.5","","","13","3365","1981","&#9826;","elianto","#f73b6a7A","-1"," ","0","-10","[1657.4000000000233]","1","0","3","","","","","","","",""
"pit-trial","41","501939","0.0-2.0-14.0-2.0","battery-v0.2","","""event"",""trial"",""time""
""fullscreenenter"",""1"",""2375""
","
","
","""event"",""trial"",""time""
""fullscreenenter"",""1"",""2375""
","
","","","-1","","","13","3365","1981","&#9826;","elianto","#f73b6a7A","-1","-1","1","0","[]","0","0","3","","","","","","","",""
"pit-trial","42","506817","0.0-2.0-14.0-3.0","battery-v0.2","","""event"",""trial"",""time""
""fullscreenenter"",""1"",""2375""
","
","
","""event"",""trial"",""time""
""fullscreenenter"",""1"",""2375""
","
","","","-1","","","13","3365","1981","&#9826;","elianto","#f73b6a7A","-1","-1","1","-10","[]","0","0","3","","","","","","","",""
"pit-trial","43","511696","0.0-2.0-14.0-4.0","battery-v0.2","","""event"",""trial"",""time""
""fullscreenenter"",""1"",""2375""
","
","
","""event"",""trial"",""time""
""fullscreenenter"",""1"",""2375""
","
","","","-1","","","13","3365","1981","&#9826;","elianto","#f73b6a7A","-1","-1","1","0","[]","0","0","3","","","","","","","",""
"pit-trial","44","516575","0.0-2.0-14.1-0.1","battery-v0.2","","""event"",""trial"",""time""
""fullscreenenter"",""1"",""2375""
","
","
","""event"",""trial"",""time""
""fullscreenenter"",""1"",""2375""
","
","","","-1","","","13","3365","1981","&#9826;","elianto","#f73b6a7A","-1","-1","1","0","[]","0","0","3","","","","","","","",""
"pit-trial","45","521438","0.0-2.0-14.1-1.1","battery-v0.2","","""event"",""trial"",""time""
""fullscreenenter"",""1"",""2375""
","
","
","""event"",""trial"",""time""
""fullscreenenter"",""1"",""2375""
","
","","","-1","","","13","3365","1981","&#9826;","elianto","#f73b6a7A","-1","-1","1","0","[]","0","0","3","","","","","","","",""
"pit-trial","46","526317","0.0-2.0-14.1-2.1","battery-v0.2","","""event"",""trial"",""time""
""fullscreenenter"",""1"",""2375""
","
","
","""event"",""trial"",""time""
""fullscreenenter"",""1"",""2375""
","
","","","-1","","","13","3365","1981","&#9826;","elianto","#f73b6a7A","-1","-1","1","0","[]","0","0","3","","","","","","","",""
"pit-trial","47","531182","0.0-2.0-14.1-3.1","battery-v0.2","","""event"",""trial"",""time""
""fullscreenenter"",""1"",""2375""
","
","
","""event"",""trial"",""time""
""fullscreenenter"",""1"",""2375""
","
","","","-1","","","13","3365","1981","&#9826;","elianto","#f73b6a7A","-1","-1","1","-10","[]","0","0","3","","","","","","","",""
"pit-trial","48","536046","0.0-2.0-14.1-4.1","battery-v0.2","","""event"",""trial"",""time""
""fullscreenenter"",""1"",""2375""
","
","
","""event"",""trial"",""time""
""fullscreenenter"",""1"",""2375""
","
","","","-1","","","13","3365","1981","&#9826;","elianto","#f73b6a7A","-1","-1","1","0","[]","0","0","3","","","","","","","",""
"call-function","49","536047","0.0-2.0-15.0","battery-v0.2","","""event"",""trial"",""time""
""fullscreenenter"",""1"",""2375""
","
","
","""event"",""trial"",""time""
""fullscreenenter"",""1"",""2375""
","
","","","","","","","","","","","","","","","","","","","","","","","","","","",""
"pit-instructions","50","566685","0.0-2.0-16.0","battery-v0.2","","""event"",""trial"",""time""
""fullscreenenter"",""1"",""2375""
","
","
","""event"",""trial"",""time""
""fullscreenenter"",""1"",""2375""
","
","","[{""page_index"":0,""viewing_time"":8232.899999999907},{""page_index"":1,""viewing_time"":9498.800000000047},{""page_index"":2,""viewing_time"":7354.199999999953},{""page_index"":3,""viewing_time"":5552.399999999907}]","30638.59999999986","","","","","","","","","","","","","","","","","","","","","","","",""
"pit-trial","51","570349","0.0-2.0-17.0-0.0","battery-v0.2","","""event"",""trial"",""time""
""fullscreenenter"",""1"",""2375""
","
","
","""event"",""trial"",""time""
""fullscreenenter"",""1"",""2375""
","
","","","794.1000000000931","","","13","3365","1981","&#9789;","elianto","#f73b6a7A"," "," ","1","0","[1644.6999999999534]","1","0","4","","","","","","","",""
"pit-trial","52","573291","0.0-2.0-17.0-1.0","battery-v0.2","","""event"",""trial"",""time""
""fullscreenenter"",""1"",""2375""
","
","
","""event"",""trial"",""time""
""fullscreenenter"",""1"",""2375""
","
","","","77.89999999990687","","","13","3365","1981","&#9789;","elianto","#f73b6a7A"," "," ","1","0","[934]","1","0","4","","","","","","","",""
"pit-trial","53","576156","0.0-2.0-17.0-2.0","battery-v0.2","","""event"",""trial"",""time""
""fullscreenenter"",""1"",""2375""
","
","
","""event"",""trial"",""time""
""fullscreenenter"",""1"",""2375""
","
","","","11.600000000093132","","","13","3365","1981","&#9789;","elianto","#f73b6a7A"," "," ","1","0","[559.5,863.3999999999069,1391.6999999999534,2007.5999999998603,2167.5999999998603,2431.5999999998603,2711.5999999998603]","7","0","4","","","","","","","",""
"pit-trial","54","579099","0.0-2.0-17.0-3.0","battery-v0.2","","""event"",""trial"",""time""
""fullscreenenter"",""1"",""2375""
","
","
","""event"",""trial"",""time""
""fullscreenenter"",""1"",""2375""
","
","","","70.4000000001397","","","13","3365","1981","&#9789;","elianto","#f73b6a7A"," "," ","1","-10","[310.39999999990687,926.8000000000466,1478.5999999998603,1742.5,2070.5,2326.8000000000466]","6","0","4","","","","","","","",""
"pit-trial","55","582398","0.0-2.0-17.0-4.0","battery-v0.2","","""event"",""trial"",""time""
""fullscreenenter"",""1"",""2375""
","
","
","""event"",""trial"",""time""
""fullscreenenter"",""1"",""2375""
","
","","","445.89999999990687","","","13","3365","1981","&#9789;","elianto","#f73b6a7A"," "," ","1","0","[104,759.8000000000466,1296,1600,2064,2880.3000000000466,3184.100000000093]","7","0","4","","","","","","","",""
"call-function","56","582399","0.0-2.0-18.0","battery-v0.2","","""event"",""trial"",""time""
""fullscreenenter"",""1"",""2375""
","
","
","""event"",""trial"",""time""
""fullscreenenter"",""1"",""2375""
","
","","","","","","","","","","","","","","","","","","","","","","","","","","",""
"pit-instructions","57","670112","0.0-2.0-19.0","battery-v0.2","","""event"",""trial"",""time""
""fullscreenenter"",""1"",""2375""
","
","
","""event"",""trial"",""time""
""fullscreenenter"",""1"",""2375""
","
","","[{""page_index"":0,""viewing_time"":7667.199999999953},{""page_index"":1,""viewing_time"":7324.5},{""page_index"":2,""viewing_time"":15836.90000000014},{""page_index"":3,""viewing_time"":8110.5},{""page_index"":4,""viewing_time"":9716.699999999953},{""page_index"":5,""viewing_time"":10374.59999999986},{""page_index"":6,""viewing_time"":9398.600000000093},{""page_index"":7,""viewing_time"":13249.100000000093},{""page_index"":8,""viewing_time"":6034.09999999986}]","87712.3999999999","","","","","","","","","","","","","","","","","","","","","","","",""
"pit-comprehension","58","675674","0.0-2.0-20.0-0.0","battery-v0.2","","""event"",""trial"",""time""
""fullscreenenter"",""1"",""2375""
","
","
","""event"",""trial"",""time""
""fullscreenenter"",""1"",""2375""
","
","","","5559.899999999907","[""SPACE""]","0","13","3365","1981","","","","","","","","","","","","","","","","","","",""
"pit-instructions","59","680807","0.0-2.0-20.0-1.0","battery-v0.2","","""event"",""trial"",""time""
""fullscreenenter"",""1"",""2375""
","
","
","""event"",""trial"",""time""
""fullscreenenter"",""1"",""2375""
","
","","[{""page_index"":0,""viewing_time"":5113.799999999814}]","5114.199999999953","","","","","","","","","","","","","","","","","","","","","","","",""
"pit-comprehension","60","688769","0.0-2.0-21.0-0.0","battery-v0.2","","""event"",""trial"",""time""
""fullscreenenter"",""1"",""2375""
","
","
","""event"",""trial"",""time""
""fullscreenenter"",""1"",""2375""
","
","","","7959.300000000047","[""10""]","0","13","3365","1981","","","","","","","","","","","","","","","","","","",""
"pit-instructions","61","692951","0.0-2.0-21.0-1.0","battery-v0.2","","""event"",""trial"",""time""
""fullscreenenter"",""1"",""2375""
","
","
","""event"",""trial"",""time""
""fullscreenenter"",""1"",""2375""
","
","","[{""page_index"":0,""viewing_time"":4162.299999999814}]","4162.59999999986","","","","","","","","","","","","","","","","","","","","","","","",""
"pit-comprehension","62","703944","0.0-2.0-22.0-0.0","battery-v0.2","","""event"",""trial"",""time""
""fullscreenenter"",""1"",""2375""
","
","
","""event"",""trial"",""time""
""fullscreenenter"",""1"",""2375""
","
","","","10990.600000000093","[""0""]","0","13","3365","1981","","","","","","","","","","","","","","","","","","",""
"pit-instructions","63","711526","0.0-2.0-22.0-1.0","battery-v0.2","","""event"",""trial"",""time""
""fullscreenenter"",""1"",""2375""
","
","
","""event"",""trial"",""time""
""fullscreenenter"",""1"",""2375""
","
","","[{""page_index"":0,""viewing_time"":7563.800000000047}]","7563.899999999907","","","","","","","","","","","","","","","","","","","","","","","",""
"pit-comprehension","64","721871","0.0-2.0-23.0-0.0","battery-v0.2","","""event"",""trial"",""time""
""fullscreenenter"",""1"",""2375""
","
","
","""event"",""trial"",""time""
""fullscreenenter"",""1"",""2375""
","
","","","10343","[""True""]","0","13","3365","1981","","","","","","","","","","","","","","","","","","",""
"pit-instructions","65","726376","0.0-2.0-23.0-1.0","battery-v0.2","","""event"",""trial"",""time""
""fullscreenenter"",""1"",""2375""
","
","
","""event"",""trial"",""time""
""fullscreenenter"",""1"",""2375""
","
","","[{""page_index"":0,""viewing_time"":4485.199999999953}]","4485.40000000014","","","","","","","","","","","","","","","","","","","","","","","",""
"pit-comprehension","66","735264","0.0-2.0-24.0-0.0","battery-v0.2","","""event"",""trial"",""time""
""fullscreenenter"",""1"",""2375""
","
","
","""event"",""trial"",""time""
""fullscreenenter"",""1"",""2375""
","
","","","8886.09999999986","[""True""]","0","13","3365","1981","","","","","","","","","","","","","","","","","","",""
"pit-instructions","67","738646","0.0-2.0-24.0-1.0","battery-v0.2","","""event"",""trial"",""time""
""fullscreenenter"",""1"",""2375""
","
","
","""event"",""trial"",""time""
""fullscreenenter"",""1"",""2375""
","
","","[{""page_index"":0,""viewing_time"":3362.0999999998603}]","3362.2999999998137","","","","","","","","","","","","","","","","","","","","","","","",""
"pit-comprehension","68","744911","0.0-2.0-25.0-0.0","battery-v0.2","","""event"",""trial"",""time""
""fullscreenenter"",""1"",""2375""
","
","
","""event"",""trial"",""time""
""fullscreenenter"",""1"",""2375""
","
","","","6263.100000000093","[""True""]","0","13","3365","1981","","","","","","","","","","","","","","","","","","",""
"pit-instructions","69","749179","0.0-2.0-25.0-1.0","battery-v0.2","","""event"",""trial"",""time""
""fullscreenenter"",""1"",""2375""
","
","
","""event"",""trial"",""time""
""fullscreenenter"",""1"",""2375""
","
","","[{""page_index"":0,""viewing_time"":4248.199999999953}]","4248.399999999907","","","","","","","","","","","","","","","","","","","","","","","",""
"pit-comprehension","70","754549","0.0-2.0-26.0-0.0","battery-v0.2","","""event"",""trial"",""time""
""fullscreenenter"",""1"",""2375""
","
","
","""event"",""trial"",""time""
""fullscreenenter"",""1"",""2375""
","
","","","5367.300000000047","[""False""]","0","13","3365","1981","","","","","","","","","","","","","","","","","","",""
"pit-instructions","71","759765","0.0-2.0-26.0-1.0","battery-v0.2","","""event"",""trial"",""time""
""fullscreenenter"",""1"",""2375""
","
","
","""event"",""trial"",""time""
""fullscreenenter"",""1"",""2375""
","
","","[{""page_index"":0,""viewing_time"":5196.300000000047}]","5196.5","","","","","","","","","","","","","","","","","","","","","","","",""
"pit-instructions","72","794227","0.0-3.0","battery-v0.2","","""event"",""trial"",""time""
""fullscreenenter"",""1"",""2375""
","
","
","""event"",""trial"",""time""
""fullscreenenter"",""1"",""2375""
","
","","[{""page_index"":0,""viewing_time"":4881.100000000093},{""page_index"":1,""viewing_time"":5514},{""page_index"":2,""viewing_time"":24065.5}]","34460.80000000005","","","","","","","","","","","","","","","","","","","","","","","",""
"pit-trial","73","799105","0.0-4.0","battery-v0.2","","""event"",""trial"",""time""
""fullscreenenter"",""1"",""2375""
","
","
","""event"",""trial"",""time""
""fullscreenenter"",""1"",""2375""
","
","","","-1","","","13","3365","1981","&#9733;","elianto","#3366ff99","-1","-1","1","+10","[3324.100000000093]","1","1","","","3365","1","2","2","win","no-go","0"
"pit-trial","74","803457","0.0-5.0","battery-v0.2","","""event"",""trial"",""time""
""fullscreenenter"",""1"",""2375""
","
","
","""event"",""trial"",""time""
""fullscreenenter"",""1"",""2375""
","
","","","1491.2999999998137","","","13","3365","1981","&#9730;","elianto","#3366ff99"," "," ","1","+10","[2342.9000000001397]","1","1","","","3365","2","1","1","win","go","0"
"pit-trial","75","808038","0.0-6.0","battery-v0.2","","""event"",""trial"",""time""
""fullscreenenter"",""1"",""2375""
","
","
","""event"",""trial"",""time""
""fullscreenenter"",""1"",""2375""
","
","","","1724.1000000000931","","","13","3365","1981","&#9752;","elianto","#f73b6a7A"," "," ","1","-10","[2575.4000000001397]","1","1","","","3365","3","3","3","lose","go","1"
"pit-trial","76","812517","0.0-7.0","battery-v0.2","","""event"",""trial"",""time""
""fullscreenenter"",""1"",""2375""
","
","
","""event"",""trial"",""time""
""fullscreenenter"",""1"",""2375""
","
","","","1624.7000000001863","","","13","3365","1981","&#9728;","elianto","#f73b6a7A","-1"," ","0","-10","[2475.1999999999534]","1","1","","","3365","4","0","4","lose","no-go","0"
"pit-trial","77","817382","0.0-8.0","battery-v0.2","","""event"",""trial"",""time""
""fullscreenenter"",""1"",""2375""
","
","
","""event"",""trial"",""time""
""fullscreenenter"",""1"",""2375""
","
","","","-1","","","13","3365","1981","&#9730;","elianto","#3366ff99"," ","-1","0","0","[]","0","1","","","3365","5","1","1","win","go","0"
"pit-trial","78","821982","0.0-9.0","battery-v0.2","","""event"",""trial"",""time""
""fullscreenenter"",""1"",""2375""
","
","
","""event"",""trial"",""time""
""fullscreenenter"",""1"",""2375""
","
","","","1745.4000000001397","","","13","3365","1981","&#9728;","elianto","#f73b6a7A","-1"," ","0","-10","[2595.399999999907]","1","1","","","3365","6","0","4","lose","no-go","0"
"pit-trial","79","826847","0.0-10.0","battery-v0.2","","""event"",""trial"",""time""
""fullscreenenter"",""1"",""2375""
","
","
","""event"",""trial"",""time""
""fullscreenenter"",""1"",""2375""
","
","","","-1","","","13","3365","1981","&#9733;","elianto","#3366ff99","-1","-1","1","+10","[]","0","1","","","3365","7","2","2","win","no-go","0"
"pit-trial","80","831710","0.0-11.0","battery-v0.2","","""event"",""trial"",""time""
""fullscreenenter"",""1"",""2375""
","
","
","""event"",""trial"",""time""
""fullscreenenter"",""1"",""2375""
","
","","","-1","","","13","3365","1981","&#9752;","elianto","#f73b6a7A"," ","-1","0","-10","[]","0","1","","","3365","8","3","3","lose","go","0"
"pit-trial","81","835975","0.0-12.0","battery-v0.2","","""event"",""trial"",""time""
""fullscreenenter"",""1"",""2375""
","
","
","""event"",""trial"",""time""
""fullscreenenter"",""1"",""2375""
","
","","","1407.3000000000466","","","13","3365","1981","&#9730;","elianto","#3366ff99"," "," ","1","+10","[2260.600000000093]","1","1","","","3365","9","1","1","win","go","0"
"pit-trial","82","840839","0.0-13.0","battery-v0.2","","""event"",""trial"",""time""
""fullscreenenter"",""1"",""2375""
","
","
","""event"",""trial"",""time""
""fullscreenenter"",""1"",""2375""
","
","","","-1","","","13","3365","1981","&#9733;","elianto","#3366ff99","-1","-1","1","+10","[]","0","1","","","3365","10","2","2","win","no-go","0"
"pit-trial","83","845175","0.0-14.0","battery-v0.2","","""event"",""trial"",""time""
""fullscreenenter"",""1"",""2375""
","
","
","""event"",""trial"",""time""
""fullscreenenter"",""1"",""2375""
","
","","","1481.5","","","13","3365","1981","&#9752;","elianto","#f73b6a7A"," "," ","1","0","[2332.5]","1","1","","","3365","11","3","3","lose","go","0"
"pit-trial","84","849638","0.0-15.0","battery-v0.2","","""event"",""trial"",""time""
""fullscreenenter"",""1"",""2375""
","
","
","""event"",""trial"",""time""
""fullscreenenter"",""1"",""2375""
","
","","","1608","","","13","3365","1981","&#9728;","elianto","#f73b6a7A","-1"," ","0","-10","[2460.8000000000466]","1","1","","","3365","12","0","4","lose","no-go","0"
"pit-trial","85","854502","0.0-16.0","battery-v0.2","","""event"",""trial"",""time""
""fullscreenenter"",""1"",""2375""
","
","
","""event"",""trial"",""time""
""fullscreenenter"",""1"",""2375""
","
","","","-1","","","13","3365","1981","&#9733;","elianto","#3366ff99","-1","-1","1","+10","[]","0","1","","","3365","13","2","2","win","no-go","0"
"pit-trial","86","859366","0.0-17.0","battery-v0.2","","""event"",""trial"",""time""
""fullscreenenter"",""1"",""2375""
","
","
","""event"",""trial"",""time""
""fullscreenenter"",""1"",""2375""
","
","","","-1","","","13","3365","1981","&#9728;","elianto","#f73b6a7A","-1","-1","1","0","[]","0","1","","","3365","14","0","4","lose","no-go","0"
"pit-trial","87","863302","0.0-18.0","battery-v0.2","","""event"",""trial"",""time""
""fullscreenenter"",""1"",""2375""
","
","
","""event"",""trial"",""time""
""fullscreenenter"",""1"",""2375""
","
","","","1071.5","","","13","3365","1981","&#9752;","elianto","#f73b6a7A"," "," ","1","0","[1926.2000000001863]","1","1","","","3365","15","3","3","lose","go","0"
"pit-trial","88","867526","0.0-19.0","battery-v0.2","","""event"",""trial"",""time""
""fullscreenenter"",""1"",""2375""
","
","
","""event"",""trial"",""time""
""fullscreenenter"",""1"",""2375""
","
","","","1359.8999999999069","","","13","3365","1981","&#9730;","elianto","#3366ff99"," "," ","1","+10","[2214.4000000001397]","1","1","","","3365","16","1","1","win","go","0"
"pit-trial","89","871358","0.0-20.0","battery-v0.2","","""event"",""trial"",""time""
""fullscreenenter"",""1"",""2375""
","
","
","""event"",""trial"",""time""
""fullscreenenter"",""1"",""2375""
","
","","","967.5999999998603","","","13","3365","1981","&#9730;","elianto","#3366ff99"," "," ","1","+10","[1822.7999999998137]","1","1","","","3365","17","1","1","win","go","0"
"pit-trial","90","876223","0.0-21.0","battery-v0.2","","""event"",""trial"",""time""
""fullscreenenter"",""1"",""2375""
","
","
","""event"",""trial"",""time""
""fullscreenenter"",""1"",""2375""
","
","","","-1","","","13","3365","1981","&#9733;","elianto","#3366ff99","-1","-1","1","0","[]","0","1","","","3365","18","2","2","win","no-go","1"
"pit-trial","91","881087","0.0-22.0","battery-v0.2","","""event"",""trial"",""time""
""fullscreenenter"",""1"",""2375""
","
","
","""event"",""trial"",""time""
""fullscreenenter"",""1"",""2375""
","
","","","-1","","","13","3365","1981","&#9728;","elianto","#f73b6a7A","-1","-1","1","0","[]","0","1","","","3365","19","0","4","lose","no-go","0"
"pit-trial","92","884735","0.0-23.0","battery-v0.2","","""event"",""trial"",""time""
""fullscreenenter"",""1"",""2375""
","
","
","""event"",""trial"",""time""
""fullscreenenter"",""1"",""2375""
","
","","","784.1999999999534","","","13","3365","1981","&#9752;","elianto","#f73b6a7A"," "," ","1","0","[1637]","1","1","","","3365","20","3","3","lose","go","0"
"pit-instructions","93","920589","0.0-24.0","battery-v0.2","","""event"",""trial"",""time""
""fullscreenenter"",""1"",""2375""
","
","
","""event"",""trial"",""time""
""fullscreenenter"",""1"",""2375""
","
","","[{""page_index"":0,""viewing_time"":6689.299999999814},{""page_index"":1,""viewing_time"":29163.800000000047}]","35853.299999999814","","","","","","","","","","","","","","","","","","","","","","","",""
"pit-trial","94","925177","0.0-25.0","battery-v0.2","","""event"",""trial"",""time""
""fullscreenenter"",""1"",""2375""
","
","
","""event"",""trial"",""time""
""fullscreenenter"",""1"",""2375""
","
","","","1727.3999999999069","","","13","3365","1981","a","elianto","#f73b6a7A","-1"," ","0","0","[2577.899999999907]","1","2","","","3365","21","2","4","lose","no-go","1"
"pit-trial","95","930046","0.0-26.0","battery-v0.2","","""event"",""trial"",""time""
""fullscreenenter"",""1"",""2375""
","
","
","""event"",""trial"",""time""
""fullscreenenter"",""1"",""2375""
","
","","","-1","","","13","3365","1981","g","elianto","#f73b6a7A"," ","-1","0","0","[3030.7999999998137]","1","2","","","3365","22","3","3","lose","go","1"
"pit-trial","96","934766","0.0-27.0","battery-v0.2","","""event"",""trial"",""time""
""fullscreenenter"",""1"",""2375""
","
","
","""event"",""trial"",""time""
""fullscreenenter"",""1"",""2375""
","
","","","1861.1999999999534","","","13","3365","1981","l","elianto","#3366ff99"," "," ","1","+10","[2714.1999999999534]","1","2","","","3365","23","1","1","win","go","0"
"pit-trial","97","938949","0.0-28.0","battery-v0.2","","""event"",""trial"",""time""
""fullscreenenter"",""1"",""2375""
","
","
","""event"",""trial"",""time""
""fullscreenenter"",""1"",""2375""
","
","","","1324.3000000000466","","","13","3365","1981","u","elianto","#f73b6a7A","-1"," ","0","0","[2179]","1","2","","","3365","24","0","4","lose","no-go","1"
"pit-trial","98","942854","0.0-29.0","battery-v0.2","","""event"",""trial"",""time""
""fullscreenenter"",""1"",""2375""
","
","
","""event"",""trial"",""time""
""fullscreenenter"",""1"",""2375""
","
","","","1044.3999999999069","","","13","3365","1981","u","elianto","#f73b6a7A","-1"," ","0","-10","[1899.5999999998603]","1","2","","","3365","25","0","4","lose","no-go","0"
"pit-trial","99","946759","0.0-30.0","battery-v0.2","","""event"",""trial"",""time""
""fullscreenenter"",""1"",""2375""
","
","
","""event"",""trial"",""time""
""fullscreenenter"",""1"",""2375""
","
","","","1044.6999999999534","","","13","3365","1981","l","elianto","#3366ff99"," "," ","1","0","[1899.4000000001397]","1","2","","","3365","26","1","1","win","go","1"
"pit-trial","100","951622","0.0-31.0","battery-v0.2","","""event"",""trial"",""time""
""fullscreenenter"",""1"",""2375""
","
","
","""event"",""trial"",""time""
""fullscreenenter"",""1"",""2375""
","
","","","-1","","","13","3365","1981","a","elianto","#f73b6a7A","-1","-1","1","0","[]","0","2","","","3365","27","2","4","lose","no-go","0"
"pit-trial","101","956486","0.0-32.0","battery-v0.2","","""event"",""trial"",""time""
""fullscreenenter"",""1"",""2375""
","
","
","""event"",""trial"",""time""
""fullscreenenter"",""1"",""2375""
","
","","","-1","","","13","3365","1981","g","elianto","#f73b6a7A"," ","-1","0","-10","[]","0","2","","","3365","28","3","3","lose","go","0"
"pit-trial","102","961350","0.0-33.0","battery-v0.2","","""event"",""trial"",""time""
""fullscreenenter"",""1"",""2375""
","
","
","""event"",""trial"",""time""
""fullscreenenter"",""1"",""2375""
","
","","","-1","","","13","3365","1981","a","elianto","#f73b6a7A","-1","-1","1","0","[]","0","2","","","3365","29","2","4","lose","no-go","0"
"pit-trial","103","966215","0.0-34.0","battery-v0.2","","""event"",""trial"",""time""
""fullscreenenter"",""1"",""2375""
","
","
","""event"",""trial"",""time""
""fullscreenenter"",""1"",""2375""
","
","","","-1","","","13","3365","1981","g","elianto","#f73b6a7A"," ","-1","0","-10","[]","0","2","","","3365","30","3","3","lose","go","0"
"pit-trial","104","970942","0.0-35.0","battery-v0.2","","""event"",""trial"",""time""
""fullscreenenter"",""1"",""2375""
","
","
","""event"",""trial"",""time""
""fullscreenenter"",""1"",""2375""
","
","","","1869.3999999999069","","","13","3365","1981","u","elianto","#f73b6a7A","-1"," ","0","-10","[2724.3000000000466]","1","2","","","3365","31","0","4","lose","no-go","0"
"pit-trial","105","975574","0.0-36.0","battery-v0.2","","""event"",""trial"",""time""
""fullscreenenter"",""1"",""2375""
","
","
","""event"",""trial"",""time""
""fullscreenenter"",""1"",""2375""
","
","","","1777.6000000000931","","","13","3365","1981","l","elianto","#3366ff99"," "," ","1","0","[2628.5,3604.6999999999534,4180.699999999953]","3","2","","","3365","32","1","1","win","go","1"
"pit-trial","106","980439","0.0-37.0","battery-v0.2","","""event"",""trial"",""time""
""fullscreenenter"",""1"",""2375""
","
","
","""event"",""trial"",""time""
""fullscreenenter"",""1"",""2375""
","
","","","-1","","","13","3365","1981","g","elianto","#f73b6a7A"," ","-1","0","-10","[3045.399999999907]","1","2","","","3365","33","3","3","lose","go","0"
"pit-trial","107","985262","0.0-38.0","battery-v0.2","","""event"",""trial"",""time""
""fullscreenenter"",""1"",""2375""
","
","
","""event"",""trial"",""time""
""fullscreenenter"",""1"",""2375""
","
","","","1966.8000000000466","","","13","3365","1981","a","elianto","#f73b6a7A","-1"," ","0","0","[2821.100000000093]","1","2","","","3365","34","2","4","lose","no-go","1"
"pit-trial","108","989766","0.0-39.0","battery-v0.2","","""event"",""trial"",""time""
""fullscreenenter"",""1"",""2375""
","
","
","""event"",""trial"",""time""
""fullscreenenter"",""1"",""2375""
","
","","","1646.8999999999069","","","13","3365","1981","l","elianto","#3366ff99"," "," ","1","+10","[2501.8000000000466,3205.9000000001397]","2","2","","","3365","35","1","1","win","go","0"
"pit-trial","109","994630","0.0-40.0","battery-v0.2","","""event"",""trial"",""time""
""fullscreenenter"",""1"",""2375""
","
","
","""event"",""trial"",""time""
""fullscreenenter"",""1"",""2375""
","
","","","-1","","","13","3365","1981","u","elianto","#f73b6a7A","-1","-1","1","0","[]","0","2","","","3365","36","0","4","lose","no-go","0"
"pit-trial","110","998638","0.0-41.0","battery-v0.2","","""event"",""trial"",""time""
""fullscreenenter"",""1"",""2375""
","
","
","""event"",""trial"",""time""
""fullscreenenter"",""1"",""2375""
","
","","","1144.6999999999534","","","13","3365","1981","g","elianto","#f73b6a7A"," "," ","1","0","[1998.8000000000466]","1","2","","","3365","37","3","3","lose","go","0"
"pit-trial","111","1003502","0.0-42.0","battery-v0.2","","""event"",""trial"",""time""
""fullscreenenter"",""1"",""2375""
","
","
","""event"",""trial"",""time""
""fullscreenenter"",""1"",""2375""
","
","","","-1","","","13","3365","1981","u","elianto","#f73b6a7A","-1","-1","1","-10","[]","0","2","","","3365","38","0","4","lose","no-go","1"
"pit-trial","112","1008366","0.0-43.0","battery-v0.2","","""event"",""trial"",""time""
""fullscreenenter"",""1"",""2375""
","
","
","""event"",""trial"",""time""
""fullscreenenter"",""1"",""2375""
","
","","","-1","","","13","3365","1981","a","elianto","#f73b6a7A","-1","-1","1","0","[]","0","2","","","3365","39","2","4","lose","no-go","0"
"pit-trial","113","1012550","0.0-44.0","battery-v0.2","","""event"",""trial"",""time""
""fullscreenenter"",""1"",""2375""
","
","
","""event"",""trial"",""time""
""fullscreenenter"",""1"",""2375""
","
","","","1325.1000000000931","","","13","3365","1981","l","elianto","#3366ff99"," "," ","1","+10","[2175.1999999999534]","1","2","","","3365","40","1","1","win","go","0"
"pit-trial","114","1017414","0.0-45.0","battery-v0.2","","""event"",""trial"",""time""
""fullscreenenter"",""1"",""2375""
","
","
","""event"",""trial"",""time""
""fullscreenenter"",""1"",""2375""
","
","","","-1","","","13","3365","1981","a","elianto","#f73b6a7A","-1","-1","1","0","[3095.1999999999534]","1","2","","","3365","41","2","4","lose","no-go","0"
"pit-trial","115","1021510","0.0-46.0","battery-v0.2","","""event"",""trial"",""time""
""fullscreenenter"",""1"",""2375""
","
","
","""event"",""trial"",""time""
""fullscreenenter"",""1"",""2375""
","
","","","1232.5","","","13","3365","1981","l","elianto","#3366ff99"," "," ","1","+10","[2087.8000000000466]","1","2","","","3365","42","1","1","win","go","0"
"pit-trial","116","1026374","0.0-47.0","battery-v0.2","","""event"",""trial"",""time""
""fullscreenenter"",""1"",""2375""
","
","
","""event"",""trial"",""time""
""fullscreenenter"",""1"",""2375""
","
","","","-1","","","13","3365","1981","u","elianto","#f73b6a7A","-1","-1","1","0","[3031.7999999998137]","1","2","","","3365","43","0","4","lose","no-go","0"
"pit-trial","117","1030414","0.0-48.0","battery-v0.2","","""event"",""trial"",""time""
""fullscreenenter"",""1"",""2375""
","
","
","""event"",""trial"",""time""
""fullscreenenter"",""1"",""2375""
","
","","","1177.1000000000931","","","13","3365","1981","g","elianto","#f73b6a7A"," "," ","1","-10","[2032.1999999999534]","1","2","","","3365","44","3","3","lose","go","1"
"pit-trial","118","1035007","0.0-49.0","battery-v0.2","","""event"",""trial"",""time""
""fullscreenenter"",""1"",""2375""
","
","
","""event"",""trial"",""time""
""fullscreenenter"",""1"",""2375""
","
","","","1729.3999999999069","","","13","3365","1981","g","elianto","#f73b6a7A"," "," ","1","0","[2584.0999999998603]","1","2","","","3365","45","3","3","lose","go","0"
"pit-trial","119","1039871","0.0-50.0","battery-v0.2","","""event"",""trial"",""time""
""fullscreenenter"",""1"",""2375""
","
","
","""event"",""trial"",""time""
""fullscreenenter"",""1"",""2375""
","
","","","-1","","","13","3365","1981","p","elianto","#3366ff99","-1","-1","1","+10","[3200.1999999999534]","1","2","","","3365","46","4","2","win","no-go","0"
"pit-trial","120","1044647","0.0-51.0","battery-v0.2","","""event"",""trial"",""time""
""fullscreenenter"",""1"",""2375""
","
","
","""event"",""trial"",""time""
""fullscreenenter"",""1"",""2375""
","
","","","1914.3999999999069","","","13","3365","1981","a","elianto","#f73b6a7A","-1"," ","0","-10","[2768.5]","1","2","","","3365","47","2","4","lose","no-go","0"
"pit-trial","121","1049334","0.0-52.0","battery-v0.2","","""event"",""trial"",""time""
""fullscreenenter"",""1"",""2375""
","
","
","""event"",""trial"",""time""
""fullscreenenter"",""1"",""2375""
","
","","","1825.800000000163","","","13","3365","1981","u","elianto","#f73b6a7A","-1"," ","0","0","[2680.5000000001164]","1","2","","","3365","48","0","4","lose","no-go","1"
"pit-trial","122","1054199","0.0-53.0","battery-v0.2","","""event"",""trial"",""time""
""fullscreenenter"",""1"",""2375""
","
","
","""event"",""trial"",""time""
""fullscreenenter"",""1"",""2375""
","
","","","-1","","","13","3365","1981","u","elianto","#f73b6a7A","-1","-1","1","-10","[2889.899999999907,3025.7999999998137,3809.899999999907,4025.899999999907]","4","2","","","3365","49","0","4","lose","no-go","1"
"pit-trial","123","1059063","0.0-54.0","battery-v0.2","","""event"",""trial"",""time""
""fullscreenenter"",""1"",""2375""
","
","
","""event"",""trial"",""time""
""fullscreenenter"",""1"",""2375""
","
","","","-1","","","13","3365","1981","p","elianto","#3366ff99","-1","-1","1","+10","[3009.5]","1","2","","","3365","50","4","2","win","no-go","0"
"pit-trial","124","1063926","0.0-55.0","battery-v0.2","","""event"",""trial"",""time""
""fullscreenenter"",""1"",""2375""
","
","
","""event"",""trial"",""time""
""fullscreenenter"",""1"",""2375""
","
","","","-1","","","13","3365","1981","l","elianto","#3366ff99"," ","-1","0","0","[3033.9000000003725]","1","2","","","3365","51","1","1","win","go","0"
"pit-trial","125","1068511","0.0-56.0","battery-v0.2","","""event"",""trial"",""time""
""fullscreenenter"",""1"",""2375""
","
","
","""event"",""trial"",""time""
""fullscreenenter"",""1"",""2375""
","
","","","1723.5","","","13","3365","1981","g","elianto","#f73b6a7A"," "," ","1","0","[2578.2999999998137]","1","2","","","3365","52","3","3","lose","go","0"
"pit-trial","126","1073374","0.0-57.0","battery-v0.2","","""event"",""trial"",""time""
""fullscreenenter"",""1"",""2375""
","
","
","""event"",""trial"",""time""
""fullscreenenter"",""1"",""2375""
","
","","","-1","","","13","3365","1981","l","elianto","#3366ff99"," ","-1","0","0","[2938.2999999998137,3234.100000000093,3586.2000000001863,3818.399999999907,4226.100000000093,4394.200000000186,4842.399999999907]","7","2","","","3365","53","1","1","win","go","0"
"pit-trial","127","1076351","0.0-58.0","battery-v0.2","","""event"",""trial"",""time""
""fullscreenenter"",""1"",""2375""
","
","
","""event"",""trial"",""time""
""fullscreenenter"",""1"",""2375""
","
","","","116.29999999981374","","","13","3365","1981","a","elianto","#f73b6a7A","-1"," ","0","-10","[82.60000000009313,202.60000000009313,290.60000000009313,970.6999999997206]","4","2","","","3365","54","2","4","lose","no-go","0"
"pit-trial","128","1081054","0.0-59.0","battery-v0.2","","""event"",""trial"",""time""
""fullscreenenter"",""1"",""2375""
","
","
","""event"",""trial"",""time""
""fullscreenenter"",""1"",""2375""
","
","","","1846.8000000002794","","","13","3365","1981","u","elianto","#f73b6a7A","-1"," ","0","0","[2698.8000000002794]","1","2","","","3365","55","0","4","lose","no-go","1"
"pit-trial","129","1085390","0.0-60.0","battery-v0.2","","""event"",""trial"",""time""
""fullscreenenter"",""1"",""2375""
","
","
","""event"",""trial"",""time""
""fullscreenenter"",""1"",""2375""
","
","","","1478.5","","","13","3365","1981","p","elianto","#3366ff99","-1"," ","0","0","[2332]","1","2","","","3365","56","4","2","win","no-go","0"
"pit-trial","130","1089862","0.0-61.0","battery-v0.2","","""event"",""trial"",""time""
""fullscreenenter"",""1"",""2375""
","
","
","""event"",""trial"",""time""
""fullscreenenter"",""1"",""2375""
","
","","","1613","","","13","3365","1981","u","elianto","#f73b6a7A","-1"," ","0","-10","[2468.3000000002794]","1","2","","","3365","57","0","4","lose","no-go","0"
"pit-trial","131","1094726","0.0-62.0","battery-v0.2","","""event"",""trial"",""time""
""fullscreenenter"",""1"",""2375""
","
","
","""event"",""trial"",""time""
""fullscreenenter"",""1"",""2375""
","
","","","-1","","","13","3365","1981","l","elianto","#3366ff99"," ","-1","0","+10","[3036]","1","2","","","3365","58","1","1","win","go","1"
"pit-trial","132","1098598","0.0-63.0","battery-v0.2","","""event"",""trial"",""time""
""fullscreenenter"",""1"",""2375""
","
","
","""event"",""trial"",""time""
""fullscreenenter"",""1"",""2375""
","
","","","1013.3000000002794","","","13","3365","1981","g","elianto","#f73b6a7A"," "," ","1","0","[1868.5]","1","2","","","3365","59","3","3","lose","go","0"
"pit-trial","133","1102871","0.0-64.0","battery-v0.2","","""event"",""trial"",""time""
""fullscreenenter"",""1"",""2375""
","
","
","""event"",""trial"",""time""
""fullscreenenter"",""1"",""2375""
","
","","","1414.1000000000931","","","13","3365","1981","p","elianto","#3366ff99","-1"," ","0","0","[2268.7999999998137]","1","2","","","3365","60","4","2","win","no-go","0"
"pit-trial","134","1107734","0.0-65.0","battery-v0.2","","""event"",""trial"",""time""
""fullscreenenter"",""1"",""2375""
","
","
","""event"",""trial"",""time""
""fullscreenenter"",""1"",""2375""
","
","","","-1","","","13","3365","1981","p","elianto","#3366ff99","-1","-1","1","+10","[]","0","2","","","3365","61","4","2","win","no-go","0"
"pit-trial","135","1112598","0.0-66.0","battery-v0.2","","""event"",""trial"",""time""
""fullscreenenter"",""1"",""2375""
","
","
","""event"",""trial"",""time""
""fullscreenenter"",""1"",""2375""
","
","","","-1","","","13","3365","1981","l","elianto","#3366ff99"," ","-1","0","+10","[]","0","2","","","3365","62","1","1","win","go","1"
"pit-trial","136","1117390","0.0-67.0","battery-v0.2","","""event"",""trial"",""time""
""fullscreenenter"",""1"",""2375""
","
","
","""event"",""trial"",""time""
""fullscreenenter"",""1"",""2375""
","
","","","1934.6000000000931","","","13","3365","1981","a","elianto","#f73b6a7A","-1"," ","0","-10","[2789.2999999998137]","1","2","","","3365","63","2","4","lose","no-go","0"
"pit-trial","137","1121390","0.0-68.0","battery-v0.2","","""event"",""trial"",""time""
""fullscreenenter"",""1"",""2375""
","
","
","""event"",""trial"",""time""
""fullscreenenter"",""1"",""2375""
","
","","","1142.3000000002794","","","13","3365","1981","g","elianto","#f73b6a7A"," "," ","1","0","[1998]","1","2","","","3365","64","3","3","lose","go","0"
"pit-trial","138","1126254","0.0-69.0","battery-v0.2","","""event"",""trial"",""time""
""fullscreenenter"",""1"",""2375""
","
","
","""event"",""trial"",""time""
""fullscreenenter"",""1"",""2375""
","
","","","-1","","","13","3365","1981","p","elianto","#3366ff99","-1","-1","1","+10","[]","0","2","","","3365","65","4","2","win","no-go","0"
"pit-trial","139","1131118","0.0-70.0","battery-v0.2","","""event"",""trial"",""time""
""fullscreenenter"",""1"",""2375""
","
","
","""event"",""trial"",""time""
""fullscreenenter"",""1"",""2375""
","
","","","-1","","","13","3365","1981","a","elianto","#f73b6a7A","-1","-1","1","0","[]","0","2","","","3365","66","2","4","lose","no-go","0"
"pit-trial","140","1135982","0.0-71.0","battery-v0.2","","""event"",""trial"",""time""
""fullscreenenter"",""1"",""2375""
","
","
","""event"",""trial"",""time""
""fullscreenenter"",""1"",""2375""
","
","","","-1","","","13","3365","1981","l","elianto","#3366ff99"," ","-1","0","0","[]","0","2","","","3365","67","1","1","win","go","0"
"pit-trial","141","1140022","0.0-72.0","battery-v0.2","","""event"",""trial"",""time""
""fullscreenenter"",""1"",""2375""
","
","
","""event"",""trial"",""time""
""fullscreenenter"",""1"",""2375""
","
","","","1180.6000000000931","","","13","3365","1981","g","elianto","#f73b6a7A"," "," ","1","0","[2031.1999999997206]","1","2","","","3365","68","3","3","lose","go","0"
"pit-trial","142","1144886","0.0-73.0","battery-v0.2","","""event"",""trial"",""time""
""fullscreenenter"",""1"",""2375""
","
","
","""event"",""trial"",""time""
""fullscreenenter"",""1"",""2375""
","
","","","-1","","","13","3365","1981","s","elianto","#3366ff99"," ","-1","0","0","[]","0","2","","","3365","69","5","1","win","go","0"
"pit-trial","143","1149750","0.0-74.0","battery-v0.2","","""event"",""trial"",""time""
""fullscreenenter"",""1"",""2375""
","
","
","""event"",""trial"",""time""
""fullscreenenter"",""1"",""2375""
","
","","","-1","","","13","3365","1981","l","elianto","#3366ff99"," ","-1","0","0","[3447.5,3759.600000000093]","2","2","","","3365","70","1","1","win","go","0"
"pit-trial","144","1152694","0.0-75.0","battery-v0.2","","""event"",""trial"",""time""
""fullscreenenter"",""1"",""2375""
","
","
","""event"",""trial"",""time""
""fullscreenenter"",""1"",""2375""
","
","","","80.39999999990687","","","13","3365","1981","g","elianto","#f73b6a7A"," "," ","1","0","[503.29999999981374,703.0999999996275,935.1999999997206,1639.2999999998137,2655.1999999997206]","5","2","","","3365","71","3","3","lose","go","0"
"pit-trial","145","1157558","0.0-76.0","battery-v0.2","","""event"",""trial"",""time""
""fullscreenenter"",""1"",""2375""
","
","
","""event"",""trial"",""time""
""fullscreenenter"",""1"",""2375""
","
","","","-1","","","13","3365","1981","p","elianto","#3366ff99","-1","-1","1","0","[39.5,343.8000000002794,679.6000000000931,3815.899999999907,4135.899999999907]","5","2","","","3365","72","4","2","win","no-go","1"
"pit-trial","146","1162422","0.0-77.0","battery-v0.2","","""event"",""trial"",""time""
""fullscreenenter"",""1"",""2375""
","
","
","""event"",""trial"",""time""
""fullscreenenter"",""1"",""2375""
","
","","","-1","","","13","3365","1981","p","elianto","#3366ff99","-1","-1","1","+10","[272.09999999962747,408.09999999962747]","2","2","","","3365","73","4","2","win","no-go","0"
"pit-trial","147","1166950","0.0-78.0","battery-v0.2","","""event"",""trial"",""time""
""fullscreenenter"",""1"",""2375""
","
","
","""event"",""trial"",""time""
""fullscreenenter"",""1"",""2375""
","
","","","1666.7999999998137","","","13","3365","1981","g","elianto","#f73b6a7A"," "," ","1","-10","[2521]","1","2","","","3365","74","3","3","lose","go","1"
"pit-trial","148","1171815","0.0-79.0","battery-v0.2","","""event"",""trial"",""time""
""fullscreenenter"",""1"",""2375""
","
","
","""event"",""trial"",""time""
""fullscreenenter"",""1"",""2375""
","
","","","-1","","","13","3365","1981","l","elianto","#3366ff99"," ","-1","0","0","[]","0","2","","","3365","75","1","1","win","go","0"
"pit-trial","149","1175879","0.0-80.0","battery-v0.2","","""event"",""trial"",""time""
""fullscreenenter"",""1"",""2375""
","
","
","""event"",""trial"",""time""
""fullscreenenter"",""1"",""2375""
","
","","","1202.3999999999069","","","13","3365","1981","s","elianto","#3366ff99"," "," ","1","+10","[2056.399999999907]","1","2","","","3365","76","5","1","win","go","0"
"pit-trial","150","1180438","0.0-81.0","battery-v0.2","","""event"",""trial"",""time""
""fullscreenenter"",""1"",""2375""
","
","
","""event"",""trial"",""time""
""fullscreenenter"",""1"",""2375""
","
","","","1698.6000000000931","","","13","3365","1981","g","elianto","#f73b6a7A"," "," ","1","0","[2552.600000000093]","1","2","","","3365","77","3","3","lose","go","0"
"pit-trial","151","1185302","0.0-82.0","battery-v0.2","","""event"",""trial"",""time""
""fullscreenenter"",""1"",""2375""
","
","
","""event"",""trial"",""time""
""fullscreenenter"",""1"",""2375""
","
","","","-1","","","13","3365","1981","p","elianto","#3366ff99","-1","-1","1","+10","[2969.2000000001863]","1","2","","","3365","78","4","2","win","no-go","0"
"pit-trial","152","1189767","0.0-83.0","battery-v0.2","","""event"",""trial"",""time""
""fullscreenenter"",""1"",""2375""
","
","
","""event"",""trial"",""time""
""fullscreenenter"",""1"",""2375""
","
","","","1602.9000000003725","","","13","3365","1981","w","elianto","#f73b6a7A","-1"," ","0","-10","[2457.600000000093]","1","2","","","3365","79","6","4","lose","no-go","0"
"pit-trial","153","1194630","0.0-84.0","battery-v0.2","","""event"",""trial"",""time""
""fullscreenenter"",""1"",""2375""
","
","
","""event"",""trial"",""time""
""fullscreenenter"",""1"",""2375""
","
","","","-1","","","13","3365","1981","s","elianto","#3366ff99"," ","-1","0","0","[]","0","2","","","3365","80","5","1","win","go","0"
"pit-trial","154","1198262","0.0-85.0","battery-v0.2","","""event"",""trial"",""time""
""fullscreenenter"",""1"",""2375""
","
","
","""event"",""trial"",""time""
""fullscreenenter"",""1"",""2375""
","
","","","770.8999999999069","","","13","3365","1981","s","elianto","#3366ff99"," "," ","1","0","[1626.5]","1","2","","","3365","81","5","1","win","go","1"
"pit-trial","155","1202318","0.0-86.0","battery-v0.2","","""event"",""trial"",""time""
""fullscreenenter"",""1"",""2375""
","
","
","""event"",""trial"",""time""
""fullscreenenter"",""1"",""2375""
","
","","","1199.1999999997206","","","13","3365","1981","e","elianto","#f73b6a7A"," "," ","1","0","[2050.2999999998137]","1","2","","","3365","82","7","3","lose","go","0"
"pit-trial","156","1206110","0.0-87.0","battery-v0.2","","""event"",""trial"",""time""
""fullscreenenter"",""1"",""2375""
","
","
","""event"",""trial"",""time""
""fullscreenenter"",""1"",""2375""
","
","","","936.3999999999069","","","13","3365","1981","w","elianto","#f73b6a7A","-1"," ","0","-10","[1786.5]","1","2","","","3365","83","6","4","lose","no-go","0"
"pit-trial","157","1209910","0.0-88.0","battery-v0.2","","""event"",""trial"",""time""
""fullscreenenter"",""1"",""2375""
","
","
","""event"",""trial"",""time""
""fullscreenenter"",""1"",""2375""
","
","","","940","","","13","3365","1981","p","elianto","#3366ff99","-1"," ","0","0","[1794.5]","1","2","","","3365","84","4","2","win","no-go","0"
"pit-trial","158","1214773","0.0-89.0","battery-v0.2","","""event"",""trial"",""time""
""fullscreenenter"",""1"",""2375""
","
","
","""event"",""trial"",""time""
""fullscreenenter"",""1"",""2375""
","
","","","-1","","","13","3365","1981","p","elianto","#3366ff99","-1","-1","1","+10","[]","0","2","","","3365","85","4","2","win","no-go","0"
"pit-trial","159","1219638","0.0-90.0","battery-v0.2","","""event"",""trial"",""time""
""fullscreenenter"",""1"",""2375""
","
","
","""event"",""trial"",""time""
""fullscreenenter"",""1"",""2375""
","
","","","-1","","","13","3365","1981","e","elianto","#f73b6a7A"," ","-1","0","-10","[3020,3172.2000000001863,3316,3716,3828.2000000001863,4308.100000000093]","6","2","","","3365","86","7","3","lose","go","0"
"pit-trial","160","1222621","0.0-91.0","battery-v0.2","","""event"",""trial"",""time""
""fullscreenenter"",""1"",""2375""
","
","
","""event"",""trial"",""time""
""fullscreenenter"",""1"",""2375""
","
","","","124.60000000009313","","","13","3365","1981","w","elianto","#f73b6a7A","-1"," ","0","-10","[11.399999999906868,427.5,507.60000000009313,683.6000000000931,819.5,979.6000000000931]","6","2","","","3365","87","6","4","lose","no-go","0"
"pit-trial","161","1227486","0.0-92.0","battery-v0.2","","""event"",""trial"",""time""
""fullscreenenter"",""1"",""2375""
","
","
","""event"",""trial"",""time""
""fullscreenenter"",""1"",""2375""
","
","","","-1","","","13","3365","1981","s","elianto","#3366ff99"," ","-1","0","0","[2908.2999999998137,3468.399999999907,3852.5,4012.399999999907,4572.5,4780.5]","6","2","","","3365","88","5","1","win","go","0"
"pit-trial","162","1232350","0.0-93.0","battery-v0.2","","""event"",""trial"",""time""
""fullscreenenter"",""1"",""2375""
","
","
","""event"",""trial"",""time""
""fullscreenenter"",""1"",""2375""
","
","","","-1","","","13","3365","1981","w","elianto","#f73b6a7A","-1","-1","1","0","[51.89999999990687,179.79999999981374,260.1999999997206]","3","2","","","3365","89","6","4","lose","no-go","0"
"pit-trial","163","1237214","0.0-94.0","battery-v0.2","","""event"",""trial"",""time""
""fullscreenenter"",""1"",""2375""
","
","
","""event"",""trial"",""time""
""fullscreenenter"",""1"",""2375""
","
","","","-1","","","13","3365","1981","s","elianto","#3366ff99"," ","-1","0","0","[]","0","2","","","3365","90","5","1","win","go","0"
"pit-trial","164","1242007","0.0-95.0","battery-v0.2","","""event"",""trial"",""time""
""fullscreenenter"",""1"",""2375""
","
","
","""event"",""trial"",""time""
""fullscreenenter"",""1"",""2375""
","
","","","1933.6000000000931","","","13","3365","1981","e","elianto","#f73b6a7A"," "," ","1","0","[2788.7999999998137]","1","2","","","3365","91","7","3","lose","go","0"
"pit-trial","165","1246870","0.0-96.0","battery-v0.2","","""event"",""trial"",""time""
""fullscreenenter"",""1"",""2375""
","
","
","""event"",""trial"",""time""
""fullscreenenter"",""1"",""2375""
","
","","","-1","","","13","3365","1981","p","elianto","#3366ff99","-1","-1","1","+10","[]","0","2","","","3365","92","4","2","win","no-go","0"
"pit-trial","166","1251135","0.0-97.0","battery-v0.2","","""event"",""trial"",""time""
""fullscreenenter"",""1"",""2375""
","
","
","""event"",""trial"",""time""
""fullscreenenter"",""1"",""2375""
","
","","","1406.7000000001863","","","13","3365","1981","d","elianto","#3366ff99","-1"," ","0","0","[2261.7999999998137]","1","2","","","3365","93","8","2","win","no-go","0"
"pit-trial","167","1255999","0.0-98.0","battery-v0.2","","""event"",""trial"",""time""
""fullscreenenter"",""1"",""2375""
","
","
","""event"",""trial"",""time""
""fullscreenenter"",""1"",""2375""
","
","","","-1","","","13","3365","1981","s","elianto","#3366ff99"," ","-1","0","0","[]","0","2","","","3365","94","5","1","win","go","0"
"pit-trial","168","1260863","0.0-99.0","battery-v0.2","","""event"",""trial"",""time""
""fullscreenenter"",""1"",""2375""
","
","
","""event"",""trial"",""time""
""fullscreenenter"",""1"",""2375""
","
","","","-1","","","13","3365","1981","e","elianto","#f73b6a7A"," ","-1","0","0","[]","0","2","","","3365","95","7","3","lose","go","1"
"pit-trial","169","1265727","0.0-100.0","battery-v0.2","","""event"",""trial"",""time""
""fullscreenenter"",""1"",""2375""
","
","
","""event"",""trial"",""time""
""fullscreenenter"",""1"",""2375""
","
","","","-1","","","13","3365","1981","w","elianto","#f73b6a7A","-1","-1","1","-10","[]","0","2","","","3365","96","6","4","lose","no-go","1"
"pit-trial","170","1270022","0.0-101.0","battery-v0.2","","""event"",""trial"",""time""
""fullscreenenter"",""1"",""2375""
","
","
","""event"",""trial"",""time""
""fullscreenenter"",""1"",""2375""
","
","","","1432.1000000000931","","","13","3365","1981","e","elianto","#f73b6a7A"," "," ","1","0","[2286.3000000002794]","1","2","","","3365","97","7","3","lose","go","0"
"pit-trial","171","1274886","0.0-102.0","battery-v0.2","","""event"",""trial"",""time""
""fullscreenenter"",""1"",""2375""
","
","
","""event"",""trial"",""time""
""fullscreenenter"",""1"",""2375""
","
","","","-1","","","13","3365","1981","s","elianto","#3366ff99"," ","-1","0","+10","[]","0","2","","","3365","98","5","1","win","go","1"
"pit-trial","172","1279375","0.0-103.0","battery-v0.2","","""event"",""trial"",""time""
""fullscreenenter"",""1"",""2375""
","
","
","""event"",""trial"",""time""
""fullscreenenter"",""1"",""2375""
","
","","","1624.2000000001863","","","13","3365","1981","d","elianto","#3366ff99","-1"," ","0","0","[2479.3000000002794]","1","2","","","3365","99","8","2","win","no-go","0"
"pit-trial","173","1283911","0.0-104.0","battery-v0.2","","""event"",""trial"",""time""
""fullscreenenter"",""1"",""2375""
","
","
","""event"",""trial"",""time""
""fullscreenenter"",""1"",""2375""
","
","","","1672.8000000002794","","","13","3365","1981","w","elianto","#f73b6a7A","-1"," ","0","-10","[2527.4000000003725]","1","2","","","3365","100","6","4","lose","no-go","0"
"pit-trial","174","1288518","0.0-105.0","battery-v0.2","","""event"",""trial"",""time""
""fullscreenenter"",""1"",""2375""
","
","
","""event"",""trial"",""time""
""fullscreenenter"",""1"",""2375""
","
","","","1744.7000000001863","","","13","3365","1981","s","elianto","#3366ff99"," "," ","1","+10","[2599.4000000003725]","1","2","","","3365","101","5","1","win","go","0"
"pit-trial","175","1293386","0.0-106.0","battery-v0.2","","""event"",""trial"",""time""
""fullscreenenter"",""1"",""2375""
","
","
","""event"",""trial"",""time""
""fullscreenenter"",""1"",""2375""
","
","","","-1","","","13","3365","1981","w","elianto","#f73b6a7A","-1","-1","1","0","[]","0","2","","","3365","102","6","4","lose","no-go","0"
"pit-trial","176","1298246","0.0-107.0","battery-v0.2","","""event"",""trial"",""time""
""fullscreenenter"",""1"",""2375""
","
","
","""event"",""trial"",""time""
""fullscreenenter"",""1"",""2375""
","
","","","-1","","","13","3365","1981","j","elianto","#3366ff99","-1","-1","1","+10","[]","0","2","","","3365","103","9","2","win","no-go","0"
"pit-trial","177","1302726","0.0-108.0","battery-v0.2","","""event"",""trial"",""time""
""fullscreenenter"",""1"",""2375""
","
","
","""event"",""trial"",""time""
""fullscreenenter"",""1"",""2375""
","
","","","1617.7000000001863","","","13","3365","1981","d","elianto","#3366ff99","-1"," ","0","0","[2472.600000000093]","1","2","","","3365","104","8","2","win","no-go","0"
"pit-trial","178","1307590","0.0-109.0","battery-v0.2","","""event"",""trial"",""time""
""fullscreenenter"",""1"",""2375""
","
","
","""event"",""trial"",""time""
""fullscreenenter"",""1"",""2375""
","
","","","-1","","","13","3365","1981","w","elianto","#f73b6a7A","-1","-1","1","0","[]","0","2","","","3365","105","6","4","lose","no-go","0"
"pit-trial","179","1311534","0.0-110.0","battery-v0.2","","""event"",""trial"",""time""
""fullscreenenter"",""1"",""2375""
","
","
","""event"",""trial"",""time""
""fullscreenenter"",""1"",""2375""
","
","","","1083","","","13","3365","1981","j","elianto","#3366ff99","-1"," ","0","0","[1937.2999999998137]","1","2","","","3365","106","9","2","win","no-go","0"
"pit-trial","180","1316398","0.0-111.0","battery-v0.2","","""event"",""trial"",""time""
""fullscreenenter"",""1"",""2375""
","
","
","""event"",""trial"",""time""
""fullscreenenter"",""1"",""2375""
","
","","","-1","","","13","3365","1981","d","elianto","#3366ff99","-1","-1","1","+10","[]","0","2","","","3365","107","8","2","win","no-go","0"
"pit-trial","181","1320751","0.0-112.0","battery-v0.2","","""event"",""trial"",""time""
""fullscreenenter"",""1"",""2375""
","
","
","""event"",""trial"",""time""
""fullscreenenter"",""1"",""2375""
","
","","","1491.2999999998137","","","13","3365","1981","s","elianto","#3366ff99"," "," ","1","+10","[2346.600000000093]","1","2","","","3365","108","5","1","win","go","0"
"pit-trial","182","1325622","0.0-113.0","battery-v0.2","","""event"",""trial"",""time""
""fullscreenenter"",""1"",""2375""
","
","
","""event"",""trial"",""time""
""fullscreenenter"",""1"",""2375""
","
","","","-1","","","13","3365","1981","d","elianto","#3366ff99","-1","-1","1","+10","[]","0","2","","","3365","109","8","2","win","no-go","0"
"pit-trial","183","1330486","0.0-114.0","battery-v0.2","","""event"",""trial"",""time""
""fullscreenenter"",""1"",""2375""
","
","
","""event"",""trial"",""time""
""fullscreenenter"",""1"",""2375""
","
","","","-1","","","13","3365","1981","w","elianto","#f73b6a7A","-1","-1","1","0","[2866.2999999998137]","1","2","","","3365","110","6","4","lose","no-go","0"
"pit-trial","184","1335350","0.0-115.0","battery-v0.2","","""event"",""trial"",""time""
""fullscreenenter"",""1"",""2375""
","
","
","""event"",""trial"",""time""
""fullscreenenter"",""1"",""2375""
","
","","","-1","","","13","3365","1981","j","elianto","#3366ff99","-1","-1","1","+10","[]","0","2","","","3365","111","9","2","win","no-go","0"
"pit-trial","185","1339590","0.0-116.0","battery-v0.2","","""event"",""trial"",""time""
""fullscreenenter"",""1"",""2375""
","
","
","""event"",""trial"",""time""
""fullscreenenter"",""1"",""2375""
","
","","","1379.4000000003725","","","13","3365","1981","s","elianto","#3366ff99"," "," ","1","+10","[2234.4000000003725]","1","2","","","3365","112","5","1","win","go","0"
"pit-trial","186","1344070","0.0-117.0","battery-v0.2","","""event"",""trial"",""time""
""fullscreenenter"",""1"",""2375""
","
","
","""event"",""trial"",""time""
""fullscreenenter"",""1"",""2375""
","
","","","1620.7999999998137","","","13","3365","1981","s","elianto","#3366ff99"," "," ","1","+10","[2474.7999999998137]","1","2","","","3365","113","5","1","win","go","0"
"pit-trial","187","1348934","0.0-118.0","battery-v0.2","","""event"",""trial"",""time""
""fullscreenenter"",""1"",""2375""
","
","
","""event"",""trial"",""time""
""fullscreenenter"",""1"",""2375""
","
","","","-1","","","13","3365","1981","e","elianto","#f73b6a7A"," ","-1","0","-10","[]","0","2","","","3365","114","7","3","lose","go","0"
"pit-trial","188","1353798","0.0-119.0","battery-v0.2","","""event"",""trial"",""time""
""fullscreenenter"",""1"",""2375""
","
","
","""event"",""trial"",""time""
""fullscreenenter"",""1"",""2375""
","
","","","-1","","","13","3365","1981","d","elianto","#3366ff99","-1","-1","1","+10","[]","0","2","","","3365","115","8","2","win","no-go","0"
"pit-trial","189","1358663","0.0-120.0","battery-v0.2","","""event"",""trial"",""time""
""fullscreenenter"",""1"",""2375""
","
","
","""event"",""trial"",""time""
""fullscreenenter"",""1"",""2375""
","
","","","-1","","","13","3365","1981","j","elianto","#3366ff99","-1","-1","1","+10","[]","0","2","","","3365","116","9","2","win","no-go","0"
"pit-trial","190","1363526","0.0-121.0","battery-v0.2","","""event"",""trial"",""time""
""fullscreenenter"",""1"",""2375""
","
","
","""event"",""trial"",""time""
""fullscreenenter"",""1"",""2375""
","
","","","-1","","","13","3365","1981","d","elianto","#3366ff99","-1","-1","1","+10","[]","0","2","","","3365","117","8","2","win","no-go","0"
"pit-trial","191","1367215","0.0-122.0","battery-v0.2","","""event"",""trial"",""time""
""fullscreenenter"",""1"",""2375""
","
","
","""event"",""trial"",""time""
""fullscreenenter"",""1"",""2375""
","
","","","830.2000000001863","","","13","3365","1981","w","elianto","#f73b6a7A","-1"," ","0","-10","[1684.8000000002794,1828.3000000002794]","2","2","","","3365","118","6","4","lose","no-go","0"
"pit-trial","192","1371055","0.0-123.0","battery-v0.2","","""event"",""trial"",""time""
""fullscreenenter"",""1"",""2375""
","
","
","""event"",""trial"",""time""
""fullscreenenter"",""1"",""2375""
","
","","","981.3999999999069","","","13","3365","1981","s","elianto","#3366ff99"," "," ","1","+10","[1836]","1","2","","","3365","119","5","1","win","go","0"
"pit-trial","193","1375918","0.0-124.0","battery-v0.2","","""event"",""trial"",""time""
""fullscreenenter"",""1"",""2375""
","
","
","""event"",""trial"",""time""
""fullscreenenter"",""1"",""2375""
","
","","","-1","","","13","3365","1981","j","elianto","#3366ff99","-1","-1","1","+10","[]","0","2","","","3365","120","9","2","win","no-go","0"
"pit-trial","194","1380790","0.0-125.0","battery-v0.2","","""event"",""trial"",""time""
""fullscreenenter"",""1"",""2375""
","
","
","""event"",""trial"",""time""
""fullscreenenter"",""1"",""2375""
","
","","","-1","","","13","3365","1981","e","elianto","#f73b6a7A"," ","-1","0","0","[]","0","2","","","3365","121","7","3","lose","go","1"
"pit-trial","195","1385654","0.0-126.0","battery-v0.2","","""event"",""trial"",""time""
""fullscreenenter"",""1"",""2375""
","
","
","""event"",""trial"",""time""
""fullscreenenter"",""1"",""2375""
","
","","","-1","","","13","3365","1981","d","elianto","#3366ff99","-1","-1","1","+10","[]","0","2","","","3365","122","8","2","win","no-go","0"
"pit-trial","196","1390518","0.0-127.0","battery-v0.2","","""event"",""trial"",""time""
""fullscreenenter"",""1"",""2375""
","
","
","""event"",""trial"",""time""
""fullscreenenter"",""1"",""2375""
","
","","","-1","","","13","3365","1981","j","elianto","#3366ff99","-1","-1","1","+10","[]","0","2","","","3365","123","9","2","win","no-go","0"
"pit-trial","197","1394375","0.0-128.0","battery-v0.2","","""event"",""trial"",""time""
""fullscreenenter"",""1"",""2375""
","
","
","""event"",""trial"",""time""
""fullscreenenter"",""1"",""2375""
","
","","","991.7000000001863","","","13","3365","1981","s","elianto","#3366ff99"," "," ","1","+10","[1846.1000000000931]","1","2","","","3365","124","5","1","win","go","0"
"pit-trial","198","1399239","0.0-129.0","battery-v0.2","","""event"",""trial"",""time""
""fullscreenenter"",""1"",""2375""
","
","
","""event"",""trial"",""time""
""fullscreenenter"",""1"",""2375""
","
","","","-1","","","13","3365","1981","d","elianto","#3366ff99","-1","-1","1","+10","[]","0","2","","","3365","125","8","2","win","no-go","0"
"pit-trial","199","1404103","0.0-130.0","battery-v0.2","","""event"",""trial"",""time""
""fullscreenenter"",""1"",""2375""
","
","
","""event"",""trial"",""time""
""fullscreenenter"",""1"",""2375""
","
","","","-1","","","13","3365","1981","e","elianto","#f73b6a7A"," ","-1","0","-10","[]","0","2","","","3365","126","7","3","lose","go","0"
"pit-trial","200","1408966","0.0-131.0","battery-v0.2","","""event"",""trial"",""time""
""fullscreenenter"",""1"",""2375""
","
","
","""event"",""trial"",""time""
""fullscreenenter"",""1"",""2375""
","
","","","-1","","","13","3365","1981","j","elianto","#3366ff99","-1","-1","1","+10","[]","0","2","","","3365","127","9","2","win","no-go","0"
"pit-trial","201","1413126","0.0-132.0","battery-v0.2","","""event"",""trial"",""time""
""fullscreenenter"",""1"",""2375""
","
","
","""event"",""trial"",""time""
""fullscreenenter"",""1"",""2375""
","
","","","1300.3999999999069","","","13","3365","1981","w","elianto","#f73b6a7A","-1"," ","0","0","[2151.8000000002794]","1","2","","","3365","128","6","4","lose","no-go","1"
"pit-trial","202","1417990","0.0-133.0","battery-v0.2","","""event"",""trial"",""time""
""fullscreenenter"",""1"",""2375""
","
","
","""event"",""trial"",""time""
""fullscreenenter"",""1"",""2375""
","
","","","-1","","","13","3365","1981","e","elianto","#f73b6a7A"," ","-1","0","-10","[]","0","2","","","3365","129","7","3","lose","go","0"
"pit-trial","203","1422854","0.0-134.0","battery-v0.2","","""event"",""trial"",""time""
""fullscreenenter"",""1"",""2375""
","
","
","""event"",""trial"",""time""
""fullscreenenter"",""1"",""2375""
","
","","","-1","","","13","3365","1981","d","elianto","#3366ff99","-1","-1","1","+10","[]","0","2","","","3365","130","8","2","win","no-go","0"
"pit-trial","204","1426470","0.0-135.0","battery-v0.2","","""event"",""trial"",""time""
""fullscreenenter"",""1"",""2375""
","
","
","""event"",""trial"",""time""
""fullscreenenter"",""1"",""2375""
","
","","","753.8999999999069","","","13","3365","1981","w","elianto","#f73b6a7A","-1"," ","0","-10","[1608.2000000001863]","1","2","","","3365","131","6","4","lose","no-go","0"
"pit-trial","205","1431334","0.0-136.0","battery-v0.2","","""event"",""trial"",""time""
""fullscreenenter"",""1"",""2375""
","
","
","""event"",""trial"",""time""
""fullscreenenter"",""1"",""2375""
","
","","","-1","","","13","3365","1981","j","elianto","#3366ff99","-1","-1","1","+10","[]","0","2","","","3365","132","9","2","win","no-go","0"
"pit-trial","206","1436198","0.0-137.0","battery-v0.2","","""event"",""trial"",""time""
""fullscreenenter"",""1"",""2375""
","
","
","""event"",""trial"",""time""
""fullscreenenter"",""1"",""2375""
","
","","","-1","","","13","3365","1981","d","elianto","#3366ff99","-1","-1","1","+10","[]","0","2","","","3365","133","8","2","win","no-go","0"
"pit-trial","207","1441062","0.0-138.0","battery-v0.2","","""event"",""trial"",""time""
""fullscreenenter"",""1"",""2375""
","
","
","""event"",""trial"",""time""
""fullscreenenter"",""1"",""2375""
","
","","","-1","","","13","3365","1981","j","elianto","#3366ff99","-1","-1","1","+10","[]","0","2","","","3365","134","9","2","win","no-go","0"
"pit-trial","208","1445926","0.0-139.0","battery-v0.2","","""event"",""trial"",""time""
""fullscreenenter"",""1"",""2375""
","
","
","""event"",""trial"",""time""
""fullscreenenter"",""1"",""2375""
","
","","","-1","","","13","3365","1981","e","elianto","#f73b6a7A"," ","-1","0","-10","[]","0","2","","","3365","135","7","3","lose","go","0"
"pit-trial","209","1449846","0.0-140.0","battery-v0.2","","""event"",""trial"",""time""
""fullscreenenter"",""1"",""2375""
","
","
","""event"",""trial"",""time""
""fullscreenenter"",""1"",""2375""
","
","","","1058.1999999997206","","","13","3365","1981","w","elianto","#f73b6a7A","-1"," ","0","-10","[1913.3999999999069]","1","2","","","3365","136","6","4","lose","no-go","0"
"pit-trial","210","1454710","0.0-141.0","battery-v0.2","","""event"",""trial"",""time""
""fullscreenenter"",""1"",""2375""
","
","
","""event"",""trial"",""time""
""fullscreenenter"",""1"",""2375""
","
","","","-1","","","13","3365","1981","j","elianto","#3366ff99","-1","-1","1","+10","[]","0","2","","","3365","137","9","2","win","no-go","0"
"pit-trial","211","1459574","0.0-142.0","battery-v0.2","","""event"",""trial"",""time""
""fullscreenenter"",""1"",""2375""
","
","
","""event"",""trial"",""time""
""fullscreenenter"",""1"",""2375""
","
","","","-1","","","13","3365","1981","d","elianto","#3366ff99","-1","-1","1","+10","[]","0","2","","","3365","138","8","2","win","no-go","0"
"pit-trial","212","1464438","0.0-143.0","battery-v0.2","","""event"",""trial"",""time""
""fullscreenenter"",""1"",""2375""
","
","
","""event"",""trial"",""time""
""fullscreenenter"",""1"",""2375""
","
","","","-1","","","13","3365","1981","w","elianto","#f73b6a7A","-1","-1","1","-10","[]","0","2","","","3365","139","6","4","lose","no-go","1"
"pit-trial","213","1468654","0.0-144.0","battery-v0.2","","""event"",""trial"",""time""
""fullscreenenter"",""1"",""2375""
","
","
","""event"",""trial"",""time""
""fullscreenenter"",""1"",""2375""
","
","","","1357.3000000002794","","","13","3365","1981","e","elianto","#f73b6a7A"," "," ","1","0","[2211.100000000093]","1","2","","","3365","140","7","3","lose","go","0"
"pit-instructions","214","1569152","0.0-145.0","battery-v0.2","","""event"",""trial"",""time""
""fullscreenenter"",""1"",""2375""
","
","
","""event"",""trial"",""time""
""fullscreenenter"",""1"",""2375""
","
","","[{""page_index"":0,""viewing_time"":89984.1000000001},{""page_index"":1,""viewing_time"":10512.700000000186}]","100497.1000000001","","","","","","","","","","","","","","","","","","","","","","","",""
"pit-trial","215","1574029","0.0-146.0","battery-v0.2","","""event"",""trial"",""time""
""fullscreenenter"",""1"",""2375""
","
","
","""event"",""trial"",""time""
""fullscreenenter"",""1"",""2375""
","
","","","-1","","","13","3365","1981","n","elianto","#f73b6a7A"," ","-1","0","0","[]","0","3","","","3365","141","0","3","lose","go","1"
"pit-trial","216","1578908","0.0-147.0","battery-v0.2","","""event"",""trial"",""time""
""fullscreenenter"",""1"",""2375""
","
","
","""event"",""trial"",""time""
""fullscreenenter"",""1"",""2375""
","
","","","-1","","","13","3365","1981","b","elianto","#f73b6a7A","-1","-1","1","0","[]","0","3","","","3365","142","3","4","lose","no-go","0"
"pit-trial","217","1583291","0.0-148.0","battery-v0.2","","""event"",""trial"",""time""
""fullscreenenter"",""1"",""2375""
","
","
","""event"",""trial"",""time""
""fullscreenenter"",""1"",""2375""
","
","","","1510.3000000002794","","","13","3365","1981","f","elianto","#3366ff99","-1"," ","0","0","[2363.8000000002794]","1","3","","","3365","143","1","2","win","no-go","0"
"pit-trial","218","1587550","0.0-149.0","battery-v0.2","","""event"",""trial"",""time""
""fullscreenenter"",""1"",""2375""
","
","
","""event"",""trial"",""time""
""fullscreenenter"",""1"",""2375""
","
","","","1387","","","13","3365","1981","t","elianto","#f73b6a7A"," "," ","1","0","[2245.100000000093]","1","3","","","3365","144","2","3","lose","go","0"
"pit-trial","219","1592428","0.0-150.0","battery-v0.2","","""event"",""trial"",""time""
""fullscreenenter"",""1"",""2375""
","
","
","""event"",""trial"",""time""
""fullscreenenter"",""1"",""2375""
","
","","","-1","","","13","3365","1981","b","elianto","#f73b6a7A","-1","-1","1","-10","[]","0","3","","","3365","145","3","4","lose","no-go","1"
"pit-trial","220","1596177","0.0-151.0","battery-v0.2","","""event"",""trial"",""time""
""fullscreenenter"",""1"",""2375""
","
","
","""event"",""trial"",""time""
""fullscreenenter"",""1"",""2375""
","
","","","883","","","13","3365","1981","t","elianto","#f73b6a7A"," "," ","1","-10","[1739.7000000001863]","1","3","","","3365","146","2","3","lose","go","1"
"pit-trial","221","1601038","0.0-152.0","battery-v0.2","","""event"",""trial"",""time""
""fullscreenenter"",""1"",""2375""
","
","
","""event"",""trial"",""time""
""fullscreenenter"",""1"",""2375""
","
","","","-1","","","13","3365","1981","n","elianto","#f73b6a7A"," ","-1","0","-10","[3271.7999999998137]","1","3","","","3365","147","0","3","lose","go","0"
"pit-trial","222","1605358","0.0-153.0","battery-v0.2","","""event"",""trial"",""time""
""fullscreenenter"",""1"",""2375""
","
","
","""event"",""trial"",""time""
""fullscreenenter"",""1"",""2375""
","
","","","1460","","","13","3365","1981","f","elianto","#3366ff99","-1"," ","0","0","[2314.5999999996275]","1","3","","","3365","148","1","2","win","no-go","0"
"pit-trial","223","1609862","0.0-154.0","battery-v0.2","","""event"",""trial"",""time""
""fullscreenenter"",""1"",""2375""
","
","
","""event"",""trial"",""time""
""fullscreenenter"",""1"",""2375""
","
","","","1643.8999999999069","","","13","3365","1981","n","elianto","#f73b6a7A"," "," ","1","0","[2498.600000000093]","1","3","","","3365","149","0","3","lose","go","0"
"pit-trial","224","1614726","0.0-155.0","battery-v0.2","","""event"",""trial"",""time""
""fullscreenenter"",""1"",""2375""
","
","
","""event"",""trial"",""time""
""fullscreenenter"",""1"",""2375""
","
","","","-1","","","13","3365","1981","b","elianto","#f73b6a7A","-1","-1","1","0","[]","0","3","","","3365","150","3","4","lose","no-go","0"
"pit-trial","225","1619590","0.0-156.0","battery-v0.2","","""event"",""trial"",""time""
""fullscreenenter"",""1"",""2375""
","
","
","""event"",""trial"",""time""
""fullscreenenter"",""1"",""2375""
","
","","","-1","","","13","3365","1981","f","elianto","#3366ff99","-1","-1","1","+10","[]","0","3","","","3365","151","1","2","win","no-go","0"
"pit-trial","226","1623470","0.0-157.0","battery-v0.2","","""event"",""trial"",""time""
""fullscreenenter"",""1"",""2375""
","
","
","""event"",""trial"",""time""
""fullscreenenter"",""1"",""2375""
","
","","","1020.3000000002794","","","13","3365","1981","t","elianto","#f73b6a7A"," "," ","1","0","[1875.6000000000931]","1","3","","","3365","152","2","3","lose","go","0"
"pit-trial","227","1628334","0.0-158.0","battery-v0.2","","""event"",""trial"",""time""
""fullscreenenter"",""1"",""2375""
","
","
","""event"",""trial"",""time""
""fullscreenenter"",""1"",""2375""
","
","","","-1","","","13","3365","1981","b","elianto","#f73b6a7A","-1","-1","1","-10","[]","0","3","","","3365","153","3","4","lose","no-go","1"
"pit-trial","228","1633198","0.0-159.0","battery-v0.2","","""event"",""trial"",""time""
""fullscreenenter"",""1"",""2375""
","
","
","""event"",""trial"",""time""
""fullscreenenter"",""1"",""2375""
","
","","","-1","","","13","3365","1981","f","elianto","#3366ff99","-1","-1","1","+10","[]","0","3","","","3365","154","1","2","win","no-go","0"
"pit-trial","229","1637622","0.0-160.0","battery-v0.2","","""event"",""trial"",""time""
""fullscreenenter"",""1"",""2375""
","
","
","""event"",""trial"",""time""
""fullscreenenter"",""1"",""2375""
","
","","","1567.6000000000931","","","13","3365","1981","t","elianto","#f73b6a7A"," "," ","1","0","[2421.100000000093]","1","3","","","3365","155","2","3","lose","go","0"
"pit-trial","230","1641030","0.0-161.0","battery-v0.2","","""event"",""trial"",""time""
""fullscreenenter"",""1"",""2375""
","
","
","""event"",""trial"",""time""
""fullscreenenter"",""1"",""2375""
","
","","","554.2999999998137","","","13","3365","1981","n","elianto","#f73b6a7A"," "," ","1","0","[1404.7999999998137]","1","3","","","3365","156","0","3","lose","go","0"
"pit-trial","231","1645894","0.0-162.0","battery-v0.2","","""event"",""trial"",""time""
""fullscreenenter"",""1"",""2375""
","
","
","""event"",""trial"",""time""
""fullscreenenter"",""1"",""2375""
","
","","","-1","","","13","3365","1981","b","elianto","#f73b6a7A","-1","-1","1","0","[]","0","3","","","3365","157","3","4","lose","no-go","0"
"pit-trial","232","1649630","0.0-163.0","battery-v0.2","","""event"",""trial"",""time""
""fullscreenenter"",""1"",""2375""
","
","
","""event"",""trial"",""time""
""fullscreenenter"",""1"",""2375""
","
","","","879.6000000000931","","","13","3365","1981","n","elianto","#f73b6a7A"," "," ","1","0","[1733.1000000000931]","1","3","","","3365","158","0","3","lose","go","0"
"pit-trial","233","1654494","0.0-164.0","battery-v0.2","","""event"",""trial"",""time""
""fullscreenenter"",""1"",""2375""
","
","
","""event"",""trial"",""time""
""fullscreenenter"",""1"",""2375""
","
","","","-1","","","13","3365","1981","f","elianto","#3366ff99","-1","-1","1","+10","[]","0","3","","","3365","159","1","2","win","no-go","0"
"pit-trial","234","1658278","0.0-165.0","battery-v0.2","","""event"",""trial"",""time""
""fullscreenenter"",""1"",""2375""
","
","
","""event"",""trial"",""time""
""fullscreenenter"",""1"",""2375""
","
","","","927.1999999997206","","","13","3365","1981","t","elianto","#f73b6a7A"," "," ","1","0","[1781.8999999999069]","1","3","","","3365","160","2","3","lose","go","0"
"pit-trial","235","1662470","0.0-166.0","battery-v0.2","","""event"",""trial"",""time""
""fullscreenenter"",""1"",""2375""
","
","
","""event"",""trial"",""time""
""fullscreenenter"",""1"",""2375""
","
","","","1331.8999999999069","","","13","3365","1981","t","elianto","#f73b6a7A"," "," ","1","0","[2182]","1","3","","","3365","161","2","3","lose","go","0"
"pit-trial","236","1667334","0.0-167.0","battery-v0.2","","""event"",""trial"",""time""
""fullscreenenter"",""1"",""2375""
","
","
","""event"",""trial"",""time""
""fullscreenenter"",""1"",""2375""
","
","","","-1","","","13","3365","1981","b","elianto","#f73b6a7A","-1","-1","1","-10","[]","0","3","","","3365","162","3","4","lose","no-go","1"
"pit-trial","237","1672198","0.0-168.0","battery-v0.2","","""event"",""trial"",""time""
""fullscreenenter"",""1"",""2375""
","
","
","""event"",""trial"",""time""
""fullscreenenter"",""1"",""2375""
","
","","","-1","","","13","3365","1981","n","elianto","#f73b6a7A"," ","-1","0","-10","[2918.899999999907]","1","3","","","3365","163","0","3","lose","go","0"
"pit-trial","238","1677063","0.0-169.0","battery-v0.2","","""event"",""trial"",""time""
""fullscreenenter"",""1"",""2375""
","
","
","""event"",""trial"",""time""
""fullscreenenter"",""1"",""2375""
","
","","","-1","","","13","3365","1981","f","elianto","#3366ff99","-1","-1","1","+10","[]","0","3","","","3365","164","1","2","win","no-go","0"
"pit-trial","239","1681926","0.0-170.0","battery-v0.2","","""event"",""trial"",""time""
""fullscreenenter"",""1"",""2375""
","
","
","""event"",""trial"",""time""
""fullscreenenter"",""1"",""2375""
","
","","","-1","","","13","3365","1981","f","elianto","#3366ff99","-1","-1","1","+10","[]","0","3","","","3365","165","1","2","win","no-go","0"
"pit-trial","240","1685998","0.0-171.0","battery-v0.2","","""event"",""trial"",""time""
""fullscreenenter"",""1"",""2375""
","
","
","""event"",""trial"",""time""
""fullscreenenter"",""1"",""2375""
","
","","","1208.7000000001863","","","13","3365","1981","t","elianto","#f73b6a7A"," "," ","1","0","[2063.2999999998137]","1","3","","","3365","166","2","3","lose","go","0"
"pit-trial","241","1690862","0.0-172.0","battery-v0.2","","""event"",""trial"",""time""
""fullscreenenter"",""1"",""2375""
","
","
","""event"",""trial"",""time""
""fullscreenenter"",""1"",""2375""
","
","","","-1","","","13","3365","1981","b","elianto","#f73b6a7A","-1","-1","1","0","[]","0","3","","","3365","167","3","4","lose","no-go","0"
"pit-trial","242","1694862","0.0-173.0","battery-v0.2","","""event"",""trial"",""time""
""fullscreenenter"",""1"",""2375""
","
","
","""event"",""trial"",""time""
""fullscreenenter"",""1"",""2375""
","
","","","1141.8000000002794","","","13","3365","1981","n","elianto","#f73b6a7A"," "," ","1","0","[1991.8000000002794]","1","3","","","3365","168","0","3","lose","go","0"
"pit-trial","243","1699726","0.0-174.0","battery-v0.2","","""event"",""trial"",""time""
""fullscreenenter"",""1"",""2375""
","
","
","""event"",""trial"",""time""
""fullscreenenter"",""1"",""2375""
","
","","","-1","","","13","3365","1981","b","elianto","#f73b6a7A","-1","-1","1","0","[]","0","3","","","3365","169","3","4","lose","no-go","0"
"pit-trial","244","1703550","0.0-175.0","battery-v0.2","","""event"",""trial"",""time""
""fullscreenenter"",""1"",""2375""
","
","
","""event"",""trial"",""time""
""fullscreenenter"",""1"",""2375""
","
","","","961.8000000002794","","","13","3365","1981","t","elianto","#f73b6a7A"," "," ","1","0","[1817]","1","3","","","3365","170","2","3","lose","go","0"
"pit-trial","245","1707318","0.0-176.0","battery-v0.2","","""event"",""trial"",""time""
""fullscreenenter"",""1"",""2375""
","
","
","""event"",""trial"",""time""
""fullscreenenter"",""1"",""2375""
","
","","","906.2000000001863","","","13","3365","1981","n","elianto","#f73b6a7A"," "," ","1","0","[1761.1000000000931]","1","3","","","3365","171","0","3","lose","go","0"
"pit-trial","246","1712182","0.0-177.0","battery-v0.2","","""event"",""trial"",""time""
""fullscreenenter"",""1"",""2375""
","
","
","""event"",""trial"",""time""
""fullscreenenter"",""1"",""2375""
","
","","","-1","","","13","3365","1981","f","elianto","#3366ff99","-1","-1","1","+10","[]","0","3","","","3365","172","1","2","win","no-go","0"
"pit-trial","247","1715806","0.0-178.0","battery-v0.2","","""event"",""trial"",""time""
""fullscreenenter"",""1"",""2375""
","
","
","""event"",""trial"",""time""
""fullscreenenter"",""1"",""2375""
","
","","","765.6000000000931","","","13","3365","1981","n","elianto","#f73b6a7A"," "," ","1","-10","[1617.6000000000931]","1","3","","","3365","173","0","3","lose","go","1"
"pit-trial","248","1719838","0.0-179.0","battery-v0.2","","""event"",""trial"",""time""
""fullscreenenter"",""1"",""2375""
","
","
","""event"",""trial"",""time""
""fullscreenenter"",""1"",""2375""
","
","","","1170.7000000001863","","","13","3365","1981","t","elianto","#f73b6a7A"," "," ","1","0","[2025.1000000000931]","1","3","","","3365","174","2","3","lose","go","0"
"pit-trial","249","1724702","0.0-180.0","battery-v0.2","","""event"",""trial"",""time""
""fullscreenenter"",""1"",""2375""
","
","
","""event"",""trial"",""time""
""fullscreenenter"",""1"",""2375""
","
","","","-1","","","13","3365","1981","b","elianto","#f73b6a7A","-1","-1","1","0","[]","0","3","","","3365","175","3","4","lose","no-go","0"
"pit-trial","250","1729566","0.0-181.0","battery-v0.2","","""event"",""trial"",""time""
""fullscreenenter"",""1"",""2375""
","
","
","""event"",""trial"",""time""
""fullscreenenter"",""1"",""2375""
","
","","","-1","","","13","3365","1981","f","elianto","#3366ff99","-1","-1","1","+10","[]","0","3","","","3365","176","1","2","win","no-go","0"
"pit-trial","251","1734430","0.0-182.0","battery-v0.2","","""event"",""trial"",""time""
""fullscreenenter"",""1"",""2375""
","
","
","""event"",""trial"",""time""
""fullscreenenter"",""1"",""2375""
","
","","","-1","","","13","3365","1981","c","elianto","#3366ff99"," ","-1","0","0","[]","0","3","","","3365","177","4","1","win","go","0"
"pit-trial","252","1738183","0.0-183.0","battery-v0.2","","""event"",""trial"",""time""
""fullscreenenter"",""1"",""2375""
","
","
","""event"",""trial"",""time""
""fullscreenenter"",""1"",""2375""
","
","","","892.3000000002794","","","13","3365","1981","t","elianto","#f73b6a7A"," "," ","1","0","[1747]","1","3","","","3365","178","2","3","lose","go","0"
"pit-trial","253","1742406","0.0-184.0","battery-v0.2","","""event"",""trial"",""time""
""fullscreenenter"",""1"",""2375""
","
","
","""event"",""trial"",""time""
""fullscreenenter"",""1"",""2375""
","
","","","1363.6000000000931","","","13","3365","1981","n","elianto","#f73b6a7A"," "," ","1","-10","[2218.2000000001863]","1","3","","","3365","179","0","3","lose","go","1"
"pit-trial","254","1747270","0.0-185.0","battery-v0.2","","""event"",""trial"",""time""
""fullscreenenter"",""1"",""2375""
","
","
","""event"",""trial"",""time""
""fullscreenenter"",""1"",""2375""
","
","","","-1","","","13","3365","1981","b","elianto","#f73b6a7A","-1","-1","1","0","[]","0","3","","","3365","180","3","4","lose","no-go","0"
"pit-trial","255","1752134","0.0-186.0","battery-v0.2","","""event"",""trial"",""time""
""fullscreenenter"",""1"",""2375""
","
","
","""event"",""trial"",""time""
""fullscreenenter"",""1"",""2375""
","
","","","-1","","","13","3365","1981","b","elianto","#f73b6a7A","-1","-1","1","0","[3867.6999999997206]","1","3","","","3365","181","3","4","lose","no-go","0"
"pit-trial","256","1756263","0.0-187.0","battery-v0.2","","""event"",""trial"",""time""
""fullscreenenter"",""1"",""2375""
","
","
","""event"",""trial"",""time""
""fullscreenenter"",""1"",""2375""
","
","","","1268.2999999998137","","","13","3365","1981","c","elianto","#3366ff99"," "," ","1","+10","[2123.2999999998137]","1","3","","","3365","182","4","1","win","go","0"
"pit-trial","257","1761126","0.0-188.0","battery-v0.2","","""event"",""trial"",""time""
""fullscreenenter"",""1"",""2375""
","
","
","""event"",""trial"",""time""
""fullscreenenter"",""1"",""2375""
","
","","","-1","","","13","3365","1981","f","elianto","#3366ff99","-1","-1","1","+10","[]","0","3","","","3365","183","1","2","win","no-go","0"
"pit-trial","258","1765575","0.0-189.0","battery-v0.2","","""event"",""trial"",""time""
""fullscreenenter"",""1"",""2375""
","
","
","""event"",""trial"",""time""
""fullscreenenter"",""1"",""2375""
","
","","","1589.1000000000931","","","13","3365","1981","t","elianto","#f73b6a7A"," "," ","1","0","[2444.3000000002794]","1","3","","","3365","184","2","3","lose","go","0"
"pit-trial","259","1770438","0.0-190.0","battery-v0.2","","""event"",""trial"",""time""
""fullscreenenter"",""1"",""2375""
","
","
","""event"",""trial"",""time""
""fullscreenenter"",""1"",""2375""
","
","","","-1","","","13","3365","1981","f","elianto","#3366ff99","-1","-1","1","+10","[]","0","3","","","3365","185","1","2","win","no-go","0"
"pit-trial","260","1775302","0.0-191.0","battery-v0.2","","""event"",""trial"",""time""
""fullscreenenter"",""1"",""2375""
","
","
","""event"",""trial"",""time""
""fullscreenenter"",""1"",""2375""
","
","","","-1","","","13","3365","1981","b","elianto","#f73b6a7A","-1","-1","1","0","[]","0","3","","","3365","186","3","4","lose","no-go","0"
"pit-trial","261","1779655","0.0-192.0","battery-v0.2","","""event"",""trial"",""time""
""fullscreenenter"",""1"",""2375""
","
","
","""event"",""trial"",""time""
""fullscreenenter"",""1"",""2375""
","
","","","1494","","","13","3365","1981","z","elianto","#3366ff99","-1"," ","0","0","[2349.2999999998137]","1","3","","","3365","187","5","2","win","no-go","0"
"pit-trial","262","1783966","0.0-193.0","battery-v0.2","","""event"",""trial"",""time""
""fullscreenenter"",""1"",""2375""
","
","
","""event"",""trial"",""time""
""fullscreenenter"",""1"",""2375""
","
","","","1457.6000000000931","","","13","3365","1981","c","elianto","#3366ff99"," "," ","1","+10","[2308.8000000002794]","1","3","","","3365","188","4","1","win","go","0"
"pit-trial","263","1788831","0.0-194.0","battery-v0.2","","""event"",""trial"",""time""
""fullscreenenter"",""1"",""2375""
","
","
","""event"",""trial"",""time""
""fullscreenenter"",""1"",""2375""
","
","","","-1","","","13","3365","1981","z","elianto","#3366ff99","-1","-1","1","0","[]","0","3","","","3365","189","5","2","win","no-go","1"
"pit-trial","264","1793023","0.0-195.0","battery-v0.2","","""event"",""trial"",""time""
""fullscreenenter"",""1"",""2375""
","
","
","""event"",""trial"",""time""
""fullscreenenter"",""1"",""2375""
","
