"trial_type","trial_index","time_elapsed","internal_node_id","task_version","subject_id","interactions","blur_events","focus_events","fullscreenenter_events","fullscreenexit_events","success","view_history","rt","responses","num_errors","age","subject","participantId","rune","rune_set","hex","correct","choice","accuracy","outcome","keys","total_keys","block","practice","value","sub","trial","stimulus","robot","valence","action","sham"
"pavlovia","0","17","0.0-0.0","battery-v0.2","","""event"",""trial"",""time""
""fullscreenenter"",""1"",""3813""
","
","
","""event"",""trial"",""time""
""fullscreenenter"",""1"",""3813""
","
","","","","","","","","","","","","","","","","","","","","","","","","","","",""
"fullscreen","1","4798","0.0-1.0","battery-v0.2","","""event"",""trial"",""time""
""fullscreenenter"",""1"",""3813""
","
","
","""event"",""trial"",""time""
""fullscreenenter"",""1"",""3813""
","
","true","","","","","","","","","","","","","","","","","","","","","","","","","",""
"pit-instructions","2","14557","0.0-2.0-0.0","battery-v0.2","","""event"",""trial"",""time""
""fullscreenenter"",""1"",""3813""
","
","
","""event"",""trial"",""time""
""fullscreenenter"",""1"",""3813""
","
","","[{""page_index"":0,""viewing_time"":9747.300000190735}]","9747.900000095367","","","","","","","","","","","","","","","","","","","","","","","",""
"pit-comprehension","3","17963","0.0-2.0-1.0-0.0","battery-v0.2","","""event"",""trial"",""time""
""fullscreenenter"",""1"",""3813""
","
","
","""event"",""trial"",""time""
""fullscreenenter"",""1"",""3813""
","
","","","3397.5","[""shark""]","0","16","12423","5454","","","","","","","","","","","","","","","","","","",""
"pit-instructions","4","19456","0.0-2.0-1.0-1.0","battery-v0.2","","""event"",""trial"",""time""
""fullscreenenter"",""1"",""3813""
","
","
","""event"",""trial"",""time""
""fullscreenenter"",""1"",""3813""
","
","","[{""page_index"":0,""viewing_time"":1469.5999999046326}]","1470.3000001907349","","","","","","","","","","","","","","","","","","","","","","","",""
"pit-comprehension","5","22412","0.0-2.0-2.0-0.0","battery-v0.2","","""event"",""trial"",""time""
""fullscreenenter"",""1"",""3813""
","
","
","""event"",""trial"",""time""
""fullscreenenter"",""1"",""3813""
","
","","","2947.9000000953674","[""tiger""]","0","16","12423","5454","","","","","","","","","","","","","","","","","","",""
"pit-instructions","6","23501","0.0-2.0-2.0-1.0","battery-v0.2","","""event"",""trial"",""time""
""fullscreenenter"",""1"",""3813""
","
","
","""event"",""trial"",""time""
""fullscreenenter"",""1"",""3813""
","
","","[{""page_index"":0,""viewing_time"":1083.5999999046326}]","1084","","","","","","","","","","","","","","","","","","","","","","","",""
"pit-instructions","7","129369","0.0-2.0-3.0","battery-v0.2","","""event"",""trial"",""time""
""fullscreenenter"",""1"",""3813""
","
","
","""event"",""trial"",""time""
""fullscreenenter"",""1"",""3813""
","
","","[{""page_index"":0,""viewing_time"":12137.799999713898},{""page_index"":1,""viewing_time"":7656.800000190735},{""page_index"":2,""viewing_time"":7284.300000190735},{""page_index"":3,""viewing_time"":5088.599999904633},{""page_index"":4,""viewing_time"":6852.099999904633},{""page_index"":5,""viewing_time"":5681.900000095367},{""page_index"":6,""viewing_time"":7204.199999809265},{""page_index"":7,""viewing_time"":7053.5},{""page_index"":8,""viewing_time"":6901.700000286102},{""page_index"":9,""viewing_time"":7727.299999713898},{""page_index"":10,""viewing_time"":10921.400000095367},{""page_index"":11,""viewing_time"":8209},{""page_index"":12,""viewing_time"":6382.800000190735},{""page_index"":13,""viewing_time"":6761.39999961853}]","105863.40000009537","","","","","","","","","","","","","","","","","","","","","","","",""
"pit-trial","8","133403","0.0-2.0-4.0-0.0","battery-v0.2","","""event"",""trial"",""time""
""fullscreenenter"",""1"",""3813""
","
","
","""event"",""trial"",""time""
""fullscreenenter"",""1"",""3813""
","
","","","1166","","","16","12423","5454","&#9784;","elianto","#FFFFF080"," "," ","1","&#10004","[2016.3000001907349]","1","0","0","","","","","","","",""
"pit-trial","9","136900","0.0-2.0-4.1-0.1","battery-v0.2","","""event"",""trial"",""time""
""fullscreenenter"",""1"",""3813""
","
","
","""event"",""trial"",""time""
""fullscreenenter"",""1"",""3813""
","
","","","629.8000001907349","","","16","12423","5454","&#9784;","elianto","#FFFFF080"," "," ","1","&#10004","[1480.5999999046326]","1","0","0","","","","","","","",""
"pit-trial","10","140507","0.0-2.0-4.2-0.2","battery-v0.2","","""event"",""trial"",""time""
""fullscreenenter"",""1"",""3813""
","
","
","""event"",""trial"",""time""
""fullscreenenter"",""1"",""3813""
","
","","","733.1999998092651","","","16","12423","5454","&#9784;","elianto","#FFFFF080"," "," ","1","&#10004","[1594.6999998092651]","1","0","0","","","","","","","",""
"pit-trial","11","144205","0.0-2.0-4.3-0.3","battery-v0.2","","""event"",""trial"",""time""
""fullscreenenter"",""1"",""3813""
","
","
","""event"",""trial"",""time""
""fullscreenenter"",""1"",""3813""
","
","","","834.8999996185303","","","16","12423","5454","&#9784;","elianto","#FFFFF080"," "," ","1","&#10004","[1689.5]","1","0","0","","","","","","","",""
"pit-trial","12","147863","0.0-2.0-4.4-0.4","battery-v0.2","","""event"",""trial"",""time""
""fullscreenenter"",""1"",""3813""
","
","
","""event"",""trial"",""time""
""fullscreenenter"",""1"",""3813""
","
","","","799.2999997138977","","","16","12423","5454","&#9784;","elianto","#FFFFF080"," "," ","1","&#10004","[1649.5]","1","0","0","","","","","","","",""
"pit-instructions","13","168963","0.0-2.0-5.0","battery-v0.2","","""event"",""trial"",""time""
""fullscreenenter"",""1"",""3813""
","
","
","""event"",""trial"",""time""
""fullscreenenter"",""1"",""3813""
","
","","[{""page_index"":0,""viewing_time"":4791.799999713898},{""page_index"":1,""viewing_time"":5136.400000095367},{""page_index"":2,""viewing_time"":4651.5},{""page_index"":3,""viewing_time"":6512.599999904633}]","21093","","","","","","","","","","","","","","","","","","","","","","","",""
"pit-trial","14","173830","0.0-2.0-6.0-0.0","battery-v0.2","","""event"",""trial"",""time""
""fullscreenenter"",""1"",""3813""
","
","
","""event"",""trial"",""time""
""fullscreenenter"",""1"",""3813""
","
","","","-1","","","16","12423","5454","&#9854;","elianto","#FFFFF080","-1","-1","1","&#10004","[]","0","0","1","","","","","","","",""
"pit-trial","15","178700","0.0-2.0-6.1-0.1","battery-v0.2","","""event"",""trial"",""time""
""fullscreenenter"",""1"",""3813""
","
","
","""event"",""trial"",""time""
""fullscreenenter"",""1"",""3813""
","
","","","-1","","","16","12423","5454","&#9854;","elianto","#FFFFF080","-1","-1","1","&#10004","[]","0","0","1","","","","","","","",""
"pit-trial","16","183569","0.0-2.0-6.2-0.2","battery-v0.2","","""event"",""trial"",""time""
""fullscreenenter"",""1"",""3813""
","
","
","""event"",""trial"",""time""
""fullscreenenter"",""1"",""3813""
","
","","","-1","","","16","12423","5454","&#9854;","elianto","#FFFFF080","-1","-1","1","&#10004","[]","0","0","1","","","","","","","",""
"pit-trial","17","188429","0.0-2.0-6.3-0.3","battery-v0.2","","""event"",""trial"",""time""
""fullscreenenter"",""1"",""3813""
","
","
","""event"",""trial"",""time""
""fullscreenenter"",""1"",""3813""
","
","","","-1","","","16","12423","5454","&#9854;","elianto","#FFFFF080","-1","-1","1","&#10004","[]","0","0","1","","","","","","","",""
"pit-trial","18","193292","0.0-2.0-6.4-0.4","battery-v0.2","","""event"",""trial"",""time""
""fullscreenenter"",""1"",""3813""
","
","
","""event"",""trial"",""time""
""fullscreenenter"",""1"",""3813""
","
","","","-1","","","16","12423","5454","&#9854;","elianto","#FFFFF080","-1","-1","1","&#10004","[]","0","0","1","","","","","","","",""
"pit-instructions","19","306682","0.0-2.0-7.0","battery-v0.2","","""event"",""trial"",""time""
""fullscreenenter"",""1"",""3813""
","
","
","""event"",""trial"",""time""
""fullscreenenter"",""1"",""3813""
","
","","[{""page_index"":0,""viewing_time"":5922.800000190735},{""page_index"":1,""viewing_time"":6697.199999809265},{""page_index"":2,""viewing_time"":5884.099999904633},{""page_index"":3,""viewing_time"":5781.800000190735},{""page_index"":4,""viewing_time"":5962.099999904633},{""page_index"":5,""viewing_time"":6318},{""page_index"":6,""viewing_time"":4280.800000190735},{""page_index"":7,""viewing_time"":7429.5},{""page_index"":8,""viewing_time"":6588.299999713898},{""page_index"":9,""viewing_time"":5891},{""page_index"":10,""viewing_time"":6445.300000190735},{""page_index"":11,""viewing_time"":5442.799999713898},{""page_index"":12,""viewing_time"":7051.800000190735},{""page_index"":13,""viewing_time"":7118.5},{""page_index"":14,""viewing_time"":6642.199999809265},{""page_index"":15,""viewing_time"":6269.900000095367},{""page_index"":16,""viewing_time"":6553.599999904633},{""page_index"":17,""viewing_time"":7104.10000038147}]","113384.5","","","","","","","","","","","","","","","","","","","","","","","",""
"pit-trial","20","310116","0.0-2.0-8.0-0.0","battery-v0.2","","""event"",""trial"",""time""
""fullscreenenter"",""1"",""3813""
","
","
","""event"",""trial"",""time""
""fullscreenenter"",""1"",""3813""
","
","","","570.0999999046326","","","16","12423","5454","&#9776;","elianto","#3366ff99"," "," ","1","+10","[1424.9000000953674]","1","0","1","","","","","","","",""
"pit-trial","21","313503","0.0-2.0-8.0-1.0","battery-v0.2","","""event"",""trial"",""time""
""fullscreenenter"",""1"",""3813""
","
","
","""event"",""trial"",""time""
""fullscreenenter"",""1"",""3813""
","
","","","531.9000000953674","","","16","12423","5454","&#9776;","elianto","#3366ff99"," "," ","1","+10","[1382.4000000953674]","1","0","1","","","","","","","",""
"pit-trial","22","316841","0.0-2.0-8.0-2.0","battery-v0.2","","""event"",""trial"",""time""
""fullscreenenter"",""1"",""3813""
","
","
","""event"",""trial"",""time""
""fullscreenenter"",""1"",""3813""
","
","","","474.30000019073486","","","16","12423","5454","&#9776;","elianto","#3366ff99"," "," ","1","+10","[1324.7000002861023]","1","0","1","","","","","","","",""
"pit-trial","23","320186","0.0-2.0-8.0-3.0","battery-v0.2","","""event"",""trial"",""time""
""fullscreenenter"",""1"",""3813""
","
","
","""event"",""trial"",""time""
""fullscreenenter"",""1"",""3813""
","
","","","470.09999990463257","","","16","12423","5454","&#9776;","elianto","#3366ff99"," "," ","1","0","[1326.2999997138977]","1","0","1","","","","","","","",""
"pit-trial","24","323557","0.0-2.0-8.0-4.0","battery-v0.2","","""event"",""trial"",""time""
""fullscreenenter"",""1"",""3813""
","
","
","""event"",""trial"",""time""
""fullscreenenter"",""1"",""3813""
","
","","","507.59999990463257","","","16","12423","5454","&#9776;","elianto","#3366ff99"," "," ","1","+10","[1361.1999998092651]","1","0","1","","","","","","","",""
"pit-trial","25","326810","0.0-2.0-8.1-0.1","battery-v0.2","","""event"",""trial"",""time""
""fullscreenenter"",""1"",""3813""
","
","
","""event"",""trial"",""time""
""fullscreenenter"",""1"",""3813""
","
","","","372.90000009536743","","","16","12423","5454","&#9776;","elianto","#3366ff99"," "," ","1","+10","[1239.0999999046326]","1","0","1","","","","","","","",""
"pit-trial","26","330071","0.0-2.0-8.1-1.1","battery-v0.2","","""event"",""trial"",""time""
""fullscreenenter"",""1"",""3813""
","
","
","""event"",""trial"",""time""
""fullscreenenter"",""1"",""3813""
","
","","","406","","","16","12423","5454","&#9776;","elianto","#3366ff99"," "," ","1","+10","[1256.3000001907349]","1","0","1","","","","","","","",""
"pit-trial","27","333360","0.0-2.0-8.1-2.1","battery-v0.2","","""event"",""trial"",""time""
""fullscreenenter"",""1"",""3813""
","
","
","""event"",""trial"",""time""
""fullscreenenter"",""1"",""3813""
","
","","","421.19999980926514","","","16","12423","5454","&#9776;","elianto","#3366ff99"," "," ","1","+10","[1275.7999997138977]","1","0","1","","","","","","","",""
"pit-trial","28","336611","0.0-2.0-8.1-3.1","battery-v0.2","","""event"",""trial"",""time""
""fullscreenenter"",""1"",""3813""
","
","
","""event"",""trial"",""time""
""fullscreenenter"",""1"",""3813""
","
","","","385.59999990463257","","","16","12423","5454","&#9776;","elianto","#3366ff99"," "," ","1","0","[1236.6999998092651]","1","0","1","","","","","","","",""
"pit-trial","29","339991","0.0-2.0-8.1-4.1","battery-v0.2","","""event"",""trial"",""time""
""fullscreenenter"",""1"",""3813""
","
","
","""event"",""trial"",""time""
""fullscreenenter"",""1"",""3813""
","
","","","525.5","","","16","12423","5454","&#9776;","elianto","#3366ff99"," "," ","1","+10","[1375.5999999046326]","1","0","1","","","","","","","",""
"pit-trial","30","343340","0.0-2.0-8.2-0.2","battery-v0.2","","""event"",""trial"",""time""
""fullscreenenter"",""1"",""3813""
","
","
","""event"",""trial"",""time""
""fullscreenenter"",""1"",""3813""
","
","","","495.09999990463257","","","16","12423","5454","&#9776;","elianto","#3366ff99"," "," ","1","+10","[1345.1000003814697]","1","0","1","","","","","","","",""
"pit-trial","31","346650","0.0-2.0-8.2-1.2","battery-v0.2","","""event"",""trial"",""time""
""fullscreenenter"",""1"",""3813""
","
","
","""event"",""trial"",""time""
""fullscreenenter"",""1"",""3813""
","
","","","456.19999980926514","","","16","12423","5454","&#9776;","elianto","#3366ff99"," "," ","1","+10","[1307.2000002861023]","1","0","1","","","","","","","",""
"pit-trial","32","350051","0.0-2.0-8.2-2.2","battery-v0.2","","""event"",""trial"",""time""
""fullscreenenter"",""1"",""3813""
","
","
","""event"",""trial"",""time""
""fullscreenenter"",""1"",""3813""
","
","","","547","","","16","12423","5454","&#9776;","elianto","#3366ff99"," "," ","1","+10","[1397.5]","1","0","1","","","","","","","",""
"pit-trial","33","353681","0.0-2.0-8.2-3.2","battery-v0.2","","""event"",""trial"",""time""
""fullscreenenter"",""1"",""3813""
","
","
","""event"",""trial"",""time""
""fullscreenenter"",""1"",""3813""
","
","","","775.3999996185303","","","16","12423","5454","&#9776;","elianto","#3366ff99"," "," ","1","0","[1626.1999998092651]","1","0","1","","","","","","","",""
"pit-trial","34","357121","0.0-2.0-8.2-4.2","battery-v0.2","","""event"",""trial"",""time""
""fullscreenenter"",""1"",""3813""
","
","
","""event"",""trial"",""time""
""fullscreenenter"",""1"",""3813""
","
","","","586.5999999046326","","","16","12423","5454","&#9776;","elianto","#3366ff99"," "," ","1","+10","[1436.6999998092651]","1","0","1","","","","","","","",""
"call-function","35","357124","0.0-2.0-9.0","battery-v0.2","","""event"",""trial"",""time""
""fullscreenenter"",""1"",""3813""
","
","
","""event"",""trial"",""time""
""fullscreenenter"",""1"",""3813""
","
","","","","","","","","","","","","","","","","","","","","","","","","","","",""
"pit-instructions","36","429155","0.0-2.0-10.0","battery-v0.2","","""event"",""trial"",""time""
""fullscreenenter"",""1"",""3813""
","
","
","""event"",""trial"",""time""
""fullscreenenter"",""1"",""3813""
","
","","[{""page_index"":0,""viewing_time"":34643.7000002861},{""page_index"":1,""viewing_time"":6888.900000095367},{""page_index"":2,""viewing_time"":10779.699999809265},{""page_index"":3,""viewing_time"":11856.199999809265},{""page_index"":4,""viewing_time"":7860.800000190735}]","72029.7000002861","","","","","","","","","","","","","","","","","","","","","","","",""
"pit-trial","37","434026","0.0-2.0-11.0-0.0","battery-v0.2","","""event"",""trial"",""time""
""fullscreenenter"",""1"",""3813""
","
","
","""event"",""trial"",""time""
""fullscreenenter"",""1"",""3813""
","
","","","-1","","","16","12423","5454","&#9761;","elianto","#3366ff99","-1","-1","1","+10","[]","0","0","2","","","","","","","",""
"pit-trial","38","438896","0.0-2.0-11.0-1.0","battery-v0.2","","""event"",""trial"",""time""
""fullscreenenter"",""1"",""3813""
","
","
","""event"",""trial"",""time""
""fullscreenenter"",""1"",""3813""
","
","","","-1","","","16","12423","5454","&#9761;","elianto","#3366ff99","-1","-1","1","+10","[]","0","0","2","","","","","","","",""
"pit-trial","39","443768","0.0-2.0-11.0-2.0","battery-v0.2","","""event"",""trial"",""time""
""fullscreenenter"",""1"",""3813""
","
","
","""event"",""trial"",""time""
""fullscreenenter"",""1"",""3813""
","
","","","-1","","","16","12423","5454","&#9761;","elianto","#3366ff99","-1","-1","1","+10","[]","0","0","2","","","","","","","",""
"pit-trial","40","448630","0.0-2.0-11.0-3.0","battery-v0.2","","""event"",""trial"",""time""
""fullscreenenter"",""1"",""3813""
","
","
","""event"",""trial"",""time""
""fullscreenenter"",""1"",""3813""
","
","","","-1","","","16","12423","5454","&#9761;","elianto","#3366ff99","-1","-1","1","0","[]","0","0","2","","","","","","","",""
"pit-trial","41","453486","0.0-2.0-11.0-4.0","battery-v0.2","","""event"",""trial"",""time""
""fullscreenenter"",""1"",""3813""
","
","
","""event"",""trial"",""time""
""fullscreenenter"",""1"",""3813""
","
","","","-1","","","16","12423","5454","&#9761;","elianto","#3366ff99","-1","-1","1","+10","[]","0","0","2","","","","","","","",""
"pit-trial","42","458355","0.0-2.0-11.1-0.1","battery-v0.2","","""event"",""trial"",""time""
""fullscreenenter"",""1"",""3813""
","
","
","""event"",""trial"",""time""
""fullscreenenter"",""1"",""3813""
","
","","","-1","","","16","12423","5454","&#9761;","elianto","#3366ff99","-1","-1","1","+10","[]","0","0","2","","","","","","","",""
"pit-trial","43","463209","0.0-2.0-11.1-1.1","battery-v0.2","","""event"",""trial"",""time""
""fullscreenenter"",""1"",""3813""
","
","
","""event"",""trial"",""time""
""fullscreenenter"",""1"",""3813""
","
","","","-1","","","16","12423","5454","&#9761;","elianto","#3366ff99","-1","-1","1","+10","[]","0","0","2","","","","","","","",""
"pit-trial","44","468063","0.0-2.0-11.1-2.1","battery-v0.2","","""event"",""trial"",""time""
""fullscreenenter"",""1"",""3813""
","
","
","""event"",""trial"",""time""
""fullscreenenter"",""1"",""3813""
","
","","","-1","","","16","12423","5454","&#9761;","elianto","#3366ff99","-1","-1","1","+10","[]","0","0","2","","","","","","","",""
"pit-trial","45","472917","0.0-2.0-11.1-3.1","battery-v0.2","","""event"",""trial"",""time""
""fullscreenenter"",""1"",""3813""
","
","
","""event"",""trial"",""time""
""fullscreenenter"",""1"",""3813""
","
","","","-1","","","16","12423","5454","&#9761;","elianto","#3366ff99","-1","-1","1","0","[]","0","0","2","","","","","","","",""
"pit-trial","46","477771","0.0-2.0-11.1-4.1","battery-v0.2","","""event"",""trial"",""time""
""fullscreenenter"",""1"",""3813""
","
","
","""event"",""trial"",""time""
""fullscreenenter"",""1"",""3813""
","
","","","-1","","","16","12423","5454","&#9761;","elianto","#3366ff99","-1","-1","1","+10","[]","0","0","2","","","","","","","",""
"pit-trial","47","482625","0.0-2.0-11.2-0.2","battery-v0.2","","""event"",""trial"",""time""
""fullscreenenter"",""1"",""3813""
","
","
","""event"",""trial"",""time""
""fullscreenenter"",""1"",""3813""
","
","","","-1","","","16","12423","5454","&#9761;","elianto","#3366ff99","-1","-1","1","+10","[]","0","0","2","","","","","","","",""
"pit-trial","48","487480","0.0-2.0-11.2-1.2","battery-v0.2","","""event"",""trial"",""time""
""fullscreenenter"",""1"",""3813""
","
","
","""event"",""trial"",""time""
""fullscreenenter"",""1"",""3813""
","
","","","-1","","","16","12423","5454","&#9761;","elianto","#3366ff99","-1","-1","1","+10","[]","0","0","2","","","","","","","",""
"pit-trial","49","492333","0.0-2.0-11.2-2.2","battery-v0.2","","""event"",""trial"",""time""
""fullscreenenter"",""1"",""3813""
","
","
","""event"",""trial"",""time""
""fullscreenenter"",""1"",""3813""
","
","","","-1","","","16","12423","5454","&#9761;","elianto","#3366ff99","-1","-1","1","+10","[]","0","0","2","","","","","","","",""
"pit-trial","50","497188","0.0-2.0-11.2-3.2","battery-v0.2","","""event"",""trial"",""time""
""fullscreenenter"",""1"",""3813""
","
","
","""event"",""trial"",""time""
""fullscreenenter"",""1"",""3813""
","
","","","-1","","","16","12423","5454","&#9761;","elianto","#3366ff99","-1","-1","1","0","[]","0","0","2","","","","","","","",""
"pit-trial","51","500553","0.0-2.0-11.2-4.2","battery-v0.2","","""event"",""trial"",""time""
""fullscreenenter"",""1"",""3813""
","
","
","""event"",""trial"",""time""
""fullscreenenter"",""1"",""3813""
","
","","","511","","","16","12423","5454","&#9761;","elianto","#3366ff99","-1"," ","0","0","[1361.6999998092651]","1","0","2","","","","","","","",""
"pit-trial","52","505407","0.0-2.0-11.3-0.3","battery-v0.2","","""event"",""trial"",""time""
""fullscreenenter"",""1"",""3813""
","
","
","""event"",""trial"",""time""
""fullscreenenter"",""1"",""3813""
","
","","","-1","","","16","12423","5454","&#9761;","elianto","#3366ff99","-1","-1","1","+10","[]","0","0","2","","","","","","","",""
"pit-trial","53","510260","0.0-2.0-11.3-1.3","battery-v0.2","","""event"",""trial"",""time""
""fullscreenenter"",""1"",""3813""
","
","
","""event"",""trial"",""time""
""fullscreenenter"",""1"",""3813""
","
","","","-1","","","16","12423","5454","&#9761;","elianto","#3366ff99","-1","-1","1","+10","[]","0","0","2","","","","","","","",""
"pit-trial","54","515113","0.0-2.0-11.3-2.3","battery-v0.2","","""event"",""trial"",""time""
""fullscreenenter"",""1"",""3813""
","
","
","""event"",""trial"",""time""
""fullscreenenter"",""1"",""3813""
","
","","","-1","","","16","12423","5454","&#9761;","elianto","#3366ff99","-1","-1","1","+10","[]","0","0","2","","","","","","","",""
"pit-trial","55","519967","0.0-2.0-11.3-3.3","battery-v0.2","","""event"",""trial"",""time""
""fullscreenenter"",""1"",""3813""
","
","
","""event"",""trial"",""time""
""fullscreenenter"",""1"",""3813""
","
","","","-1","","","16","12423","5454","&#9761;","elianto","#3366ff99","-1","-1","1","0","[]","0","0","2","","","","","","","",""
"pit-trial","56","524821","0.0-2.0-11.3-4.3","battery-v0.2","","""event"",""trial"",""time""
""fullscreenenter"",""1"",""3813""
","
","
","""event"",""trial"",""time""
""fullscreenenter"",""1"",""3813""
","
","","","-1","","","16","12423","5454","&#9761;","elianto","#3366ff99","-1","-1","1","+10","[]","0","0","2","","","","","","","",""
"call-function","57","524823","0.0-2.0-12.0","battery-v0.2","","""event"",""trial"",""time""
""fullscreenenter"",""1"",""3813""
","
","
","""event"",""trial"",""time""
""fullscreenenter"",""1"",""3813""
","
","","","","","","","","","","","","","","","","","","","","","","","","","","",""
"pit-instructions","58","636425","0.0-2.0-13.0","battery-v0.2","","""event"",""trial"",""time""
""fullscreenenter"",""1"",""3813""
","
","
","""event"",""trial"",""time""
""fullscreenenter"",""1"",""3813""
","
","","[{""page_index"":0,""viewing_time"":22206.099999904633},{""page_index"":1,""viewing_time"":13035.5},{""page_index"":2,""viewing_time"":38891.40000009537},{""page_index"":3,""viewing_time"":27194.599999904633},{""page_index"":4,""viewing_time"":10273.199999809265}]","111601.19999980927","","","","","","","","","","","","","","","","","","","","","","","",""
"pit-trial","59","641303","0.0-2.0-14.0-0.0","battery-v0.2","","""event"",""trial"",""time""
""fullscreenenter"",""1"",""3813""
","
","
","""event"",""trial"",""time""
""fullscreenenter"",""1"",""3813""
","
","","","-1","","","16","12423","5454","&#9826;","elianto","#f73b6a7A","-1","-1","1","0","[]","0","0","3","","","","","","","",""
"pit-trial","60","646176","0.0-2.0-14.0-1.0","battery-v0.2","","""event"",""trial"",""time""
""fullscreenenter"",""1"",""3813""
","
","
","""event"",""trial"",""time""
""fullscreenenter"",""1"",""3813""
","
","","","-1","","","16","12423","5454","&#9826;","elianto","#f73b6a7A","-1","-1","1","0","[]","0","0","3","","","","","","","",""
"pit-trial","61","649431","0.0-2.0-14.0-2.0","battery-v0.2","","""event"",""trial"",""time""
""fullscreenenter"",""1"",""3813""
","
","
","""event"",""trial"",""time""
""fullscreenenter"",""1"",""3813""
","
","","","390.80000019073486","","","16","12423","5454","&#9826;","elianto","#f73b6a7A","-1"," ","0","-10","[1242.6000003814697]","1","0","3","","","","","","","",""
"pit-trial","62","654300","0.0-2.0-14.0-3.0","battery-v0.2","","""event"",""trial"",""time""
""fullscreenenter"",""1"",""3813""
","
","
","""event"",""trial"",""time""
""fullscreenenter"",""1"",""3813""
","
","","","-1","","","16","12423","5454","&#9826;","elianto","#f73b6a7A","-1","-1","1","-10","[]","0","0","3","","","","","","","",""
"pit-trial","63","657633","0.0-2.0-14.0-4.0","battery-v0.2","","""event"",""trial"",""time""
""fullscreenenter"",""1"",""3813""
","
","
","""event"",""trial"",""time""
""fullscreenenter"",""1"",""3813""
","
","","","478.19999980926514","","","16","12423","5454","&#9826;","elianto","#f73b6a7A","-1"," ","0","-10","[1329.0999999046326]","1","0","3","","","","","","","",""
"pit-trial","64","662496","0.0-2.0-14.1-0.1","battery-v0.2","","""event"",""trial"",""time""
""fullscreenenter"",""1"",""3813""
","
","
","""event"",""trial"",""time""
""fullscreenenter"",""1"",""3813""
","
","","","-1","","","16","12423","5454","&#9826;","elianto","#f73b6a7A","-1","-1","1","0","[]","0","0","3","","","","","","","",""
"pit-trial","65","667350","0.0-2.0-14.1-1.1","battery-v0.2","","""event"",""trial"",""time""
""fullscreenenter"",""1"",""3813""
","
","
","""event"",""trial"",""time""
""fullscreenenter"",""1"",""3813""
","
","","","-1","","","16","12423","5454","&#9826;","elianto","#f73b6a7A","-1","-1","1","0","[]","0","0","3","","","","","","","",""
"pit-trial","66","672204","0.0-2.0-14.1-2.1","battery-v0.2","","""event"",""trial"",""time""
""fullscreenenter"",""1"",""3813""
","
","
","""event"",""trial"",""time""
""fullscreenenter"",""1"",""3813""
","
","","","-1","","","16","12423","5454","&#9826;","elianto","#f73b6a7A","-1","-1","1","0","[]","0","0","3","","","","","","","",""
"pit-trial","67","677057","0.0-2.0-14.1-3.1","battery-v0.2","","""event"",""trial"",""time""
""fullscreenenter"",""1"",""3813""
","
","
","""event"",""trial"",""time""
""fullscreenenter"",""1"",""3813""
","
","","","-1","","","16","12423","5454","&#9826;","elianto","#f73b6a7A","-1","-1","1","-10","[]","0","0","3","","","","","","","",""
"pit-trial","68","681911","0.0-2.0-14.1-4.1","battery-v0.2","","""event"",""trial"",""time""
""fullscreenenter"",""1"",""3813""
","
","
","""event"",""trial"",""time""
""fullscreenenter"",""1"",""3813""
","
","","","-1","","","16","12423","5454","&#9826;","elianto","#f73b6a7A","-1","-1","1","0","[]","0","0","3","","","","","","","",""
"pit-trial","69","686766","0.0-2.0-14.2-0.2","battery-v0.2","","""event"",""trial"",""time""
""fullscreenenter"",""1"",""3813""
","
","
","""event"",""trial"",""time""
""fullscreenenter"",""1"",""3813""
","
","","","-1","","","16","12423","5454","&#9826;","elianto","#f73b6a7A","-1","-1","1","0","[]","0","0","3","","","","","","","",""
"pit-trial","70","691619","0.0-2.0-14.2-1.2","battery-v0.2","","""event"",""trial"",""time""
""fullscreenenter"",""1"",""3813""
","
","
","""event"",""trial"",""time""
""fullscreenenter"",""1"",""3813""
","
","","","-1","","","16","12423","5454","&#9826;","elianto","#f73b6a7A","-1","-1","1","0","[]","0","0","3","","","","","","","",""
"pit-trial","71","696474","0.0-2.0-14.2-2.2","battery-v0.2","","""event"",""trial"",""time""
""fullscreenenter"",""1"",""3813""
","
","
","""event"",""trial"",""time""
""fullscreenenter"",""1"",""3813""
","
","","","-1","","","16","12423","5454","&#9826;","elianto","#f73b6a7A","-1","-1","1","0","[]","0","0","3","","","","","","","",""
"pit-trial","72","701328","0.0-2.0-14.2-3.2","battery-v0.2","","""event"",""trial"",""time""
""fullscreenenter"",""1"",""3813""
","
","
","""event"",""trial"",""time""
""fullscreenenter"",""1"",""3813""
","
","","","-1","","","16","12423","5454","&#9826;","elianto","#f73b6a7A","-1","-1","1","-10","[]","0","0","3","","","","","","","",""
"pit-trial","73","706185","0.0-2.0-14.2-4.2","battery-v0.2","","""event"",""trial"",""time""
""fullscreenenter"",""1"",""3813""
","
","
","""event"",""trial"",""time""
""fullscreenenter"",""1"",""3813""
","
","","","-1","","","16","12423","5454","&#9826;","elianto","#f73b6a7A","-1","-1","1","0","[]","0","0","3","","","","","","","",""
"pit-trial","74","711039","0.0-2.0-14.3-0.3","battery-v0.2","","""event"",""trial"",""time""
""fullscreenenter"",""1"",""3813""
","
","
","""event"",""trial"",""time""
""fullscreenenter"",""1"",""3813""
","
","","","-1","","","16","12423","5454","&#9826;","elianto","#f73b6a7A","-1","-1","1","0","[]","0","0","3","","","","","","","",""
"pit-trial","75","715894","0.0-2.0-14.3-1.3","battery-v0.2","","""event"",""trial"",""time""
""fullscreenenter"",""1"",""3813""
","
","
","""event"",""trial"",""time""
""fullscreenenter"",""1"",""3813""
","
","","","-1","","","16","12423","5454","&#9826;","elianto","#f73b6a7A","-1","-1","1","0","[]","0","0","3","","","","","","","",""
"pit-trial","76","720749","0.0-2.0-14.3-2.3","battery-v0.2","","""event"",""trial"",""time""
""fullscreenenter"",""1"",""3813""
","
","
","""event"",""trial"",""time""
""fullscreenenter"",""1"",""3813""
","
","","","-1","","","16","12423","5454","&#9826;","elianto","#f73b6a7A","-1","-1","1","0","[]","0","0","3","","","","","","","",""
"pit-trial","77","725608","0.0-2.0-14.3-3.3","battery-v0.2","","""event"",""trial"",""time""
""fullscreenenter"",""1"",""3813""
","
","
","""event"",""trial"",""time""
""fullscreenenter"",""1"",""3813""
","
","","","-1","","","16","12423","5454","&#9826;","elianto","#f73b6a7A","-1","-1","1","-10","[]","0","0","3","","","","","","","",""
"pit-trial","78","730463","0.0-2.0-14.3-4.3","battery-v0.2","","""event"",""trial"",""time""
""fullscreenenter"",""1"",""3813""
","
","
","""event"",""trial"",""time""
""fullscreenenter"",""1"",""3813""
","
","","","-1","","","16","12423","5454","&#9826;","elianto","#f73b6a7A","-1","-1","1","0","[]","0","0","3","","","","","","","",""
"call-function","79","730465","0.0-2.0-15.0","battery-v0.2","","""event"",""trial"",""time""
""fullscreenenter"",""1"",""3813""
","
","
","""event"",""trial"",""time""
""fullscreenenter"",""1"",""3813""
","
","","","","","","","","","","","","","","","","","","","","","","","","","","",""
"pit-instructions","80","763749","0.0-2.0-16.0","battery-v0.2","","""event"",""trial"",""time""
""fullscreenenter"",""1"",""3813""
","
","
","""event"",""trial"",""time""
""fullscreenenter"",""1"",""3813""
","
","","[{""page_index"":0,""viewing_time"":11090.599999904633},{""page_index"":1,""viewing_time"":10774.199999809265},{""page_index"":2,""viewing_time"":6800.10000038147},{""page_index"":3,""viewing_time"":4617.199999809265}]","33282.7999997139","","","","","","","","","","","","","","","","","","","","","","","",""
"pit-trial","81","767124","0.0-2.0-17.0-0.0","battery-v0.2","","""event"",""trial"",""time""
""fullscreenenter"",""1"",""3813""
","
","
","""event"",""trial"",""time""
""fullscreenenter"",""1"",""3813""
","
","","","505.30000019073486","","","16","12423","5454","&#9789;","elianto","#f73b6a7A"," "," ","1","0","[1358.5]","1","0","4","","","","","","","",""
"pit-trial","82","770341","0.0-2.0-17.0-1.0","battery-v0.2","","""event"",""trial"",""time""
""fullscreenenter"",""1"",""3813""
","
","
","""event"",""trial"",""time""
""fullscreenenter"",""1"",""3813""
","
","","","346.90000009536743","","","16","12423","5454","&#9789;","elianto","#f73b6a7A"," "," ","1","0","[1202.7000002861023]","1","0","4","","","","","","","",""
"pit-trial","83","773401","0.0-2.0-17.0-2.0","battery-v0.2","","""event"",""trial"",""time""
""fullscreenenter"",""1"",""3813""
","
","
","""event"",""trial"",""time""
""fullscreenenter"",""1"",""3813""
","
","","","195","","","16","12423","5454","&#9789;","elianto","#f73b6a7A"," "," ","1","0","[1046.6999998092651]","1","0","4","","","","","","","",""
"pit-trial","84","776901","0.0-2.0-17.0-3.0","battery-v0.2","","""event"",""trial"",""time""
""fullscreenenter"",""1"",""3813""
","
","
","""event"",""trial"",""time""
""fullscreenenter"",""1"",""3813""
","
","","","633.3000001907349","","","16","12423","5454","&#9789;","elianto","#f73b6a7A"," "," ","1","-10","[777.3999996185303,1486.3999996185303]","2","0","4","","","","","","","",""
"pit-trial","85","780585","0.0-2.0-17.0-4.0","battery-v0.2","","""event"",""trial"",""time""
""fullscreenenter"",""1"",""3813""
","
","
","""event"",""trial"",""time""
""fullscreenenter"",""1"",""3813""
","
","","","815.0999999046326","","","16","12423","5454","&#9789;","elianto","#f73b6a7A"," "," ","1","0","[1667.0999999046326]","1","0","4","","","","","","","",""
"pit-trial","86","783811","0.0-2.0-17.1-0.1","battery-v0.2","","""event"",""trial"",""time""
""fullscreenenter"",""1"",""3813""
","
","
","""event"",""trial"",""time""
""fullscreenenter"",""1"",""3813""
","
","","","369","","","16","12423","5454","&#9789;","elianto","#f73b6a7A"," "," ","1","0","[1220.8000001907349]","1","0","4","","","","","","","",""
"pit-trial","87","787104","0.0-2.0-17.1-1.1","battery-v0.2","","""event"",""trial"",""time""
""fullscreenenter"",""1"",""3813""
","
","
","""event"",""trial"",""time""
""fullscreenenter"",""1"",""3813""
","
","","","435.2000002861023","","","16","12423","5454","&#9789;","elianto","#f73b6a7A"," "," ","1","0","[1286.8000001907349]","1","0","4","","","","","","","",""
"pit-trial","88","790393","0.0-2.0-17.1-2.1","battery-v0.2","","""event"",""trial"",""time""
""fullscreenenter"",""1"",""3813""
","
","
","""event"",""trial"",""time""
""fullscreenenter"",""1"",""3813""
","
","","","418","","","16","12423","5454","&#9789;","elianto","#f73b6a7A"," "," ","1","0","[1273.4000000953674]","1","0","4","","","","","","","",""
"pit-trial","89","793633","0.0-2.0-17.1-3.1","battery-v0.2","","""event"",""trial"",""time""
""fullscreenenter"",""1"",""3813""
","
","
","""event"",""trial"",""time""
""fullscreenenter"",""1"",""3813""
","
","","","373.09999990463257","","","16","12423","5454","&#9789;","elianto","#f73b6a7A"," "," ","1","-10","[1224.5]","1","0","4","","","","","","","",""
"pit-trial","90","796892","0.0-2.0-17.1-4.1","battery-v0.2","","""event"",""trial"",""time""
""fullscreenenter"",""1"",""3813""
","
","
","""event"",""trial"",""time""
""fullscreenenter"",""1"",""3813""
","
","","","404.69999980926514","","","16","12423","5454","&#9789;","elianto","#f73b6a7A"," "," ","1","0","[1254.9000000953674]","1","0","4","","","","","","","",""
"pit-trial","91","800222","0.0-2.0-17.2-0.2","battery-v0.2","","""event"",""trial"",""time""
""fullscreenenter"",""1"",""3813""
","
","
","""event"",""trial"",""time""
""fullscreenenter"",""1"",""3813""
","
","","","474.90000009536743","","","16","12423","5454","&#9789;","elianto","#f73b6a7A"," "," ","1","0","[1325.5]","1","0","4","","","","","","","",""
"pit-trial","92","803351","0.0-2.0-17.2-1.2","battery-v0.2","","""event"",""trial"",""time""
""fullscreenenter"",""1"",""3813""
","
","
","""event"",""trial"",""time""
""fullscreenenter"",""1"",""3813""
","
","","","276","","","16","12423","5454","&#9789;","elianto","#f73b6a7A"," "," ","1","0","[1126.4000000953674]","1","0","4","","","","","","","",""
"pit-trial","93","806461","0.0-2.0-17.2-2.2","battery-v0.2","","""event"",""trial"",""time""
""fullscreenenter"",""1"",""3813""
","
","
","""event"",""trial"",""time""
""fullscreenenter"",""1"",""3813""
","
","","","257.09999990463257","","","16","12423","5454","&#9789;","elianto","#f73b6a7A"," "," ","1","0","[1107.8000001907349]","1","0","4","","","","","","","",""
"pit-trial","94","809991","0.0-2.0-17.2-3.2","battery-v0.2","","""event"",""trial"",""time""
""fullscreenenter"",""1"",""3813""
","
","
","""event"",""trial"",""time""
""fullscreenenter"",""1"",""3813""
","
","","","676.9000000953674","","","16","12423","5454","&#9789;","elianto","#f73b6a7A"," "," ","1","-10","[1527.1999998092651]","1","0","4","","","","","","","",""
"pit-trial","95","813442","0.0-2.0-17.2-4.2","battery-v0.2","","""event"",""trial"",""time""
""fullscreenenter"",""1"",""3813""
","
","
","""event"",""trial"",""time""
""fullscreenenter"",""1"",""3813""
","
","","","597.0999999046326","","","16","12423","5454","&#9789;","elianto","#f73b6a7A"," "," ","1","0","[1447.2000002861023]","1","0","4","","","","","","","",""
"pit-trial","96","816852","0.0-2.0-17.3-0.3","battery-v0.2","","""event"",""trial"",""time""
""fullscreenenter"",""1"",""3813""
","
","
","""event"",""trial"",""time""
""fullscreenenter"",""1"",""3813""
","
","","","553.0999999046326","","","16","12423","5454","&#9789;","elianto","#f73b6a7A"," "," ","1","0","[1403.5999999046326]","1","0","4","","","","","","","",""
"pit-trial","97","820282","0.0-2.0-17.3-1.3","battery-v0.2","","""event"",""trial"",""time""
""fullscreenenter"",""1"",""3813""
","
","
","""event"",""trial"",""time""
""fullscreenenter"",""1"",""3813""
","
","","","574.6999998092651","","","16","12423","5454","&#9789;","elianto","#f73b6a7A"," "," ","1","0","[1426.5]","1","0","4","","","","","","","",""
"pit-trial","98","823641","0.0-2.0-17.3-2.3","battery-v0.2","","""event"",""trial"",""time""
""fullscreenenter"",""1"",""3813""
","
","
","""event"",""trial"",""time""
""fullscreenenter"",""1"",""3813""
","
","","","502.2999997138977","","","16","12423","5454","&#9789;","elianto","#f73b6a7A"," "," ","1","0","[715.7999997138977,1355.6999998092651]","2","0","4","","","","","","","",""
"pit-trial","99","827002","0.0-2.0-17.3-3.3","battery-v0.2","","""event"",""trial"",""time""
""fullscreenenter"",""1"",""3813""
","
","
","""event"",""trial"",""time""
""fullscreenenter"",""1"",""3813""
","
","","","506.19999980926514","","","16","12423","5454","&#9789;","elianto","#f73b6a7A"," "," ","1","-10","[1357.0999999046326]","1","0","4","","","","","","","",""
"pit-trial","100","830462","0.0-2.0-17.3-4.3","battery-v0.2","","""event"",""trial"",""time""
""fullscreenenter"",""1"",""3813""
","
","
","""event"",""trial"",""time""
""fullscreenenter"",""1"",""3813""
","
","","","606.1999998092651","","","16","12423","5454","&#9789;","elianto","#f73b6a7A"," "," ","1","0","[1457.3000001907349]","1","0","4","","","","","","","",""
"call-function","101","830465","0.0-2.0-18.0","battery-v0.2","","""event"",""trial"",""time""
""fullscreenenter"",""1"",""3813""
","
","
","""event"",""trial"",""time""
""fullscreenenter"",""1"",""3813""
","
","","","","","","","","","","","","","","","","","","","","","","","","","","",""
"pit-instructions","102","897915","0.0-2.0-19.0","battery-v0.2","","""event"",""trial"",""time""
""fullscreenenter"",""1"",""3813""
","
","
","""event"",""trial"",""time""
""fullscreenenter"",""1"",""3813""
","
","","[{""page_index"":0,""viewing_time"":6639.300000190735},{""page_index"":1,""viewing_time"":4516.800000190735},{""page_index"":2,""viewing_time"":13611},{""page_index"":3,""viewing_time"":5586.39999961853},{""page_index"":4,""viewing_time"":9292.400000095367},{""page_index"":5,""viewing_time"":8389.400000095367},{""page_index"":6,""viewing_time"":8184.300000190735},{""page_index"":7,""viewing_time"":6103.199999809265},{""page_index"":8,""viewing_time"":5125.300000190735}]","67448.60000038147","","","","","","","","","","","","","","","","","","","","","","","",""
"pit-comprehension","103","903468","0.0-2.0-20.0-0.0","battery-v0.2","","""event"",""trial"",""time""
""fullscreenenter"",""1"",""3813""
","
","
","""event"",""trial"",""time""
""fullscreenenter"",""1"",""3813""
","
","","","5546.900000095367","[""SPACE""]","0","16","12423","5454","","","","","","","","","","","","","","","","","","",""
"pit-instructions","104","906360","0.0-2.0-20.0-1.0","battery-v0.2","","""event"",""trial"",""time""
""fullscreenenter"",""1"",""3813""
","
","
","""event"",""trial"",""time""
""fullscreenenter"",""1"",""3813""
","
","","[{""page_index"":0,""viewing_time"":2837}]","2837.5","","","","","","","","","","","","","","","","","","","","","","","",""
"pit-comprehension","105","912444","0.0-2.0-21.0-0.0","battery-v0.2","","""event"",""trial"",""time""
""fullscreenenter"",""1"",""3813""
","
","
","""event"",""trial"",""time""
""fullscreenenter"",""1"",""3813""
","
","","","6078.900000095367","[""10""]","0","16","12423","5454","","","","","","","","","","","","","","","","","","",""
"pit-instructions","106","914213","0.0-2.0-21.0-1.0","battery-v0.2","","""event"",""trial"",""time""
""fullscreenenter"",""1"",""3813""
","
","
","""event"",""trial"",""time""
""fullscreenenter"",""1"",""3813""
","
","","[{""page_index"":0,""viewing_time"":1722.2999997138977}]","1722.8999996185303","","","","","","","","","","","","","","","","","","","","","","","",""
"pit-comprehension","107","921727","0.0-2.0-22.0-0.0","battery-v0.2","","""event"",""trial"",""time""
""fullscreenenter"",""1"",""3813""
","
","
","""event"",""trial"",""time""
""fullscreenenter"",""1"",""3813""
","
","","","7506.400000095367","[""0""]","0","16","12423","5454","","","","","","","","","","","","","","","","","","",""
"pit-instructions","108","923751","0.0-2.0-22.0-1.0","battery-v0.2","","""event"",""trial"",""time""
""fullscreenenter"",""1"",""3813""
","
","
","""event"",""trial"",""time""
""fullscreenenter"",""1"",""3813""
","
","","[{""page_index"":0,""viewing_time"":1979.5999999046326}]","1980","","","","","","","","","","","","","","","","","","","","","","","",""
"pit-comprehension","109","932377","0.0-2.0-23.0-0.0","battery-v0.2","","""event"",""trial"",""time""
""fullscreenenter"",""1"",""3813""
","
","
","""event"",""trial"",""time""
""fullscreenenter"",""1"",""3813""
","
","","","8620.799999713898","[""True""]","0","16","12423","5454","","","","","","","","","","","","","","","","","","",""
"pit-instructions","110","933982","0.0-2.0-23.0-1.0","battery-v0.2","","""event"",""trial"",""time""
""fullscreenenter"",""1"",""3813""
","
","
","""event"",""trial"",""time""
""fullscreenenter"",""1"",""3813""
","
","","[{""page_index"":0,""viewing_time"":1559.5999999046326}]","1560.4000000953674","","","","","","","","","","","","","","","","","","","","","","","",""
"pit-comprehension","111","941435","0.0-2.0-24.0-0.0","battery-v0.2","","""event"",""trial"",""time""
""fullscreenenter"",""1"",""3813""
","
","
","""event"",""trial"",""time""
""fullscreenenter"",""1"",""3813""
","
","","","7445.5","[""True""]","0","16","12423","5454","","","","","","","","","","","","","","","","","","",""
"pit-instructions","112","945097","0.0-2.0-24.0-1.0","battery-v0.2","","""event"",""trial"",""time""
""fullscreenenter"",""1"",""3813""
","
","
","""event"",""trial"",""time""
""fullscreenenter"",""1"",""3813""
","
","","[{""page_index"":0,""viewing_time"":3616}]","3616.3999996185303","","","","","","","","","","","","","","","","","","","","","","","",""
"pit-comprehension","113","952228","0.0-2.0-25.0-0.0","battery-v0.2","","""event"",""trial"",""time""
""fullscreenenter"",""1"",""3813""
","
","
","""event"",""trial"",""time""
""fullscreenenter"",""1"",""3813""
","
","","","7126.5","[""True""]","0","16","12423","5454","","","","","","","","","","","","","","","","","","",""
"pit-instructions","114","954948","0.0-2.0-25.0-1.0","battery-v0.2","","""event"",""trial"",""time""
""fullscreenenter"",""1"",""3813""
","
","
","""event"",""trial"",""time""
""fullscreenenter"",""1"",""3813""
","
","","[{""page_index"":0,""viewing_time"":2676.9000000953674}]","2677.5","","","","","","","","","","","","","","","","","","","","","","","",""
"pit-comprehension","115","960658","0.0-2.0-26.0-0.0","battery-v0.2","","""event"",""trial"",""time""
""fullscreenenter"",""1"",""3813""
","
","
","""event"",""trial"",""time""
""fullscreenenter"",""1"",""3813""
","
","","","5703.300000190735","[""False""]","0","16","12423","5454","","","","","","","","","","","","","","","","","","",""
"pit-instructions","116","963275","0.0-2.0-26.0-1.0","battery-v0.2","","""event"",""trial"",""time""
""fullscreenenter"",""1"",""3813""
","
","
","""event"",""trial"",""time""
""fullscreenenter"",""1"",""3813""
","
","","[{""page_index"":0,""viewing_time"":2560.5999999046326}]","2561.0999999046326","","","","","","","","","","","","","","","","","","","","","","","",""
"pit-instructions","117","980324","0.0-3.0","battery-v0.2","","""event"",""trial"",""time""
""fullscreenenter"",""1"",""3813""
","
","
","""event"",""trial"",""time""
""fullscreenenter"",""1"",""3813""
","
","","[{""page_index"":0,""viewing_time"":4660.300000190735},{""page_index"":1,""viewing_time"":6172.599999904633},{""page_index"":2,""viewing_time"":6212.699999809265}]","17046.300000190735","","","","","","","","","","","","","","","","","","","","","","","",""
"pit-trial","118","984149","0.0-4.0","battery-v0.2","","""event"",""trial"",""time""
""fullscreenenter"",""1"",""3813""
","
","
","""event"",""trial"",""time""
""fullscreenenter"",""1"",""3813""
","
","","","958.5999999046326","","","16","12423","5454","&#9730;","elianto","#3366ff99"," "," ","1","+10","[1811.1999998092651]","1","1","","","12423","1","1","1","win","go","0"
"pit-trial","119","988439","0.0-5.0","battery-v0.2","","""event"",""trial"",""time""
""fullscreenenter"",""1"",""3813""
","
","
","""event"",""trial"",""time""
""fullscreenenter"",""1"",""3813""
","
","","","1428.8000001907349","","","16","12423","5454","&#9728;","elianto","#f73b6a7A","-1"," ","0","-10","[2280.5]","1","1","","","12423","2","0","4","lose","no-go","0"
"pit-trial","120","993308","0.0-6.0","battery-v0.2","","""event"",""trial"",""time""
""fullscreenenter"",""1"",""3813""
","
","
","""event"",""trial"",""time""
""fullscreenenter"",""1"",""3813""
","
","","","-1","","","16","12423","5454","&#9752;","elianto","#f73b6a7A"," ","-1","0","-10","[]","0","1","","","12423","3","3","3","lose","go","0"
"pit-trial","121","997767","0.0-7.0","battery-v0.2","","""event"",""trial"",""time""
""fullscreenenter"",""1"",""3813""
","
","
","""event"",""trial"",""time""
""fullscreenenter"",""1"",""3813""
","
","","","1601.1999998092651","","","16","12423","5454","&#9733;","elianto","#3366ff99","-1"," ","0","0","[2452.699999809265]","1","1","","","12423","4","2","2","win","no-go","0"
"pit-trial","122","1001882","0.0-8.0","battery-v0.2","","""event"",""trial"",""time""
""fullscreenenter"",""1"",""3813""
","
","
","""event"",""trial"",""time""
""fullscreenenter"",""1"",""3813""
","
","","","1247.5999999046326","","","16","12423","5454","&#9733;","elianto","#3366ff99","-1"," ","0","0","[2103.9000000953674]","1","1","","","12423","5","2","2","win","no-go","0"
"pit-trial","123","1006462","0.0-9.0","battery-v0.2","","""event"",""trial"",""time""
""fullscreenenter"",""1"",""3813""
","
","
","""event"",""trial"",""time""
""fullscreenenter"",""1"",""3813""
","
","","","1704.2999997138977","","","16","12423","5454","&#9752;","elianto","#f73b6a7A"," "," ","1","0","[2567.7999997138977]","1","1","","","12423","6","3","3","lose","go","0"
"pit-trial","124","1010607","0.0-10.0","battery-v0.2","","""event"",""trial"",""time""
""fullscreenenter"",""1"",""3813""
","
","
","""event"",""trial"",""time""
""fullscreenenter"",""1"",""3813""
","
","","","1274.7999997138977","","","16","12423","5454","&#9730;","elianto","#3366ff99"," "," ","1","0","[2127]","1","1","","","12423","7","1","1","win","go","1"
"pit-trial","125","1014554","0.0-11.0","battery-v0.2","","""event"",""trial"",""time""
""fullscreenenter"",""1"",""3813""
","
","
","""event"",""trial"",""time""
""fullscreenenter"",""1"",""3813""
","
","","","1085","","","16","12423","5454","&#9728;","elianto","#f73b6a7A","-1"," ","0","-10","[1943.5]","1","1","","","12423","8","0","4","lose","no-go","0"
"pit-trial","126","1018304","0.0-12.0","battery-v0.2","","""event"",""trial"",""time""
""fullscreenenter"",""1"",""3813""
","
","
","""event"",""trial"",""time""
""fullscreenenter"",""1"",""3813""
","
","","","895.5999999046326","","","16","12423","5454","&#9730;","elianto","#3366ff99"," "," ","1","+10","[1746.1000003814697]","1","1","","","12423","9","1","1","win","go","0"
"pit-trial","127","1023158","0.0-13.0","battery-v0.2","","""event"",""trial"",""time""
""fullscreenenter"",""1"",""3813""
","
","
","""event"",""trial"",""time""
""fullscreenenter"",""1"",""3813""
","
","","","-1","","","16","12423","5454","&#9733;","elianto","#3366ff99","-1","-1","1","+10","[]","0","1","","","12423","10","2","2","win","no-go","0"
"pit-trial","128","1028011","0.0-14.0","battery-v0.2","","""event"",""trial"",""time""
""fullscreenenter"",""1"",""3813""
","
","
","""event"",""trial"",""time""
""fullscreenenter"",""1"",""3813""
","
","","","-1","","","16","12423","5454","&#9752;","elianto","#f73b6a7A"," ","-1","0","0","[]","0","1","","","12423","11","3","3","lose","go","1"
"pit-trial","129","1032866","0.0-15.0","battery-v0.2","","""event"",""trial"",""time""
""fullscreenenter"",""1"",""3813""
","
","
","""event"",""trial"",""time""
""fullscreenenter"",""1"",""3813""
","
","","","-1","","","16","12423","5454","&#9728;","elianto","#f73b6a7A","-1","-1","1","0","[]","0","1","","","12423","12","0","4","lose","no-go","0"
"pit-trial","130","1037719","0.0-16.0","battery-v0.2","","""event"",""trial"",""time""
""fullscreenenter"",""1"",""3813""
","
","
","""event"",""trial"",""time""
""fullscreenenter"",""1"",""3813""
","
","","","-1","","","16","12423","5454","&#9733;","elianto","#3366ff99","-1","-1","1","0","[3964.5]","1","1","","","12423","13","2","2","win","no-go","1"
"pit-trial","131","1042573","0.0-17.0","battery-v0.2","","""event"",""trial"",""time""
""fullscreenenter"",""1"",""3813""
","
","
","""event"",""trial"",""time""
""fullscreenenter"",""1"",""3813""
","
","","","-1","","","16","12423","5454","&#9752;","elianto","#f73b6a7A"," ","-1","0","-10","[]","0","1","","","12423","14","3","3","lose","go","0"
"pit-trial","132","1047427","0.0-18.0","battery-v0.2","","""event"",""trial"",""time""
""fullscreenenter"",""1"",""3813""
","
","
","""event"",""trial"",""time""
""fullscreenenter"",""1"",""3813""
","
","","","-1","","","16","12423","5454","&#9728;","elianto","#f73b6a7A","-1","-1","1","0","[]","0","1","","","12423","15","0","4","lose","no-go","0"
"pit-trial","133","1051044","0.0-19.0","battery-v0.2","","""event"",""trial"",""time""
""fullscreenenter"",""1"",""3813""
","
","
","""event"",""trial"",""time""
""fullscreenenter"",""1"",""3813""
","
","","","762.5","","","16","12423","5454","&#9730;","elianto","#3366ff99"," "," ","1","+10","[1612.7999997138977]","1","1","","","12423","16","1","1","win","go","0"
"pit-trial","134","1054903","0.0-20.0","battery-v0.2","","""event"",""trial"",""time""
""fullscreenenter"",""1"",""3813""
","
","
","""event"",""trial"",""time""
""fullscreenenter"",""1"",""3813""
","
","","","1004.1999998092651","","","16","12423","5454","&#9730;","elianto","#3366ff99"," "," ","1","+10","[1855.6000003814697]","1","1","","","12423","17","1","1","win","go","0"
"pit-trial","135","1059075","0.0-21.0","battery-v0.2","","""event"",""trial"",""time""
""fullscreenenter"",""1"",""3813""
","
","
","""event"",""trial"",""time""
""fullscreenenter"",""1"",""3813""
","
","","","1316.5","","","16","12423","5454","&#9752;","elianto","#f73b6a7A"," "," ","1","0","[2167]","1","1","","","12423","18","3","3","lose","go","0"
"pit-trial","136","1063124","0.0-22.0","battery-v0.2","","""event"",""trial"",""time""
""fullscreenenter"",""1"",""3813""
","
","
","""event"",""trial"",""time""
""fullscreenenter"",""1"",""3813""
","
","","","1195.5999999046326","","","16","12423","5454","&#9733;","elianto","#3366ff99","-1"," ","0","0","[2045.7000002861023]","1","1","","","12423","19","2","2","win","no-go","0"
"pit-trial","137","1067977","0.0-23.0","battery-v0.2","","""event"",""trial"",""time""
""fullscreenenter"",""1"",""3813""
","
","
","""event"",""trial"",""time""
""fullscreenenter"",""1"",""3813""
","
","","","-1","","","16","12423","5454","&#9728;","elianto","#f73b6a7A","-1","-1","1","0","[]","0","1","","","12423","20","0","4","lose","no-go","0"
"pit-instructions","138","1133678","0.0-24.0","battery-v0.2","","""event"",""trial"",""time""
""fullscreenenter"",""1"",""3813""
","
","
","""event"",""trial"",""time""
""fullscreenenter"",""1"",""3813""
","
","","[{""page_index"":0,""viewing_time"":58789.199999809265},{""page_index"":1,""viewing_time"":6910.900000095367}]","65700.5","","","","","","","","","","","","","","","","","","","","","","","",""
"pit-trial","139","1138373","0.0-25.0","battery-v0.2","","""event"",""trial"",""time""
""fullscreenenter"",""1"",""3813""
","
","
","""event"",""trial"",""time""
""fullscreenenter"",""1"",""3813""
","
","","","1829.3000001907349","","","16","12423","5454","r","elianto","#3366ff99"," "," ","1","+10","[2680.5999999046326]","1","2","","","12423","21","1","1","win","go","0"
"pit-trial","140","1143246","0.0-26.0","battery-v0.2","","""event"",""trial"",""time""
""fullscreenenter"",""1"",""3813""
","
","
","""event"",""trial"",""time""
""fullscreenenter"",""1"",""3813""
","
","","","-1","","","16","12423","5454","y","elianto","#f73b6a7A","-1","-1","1","0","[]","0","2","","","12423","22","2","4","lose","no-go","0"
"pit-trial","141","1148118","0.0-27.0","battery-v0.2","","""event"",""trial"",""time""
""fullscreenenter"",""1"",""3813""
","
","
","""event"",""trial"",""time""
""fullscreenenter"",""1"",""3813""
","
","","","-1","","","16","12423","5454","m","elianto","#f73b6a7A","-1","-1","1","0","[]","0","2","","","12423","23","0","4","lose","no-go","0"
"pit-trial","142","1152982","0.0-28.0","battery-v0.2","","""event"",""trial"",""time""
""fullscreenenter"",""1"",""3813""
","
","
","""event"",""trial"",""time""
""fullscreenenter"",""1"",""3813""
","
","","","-1","","","16","12423","5454","h","elianto","#f73b6a7A"," ","-1","0","-10","[2952.1000003814697]","1","2","","","12423","24","3","3","lose","go","0"
"pit-trial","143","1156775","0.0-29.0","battery-v0.2","","""event"",""trial"",""time""
""fullscreenenter"",""1"",""3813""
","
","
","""event"",""trial"",""time""
""fullscreenenter"",""1"",""3813""
","
","","","937.4000000953674","","","16","12423","5454","r","elianto","#3366ff99"," "," ","1","+10","[1787.9000000953674]","1","2","","","12423","25","1","1","win","go","0"
"pit-trial","144","1160812","0.0-30.0","battery-v0.2","","""event"",""trial"",""time""
""fullscreenenter"",""1"",""3813""
","
","
","""event"",""trial"",""time""
""fullscreenenter"",""1"",""3813""
","
","","","1167.6000003814697","","","16","12423","5454","h","elianto","#f73b6a7A"," "," ","1","0","[2025.5]","1","2","","","12423","26","3","3","lose","go","0"
"pit-trial","145","1165667","0.0-31.0","battery-v0.2","","""event"",""trial"",""time""
""fullscreenenter"",""1"",""3813""
","
","
","""event"",""trial"",""time""
""fullscreenenter"",""1"",""3813""
","
","","","-1","","","16","12423","5454","m","elianto","#f73b6a7A","-1","-1","1","0","[]","0","2","","","12423","27","0","4","lose","no-go","0"
"pit-trial","146","1170520","0.0-32.0","battery-v0.2","","""event"",""trial"",""time""
""fullscreenenter"",""1"",""3813""
","
","
","""event"",""trial"",""time""
""fullscreenenter"",""1"",""3813""
","
","","","-1","","","16","12423","5454","y","elianto","#f73b6a7A","-1","-1","1","0","[]","0","2","","","12423","28","2","4","lose","no-go","0"
"pit-trial","147","1175374","0.0-33.0","battery-v0.2","","""event"",""trial"",""time""
""fullscreenenter"",""1"",""3813""
","
","
","""event"",""trial"",""time""
""fullscreenenter"",""1"",""3813""
","
","","","-1","","","16","12423","5454","y","elianto","#f73b6a7A","-1","-1","1","0","[]","0","2","","","12423","29","2","4","lose","no-go","0"
"pit-trial","148","1180231","0.0-34.0","battery-v0.2","","""event"",""trial"",""time""
""fullscreenenter"",""1"",""3813""
","
","
","""event"",""trial"",""time""
""fullscreenenter"",""1"",""3813""
","
","","","-1","","","16","12423","5454","h","elianto","#f73b6a7A"," ","-1","0","-10","[]","0","2","","","12423","30","3","3","lose","go","0"
"pit-trial","149","1185085","0.0-35.0","battery-v0.2","","""event"",""trial"",""time""
""fullscreenenter"",""1"",""3813""
","
","
","""event"",""trial"",""time""
""fullscreenenter"",""1"",""3813""
","
","","","-1","","","16","12423","5454","m","elianto","#f73b6a7A","-1","-1","1","0","[]","0","2","","","12423","31","0","4","lose","no-go","0"
"pit-trial","150","1188604","0.0-36.0","battery-v0.2","","""event"",""trial"",""time""
""fullscreenenter"",""1"",""3813""
","
","
","""event"",""trial"",""time""
""fullscreenenter"",""1"",""3813""
","
","","","662","","","16","12423","5454","r","elianto","#3366ff99"," "," ","1","+10","[1514.5999999046326]","1","2","","","12423","32","1","1","win","go","0"
"pit-trial","151","1192394","0.0-37.0","battery-v0.2","","""event"",""trial"",""time""
""fullscreenenter"",""1"",""3813""
","
","
","""event"",""trial"",""time""
""fullscreenenter"",""1"",""3813""
","
","","","935.5","","","16","12423","5454","h","elianto","#f73b6a7A"," "," ","1","0","[1786]","1","2","","","12423","33","3","3","lose","go","0"
"pit-trial","152","1197247","0.0-38.0","battery-v0.2","","""event"",""trial"",""time""
""fullscreenenter"",""1"",""3813""
","
","
","""event"",""trial"",""time""
""fullscreenenter"",""1"",""3813""
","
","","","-1","","","16","12423","5454","y","elianto","#f73b6a7A","-1","-1","1","0","[]","0","2","","","12423","34","2","4","lose","no-go","0"
"pit-trial","153","1201045","0.0-39.0","battery-v0.2","","""event"",""trial"",""time""
""fullscreenenter"",""1"",""3813""
","
","
","""event"",""trial"",""time""
""fullscreenenter"",""1"",""3813""
","
","","","943.1999998092651","","","16","12423","5454","r","elianto","#3366ff99"," "," ","1","+10","[1794.4000000953674]","1","2","","","12423","35","1","1","win","go","0"
"pit-trial","154","1205899","0.0-40.0","battery-v0.2","","""event"",""trial"",""time""
""fullscreenenter"",""1"",""3813""
","
","
","""event"",""trial"",""time""
""fullscreenenter"",""1"",""3813""
","
","","","-1","","","16","12423","5454","m","elianto","#f73b6a7A","-1","-1","1","0","[]","0","2","","","12423","36","0","4","lose","no-go","0"
"pit-trial","155","1210753","0.0-41.0","battery-v0.2","","""event"",""trial"",""time""
""fullscreenenter"",""1"",""3813""
","
","
","""event"",""trial"",""time""
""fullscreenenter"",""1"",""3813""
","
","","","-1","","","16","12423","5454","y","elianto","#f73b6a7A","-1","-1","1","0","[]","0","2","","","12423","37","2","4","lose","no-go","0"
"pit-trial","156","1214444","0.0-42.0","battery-v0.2","","""event"",""trial"",""time""
""fullscreenenter"",""1"",""3813""
","
","
","""event"",""trial"",""time""
""fullscreenenter"",""1"",""3813""
","
","","","833.5","","","16","12423","5454","r","elianto","#3366ff99"," "," ","1","+10","[1687.1000003814697]","1","2","","","12423","38","1","1","win","go","0"
"pit-trial","157","1219299","0.0-43.0","battery-v0.2","","""event"",""trial"",""time""
""fullscreenenter"",""1"",""3813""
","
","
","""event"",""trial"",""time""
""fullscreenenter"",""1"",""3813""
","
","","","-1","","","16","12423","5454","m","elianto","#f73b6a7A","-1","-1","1","0","[]","0","2","","","12423","39","0","4","lose","no-go","0"
"pit-trial","158","1223224","0.0-44.0","battery-v0.2","","""event"",""trial"",""time""
""fullscreenenter"",""1"",""3813""
","
","
","""event"",""trial"",""time""
""fullscreenenter"",""1"",""3813""
","
","","","1071.7000002861023","","","16","12423","5454","h","elianto","#f73b6a7A"," "," ","1","0","[1922.3000001907349]","1","2","","","12423","40","3","3","lose","go","0"
"pit-trial","159","1228077","0.0-45.0","battery-v0.2","","""event"",""trial"",""time""
""fullscreenenter"",""1"",""3813""
","
","
","""event"",""trial"",""time""
""fullscreenenter"",""1"",""3813""
","
","","","-1","","","16","12423","5454","m","elianto","#f73b6a7A","-1","-1","1","0","[]","0","2","","","12423","41","0","4","lose","no-go","0"
"pit-trial","160","1232931","0.0-46.0","battery-v0.2","","""event"",""trial"",""time""
""fullscreenenter"",""1"",""3813""
","
","
","""event"",""trial"",""time""
""fullscreenenter"",""1"",""3813""
","
","","","-1","","","16","12423","5454","y","elianto","#f73b6a7A","-1","-1","1","-10","[]","0","2","","","12423","42","2","4","lose","no-go","1"
"pit-trial","161","1236755","0.0-47.0","battery-v0.2","","""event"",""trial"",""time""
""fullscreenenter"",""1"",""3813""
","
","
","""event"",""trial"",""time""
""fullscreenenter"",""1"",""3813""
","
","","","969.2999997138977","","","16","12423","5454","h","elianto","#f73b6a7A"," "," ","1","0","[1820.0999999046326]","1","2","","","12423","43","3","3","lose","go","0"
"pit-trial","162","1240425","0.0-48.0","battery-v0.2","","""event"",""trial"",""time""
""fullscreenenter"",""1"",""3813""
","
","
","""event"",""trial"",""time""
""fullscreenenter"",""1"",""3813""
","
","","","813","","","16","12423","5454","r","elianto","#3366ff99"," "," ","1","+10","[1665.4000000953674]","1","2","","","12423","44","1","1","win","go","0"
"pit-trial","163","1245281","0.0-49.0","battery-v0.2","","""event"",""trial"",""time""
""fullscreenenter"",""1"",""3813""
","
","
","""event"",""trial"",""time""
""fullscreenenter"",""1"",""3813""
","
","","","-1","","","16","12423","5454","m","elianto","#f73b6a7A","-1","-1","1","0","[]","0","2","","","12423","45","0","4","lose","no-go","0"
"pit-trial","164","1248916","0.0-50.0","battery-v0.2","","""event"",""trial"",""time""
""fullscreenenter"",""1"",""3813""
","
","
","""event"",""trial"",""time""
""fullscreenenter"",""1"",""3813""
","
","","","780.8000001907349","","","16","12423","5454","h","elianto","#f73b6a7A"," "," ","1","0","[1630.9000000953674]","1","2","","","12423","46","3","3","lose","go","0"
"pit-trial","165","1253284","0.0-51.0","battery-v0.2","","""event"",""trial"",""time""
""fullscreenenter"",""1"",""3813""
","
","
","""event"",""trial"",""time""
""fullscreenenter"",""1"",""3813""
","
","","","1513.9000000953674","","","16","12423","5454","z","elianto","#3366ff99","-1"," ","0","0","[2364.9000000953674]","1","2","","","12423","47","4","2","win","no-go","0"
"pit-trial","166","1258139","0.0-52.0","battery-v0.2","","""event"",""trial"",""time""
""fullscreenenter"",""1"",""3813""
","
","
","""event"",""trial"",""time""
""fullscreenenter"",""1"",""3813""
","
","","","-1","","","16","12423","5454","y","elianto","#f73b6a7A","-1","-1","1","0","[]","0","2","","","12423","48","2","4","lose","no-go","0"
"pit-trial","167","1261976","0.0-53.0","battery-v0.2","","""event"",""trial"",""time""
""fullscreenenter"",""1"",""3813""
","
","
","""event"",""trial"",""time""
""fullscreenenter"",""1"",""3813""
","
","","","983","","","16","12423","5454","r","elianto","#3366ff99"," "," ","1","+10","[1833]","1","2","","","12423","49","1","1","win","go","0"
"pit-trial","168","1266830","0.0-54.0","battery-v0.2","","""event"",""trial"",""time""
""fullscreenenter"",""1"",""3813""
","
","
","""event"",""trial"",""time""
""fullscreenenter"",""1"",""3813""
","
","","","-1","","","16","12423","5454","z","elianto","#3366ff99","-1","-1","1","+10","[]","0","2","","","12423","50","4","2","win","no-go","0"
"pit-trial","169","1271684","0.0-55.0","battery-v0.2","","""event"",""trial"",""time""
""fullscreenenter"",""1"",""3813""
","
","
","""event"",""trial"",""time""
""fullscreenenter"",""1"",""3813""
","
","","","-1","","","16","12423","5454","m","elianto","#f73b6a7A","-1","-1","1","0","[]","0","2","","","12423","51","0","4","lose","no-go","0"
"pit-trial","170","1275545","0.0-56.0","battery-v0.2","","""event"",""trial"",""time""
""fullscreenenter"",""1"",""3813""
","
","
","""event"",""trial"",""time""
""fullscreenenter"",""1"",""3813""
","
","","","1007.1000003814697","","","16","12423","5454","h","elianto","#f73b6a7A"," "," ","1","0","[1857.6000003814697]","1","2","","","12423","52","3","3","lose","go","0"
"pit-trial","171","1280398","0.0-57.0","battery-v0.2","","""event"",""trial"",""time""
""fullscreenenter"",""1"",""3813""
","
","
","""event"",""trial"",""time""
""fullscreenenter"",""1"",""3813""
","
","","","-1","","","16","12423","5454","m","elianto","#f73b6a7A","-1","-1","1","0","[]","0","2","","","12423","53","0","4","lose","no-go","0"
"pit-trial","172","1285253","0.0-58.0","battery-v0.2","","""event"",""trial"",""time""
""fullscreenenter"",""1"",""3813""
","
","
","""event"",""trial"",""time""
""fullscreenenter"",""1"",""3813""
","
","","","-1","","","16","12423","5454","z","elianto","#3366ff99","-1","-1","1","+10","[]","0","2","","","12423","54","4","2","win","no-go","0"
"pit-trial","173","1289086","0.0-59.0","battery-v0.2","","""event"",""trial"",""time""
""fullscreenenter"",""1"",""3813""
","
","
","""event"",""trial"",""time""
""fullscreenenter"",""1"",""3813""
","
","","","978.3000001907349","","","16","12423","5454","r","elianto","#3366ff99"," "," ","1","0","[1829.3000001907349]","1","2","","","12423","55","1","1","win","go","1"
"pit-trial","174","1293940","0.0-60.0","battery-v0.2","","""event"",""trial"",""time""
""fullscreenenter"",""1"",""3813""
","
","
","""event"",""trial"",""time""
""fullscreenenter"",""1"",""3813""
","
","","","-1","","","16","12423","5454","y","elianto","#f73b6a7A","-1","-1","1","0","[]","0","2","","","12423","56","2","4","lose","no-go","0"
"pit-trial","175","1298792","0.0-61.0","battery-v0.2","","""event"",""trial"",""time""
""fullscreenenter"",""1"",""3813""
","
","
","""event"",""trial"",""time""
""fullscreenenter"",""1"",""3813""
","
","","","-1","","","16","12423","5454","m","elianto","#f73b6a7A","-1","-1","1","0","[]","0","2","","","12423","57","0","4","lose","no-go","0"
"pit-trial","176","1303646","0.0-62.0","battery-v0.2","","""event"",""trial"",""time""
""fullscreenenter"",""1"",""3813""
","
","
","""event"",""trial"",""time""
""fullscreenenter"",""1"",""3813""
","
","","","-1","","","16","12423","5454","z","elianto","#3366ff99","-1","-1","1","0","[]","0","2","","","12423","58","4","2","win","no-go","1"
"pit-trial","177","1307126","0.0-63.0","battery-v0.2","","""event"",""trial"",""time""
""fullscreenenter"",""1"",""3813""
","
","
","""event"",""trial"",""time""
""fullscreenenter"",""1"",""3813""
","
","","","626.2999997138977","","","16","12423","5454","r","elianto","#3366ff99"," "," ","1","0","[1477]","1","2","","","12423","59","1","1","win","go","1"
"pit-trial","178","1311886","0.0-64.0","battery-v0.2","","""event"",""trial"",""time""
""fullscreenenter"",""1"",""3813""
","
","
","""event"",""trial"",""time""
""fullscreenenter"",""1"",""3813""
","
","","","1905.4000000953674","","","16","12423","5454","h","elianto","#f73b6a7A"," "," ","1","0","[2756.0999999046326]","1","2","","","12423","60","3","3","lose","go","0"
"pit-trial","179","1315576","0.0-65.0","battery-v0.2","","""event"",""trial"",""time""
""fullscreenenter"",""1"",""3813""
","
","
","""event"",""trial"",""time""
""fullscreenenter"",""1"",""3813""
","
","","","834.4000000953674","","","16","12423","5454","r","elianto","#3366ff99"," "," ","1","+10","[1685.5]","1","2","","","12423","61","1","1","win","go","0"
"pit-trial","180","1320429","0.0-66.0","battery-v0.2","","""event"",""trial"",""time""
""fullscreenenter"",""1"",""3813""
","
","
","""event"",""trial"",""time""
""fullscreenenter"",""1"",""3813""
","
","","","-1","","","16","12423","5454","y","elianto","#f73b6a7A","-1","-1","1","0","[]","0","2","","","12423","62","2","4","lose","no-go","0"
"pit-trial","181","1324386","0.0-67.0","battery-v0.2","","""event"",""trial"",""time""
""fullscreenenter"",""1"",""3813""
","
","
","""event"",""trial"",""time""
""fullscreenenter"",""1"",""3813""
","
","","","1100","","","16","12423","5454","h","elianto","#f73b6a7A"," "," ","1","0","[1952.8000001907349]","1","2","","","12423","63","3","3","lose","go","0"
"pit-trial","182","1328456","0.0-68.0","battery-v0.2","","""event"",""trial"",""time""
""fullscreenenter"",""1"",""3813""
","
","
","""event"",""trial"",""time""
""fullscreenenter"",""1"",""3813""
","
","","","1215.2999997138977","","","16","12423","5454","z","elianto","#3366ff99","-1"," ","0","0","[2065.699999809265]","1","2","","","12423","64","4","2","win","no-go","0"
"pit-trial","183","1332266","0.0-69.0","battery-v0.2","","""event"",""trial"",""time""
""fullscreenenter"",""1"",""3813""
","
","
","""event"",""trial"",""time""
""fullscreenenter"",""1"",""3813""
","
","","","956.0999999046326","","","16","12423","5454","h","elianto","#f73b6a7A"," "," ","1","-10","[1807.0999999046326]","1","2","","","12423","65","3","3","lose","go","1"
"pit-trial","184","1336056","0.0-70.0","battery-v0.2","","""event"",""trial"",""time""
""fullscreenenter"",""1"",""3813""
","
","
","""event"",""trial"",""time""
""fullscreenenter"",""1"",""3813""
","
","","","935.5","","","16","12423","5454","r","elianto","#3366ff99"," "," ","1","+10","[1785.6999998092651]","1","2","","","12423","66","1","1","win","go","0"
"pit-trial","185","1340909","0.0-71.0","battery-v0.2","","""event"",""trial"",""time""
""fullscreenenter"",""1"",""3813""
","
","
","""event"",""trial"",""time""
""fullscreenenter"",""1"",""3813""
","
","","","-1","","","16","12423","5454","y","elianto","#f73b6a7A","-1","-1","1","0","[]","0","2","","","12423","67","2","4","lose","no-go","0"
"pit-trial","186","1345777","0.0-72.0","battery-v0.2","","""event"",""trial"",""time""
""fullscreenenter"",""1"",""3813""
","
","
","""event"",""trial"",""time""
""fullscreenenter"",""1"",""3813""
","
","","","-1","","","16","12423","5454","z","elianto","#3366ff99","-1","-1","1","+10","[]","0","2","","","12423","68","4","2","win","no-go","0"
"pit-trial","187","1350630","0.0-73.0","battery-v0.2","","""event"",""trial"",""time""
""fullscreenenter"",""1"",""3813""
","
","
","""event"",""trial"",""time""
""fullscreenenter"",""1"",""3813""
","
","","","-1","","","16","12423","5454","z","elianto","#3366ff99","-1","-1","1","+10","[]","0","2","","","12423","69","4","2","win","no-go","0"
"pit-trial","188","1354946","0.0-74.0","battery-v0.2","","""event"",""trial"",""time""
""fullscreenenter"",""1"",""3813""
","
","
","""event"",""trial"",""time""
""fullscreenenter"",""1"",""3813""
","
","","","1462","","","16","12423","5454","c","elianto","#3366ff99"," "," ","1","+10","[2312.9000000953674]","1","2","","","12423","70","5","1","win","go","0"
"pit-trial","189","1358716","0.0-75.0","battery-v0.2","","""event"",""trial"",""time""
""fullscreenenter"",""1"",""3813""
","
","
","""event"",""trial"",""time""
""fullscreenenter"",""1"",""3813""
","
","","","916","","","16","12423","5454","h","elianto","#f73b6a7A"," "," ","1","0","[1766.3000001907349]","1","2","","","12423","71","3","3","lose","go","0"
"pit-trial","190","1362316","0.0-76.0","battery-v0.2","","""event"",""trial"",""time""
""fullscreenenter"",""1"",""3813""
","
","
","""event"",""trial"",""time""
""fullscreenenter"",""1"",""3813""
","
","","","745.7999997138977","","","16","12423","5454","r","elianto","#3366ff99"," "," ","1","+10","[1596.5]","1","2","","","12423","72","1","1","win","go","0"
"pit-trial","191","1365986","0.0-77.0","battery-v0.2","","""event"",""trial"",""time""
""fullscreenenter"",""1"",""3813""
","
","
","""event"",""trial"",""time""
""fullscreenenter"",""1"",""3813""
","
","","","815.9000000953674","","","16","12423","5454","h","elianto","#f73b6a7A"," "," ","1","0","[1666.8000001907349]","1","2","","","12423","73","3","3","lose","go","0"
"pit-trial","192","1369617","0.0-78.0","battery-v0.2","","""event"",""trial"",""time""
""fullscreenenter"",""1"",""3813""
","
","
","""event"",""trial"",""time""
""fullscreenenter"",""1"",""3813""
","
","","","775.8999996185303","","","16","12423","5454","r","elianto","#3366ff99"," "," ","1","+10","[1627.5999999046326]","1","2","","","12423","74","1","1","win","go","0"
"pit-trial","193","1374485","0.0-79.0","battery-v0.2","","""event"",""trial"",""time""
""fullscreenenter"",""1"",""3813""
","
","
","""event"",""trial"",""time""
""fullscreenenter"",""1"",""3813""
","
","","","-1","","","16","12423","5454","z","elianto","#3366ff99","-1","-1","1","+10","[]","0","2","","","12423","75","4","2","win","no-go","0"
"pit-trial","194","1378047","0.0-80.0","battery-v0.2","","""event"",""trial"",""time""
""fullscreenenter"",""1"",""3813""
","
","
","""event"",""trial"",""time""
""fullscreenenter"",""1"",""3813""
","
","","","705.4000000953674","","","16","12423","5454","c","elianto","#3366ff99"," "," ","1","+10","[1558]","1","2","","","12423","76","5","1","win","go","0"
"pit-trial","195","1382006","0.0-81.0","battery-v0.2","","""event"",""trial"",""time""
""fullscreenenter"",""1"",""3813""
","
","
","""event"",""trial"",""time""
""fullscreenenter"",""1"",""3813""
","
","","","1105.8000001907349","","","16","12423","5454","c","elianto","#3366ff99"," "," ","1","+10","[1956]","1","2","","","12423","77","5","1","win","go","0"
"pit-trial","196","1386861","0.0-82.0","battery-v0.2","","""event"",""trial"",""time""
""fullscreenenter"",""1"",""3813""
","
","
","""event"",""trial"",""time""
""fullscreenenter"",""1"",""3813""
","
","","","-1","","","16","12423","5454","b","elianto","#f73b6a7A","-1","-1","1","0","[]","0","2","","","12423","78","6","4","lose","no-go","0"
"pit-trial","197","1390506","0.0-83.0","battery-v0.2","","""event"",""trial"",""time""
""fullscreenenter"",""1"",""3813""
","
","
","""event"",""trial"",""time""
""fullscreenenter"",""1"",""3813""
","
","","","790.1999998092651","","","16","12423","5454","h","elianto","#f73b6a7A"," "," ","1","0","[1642.0999999046326]","1","2","","","12423","79","3","3","lose","go","0"
"pit-trial","198","1395364","0.0-84.0","battery-v0.2","","""event"",""trial"",""time""
""fullscreenenter"",""1"",""3813""
","
","
","""event"",""trial"",""time""
""fullscreenenter"",""1"",""3813""
","
","","","-1","","","16","12423","5454","z","elianto","#3366ff99","-1","-1","1","+10","[]","0","2","","","12423","80","4","2","win","no-go","0"
"pit-trial","199","1400220","0.0-85.0","battery-v0.2","","""event"",""trial"",""time""
""fullscreenenter"",""1"",""3813""
","
","
","""event"",""trial"",""time""
""fullscreenenter"",""1"",""3813""
","
","","","-1","","","16","12423","5454","z","elianto","#3366ff99","-1","-1","1","+10","[]","0","2","","","12423","81","4","2","win","no-go","0"
"pit-trial","200","1403767","0.0-86.0","battery-v0.2","","""event"",""trial"",""time""
""fullscreenenter"",""1"",""3813""
","
","
","""event"",""trial"",""time""
""fullscreenenter"",""1"",""3813""
","
","","","692.7000002861023","","","16","12423","5454","c","elianto","#3366ff99"," "," ","1","+10","[1543.3000001907349]","1","2","","","12423","82","5","1","win","go","0"
"pit-trial","201","1408621","0.0-87.0","battery-v0.2","","""event"",""trial"",""time""
""fullscreenenter"",""1"",""3813""
","
","
","""event"",""trial"",""time""
""fullscreenenter"",""1"",""3813""
","
","","","-1","","","16","12423","5454","t","elianto","#f73b6a7A"," ","-1","0","-10","[]","0","2","","","12423","83","7","3","lose","go","0"
"pit-trial","202","1413476","0.0-88.0","battery-v0.2","","""event"",""trial"",""time""
""fullscreenenter"",""1"",""3813""
","
","
","""event"",""trial"",""time""
""fullscreenenter"",""1"",""3813""
","
","","","-1","","","16","12423","5454","b","elianto","#f73b6a7A","-1","-1","1","0","[]","0","2","","","12423","84","6","4","lose","no-go","0"
"pit-trial","203","1418331","0.0-89.0","battery-v0.2","","""event"",""trial"",""time""
""fullscreenenter"",""1"",""3813""
","
","
","""event"",""trial"",""time""
""fullscreenenter"",""1"",""3813""
","
","","","-1","","","16","12423","5454","b","elianto","#f73b6a7A","-1","-1","1","0","[]","0","2","","","12423","85","6","4","lose","no-go","0"
"pit-trial","204","1422677","0.0-90.0","battery-v0.2","","""event"",""trial"",""time""
""fullscreenenter"",""1"",""3813""
","
","
","""event"",""trial"",""time""
""fullscreenenter"",""1"",""3813""
","
","","","1492.5999999046326","","","16","12423","5454","t","elianto","#f73b6a7A"," "," ","1","0","[2342.7000002861023]","1","2","","","12423","86","7","3","lose","go","0"
"pit-trial","205","1427349","0.0-91.0","battery-v0.2","","""event"",""trial"",""time""
""fullscreenenter"",""1"",""3813""
","
","
","""event"",""trial"",""time""
""fullscreenenter"",""1"",""3813""
","
","","","1818.5","","","16","12423","5454","c","elianto","#3366ff99"," "," ","1","+10","[2668.5]","1","2","","","12423","87","5","1","win","go","0"
"pit-trial","206","1432203","0.0-92.0","battery-v0.2","","""event"",""trial"",""time""
""fullscreenenter"",""1"",""3813""
","
","
","""event"",""trial"",""time""
""fullscreenenter"",""1"",""3813""
","
","","","-1","","","16","12423","5454","z","elianto","#3366ff99","-1","-1","1","0","[]","0","2","","","12423","88","4","2","win","no-go","1"
"pit-trial","207","1437056","0.0-93.0","battery-v0.2","","""event"",""trial"",""time""
""fullscreenenter"",""1"",""3813""
","
","
","""event"",""trial"",""time""
""fullscreenenter"",""1"",""3813""
","
","","","-1","","","16","12423","5454","z","elianto","#3366ff99","-1","-1","1","+10","[]","0","2","","","12423","89","4","2","win","no-go","0"
"pit-trial","208","1441911","0.0-94.0","battery-v0.2","","""event"",""trial"",""time""
""fullscreenenter"",""1"",""3813""
","
","
","""event"",""trial"",""time""
""fullscreenenter"",""1"",""3813""
","
","","","-1","","","16","12423","5454","b","elianto","#f73b6a7A","-1","-1","1","0","[]","0","2","","","12423","90","6","4","lose","no-go","0"
"pit-trial","209","1446208","0.0-95.0","battery-v0.2","","""event"",""trial"",""time""
""fullscreenenter"",""1"",""3813""
","
","
","""event"",""trial"",""time""
""fullscreenenter"",""1"",""3813""
","
","","","1443.3000001907349","","","16","12423","5454","t","elianto","#f73b6a7A"," "," ","1","0","[2293.5999999046326]","1","2","","","12423","91","7","3","lose","go","0"
"pit-trial","210","1450447","0.0-96.0","battery-v0.2","","""event"",""trial"",""time""
""fullscreenenter"",""1"",""3813""
","
","
","""event"",""trial"",""time""
""fullscreenenter"",""1"",""3813""
","
","","","1385.0999999046326","","","16","12423","5454","c","elianto","#3366ff99"," "," ","1","0","[2235.5999999046326]","1","2","","","12423","92","5","1","win","go","1"
"pit-trial","211","1454197","0.0-97.0","battery-v0.2","","""event"",""trial"",""time""
""fullscreenenter"",""1"",""3813""
","
","
","""event"",""trial"",""time""
""fullscreenenter"",""1"",""3813""
","
","","","896.0999999046326","","","16","12423","5454","t","elianto","#f73b6a7A"," "," ","1","0","[1746.6000003814697]","1","2","","","12423","93","7","3","lose","go","0"
"pit-trial","212","1458138","0.0-98.0","battery-v0.2","","""event"",""trial"",""time""
""fullscreenenter"",""1"",""3813""
","
","
","""event"",""trial"",""time""
""fullscreenenter"",""1"",""3813""
","
","","","1086.6999998092651","","","16","12423","5454","f","elianto","#3366ff99","-1"," ","0","0","[1937.2999997138977]","1","2","","","12423","94","8","2","win","no-go","0"
"pit-trial","213","1461737","0.0-99.0","battery-v0.2","","""event"",""trial"",""time""
""fullscreenenter"",""1"",""3813""
","
","
","""event"",""trial"",""time""
""fullscreenenter"",""1"",""3813""
","
","","","745.4000000953674","","","16","12423","5454","c","elianto","#3366ff99"," "," ","1","0","[1595.4000000953674]","1","2","","","12423","95","5","1","win","go","1"
"pit-trial","214","1466592","0.0-100.0","battery-v0.2","","""event"",""trial"",""time""
""fullscreenenter"",""1"",""3813""
","
","
","""event"",""trial"",""time""
""fullscreenenter"",""1"",""3813""
","
","","","-1","","","16","12423","5454","b","elianto","#f73b6a7A","-1","-1","1","0","[]","0","2","","","12423","96","6","4","lose","no-go","0"
"pit-trial","215","1470828","0.0-101.0","battery-v0.2","","""event"",""trial"",""time""
""fullscreenenter"",""1"",""3813""
","
","
","""event"",""trial"",""time""
""fullscreenenter"",""1"",""3813""
","
","","","1381.6999998092651","","","16","12423","5454","t","elianto","#f73b6a7A"," "," ","1","0","[2232.2999997138977]","1","2","","","12423","97","7","3","lose","go","0"
"pit-trial","216","1475684","0.0-102.0","battery-v0.2","","""event"",""trial"",""time""
""fullscreenenter"",""1"",""3813""
","
","
","""event"",""trial"",""time""
""fullscreenenter"",""1"",""3813""
","
","","","-1","","","16","12423","5454","f","elianto","#3366ff99","-1","-1","1","+10","[]","0","2","","","12423","98","8","2","win","no-go","0"
"pit-trial","217","1480539","0.0-103.0","battery-v0.2","","""event"",""trial"",""time""
""fullscreenenter"",""1"",""3813""
","
","
","""event"",""trial"",""time""
""fullscreenenter"",""1"",""3813""
","
","","","-1","","","16","12423","5454","b","elianto","#f73b6a7A","-1","-1","1","0","[]","0","2","","","12423","99","6","4","lose","no-go","0"
"pit-trial","218","1484717","0.0-104.0","battery-v0.2","","""event"",""trial"",""time""
""fullscreenenter"",""1"",""3813""
","
","
","""event"",""trial"",""time""
""fullscreenenter"",""1"",""3813""
","
","","","1324.7999997138977","","","16","12423","5454","c","elianto","#3366ff99"," "," ","1","+10","[2174.800000190735]","1","2","","","12423","100","5","1","win","go","0"
"pit-trial","219","1488686","0.0-105.0","battery-v0.2","","""event"",""trial"",""time""
""fullscreenenter"",""1"",""3813""
","
","
","""event"",""trial"",""time""
""fullscreenenter"",""1"",""3813""
","
","","","1115.8000001907349","","","16","12423","5454","n","elianto","#3366ff99","-1"," ","0","0","[1966.3000001907349]","1","2","","","12423","101","9","2","win","no-go","0"
"pit-trial","220","1492348","0.0-106.0","battery-v0.2","","""event"",""trial"",""time""
""fullscreenenter"",""1"",""3813""
","
","
","""event"",""trial"",""time""
""fullscreenenter"",""1"",""3813""
","
","","","806.5","","","16","12423","5454","c","elianto","#3366ff99"," "," ","1","+10","[1657.4000000953674]","1","2","","","12423","102","5","1","win","go","0"
"pit-trial","221","1497204","0.0-107.0","battery-v0.2","","""event"",""trial"",""time""
""fullscreenenter"",""1"",""3813""
","
","
","""event"",""trial"",""time""
""fullscreenenter"",""1"",""3813""
","
","","","-1","","","16","12423","5454","b","elianto","#f73b6a7A","-1","-1","1","0","[]","0","2","","","12423","103","6","4","lose","no-go","0"
"pit-trial","222","1502059","0.0-108.0","battery-v0.2","","""event"",""trial"",""time""
""fullscreenenter"",""1"",""3813""
","
","
","""event"",""trial"",""time""
""fullscreenenter"",""1"",""3813""
","
","","","-1","","","16","12423","5454","f","elianto","#3366ff99","-1","-1","1","+10","[]","0","2","","","12423","104","8","2","win","no-go","0"
"pit-trial","223","1506914","0.0-109.0","battery-v0.2","","""event"",""trial"",""time""
""fullscreenenter"",""1"",""3813""
","
","
","""event"",""trial"",""time""
""fullscreenenter"",""1"",""3813""
","
","","","-1","","","16","12423","5454","f","elianto","#3366ff99","-1","-1","1","+10","[]","0","2","","","12423","105","8","2","win","no-go","0"
"pit-trial","224","1511768","0.0-110.0","battery-v0.2","","""event"",""trial"",""time""
""fullscreenenter"",""1"",""3813""
","
","
","""event"",""trial"",""time""
""fullscreenenter"",""1"",""3813""
","
","","","-1","","","16","12423","5454","b","elianto","#f73b6a7A","-1","-1","1","0","[]","0","2","","","12423","106","6","4","lose","no-go","0"
"pit-trial","225","1515288","0.0-111.0","battery-v0.2","","""event"",""trial"",""time""
""fullscreenenter"",""1"",""3813""
","
","
","""event"",""trial"",""time""
""fullscreenenter"",""1"",""3813""
","
","","","664.9000000953674","","","16","12423","5454","c","elianto","#3366ff99"," "," ","1","+10","[1515.6000003814697]","1","2","","","12423","107","5","1","win","go","0"
"pit-trial","226","1519417","0.0-112.0","battery-v0.2","","""event"",""trial"",""time""
""fullscreenenter"",""1"",""3813""
","
","
","""event"",""trial"",""time""
""fullscreenenter"",""1"",""3813""
","
","","","1274.9000000953674","","","16","12423","5454","n","elianto","#3366ff99","-1"," ","0","0","[2125.300000190735]","1","2","","","12423","108","9","2","win","no-go","0"
"pit-trial","227","1524273","0.0-113.0","battery-v0.2","","""event"",""trial"",""time""
""fullscreenenter"",""1"",""3813""
","
","
","""event"",""trial"",""time""
""fullscreenenter"",""1"",""3813""
","
","","","-1","","","16","12423","5454","f","elianto","#3366ff99","-1","-1","1","0","[]","0","2","","","12423","109","8","2","win","no-go","1"
"pit-trial","228","1529128","0.0-114.0","battery-v0.2","","""event"",""trial"",""time""
""fullscreenenter"",""1"",""3813""
","
","
","""event"",""trial"",""time""
""fullscreenenter"",""1"",""3813""
","
","","","-1","","","16","12423","5454","b","elianto","#f73b6a7A","-1","-1","1","0","[]","0","2","","","12423","110","6","4","lose","no-go","0"
"pit-trial","229","1533981","0.0-115.0","battery-v0.2","","""event"",""trial"",""time""
""fullscreenenter"",""1"",""3813""
","
","
","""event"",""trial"",""time""
""fullscreenenter"",""1"",""3813""
","
","","","-1","","","16","12423","5454","n","elianto","#3366ff99","-1","-1","1","+10","[]","0","2","","","12423","111","9","2","win","no-go","0"
"pit-trial","230","1537537","0.0-116.0","battery-v0.2","","""event"",""trial"",""time""
""fullscreenenter"",""1"",""3813""
","
","
","""event"",""trial"",""time""
""fullscreenenter"",""1"",""3813""
","
","","","702.1999998092651","","","16","12423","5454","c","elianto","#3366ff99"," "," ","1","0","[1552.6999998092651]","1","2","","","12423","112","5","1","win","go","1"
"pit-trial","231","1542392","0.0-117.0","battery-v0.2","","""event"",""trial"",""time""
""fullscreenenter"",""1"",""3813""
","
","
","""event"",""trial"",""time""
""fullscreenenter"",""1"",""3813""
","
","","","-1","","","16","12423","5454","t","elianto","#f73b6a7A"," ","-1","0","-10","[3036.300000190735]","1","2","","","12423","113","7","3","lose","go","0"
"pit-trial","232","1546898","0.0-118.0","battery-v0.2","","""event"",""trial"",""time""
""fullscreenenter"",""1"",""3813""
","
","
","""event"",""trial"",""time""
""fullscreenenter"",""1"",""3813""
","
","","","1651.5999999046326","","","16","12423","5454","c","elianto","#3366ff99"," "," ","1","+10","[2501.7000002861023]","1","2","","","12423","114","5","1","win","go","0"
"pit-trial","233","1551751","0.0-119.0","battery-v0.2","","""event"",""trial"",""time""
""fullscreenenter"",""1"",""3813""
","
","
","""event"",""trial"",""time""
""fullscreenenter"",""1"",""3813""
","
","","","-1","","","16","12423","5454","n","elianto","#3366ff99","-1","-1","1","0","[]","0","2","","","12423","115","9","2","win","no-go","1"
"pit-trial","234","1556605","0.0-120.0","battery-v0.2","","""event"",""trial"",""time""
""fullscreenenter"",""1"",""3813""
","
","
","""event"",""trial"",""time""
""fullscreenenter"",""1"",""3813""
","
","","","-1","","","16","12423","5454","f","elianto","#3366ff99","-1","-1","1","0","[]","0","2","","","12423","116","8","2","win","no-go","1"
"pit-trial","235","1560179","0.0-121.0","battery-v0.2","","""event"",""trial"",""time""
""fullscreenenter"",""1"",""3813""
","
","
","""event"",""trial"",""time""
""fullscreenenter"",""1"",""3813""
","
","","","714.3999996185303","","","16","12423","5454","c","elianto","#3366ff99"," "," ","1","0","[1570.1999998092651]","1","2","","","12423","117","5","1","win","go","1"
"pit-trial","236","1564177","0.0-122.0","battery-v0.2","","""event"",""trial"",""time""
""fullscreenenter"",""1"",""3813""
","
","
","""event"",""trial"",""time""
""fullscreenenter"",""1"",""3813""
","
","","","1144.4000000953674","","","16","12423","5454","f","elianto","#3366ff99","-1"," ","0","+10","[1995.0999999046326]","1","2","","","12423","118","8","2","win","no-go","1"
"pit-trial","237","1567988","0.0-123.0","battery-v0.2","","""event"",""trial"",""time""
""fullscreenenter"",""1"",""3813""
","
","
","""event"",""trial"",""time""
""fullscreenenter"",""1"",""3813""
","
","","","956.7000002861023","","","16","12423","5454","n","elianto","#3366ff99","-1"," ","0","0","[1807.4000000953674]","1","2","","","12423","119","9","2","win","no-go","0"
"pit-trial","238","1572842","0.0-124.0","battery-v0.2","","""event"",""trial"",""time""
""fullscreenenter"",""1"",""3813""
","
","
","""event"",""trial"",""time""
""fullscreenenter"",""1"",""3813""
","
","","","-1","","","16","12423","5454","b","elianto","#f73b6a7A","-1","-1","1","0","[]","0","2","","","12423","120","6","4","lose","no-go","0"
"pit-trial","239","1577090","0.0-125.0","battery-v0.2","","""event"",""trial"",""time""
""fullscreenenter"",""1"",""3813""
","
","
","""event"",""trial"",""time""
""fullscreenenter"",""1"",""3813""
","
","","","1393.2000002861023","","","16","12423","5454","f","elianto","#3366ff99","-1"," ","0","0","[2243.5]","1","2","","","12423","121","8","2","win","no-go","0"
"pit-trial","240","1581138","0.0-126.0","battery-v0.2","","""event"",""trial"",""time""
""fullscreenenter"",""1"",""3813""
","
","
","""event"",""trial"",""time""
""fullscreenenter"",""1"",""3813""
","
","","","1193.7000002861023","","","16","12423","5454","t","elianto","#f73b6a7A"," "," ","1","0","[2044.4000000953674]","1","2","","","12423","122","7","3","lose","go","0"
"pit-trial","241","1584719","0.0-127.0","battery-v0.2","","""event"",""trial"",""time""
""fullscreenenter"",""1"",""3813""
","
","
","""event"",""trial"",""time""
""fullscreenenter"",""1"",""3813""
","
","","","726.3000001907349","","","16","12423","5454","c","elianto","#3366ff99"," "," ","1","+10","[1577]","1","2","","","12423","123","5","1","win","go","0"
"pit-trial","242","1589574","0.0-128.0","battery-v0.2","","""event"",""trial"",""time""
""fullscreenenter"",""1"",""3813""
","
","
","""event"",""trial"",""time""
""fullscreenenter"",""1"",""3813""
","
","","","-1","","","16","12423","5454","n","elianto","#3366ff99","-1","-1","1","+10","[]","0","2","","","12423","124","9","2","win","no-go","0"
"pit-trial","243","1593619","0.0-129.0","battery-v0.2","","""event"",""trial"",""time""
""fullscreenenter"",""1"",""3813""
","
","
","""event"",""trial"",""time""
""fullscreenenter"",""1"",""3813""
","
","","","1190.3000001907349","","","16","12423","5454","t","elianto","#f73b6a7A"," "," ","1","0","[2040.8999996185303]","1","2","","","12423","125","7","3","lose","go","0"
"pit-trial","244","1598474","0.0-130.0","battery-v0.2","","""event"",""trial"",""time""
""fullscreenenter"",""1"",""3813""
","
","
","""event"",""trial"",""time""
""fullscreenenter"",""1"",""3813""
","
","","","-1","","","16","12423","5454","f","elianto","#3366ff99","-1","-1","1","+10","[]","0","2","","","12423","126","8","2","win","no-go","0"
"pit-trial","245","1603328","0.0-131.0","battery-v0.2","","""event"",""trial"",""time""
""fullscreenenter"",""1"",""3813""
","
","
","""event"",""trial"",""time""
""fullscreenenter"",""1"",""3813""
","
","","","-1","","","16","12423","5454","n","elianto","#3366ff99","-1","-1","1","+10","[]","0","2","","","12423","127","9","2","win","no-go","0"
"pit-trial","246","1608183","0.0-132.0","battery-v0.2","","""event"",""trial"",""time""
""fullscreenenter"",""1"",""3813""
","
","
","""event"",""trial"",""time""
""fullscreenenter"",""1"",""3813""
","
","","","-1","","","16","12423","5454","b","elianto","#f73b6a7A","-1","-1","1","0","[]","0","2","","","12423","128","6","4","lose","no-go","0"
"pit-trial","247","1613038","0.0-133.0","battery-v0.2","","""event"",""trial"",""time""
""fullscreenenter"",""1"",""3813""
","
","
","""event"",""trial"",""time""
""fullscreenenter"",""1"",""3813""
","
","","","-1","","","16","12423","5454","n","elianto","#3366ff99","-1","-1","1","0","[]","0","2","","","12423","129","9","2","win","no-go","1"
"pit-trial","248","1617892","0.0-134.0","battery-v0.2","","""event"",""trial"",""time""
""fullscreenenter"",""1"",""3813""
","
","
","""event"",""trial"",""time""
""fullscreenenter"",""1"",""3813""
","
","","","-1","","","16","12423","5454","f","elianto","#3366ff99","-1","-1","1","0","[]","0","2","","","12423","130","8","2","win","no-go","1"
"pit-trial","249","1622746","0.0-135.0","battery-v0.2","","""event"",""trial"",""time""
""fullscreenenter"",""1"",""3813""
","
","
","""event"",""trial"",""time""
""fullscreenenter"",""1"",""3813""
","
","","","-1","","","16","12423","5454","b","elianto","#f73b6a7A","-1","-1","1","0","[]","0","2","","","12423","131","6","4","lose","no-go","0"
"pit-trial","250","1626309","0.0-136.0","battery-v0.2","","""event"",""trial"",""time""
""fullscreenenter"",""1"",""3813""
","
","
","""event"",""trial"",""time""
""fullscreenenter"",""1"",""3813""
","
","","","709.1999998092651","","","16","12423","5454","t","elianto","#f73b6a7A"," "," ","1","-10","[1559.5]","1","2","","","12423","132","7","3","lose","go","1"
"pit-trial","251","1631164","0.0-137.0","battery-v0.2","","""event"",""trial"",""time""
""fullscreenenter"",""1"",""3813""
","
","
","""event"",""trial"",""time""
""fullscreenenter"",""1"",""3813""
","
","","","-1","","","16","12423","5454","n","elianto","#3366ff99","-1","-1","1","+10","[]","0","2","","","12423","133","9","2","win","no-go","0"
"pit-trial","252","1636017","0.0-138.0","battery-v0.2","","""event"",""trial"",""time""
""fullscreenenter"",""1"",""3813""
","
","
","""event"",""trial"",""time""
""fullscreenenter"",""1"",""3813""
","
","","","-1","","","16","12423","5454","f","elianto","#3366ff99","-1","-1","1","+10","[]","0","2","","","12423","134","8","2","win","no-go","0"
"pit-trial","253","1639738","0.0-139.0","battery-v0.2","","""event"",""trial"",""time""
""fullscreenenter"",""1"",""3813""
","
","
","""event"",""trial"",""time""
""fullscreenenter"",""1"",""3813""
","
","","","867.7000002861023","","","16","12423","5454","t","elianto","#f73b6a7A"," "," ","1","0","[1718.2000002861023]","1","2","","","12423","135","7","3","lose","go","0"
"pit-trial","254","1644593","0.0-140.0","battery-v0.2","","""event"",""trial"",""time""
""fullscreenenter"",""1"",""3813""
","
","
","""event"",""trial"",""time""
""fullscreenenter"",""1"",""3813""
","
","","","-1","","","16","12423","5454","b","elianto","#f73b6a7A","-1","-1","1","0","[]","0","2","","","12423","136","6","4","lose","no-go","0"
"pit-trial","255","1648749","0.0-141.0","battery-v0.2","","""event"",""trial"",""time""
""fullscreenenter"",""1"",""3813""
","
","
","""event"",""trial"",""time""
""fullscreenenter"",""1"",""3813""
","
","","","1299.3000001907349","","","16","12423","5454","t","elianto","#f73b6a7A"," "," ","1","0","[2151.5999999046326]","1","2","","","12423","137","7","3","lose","go","0"
"pit-trial","256","1653602","0.0-142.0","battery-v0.2","","""event"",""trial"",""time""
""fullscreenenter"",""1"",""3813""
","
","
","""event"",""trial"",""time""
""fullscreenenter"",""1"",""3813""
","
","","","-1","","","16","12423","5454","f","elianto","#3366ff99","-1","-1","1","+10","[]","0","2","","","12423","138","8","2","win","no-go","0"
"pit-trial","257","1658455","0.0-143.0","battery-v0.2","","""event"",""trial"",""time""
""fullscreenenter"",""1"",""3813""
","
","
","""event"",""trial"",""time""
""fullscreenenter"",""1"",""3813""
","
","","","-1","","","16","12423","5454","b","elianto","#f73b6a7A","-1","-1","1","0","[]","0","2","","","12423","139","6","4","lose","no-go","0"
"pit-trial","258","1663309","0.0-144.0","battery-v0.2","","""event"",""trial"",""time""
""fullscreenenter"",""1"",""3813""
","
","
","""event"",""trial"",""time""
""fullscreenenter"",""1"",""3813""
","
","","","-1","","","16","12423","5454","n","elianto","#3366ff99","-1","-1","1","+10","[]","0","2","","","12423","140","9","2","win","no-go","0"
"pit-instructions","259","1706569","0.0-145.0","battery-v0.2","","""event"",""trial"",""time""
""fullscreenenter"",""1"",""3813""
","
","
","""event"",""trial"",""time""
""fullscreenenter"",""1"",""3813""
","
","","[{""page_index"":0,""viewing_time"":33974.40000009537},{""page_index"":1,""viewing_time"":9282.800000190735}]","43257.7000002861","","","","","","","","","","","","","","","","","","","","","","","",""
"pit-trial","260","1710844","0.0-146.0","battery-v0.2","","""event"",""trial"",""time""
""fullscreenenter"",""1"",""3813""
","
","
","""event"",""trial"",""time""
""fullscreenenter"",""1"",""3813""
","
","","","1395.3000001907349","","","16","12423","5454","g","elianto","#f73b6a7A","-1"," ","0","-10","[2252.8999996185303]","1","3","","","12423","141","3","4","lose","no-go","0"
"pit-trial","261","1715519","0.0-147.0","battery-v0.2","","""event"",""trial"",""time""
""fullscreenenter"",""1"",""3813""
","
","
","""event"",""trial"",""time""
""fullscreenenter"",""1"",""3813""
","
","","","1815.1000003814697","","","16","12423","5454","l","elianto","#3366ff99","-1"," ","0","+10","[2673]","1","3","","","12423","142","1","2","win","no-go","1"
"pit-trial","262","1719753","0.0-148.0","battery-v0.2","","""event"",""trial"",""time""
""fullscreenenter"",""1"",""3813""
","
","
","""event"",""trial"",""time""
""fullscreenenter"",""1"",""3813""
","
","","","1365.4000000953674","","","16","12423","5454","u","elianto","#f73b6a7A"," "," ","1","0","[2217.2000002861023]","1","3","","","12423","143","0","3","lose","go","0"
"pit-trial","263","1723757","0.0-149.0","battery-v0.2","","""event"",""trial"",""time""
""fullscreenenter"",""1"",""3813""
","
","
","""event"",""trial"",""time""
""fullscreenenter"",""1"",""3813""
","
","","","1139.3999996185303","","","16","12423","5454","a","elianto","#f73b6a7A"," "," ","1","-10","[1994]","1","3","","","12423","144","2","3","lose","go","1"
"pit-trial","264","1727731","0.0-150.0","battery-v0.2","","""event"",""trial"",""time""
""fullscreenenter"",""1"",""3813""
","
","
","""event"",""trial"",""time""
""fullscreenenter"",""1"",""3813""
","
","","","1112.9000000953674","","","16","12423","5454","u","elianto","#f73b6a7A"," "," ","1","-10","[1969.2999997138977]","1","3","","","12423","145","0","3","lose","go","1"
"pit-trial","265","1732608","0.0-151.0","battery-v0.2","","""event"",""trial"",""time""
""fullscreenenter"",""1"",""3813""
","
","
","""event"",""trial"",""time""
""fullscreenenter"",""1"",""3813""
","
","","","-1","","","16","12423","5454","g","elianto","#f73b6a7A","-1","-1","1","0","[]","0","3","","","12423","146","3","4","lose","no-go","0"
"pit-trial","266","1737466","0.0-152.0","battery-v0.2","","""event"",""trial"",""time""
""fullscreenenter"",""1"",""3813""
","
","
","""event"",""trial"",""time""
""fullscreenenter"",""1"",""3813""
","
","","","-1","","","16","12423","5454","a","elianto","#f73b6a7A"," ","-1","0","-10","[]","0","3","","","12423","147","2","3","lose","go","0"
"pit-trial","267","1741140","0.0-153.0","battery-v0.2","","""event"",""trial"",""time""
""fullscreenenter"",""1"",""3813""
","
","
","""event"",""trial"",""time""
