"trial_type","trial_index","time_elapsed","internal_node_id","task_version","subject_id","interactions","blur_events","focus_events","fullscreenenter_events","fullscreenexit_events","success","view_history","rt","responses","num_errors","age","subject","participantId","rune","rune_set","hex","correct","choice","accuracy","outcome","keys","total_keys","block","practice","value","sub","trial","stimulus","robot","valence","action","sham"
"pavlovia","0","9","0.0-0.0","battery-v0.2","","""event"",""trial"",""time""
""fullscreenenter"",""1"",""8454""
","
","
","""event"",""trial"",""time""
""fullscreenenter"",""1"",""8454""
","
","","","","","","","","","","","","","","","","","","","","","","","","","","",""
"fullscreen","1","9423","0.0-1.0","battery-v0.2","","""event"",""trial"",""time""
""fullscreenenter"",""1"",""8454""
","
","
","""event"",""trial"",""time""
""fullscreenenter"",""1"",""8454""
","
","true","","","","","","","","","","","","","","","","","","","","","","","","","",""
"pit-instructions","2","19773","0.0-2.0-0.0","battery-v0.2","","""event"",""trial"",""time""
""fullscreenenter"",""1"",""8454""
","
","
","""event"",""trial"",""time""
""fullscreenenter"",""1"",""8454""
","
","","[{""page_index"":0,""viewing_time"":10345.299999952316}]","10345.700000047684","","","","","","","","","","","","","","","","","","","","","","","",""
"pit-comprehension","3","56849","0.0-2.0-1.0-0.0","battery-v0.2","","""event"",""trial"",""time""
""fullscreenenter"",""1"",""8454""
","
","
","""event"",""trial"",""time""
""fullscreenenter"",""1"",""8454""
","
","","","37075.90000009537","[""shark""]","0","10","12670","3450","","","","","","","","","","","","","","","","","","",""
"pit-instructions","4","59680","0.0-2.0-1.0-1.0","battery-v0.2","","""event"",""trial"",""time""
""fullscreenenter"",""1"",""8454""
","
","
","""event"",""trial"",""time""
""fullscreenenter"",""1"",""8454""
","
","","[{""page_index"":0,""viewing_time"":2804.5}]","2804.7999999523163","","","","","","","","","","","","","","","","","","","","","","","",""
"pit-comprehension","5","63290","0.0-2.0-2.0-0.0","battery-v0.2","","""event"",""trial"",""time""
""fullscreenenter"",""1"",""8454""
","
","
","""event"",""trial"",""time""
""fullscreenenter"",""1"",""8454""
","
","","","3607.0999999046326","[""tiger""]","0","10","12670","3450","","","","","","","","","","","","","","","","","","",""
"pit-instructions","6","64353","0.0-2.0-2.0-1.0","battery-v0.2","","""event"",""trial"",""time""
""fullscreenenter"",""1"",""8454""
","
","
","""event"",""trial"",""time""
""fullscreenenter"",""1"",""8454""
","
","","[{""page_index"":0,""viewing_time"":1060.9000000953674}]","1061.2000000476837","","","","","","","","","","","","","","","","","","","","","","","",""
"pit-instructions","7","211452","0.0-2.0-3.0","battery-v0.2","","""event"",""trial"",""time""
""fullscreenenter"",""1"",""8454""
","
","
","""event"",""trial"",""time""
""fullscreenenter"",""1"",""8454""
","
","","[{""page_index"":0,""viewing_time"":8927.700000047684},{""page_index"":1,""viewing_time"":8393.5},{""page_index"":2,""viewing_time"":6595},{""page_index"":3,""viewing_time"":5938.200000047684},{""page_index"":4,""viewing_time"":6237.699999809265},{""page_index"":5,""viewing_time"":6067},{""page_index"":6,""viewing_time"":7537.900000095367},{""page_index"":7,""viewing_time"":7395.5},{""page_index"":8,""viewing_time"":6746.799999952316},{""page_index"":9,""viewing_time"":16020.600000143051},{""page_index"":10,""viewing_time"":10869.699999809265},{""page_index"":11,""viewing_time"":7936.5},{""page_index"":10,""viewing_time"":1221.2000000476837},{""page_index"":9,""viewing_time"":13366},{""page_index"":10,""viewing_time"":8364.900000095367},{""page_index"":11,""viewing_time"":12026.799999952316},{""page_index"":12,""viewing_time"":7471.700000047684},{""page_index"":13,""viewing_time"":5977.200000047684}]","147094.79999995232","","","","","","","","","","","","","","","","","","","","","","","",""
"pit-trial","8","214493","0.0-2.0-4.0-0.0","battery-v0.2","","""event"",""trial"",""time""
""fullscreenenter"",""1"",""8454""
","
","
","""event"",""trial"",""time""
""fullscreenenter"",""1"",""8454""
","
","","","181","","","10","12670","3450","&#9784;","elianto","#FFFFF080"," "," ","1","&#10004","[1031.4000000953674]","1","0","0","","","","","","","",""
"pit-trial","9","218238","0.0-2.0-4.1-0.1","battery-v0.2","","""event"",""trial"",""time""
""fullscreenenter"",""1"",""8454""
","
","
","""event"",""trial"",""time""
""fullscreenenter"",""1"",""8454""
","
","","","879.2000000476837","","","10","12670","3450","&#9784;","elianto","#FFFFF080"," "," ","1","&#10004","[699.8000001907349,1731.2000000476837]","2","0","0","","","","","","","",""
"pit-trial","10","221234","0.0-2.0-4.2-0.2","battery-v0.2","","""event"",""trial"",""time""
""fullscreenenter"",""1"",""8454""
","
","
","""event"",""trial"",""time""
""fullscreenenter"",""1"",""8454""
","
","","","132.40000009536743","","","10","12670","3450","&#9784;","elianto","#FFFFF080"," "," ","1","&#10004","[983.9000000953674]","1","0","0","","","","","","","",""
"pit-trial","11","224630","0.0-2.0-4.3-0.3","battery-v0.2","","""event"",""trial"",""time""
""fullscreenenter"",""1"",""8454""
","
","
","""event"",""trial"",""time""
""fullscreenenter"",""1"",""8454""
","
","","","526.4000000953674","","","10","12670","3450","&#9784;","elianto","#FFFFF080"," "," ","1","&#10004","[766.3000001907349,1379.9000000953674]","2","0","0","","","","","","","",""
"pit-trial","12","227506","0.0-2.0-4.4-0.4","battery-v0.2","","""event"",""trial"",""time""
""fullscreenenter"",""1"",""8454""
","
","
","""event"",""trial"",""time""
""fullscreenenter"",""1"",""8454""
","
","","","5.5","","","10","12670","3450","&#9784;","elianto","#FFFFF080"," "," ","1","&#10004","[857]","1","0","0","","","","","","","",""
"pit-instructions","13","248796","0.0-2.0-5.0","battery-v0.2","","""event"",""trial"",""time""
""fullscreenenter"",""1"",""8454""
","
","
","""event"",""trial"",""time""
""fullscreenenter"",""1"",""8454""
","
","","[{""page_index"":0,""viewing_time"":5362.299999952316},{""page_index"":1,""viewing_time"":5403},{""page_index"":2,""viewing_time"":5293.900000095367},{""page_index"":3,""viewing_time"":5225.700000047684}]","21285.200000047684","","","","","","","","","","","","","","","","","","","","","","","",""
"pit-trial","14","253667","0.0-2.0-6.0-0.0","battery-v0.2","","""event"",""trial"",""time""
""fullscreenenter"",""1"",""8454""
","
","
","""event"",""trial"",""time""
""fullscreenenter"",""1"",""8454""
","
","","","-1","","","10","12670","3450","&#9854;","elianto","#FFFFF080","-1","-1","1","&#10004","[]","0","0","1","","","","","","","",""
"pit-trial","15","258531","0.0-2.0-6.1-0.1","battery-v0.2","","""event"",""trial"",""time""
""fullscreenenter"",""1"",""8454""
","
","
","""event"",""trial"",""time""
""fullscreenenter"",""1"",""8454""
","
","","","-1","","","10","12670","3450","&#9854;","elianto","#FFFFF080","-1","-1","1","&#10004","[]","0","0","1","","","","","","","",""
"pit-trial","16","263397","0.0-2.0-6.2-0.2","battery-v0.2","","""event"",""trial"",""time""
""fullscreenenter"",""1"",""8454""
","
","
","""event"",""trial"",""time""
""fullscreenenter"",""1"",""8454""
","
","","","-1","","","10","12670","3450","&#9854;","elianto","#FFFFF080","-1","-1","1","&#10004","[]","0","0","1","","","","","","","",""
"pit-trial","17","268264","0.0-2.0-6.3-0.3","battery-v0.2","","""event"",""trial"",""time""
""fullscreenenter"",""1"",""8454""
","
","
","""event"",""trial"",""time""
""fullscreenenter"",""1"",""8454""
","
","","","-1","","","10","12670","3450","&#9854;","elianto","#FFFFF080","-1","-1","1","&#10004","[]","0","0","1","","","","","","","",""
"pit-trial","18","273130","0.0-2.0-6.4-0.4","battery-v0.2","","""event"",""trial"",""time""
""fullscreenenter"",""1"",""8454""
","
","
","""event"",""trial"",""time""
""fullscreenenter"",""1"",""8454""
","
","","","-1","","","10","12670","3450","&#9854;","elianto","#FFFFF080","-1","-1","1","&#10004","[]","0","0","1","","","","","","","",""
"pit-instructions","19","414298","0.0-2.0-7.0","battery-v0.2","","""event"",""trial"",""time""
""fullscreenenter"",""1"",""8454""
","
","
","""event"",""trial"",""time""
""fullscreenenter"",""1"",""8454""
","
","","[{""page_index"":0,""viewing_time"":11041.599999904633},{""page_index"":1,""viewing_time"":9333.5},{""page_index"":2,""viewing_time"":5931.5},{""page_index"":3,""viewing_time"":7415.400000095367},{""page_index"":4,""viewing_time"":6883.400000095367},{""page_index"":5,""viewing_time"":5375.299999952316},{""page_index"":6,""viewing_time"":9254.899999856949},{""page_index"":7,""viewing_time"":8034.5},{""page_index"":8,""viewing_time"":6465.900000095367},{""page_index"":9,""viewing_time"":6459.900000095367},{""page_index"":10,""viewing_time"":7796.199999809265},{""page_index"":11,""viewing_time"":4951},{""page_index"":12,""viewing_time"":9607.400000095367},{""page_index"":13,""viewing_time"":9488.400000095367},{""page_index"":14,""viewing_time"":12779.299999952316},{""page_index"":15,""viewing_time"":6684.599999904633},{""page_index"":16,""viewing_time"":6125},{""page_index"":17,""viewing_time"":7536.5}]","141164.59999990463","","","","","","","","","","","","","","","","","","","","","","","",""
"pit-trial","20","417389","0.0-2.0-8.0-0.0","battery-v0.2","","""event"",""trial"",""time""
""fullscreenenter"",""1"",""8454""
","
","
","""event"",""trial"",""time""
""fullscreenenter"",""1"",""8454""
","
","","","224.39999985694885","","","10","12670","3450","&#9776;","elianto","#3366ff99"," "," ","1","+10","[1075.7000000476837]","1","0","1","","","","","","","",""
"pit-trial","21","422274","0.0-2.0-8.0-1.0","battery-v0.2","","""event"",""trial"",""time""
""fullscreenenter"",""1"",""8454""
","
","
","""event"",""trial"",""time""
""fullscreenenter"",""1"",""8454""
","
","","","-1","","","10","12670","3450","&#9776;","elianto","#3366ff99"," ","-1","0","0","[839.5]","1","0","1","","","","","","","",""
"pit-trial","22","425182","0.0-2.0-8.0-2.0","battery-v0.2","","""event"",""trial"",""time""
""fullscreenenter"",""1"",""8454""
","
","
","""event"",""trial"",""time""
""fullscreenenter"",""1"",""8454""
","
","","","42","","","10","12670","3450","&#9776;","elianto","#3366ff99"," "," ","1","+10","[893.1000001430511]","1","0","1","","","","","","","",""
"pit-trial","23","428106","0.0-2.0-8.0-3.0","battery-v0.2","","""event"",""trial"",""time""
""fullscreenenter"",""1"",""8454""
","
","
","""event"",""trial"",""time""
""fullscreenenter"",""1"",""8454""
","
","","","64.70000004768372","","","10","12670","3450","&#9776;","elianto","#3366ff99"," "," ","1","0","[914.9000000953674]","1","0","1","","","","","","","",""
"pit-trial","24","432983","0.0-2.0-8.0-4.0","battery-v0.2","","""event"",""trial"",""time""
""fullscreenenter"",""1"",""8454""
","
","
","""event"",""trial"",""time""
""fullscreenenter"",""1"",""8454""
","
","","","-1","","","10","12670","3450","&#9776;","elianto","#3366ff99"," ","-1","0","0","[782]","1","0","1","","","","","","","",""
"pit-trial","25","436184","0.0-2.0-8.1-0.1","battery-v0.2","","""event"",""trial"",""time""
""fullscreenenter"",""1"",""8454""
","
","
","""event"",""trial"",""time""
""fullscreenenter"",""1"",""8454""
","
","","","331.7999999523163","","","10","12670","3450","&#9776;","elianto","#3366ff99"," "," ","1","+10","[1182.7000000476837]","1","0","1","","","","","","","",""
"pit-trial","26","439684","0.0-2.0-8.1-1.1","battery-v0.2","","""event"",""trial"",""time""
""fullscreenenter"",""1"",""8454""
","
","
","""event"",""trial"",""time""
""fullscreenenter"",""1"",""8454""
","
","","","646.0999999046326","","","10","12670","3450","&#9776;","elianto","#3366ff99"," "," ","1","+10","[1497.4000000953674]","1","0","1","","","","","","","",""
"pit-trial","27","442993","0.0-2.0-8.1-2.1","battery-v0.2","","""event"",""trial"",""time""
""fullscreenenter"",""1"",""8454""
","
","
","""event"",""trial"",""time""
""fullscreenenter"",""1"",""8454""
","
","","","451.5","","","10","12670","3450","&#9776;","elianto","#3366ff99"," "," ","1","+10","[818.2999999523163,1301.6999998092651]","2","0","1","","","","","","","",""
"pit-trial","28","446213","0.0-2.0-8.1-3.1","battery-v0.2","","""event"",""trial"",""time""
""fullscreenenter"",""1"",""8454""
","
","
","""event"",""trial"",""time""
""fullscreenenter"",""1"",""8454""
","
","","","364.09999990463257","","","10","12670","3450","&#9776;","elianto","#3366ff99"," "," ","1","0","[365.80000019073486,604.4000000953674,828.6000001430511,1214.9000000953674,1443.8000001907349]","5","0","1","","","","","","","",""
"pit-trial","29","449618","0.0-2.0-8.1-4.1","battery-v0.2","","""event"",""trial"",""time""
""fullscreenenter"",""1"",""8454""
","
","
","""event"",""trial"",""time""
""fullscreenenter"",""1"",""8454""
","
","","","551.2999999523163","","","10","12670","3450","&#9776;","elianto","#3366ff99"," "," ","1","+10","[316.19999980926514,803.8999998569489,1401.2999999523163]","3","0","1","","","","","","","",""
"pit-trial","30","452482","0.0-2.0-8.2-0.2","battery-v0.2","","""event"",""trial"",""time""
""fullscreenenter"",""1"",""8454""
","
","
","""event"",""trial"",""time""
""fullscreenenter"",""1"",""8454""
","
","","","9","","","10","12670","3450","&#9776;","elianto","#3366ff99"," "," ","1","+10","[362.19999980926514,859.7999999523163]","2","0","1","","","","","","","",""
"pit-trial","31","456076","0.0-2.0-8.2-1.2","battery-v0.2","","""event"",""trial"",""time""
""fullscreenenter"",""1"",""8454""
","
","
","""event"",""trial"",""time""
""fullscreenenter"",""1"",""8454""
","
","","","740.0999999046326","","","10","12670","3450","&#9776;","elianto","#3366ff99"," "," ","1","+10","[706.2999999523163,1590.2999999523163]","2","0","1","","","","","","","",""
"pit-trial","32","460932","0.0-2.0-8.2-2.2","battery-v0.2","","""event"",""trial"",""time""
""fullscreenenter"",""1"",""8454""
","
","
","""event"",""trial"",""time""
""fullscreenenter"",""1"",""8454""
","
","","","-1","","","10","12670","3450","&#9776;","elianto","#3366ff99"," ","-1","0","0","[770.2000000476837]","1","0","1","","","","","","","",""
"pit-trial","33","463807","0.0-2.0-8.2-3.2","battery-v0.2","","""event"",""trial"",""time""
""fullscreenenter"",""1"",""8454""
","
","
","""event"",""trial"",""time""
""fullscreenenter"",""1"",""8454""
","
","","","20.09999990463257","","","10","12670","3450","&#9776;","elianto","#3366ff99"," "," ","1","0","[870.8999998569489]","1","0","1","","","","","","","",""
"pit-trial","34","466719","0.0-2.0-8.2-4.2","battery-v0.2","","""event"",""trial"",""time""
""fullscreenenter"",""1"",""8454""
","
","
","""event"",""trial"",""time""
""fullscreenenter"",""1"",""8454""
","
","","","57","","","10","12670","3450","&#9776;","elianto","#3366ff99"," "," ","1","+10","[907.2000000476837]","1","0","1","","","","","","","",""
"call-function","35","466722","0.0-2.0-9.0","battery-v0.2","","""event"",""trial"",""time""
""fullscreenenter"",""1"",""8454""
","
","
","""event"",""trial"",""time""
""fullscreenenter"",""1"",""8454""
","
","","","","","","","","","","","","","","","","","","","","","","","","","","",""
"pit-instructions","36","516737","0.0-2.0-10.0","battery-v0.2","","""event"",""trial"",""time""
""fullscreenenter"",""1"",""8454""
","
","
","""event"",""trial"",""time""
""fullscreenenter"",""1"",""8454""
","
","","[{""page_index"":0,""viewing_time"":10270.299999952316},{""page_index"":1,""viewing_time"":9567.5},{""page_index"":2,""viewing_time"":10466.100000143051},{""page_index"":3,""viewing_time"":11546.899999856949},{""page_index"":4,""viewing_time"":8163}]","50014.40000009537","","","","","","","","","","","","","","","","","","","","","","","",""
"pit-trial","37","521605","0.0-2.0-11.0-0.0","battery-v0.2","","""event"",""trial"",""time""
""fullscreenenter"",""1"",""8454""
","
","
","""event"",""trial"",""time""
""fullscreenenter"",""1"",""8454""
","
","","","-1","","","10","12670","3450","&#9761;","elianto","#3366ff99","-1","-1","1","+10","[]","0","0","2","","","","","","","",""
"pit-trial","38","526471","0.0-2.0-11.0-1.0","battery-v0.2","","""event"",""trial"",""time""
""fullscreenenter"",""1"",""8454""
""blur"",""39"",""526876""
""focus"",""39"",""528131""
","""event"",""trial"",""time""
""blur"",""39"",""526876""
","""event"",""trial"",""time""
""focus"",""39"",""528131""
","""event"",""trial"",""time""
""fullscreenenter"",""1"",""8454""
","
","","","-1","","","10","12670","3450","&#9761;","elianto","#3366ff99","-1","-1","1","+10","[]","0","0","2","","","","","","","",""
"pit-trial","39","531335","0.0-2.0-11.0-2.0","battery-v0.2","","""event"",""trial"",""time""
""fullscreenenter"",""1"",""8454""
""blur"",""39"",""526876""
""focus"",""39"",""528131""
","""event"",""trial"",""time""
""blur"",""39"",""526876""
","""event"",""trial"",""time""
""focus"",""39"",""528131""
","""event"",""trial"",""time""
""fullscreenenter"",""1"",""8454""
","
","","","-1","","","10","12670","3450","&#9761;","elianto","#3366ff99","-1","-1","1","+10","[]","0","0","2","","","","","","","",""
"pit-trial","40","536210","0.0-2.0-11.0-3.0","battery-v0.2","","""event"",""trial"",""time""
""fullscreenenter"",""1"",""8454""
""blur"",""39"",""526876""
""focus"",""39"",""528131""
","""event"",""trial"",""time""
""blur"",""39"",""526876""
","""event"",""trial"",""time""
""focus"",""39"",""528131""
","""event"",""trial"",""time""
""fullscreenenter"",""1"",""8454""
","
","","","-1","","","10","12670","3450","&#9761;","elianto","#3366ff99","-1","-1","1","0","[]","0","0","2","","","","","","","",""
"pit-trial","41","541076","0.0-2.0-11.0-4.0","battery-v0.2","","""event"",""trial"",""time""
""fullscreenenter"",""1"",""8454""
""blur"",""39"",""526876""
""focus"",""39"",""528131""
","""event"",""trial"",""time""
""blur"",""39"",""526876""
","""event"",""trial"",""time""
""focus"",""39"",""528131""
","""event"",""trial"",""time""
""fullscreenenter"",""1"",""8454""
","
","","","-1","","","10","12670","3450","&#9761;","elianto","#3366ff99","-1","-1","1","+10","[]","0","0","2","","","","","","","",""
"pit-trial","42","545954","0.0-2.0-11.1-0.1","battery-v0.2","","""event"",""trial"",""time""
""fullscreenenter"",""1"",""8454""
""blur"",""39"",""526876""
""focus"",""39"",""528131""
","""event"",""trial"",""time""
""blur"",""39"",""526876""
","""event"",""trial"",""time""
""focus"",""39"",""528131""
","""event"",""trial"",""time""
""fullscreenenter"",""1"",""8454""
","
","","","-1","","","10","12670","3450","&#9761;","elianto","#3366ff99","-1","-1","1","+10","[]","0","0","2","","","","","","","",""
"pit-trial","43","550810","0.0-2.0-11.1-1.1","battery-v0.2","","""event"",""trial"",""time""
""fullscreenenter"",""1"",""8454""
""blur"",""39"",""526876""
""focus"",""39"",""528131""
","""event"",""trial"",""time""
""blur"",""39"",""526876""
","""event"",""trial"",""time""
""focus"",""39"",""528131""
","""event"",""trial"",""time""
""fullscreenenter"",""1"",""8454""
","
","","","-1","","","10","12670","3450","&#9761;","elianto","#3366ff99","-1","-1","1","+10","[]","0","0","2","","","","","","","",""
"pit-trial","44","555666","0.0-2.0-11.1-2.1","battery-v0.2","","""event"",""trial"",""time""
""fullscreenenter"",""1"",""8454""
""blur"",""39"",""526876""
""focus"",""39"",""528131""
","""event"",""trial"",""time""
""blur"",""39"",""526876""
","""event"",""trial"",""time""
""focus"",""39"",""528131""
","""event"",""trial"",""time""
""fullscreenenter"",""1"",""8454""
","
","","","-1","","","10","12670","3450","&#9761;","elianto","#3366ff99","-1","-1","1","+10","[]","0","0","2","","","","","","","",""
"pit-trial","45","560521","0.0-2.0-11.1-3.1","battery-v0.2","","""event"",""trial"",""time""
""fullscreenenter"",""1"",""8454""
""blur"",""39"",""526876""
""focus"",""39"",""528131""
","""event"",""trial"",""time""
""blur"",""39"",""526876""
","""event"",""trial"",""time""
""focus"",""39"",""528131""
","""event"",""trial"",""time""
""fullscreenenter"",""1"",""8454""
","
","","","-1","","","10","12670","3450","&#9761;","elianto","#3366ff99","-1","-1","1","0","[]","0","0","2","","","","","","","",""
"pit-trial","46","565375","0.0-2.0-11.1-4.1","battery-v0.2","","""event"",""trial"",""time""
""fullscreenenter"",""1"",""8454""
""blur"",""39"",""526876""
""focus"",""39"",""528131""
","""event"",""trial"",""time""
""blur"",""39"",""526876""
","""event"",""trial"",""time""
""focus"",""39"",""528131""
","""event"",""trial"",""time""
""fullscreenenter"",""1"",""8454""
","
","","","-1","","","10","12670","3450","&#9761;","elianto","#3366ff99","-1","-1","1","+10","[]","0","0","2","","","","","","","",""
"pit-trial","47","570243","0.0-2.0-11.2-0.2","battery-v0.2","","""event"",""trial"",""time""
""fullscreenenter"",""1"",""8454""
""blur"",""39"",""526876""
""focus"",""39"",""528131""
","""event"",""trial"",""time""
""blur"",""39"",""526876""
","""event"",""trial"",""time""
""focus"",""39"",""528131""
","""event"",""trial"",""time""
""fullscreenenter"",""1"",""8454""
","
","","","-1","","","10","12670","3450","&#9761;","elianto","#3366ff99","-1","-1","1","+10","[]","0","0","2","","","","","","","",""
"pit-trial","48","575099","0.0-2.0-11.2-1.2","battery-v0.2","","""event"",""trial"",""time""
""fullscreenenter"",""1"",""8454""
""blur"",""39"",""526876""
""focus"",""39"",""528131""
","""event"",""trial"",""time""
""blur"",""39"",""526876""
","""event"",""trial"",""time""
""focus"",""39"",""528131""
","""event"",""trial"",""time""
""fullscreenenter"",""1"",""8454""
","
","","","-1","","","10","12670","3450","&#9761;","elianto","#3366ff99","-1","-1","1","+10","[]","0","0","2","","","","","","","",""
"pit-trial","49","579955","0.0-2.0-11.2-2.2","battery-v0.2","","""event"",""trial"",""time""
""fullscreenenter"",""1"",""8454""
""blur"",""39"",""526876""
""focus"",""39"",""528131""
","""event"",""trial"",""time""
""blur"",""39"",""526876""
","""event"",""trial"",""time""
""focus"",""39"",""528131""
","""event"",""trial"",""time""
""fullscreenenter"",""1"",""8454""
","
","","","-1","","","10","12670","3450","&#9761;","elianto","#3366ff99","-1","-1","1","+10","[]","0","0","2","","","","","","","",""
"pit-trial","50","584810","0.0-2.0-11.2-3.2","battery-v0.2","","""event"",""trial"",""time""
""fullscreenenter"",""1"",""8454""
""blur"",""39"",""526876""
""focus"",""39"",""528131""
","""event"",""trial"",""time""
""blur"",""39"",""526876""
","""event"",""trial"",""time""
""focus"",""39"",""528131""
","""event"",""trial"",""time""
""fullscreenenter"",""1"",""8454""
","
","","","-1","","","10","12670","3450","&#9761;","elianto","#3366ff99","-1","-1","1","0","[]","0","0","2","","","","","","","",""
"pit-trial","51","589663","0.0-2.0-11.2-4.2","battery-v0.2","","""event"",""trial"",""time""
""fullscreenenter"",""1"",""8454""
""blur"",""39"",""526876""
""focus"",""39"",""528131""
","""event"",""trial"",""time""
""blur"",""39"",""526876""
","""event"",""trial"",""time""
""focus"",""39"",""528131""
","""event"",""trial"",""time""
""fullscreenenter"",""1"",""8454""
","
","","","-1","","","10","12670","3450","&#9761;","elianto","#3366ff99","-1","-1","1","+10","[]","0","0","2","","","","","","","",""
"pit-trial","52","592530","0.0-2.0-11.3-0.3","battery-v0.2","","""event"",""trial"",""time""
""fullscreenenter"",""1"",""8454""
""blur"",""39"",""526876""
""focus"",""39"",""528131""
","""event"",""trial"",""time""
""blur"",""39"",""526876""
","""event"",""trial"",""time""
""focus"",""39"",""528131""
","""event"",""trial"",""time""
""fullscreenenter"",""1"",""8454""
","
","","","11.100000143051147","","","10","12670","3450","&#9761;","elianto","#3366ff99","-1"," ","0","0","[862.4000000953674]","1","0","2","","","","","","","",""
"pit-trial","53","595422","0.0-2.0-11.3-1.3","battery-v0.2","","""event"",""trial"",""time""
""fullscreenenter"",""1"",""8454""
""blur"",""39"",""526876""
""focus"",""39"",""528131""
","""event"",""trial"",""time""
""blur"",""39"",""526876""
","""event"",""trial"",""time""
""focus"",""39"",""528131""
","""event"",""trial"",""time""
""fullscreenenter"",""1"",""8454""
","
","","","36","","","10","12670","3450","&#9761;","elianto","#3366ff99","-1"," ","0","0","[887.7000000476837]","1","0","2","","","","","","","",""
"pit-trial","54","598543","0.0-2.0-11.3-2.3","battery-v0.2","","""event"",""trial"",""time""
""fullscreenenter"",""1"",""8454""
""blur"",""39"",""526876""
""focus"",""39"",""528131""
","""event"",""trial"",""time""
""blur"",""39"",""526876""
","""event"",""trial"",""time""
""focus"",""39"",""528131""
","""event"",""trial"",""time""
""fullscreenenter"",""1"",""8454""
","
","","","267.09999990463257","","","10","12670","3450","&#9761;","elianto","#3366ff99","-1"," ","0","0","[703.5999999046326,1118.5,2380.5999999046326,2849,3033.7000000476837]","5","0","2","","","","","","","",""
"pit-trial","55","602055","0.0-2.0-11.3-3.3","battery-v0.2","","""event"",""trial"",""time""
""fullscreenenter"",""1"",""8454""
""blur"",""39"",""526876""
""focus"",""39"",""528131""
","""event"",""trial"",""time""
""blur"",""39"",""526876""
","""event"",""trial"",""time""
""focus"",""39"",""528131""
","""event"",""trial"",""time""
""fullscreenenter"",""1"",""8454""
","
","","","657.7999999523163","","","10","12670","3450","&#9761;","elianto","#3366ff99","-1"," ","0","+10","[74.79999995231628,299.59999990463257,460.7000000476837,667.0999999046326,804.0999999046326,1509.5]","6","0","2","","","","","","","",""
"pit-trial","56","606919","0.0-2.0-11.3-4.3","battery-v0.2","","""event"",""trial"",""time""
""fullscreenenter"",""1"",""8454""
""blur"",""39"",""526876""
""focus"",""39"",""528131""
","""event"",""trial"",""time""
""blur"",""39"",""526876""
","""event"",""trial"",""time""
""focus"",""39"",""528131""
","""event"",""trial"",""time""
""fullscreenenter"",""1"",""8454""
","
","","","-1","","","10","12670","3450","&#9761;","elianto","#3366ff99","-1","-1","1","+10","[]","0","0","2","","","","","","","",""
"call-function","57","606922","0.0-2.0-12.0","battery-v0.2","","""event"",""trial"",""time""
""fullscreenenter"",""1"",""8454""
""blur"",""39"",""526876""
""focus"",""39"",""528131""
","""event"",""trial"",""time""
""blur"",""39"",""526876""
","""event"",""trial"",""time""
""focus"",""39"",""528131""
","""event"",""trial"",""time""
""fullscreenenter"",""1"",""8454""
","
","","","","","","","","","","","","","","","","","","","","","","","","","","",""
"pit-instructions","58","643953","0.0-2.0-13.0","battery-v0.2","","""event"",""trial"",""time""
""fullscreenenter"",""1"",""8454""
""blur"",""39"",""526876""
""focus"",""39"",""528131""
","""event"",""trial"",""time""
""blur"",""39"",""526876""
","""event"",""trial"",""time""
""focus"",""39"",""528131""
","""event"",""trial"",""time""
""fullscreenenter"",""1"",""8454""
","
","","[{""page_index"":0,""viewing_time"":5131.899999856949},{""page_index"":1,""viewing_time"":8237.700000047684},{""page_index"":2,""viewing_time"":3281.9000000953674},{""page_index"":3,""viewing_time"":13815.5},{""page_index"":4,""viewing_time"":6562.599999904633}]","37030","","","","","","","","","","","","","","","","","","","","","","","",""
"pit-trial","59","647867","0.0-2.0-14.0-0.0","battery-v0.2","","""event"",""trial"",""time""
""fullscreenenter"",""1"",""8454""
""blur"",""39"",""526876""
""focus"",""39"",""528131""
","""event"",""trial"",""time""
""blur"",""39"",""526876""
","""event"",""trial"",""time""
""focus"",""39"",""528131""
","""event"",""trial"",""time""
""fullscreenenter"",""1"",""8454""
","
","","","1055.7999999523163","","","10","12670","3450","&#9826;","elianto","#f73b6a7A","-1"," ","0","-10","[1907.5,2019.5999999046326]","2","0","3","","","","","","","",""
"pit-trial","60","652737","0.0-2.0-14.0-1.0","battery-v0.2","","""event"",""trial"",""time""
""fullscreenenter"",""1"",""8454""
""blur"",""39"",""526876""
""focus"",""39"",""528131""
","""event"",""trial"",""time""
""blur"",""39"",""526876""
","""event"",""trial"",""time""
""focus"",""39"",""528131""
","""event"",""trial"",""time""
""fullscreenenter"",""1"",""8454""
","
","","","-1","","","10","12670","3450","&#9826;","elianto","#f73b6a7A","-1","-1","1","0","[]","0","0","3","","","","","","","",""
"pit-trial","61","657615","0.0-2.0-14.0-2.0","battery-v0.2","","""event"",""trial"",""time""
""fullscreenenter"",""1"",""8454""
""blur"",""39"",""526876""
""focus"",""39"",""528131""
","""event"",""trial"",""time""
""blur"",""39"",""526876""
","""event"",""trial"",""time""
""focus"",""39"",""528131""
","""event"",""trial"",""time""
""fullscreenenter"",""1"",""8454""
","
","","","-1","","","10","12670","3450","&#9826;","elianto","#f73b6a7A","-1","-1","1","0","[]","0","0","3","","","","","","","",""
"pit-trial","62","662491","0.0-2.0-14.0-3.0","battery-v0.2","","""event"",""trial"",""time""
""fullscreenenter"",""1"",""8454""
""blur"",""39"",""526876""
""focus"",""39"",""528131""
","""event"",""trial"",""time""
""blur"",""39"",""526876""
","""event"",""trial"",""time""
""focus"",""39"",""528131""
","""event"",""trial"",""time""
""fullscreenenter"",""1"",""8454""
","
","","","-1","","","10","12670","3450","&#9826;","elianto","#f73b6a7A","-1","-1","1","-10","[]","0","0","3","","","","","","","",""
"pit-trial","63","667354","0.0-2.0-14.0-4.0","battery-v0.2","","""event"",""trial"",""time""
""fullscreenenter"",""1"",""8454""
""blur"",""39"",""526876""
""focus"",""39"",""528131""
","""event"",""trial"",""time""
""blur"",""39"",""526876""
","""event"",""trial"",""time""
""focus"",""39"",""528131""
","""event"",""trial"",""time""
""fullscreenenter"",""1"",""8454""
","
","","","-1","","","10","12670","3450","&#9826;","elianto","#f73b6a7A","-1","-1","1","0","[]","0","0","3","","","","","","","",""
"pit-trial","64","672226","0.0-2.0-14.1-0.1","battery-v0.2","","""event"",""trial"",""time""
""fullscreenenter"",""1"",""8454""
""blur"",""39"",""526876""
""focus"",""39"",""528131""
","""event"",""trial"",""time""
""blur"",""39"",""526876""
","""event"",""trial"",""time""
""focus"",""39"",""528131""
","""event"",""trial"",""time""
""fullscreenenter"",""1"",""8454""
","
","","","-1","","","10","12670","3450","&#9826;","elianto","#f73b6a7A","-1","-1","1","0","[]","0","0","3","","","","","","","",""
"pit-trial","65","677092","0.0-2.0-14.1-1.1","battery-v0.2","","""event"",""trial"",""time""
""fullscreenenter"",""1"",""8454""
""blur"",""39"",""526876""
""focus"",""39"",""528131""
","""event"",""trial"",""time""
""blur"",""39"",""526876""
","""event"",""trial"",""time""
""focus"",""39"",""528131""
","""event"",""trial"",""time""
""fullscreenenter"",""1"",""8454""
","
","","","-1","","","10","12670","3450","&#9826;","elianto","#f73b6a7A","-1","-1","1","0","[]","0","0","3","","","","","","","",""
"pit-trial","66","681948","0.0-2.0-14.1-2.1","battery-v0.2","","""event"",""trial"",""time""
""fullscreenenter"",""1"",""8454""
""blur"",""39"",""526876""
""focus"",""39"",""528131""
","""event"",""trial"",""time""
""blur"",""39"",""526876""
","""event"",""trial"",""time""
""focus"",""39"",""528131""
","""event"",""trial"",""time""
""fullscreenenter"",""1"",""8454""
","
","","","-1","","","10","12670","3450","&#9826;","elianto","#f73b6a7A","-1","-1","1","0","[]","0","0","3","","","","","","","",""
"pit-trial","67","686804","0.0-2.0-14.1-3.1","battery-v0.2","","""event"",""trial"",""time""
""fullscreenenter"",""1"",""8454""
""blur"",""39"",""526876""
""focus"",""39"",""528131""
","""event"",""trial"",""time""
""blur"",""39"",""526876""
","""event"",""trial"",""time""
""focus"",""39"",""528131""
","""event"",""trial"",""time""
""fullscreenenter"",""1"",""8454""
","
","","","-1","","","10","12670","3450","&#9826;","elianto","#f73b6a7A","-1","-1","1","-10","[]","0","0","3","","","","","","","",""
"pit-trial","68","691660","0.0-2.0-14.1-4.1","battery-v0.2","","""event"",""trial"",""time""
""fullscreenenter"",""1"",""8454""
""blur"",""39"",""526876""
""focus"",""39"",""528131""
","""event"",""trial"",""time""
""blur"",""39"",""526876""
","""event"",""trial"",""time""
""focus"",""39"",""528131""
","""event"",""trial"",""time""
""fullscreenenter"",""1"",""8454""
","
","","","-1","","","10","12670","3450","&#9826;","elianto","#f73b6a7A","-1","-1","1","0","[]","0","0","3","","","","","","","",""
"pit-trial","69","696516","0.0-2.0-14.2-0.2","battery-v0.2","","""event"",""trial"",""time""
""fullscreenenter"",""1"",""8454""
""blur"",""39"",""526876""
""focus"",""39"",""528131""
","""event"",""trial"",""time""
""blur"",""39"",""526876""
","""event"",""trial"",""time""
""focus"",""39"",""528131""
","""event"",""trial"",""time""
""fullscreenenter"",""1"",""8454""
","
","","","-1","","","10","12670","3450","&#9826;","elianto","#f73b6a7A","-1","-1","1","0","[]","0","0","3","","","","","","","",""
"pit-trial","70","701370","0.0-2.0-14.2-1.2","battery-v0.2","","""event"",""trial"",""time""
""fullscreenenter"",""1"",""8454""
""blur"",""39"",""526876""
""focus"",""39"",""528131""
","""event"",""trial"",""time""
""blur"",""39"",""526876""
","""event"",""trial"",""time""
""focus"",""39"",""528131""
","""event"",""trial"",""time""
""fullscreenenter"",""1"",""8454""
","
","","","-1","","","10","12670","3450","&#9826;","elianto","#f73b6a7A","-1","-1","1","0","[]","0","0","3","","","","","","","",""
"pit-trial","71","706237","0.0-2.0-14.2-2.2","battery-v0.2","","""event"",""trial"",""time""
""fullscreenenter"",""1"",""8454""
""blur"",""39"",""526876""
""focus"",""39"",""528131""
","""event"",""trial"",""time""
""blur"",""39"",""526876""
","""event"",""trial"",""time""
""focus"",""39"",""528131""
","""event"",""trial"",""time""
""fullscreenenter"",""1"",""8454""
","
","","","-1","","","10","12670","3450","&#9826;","elianto","#f73b6a7A","-1","-1","1","0","[]","0","0","3","","","","","","","",""
"pit-trial","72","711092","0.0-2.0-14.2-3.2","battery-v0.2","","""event"",""trial"",""time""
""fullscreenenter"",""1"",""8454""
""blur"",""39"",""526876""
""focus"",""39"",""528131""
","""event"",""trial"",""time""
""blur"",""39"",""526876""
","""event"",""trial"",""time""
""focus"",""39"",""528131""
","""event"",""trial"",""time""
""fullscreenenter"",""1"",""8454""
","
","","","-1","","","10","12670","3450","&#9826;","elianto","#f73b6a7A","-1","-1","1","-10","[]","0","0","3","","","","","","","",""
"pit-trial","73","715948","0.0-2.0-14.2-4.2","battery-v0.2","","""event"",""trial"",""time""
""fullscreenenter"",""1"",""8454""
""blur"",""39"",""526876""
""focus"",""39"",""528131""
","""event"",""trial"",""time""
""blur"",""39"",""526876""
","""event"",""trial"",""time""
""focus"",""39"",""528131""
","""event"",""trial"",""time""
""fullscreenenter"",""1"",""8454""
","
","","","-1","","","10","12670","3450","&#9826;","elianto","#f73b6a7A","-1","-1","1","0","[]","0","0","3","","","","","","","",""
"pit-trial","74","720804","0.0-2.0-14.3-0.3","battery-v0.2","","""event"",""trial"",""time""
""fullscreenenter"",""1"",""8454""
""blur"",""39"",""526876""
""focus"",""39"",""528131""
","""event"",""trial"",""time""
""blur"",""39"",""526876""
","""event"",""trial"",""time""
""focus"",""39"",""528131""
","""event"",""trial"",""time""
""fullscreenenter"",""1"",""8454""
","
","","","-1","","","10","12670","3450","&#9826;","elianto","#f73b6a7A","-1","-1","1","0","[]","0","0","3","","","","","","","",""
"pit-trial","75","725660","0.0-2.0-14.3-1.3","battery-v0.2","","""event"",""trial"",""time""
""fullscreenenter"",""1"",""8454""
""blur"",""39"",""526876""
""focus"",""39"",""528131""
","""event"",""trial"",""time""
""blur"",""39"",""526876""
","""event"",""trial"",""time""
""focus"",""39"",""528131""
","""event"",""trial"",""time""
""fullscreenenter"",""1"",""8454""
","
","","","-1","","","10","12670","3450","&#9826;","elianto","#f73b6a7A","-1","-1","1","0","[]","0","0","3","","","","","","","",""
"pit-trial","76","730516","0.0-2.0-14.3-2.3","battery-v0.2","","""event"",""trial"",""time""
""fullscreenenter"",""1"",""8454""
""blur"",""39"",""526876""
""focus"",""39"",""528131""
","""event"",""trial"",""time""
""blur"",""39"",""526876""
","""event"",""trial"",""time""
""focus"",""39"",""528131""
","""event"",""trial"",""time""
""fullscreenenter"",""1"",""8454""
","
","","","-1","","","10","12670","3450","&#9826;","elianto","#f73b6a7A","-1","-1","1","0","[]","0","0","3","","","","","","","",""
"pit-trial","77","735371","0.0-2.0-14.3-3.3","battery-v0.2","","""event"",""trial"",""time""
""fullscreenenter"",""1"",""8454""
""blur"",""39"",""526876""
""focus"",""39"",""528131""
","""event"",""trial"",""time""
""blur"",""39"",""526876""
","""event"",""trial"",""time""
""focus"",""39"",""528131""
","""event"",""trial"",""time""
""fullscreenenter"",""1"",""8454""
","
","","","-1","","","10","12670","3450","&#9826;","elianto","#f73b6a7A","-1","-1","1","-10","[]","0","0","3","","","","","","","",""
"pit-trial","78","740227","0.0-2.0-14.3-4.3","battery-v0.2","","""event"",""trial"",""time""
""fullscreenenter"",""1"",""8454""
""blur"",""39"",""526876""
""focus"",""39"",""528131""
","""event"",""trial"",""time""
""blur"",""39"",""526876""
","""event"",""trial"",""time""
""focus"",""39"",""528131""
","""event"",""trial"",""time""
""fullscreenenter"",""1"",""8454""
","
","","","-1","","","10","12670","3450","&#9826;","elianto","#f73b6a7A","-1","-1","1","0","[]","0","0","3","","","","","","","",""
"call-function","79","740229","0.0-2.0-15.0","battery-v0.2","","""event"",""trial"",""time""
""fullscreenenter"",""1"",""8454""
""blur"",""39"",""526876""
""focus"",""39"",""528131""
","""event"",""trial"",""time""
""blur"",""39"",""526876""
","""event"",""trial"",""time""
""focus"",""39"",""528131""
","""event"",""trial"",""time""
""fullscreenenter"",""1"",""8454""
","
","","","","","","","","","","","","","","","","","","","","","","","","","","",""
"pit-instructions","80","768813","0.0-2.0-16.0","battery-v0.2","","""event"",""trial"",""time""
""fullscreenenter"",""1"",""8454""
""blur"",""39"",""526876""
""focus"",""39"",""528131""
","""event"",""trial"",""time""
""blur"",""39"",""526876""
","""event"",""trial"",""time""
""focus"",""39"",""528131""
","""event"",""trial"",""time""
""fullscreenenter"",""1"",""8454""
","
","","[{""page_index"":0,""viewing_time"":6975.799999952316},{""page_index"":1,""viewing_time"":9825.299999952316},{""page_index"":2,""viewing_time"":5685.900000095367},{""page_index"":3,""viewing_time"":6096.299999952316}]","28583.599999904633","","","","","","","","","","","","","","","","","","","","","","","",""
"pit-trial","81","771778","0.0-2.0-17.0-0.0","battery-v0.2","","""event"",""trial"",""time""
""fullscreenenter"",""1"",""8454""
""blur"",""39"",""526876""
""focus"",""39"",""528131""
","""event"",""trial"",""time""
""blur"",""39"",""526876""
","""event"",""trial"",""time""
""focus"",""39"",""528131""
","""event"",""trial"",""time""
""fullscreenenter"",""1"",""8454""
","
","","","102.60000014305115","","","10","12670","3450","&#9789;","elianto","#f73b6a7A"," "," ","1","0","[954.5]","1","0","4","","","","","","","",""
"pit-trial","82","774640","0.0-2.0-17.0-1.0","battery-v0.2","","""event"",""trial"",""time""
""fullscreenenter"",""1"",""8454""
""blur"",""39"",""526876""
""focus"",""39"",""528131""
","""event"",""trial"",""time""
""blur"",""39"",""526876""
","""event"",""trial"",""time""
""focus"",""39"",""528131""
","""event"",""trial"",""time""
""fullscreenenter"",""1"",""8454""
","
","","","4.299999952316284","","","10","12670","3450","&#9789;","elianto","#f73b6a7A"," "," ","1","0","[854.6000001430511]","1","0","4","","","","","","","",""
"pit-trial","83","779498","0.0-2.0-17.0-2.0","battery-v0.2","","""event"",""trial"",""time""
""fullscreenenter"",""1"",""8454""
""blur"",""39"",""526876""
""focus"",""39"",""528131""
","""event"",""trial"",""time""
""blur"",""39"",""526876""
","""event"",""trial"",""time""
""focus"",""39"",""528131""
","""event"",""trial"",""time""
""fullscreenenter"",""1"",""8454""
","
","","","-1","","","10","12670","3450","&#9789;","elianto","#f73b6a7A"," ","-1","0","-10","[742]","1","0","4","","","","","","","",""
"pit-trial","84","784373","0.0-2.0-17.0-3.0","battery-v0.2","","""event"",""trial"",""time""
""fullscreenenter"",""1"",""8454""
""blur"",""39"",""526876""
""focus"",""39"",""528131""
","""event"",""trial"",""time""
""blur"",""39"",""526876""
","""event"",""trial"",""time""
""focus"",""39"",""528131""
","""event"",""trial"",""time""
""fullscreenenter"",""1"",""8454""
","
","","","-1","","","10","12670","3450","&#9789;","elianto","#f73b6a7A"," ","-1","0","0","[750.5999999046326]","1","0","4","","","","","","","",""
"pit-trial","85","789239","0.0-2.0-17.0-4.0","battery-v0.2","","""event"",""trial"",""time""
""fullscreenenter"",""1"",""8454""
""blur"",""39"",""526876""
""focus"",""39"",""528131""
","""event"",""trial"",""time""
""blur"",""39"",""526876""
","""event"",""trial"",""time""
""focus"",""39"",""528131""
","""event"",""trial"",""time""
""fullscreenenter"",""1"",""8454""
","
","","","-1","","","10","12670","3450","&#9789;","elianto","#f73b6a7A"," ","-1","0","-10","[737.2999999523163]","1","0","4","","","","","","","",""
"pit-trial","86","794130","0.0-2.0-17.1-0.1","battery-v0.2","","""event"",""trial"",""time""
""fullscreenenter"",""1"",""8454""
""blur"",""39"",""526876""
""focus"",""39"",""528131""
","""event"",""trial"",""time""
""blur"",""39"",""526876""
","""event"",""trial"",""time""
""focus"",""39"",""528131""
","""event"",""trial"",""time""
""fullscreenenter"",""1"",""8454""
","
","","","-1","","","10","12670","3450","&#9789;","elianto","#f73b6a7A"," ","-1","0","-10","[768.2999999523163]","1","0","4","","","","","","","",""
"pit-trial","87","797026","0.0-2.0-17.1-1.1","battery-v0.2","","""event"",""trial"",""time""
""fullscreenenter"",""1"",""8454""
""blur"",""39"",""526876""
""focus"",""39"",""528131""
","""event"",""trial"",""time""
""blur"",""39"",""526876""
","""event"",""trial"",""time""
""focus"",""39"",""528131""
","""event"",""trial"",""time""
""fullscreenenter"",""1"",""8454""
","
","","","40.799999952316284","","","10","12670","3450","&#9789;","elianto","#f73b6a7A"," "," ","1","0","[893.8999998569489]","1","0","4","","","","","","","",""
"pit-trial","88","801289","0.0-2.0-17.1-2.1","battery-v0.2","","""event"",""trial"",""time""
""fullscreenenter"",""1"",""8454""
""blur"",""39"",""526876""
""focus"",""39"",""528131""
","""event"",""trial"",""time""
""blur"",""39"",""526876""
","""event"",""trial"",""time""
""focus"",""39"",""528131""
","""event"",""trial"",""time""
""fullscreenenter"",""1"",""8454""
","
","","","1409.2999999523163","","","10","12670","3450","&#9789;","elianto","#f73b6a7A"," "," ","1","0","[2259.4000000953674]","1","0","4","","","","","","","",""
"pit-trial","89","804279","0.0-2.0-17.1-3.1","battery-v0.2","","""event"",""trial"",""time""
""fullscreenenter"",""1"",""8454""
""blur"",""39"",""526876""
""focus"",""39"",""528131""
","""event"",""trial"",""time""
""blur"",""39"",""526876""
","""event"",""trial"",""time""
""focus"",""39"",""528131""
","""event"",""trial"",""time""
""fullscreenenter"",""1"",""8454""
","
","","","135.90000009536743","","","10","12670","3450","&#9789;","elianto","#f73b6a7A"," "," ","1","-10","[986.7999999523163]","1","0","4","","","","","","","",""
"pit-trial","90","807212","0.0-2.0-17.1-4.1","battery-v0.2","","""event"",""trial"",""time""
""fullscreenenter"",""1"",""8454""
""blur"",""39"",""526876""
""focus"",""39"",""528131""
","""event"",""trial"",""time""
""blur"",""39"",""526876""
","""event"",""trial"",""time""
""focus"",""39"",""528131""
","""event"",""trial"",""time""
""fullscreenenter"",""1"",""8454""
","
","","","76.09999990463257","","","10","12670","3450","&#9789;","elianto","#f73b6a7A"," "," ","1","0","[926.7999999523163]","1","0","4","","","","","","","",""
"pit-trial","91","810339","0.0-2.0-17.2-0.2","battery-v0.2","","""event"",""trial"",""time""
""fullscreenenter"",""1"",""8454""
""blur"",""39"",""526876""
""focus"",""39"",""528131""
","""event"",""trial"",""time""
""blur"",""39"",""526876""
","""event"",""trial"",""time""
""focus"",""39"",""528131""
","""event"",""trial"",""time""
""fullscreenenter"",""1"",""8454""
","
","","","269.39999985694885","","","10","12670","3450","&#9789;","elianto","#f73b6a7A"," "," ","1","0","[540.7000000476837,1122.0999999046326]","2","0","4","","","","","","","",""
"pit-trial","92","813313","0.0-2.0-17.2-1.2","battery-v0.2","","""event"",""trial"",""time""
""fullscreenenter"",""1"",""8454""
""blur"",""39"",""526876""
""focus"",""39"",""528131""
","""event"",""trial"",""time""
""blur"",""39"",""526876""
","""event"",""trial"",""time""
""focus"",""39"",""528131""
","""event"",""trial"",""time""
""fullscreenenter"",""1"",""8454""
","
","","","117","","","10","12670","3450","&#9789;","elianto","#f73b6a7A"," "," ","1","0","[967.0999999046326]","1","0","4","","","","","","","",""
"pit-trial","93","816209","0.0-2.0-17.2-2.2","battery-v0.2","","""event"",""trial"",""time""
""fullscreenenter"",""1"",""8454""
""blur"",""39"",""526876""
""focus"",""39"",""528131""
","""event"",""trial"",""time""
""blur"",""39"",""526876""
","""event"",""trial"",""time""
""focus"",""39"",""528131""
","""event"",""trial"",""time""
""fullscreenenter"",""1"",""8454""
","
","","","41.40000009536743","","","10","12670","3450","&#9789;","elianto","#f73b6a7A"," "," ","1","0","[891.5]","1","0","4","","","","","","","",""
"pit-trial","94","821066","0.0-2.0-17.2-3.2","battery-v0.2","","""event"",""trial"",""time""
""fullscreenenter"",""1"",""8454""
""blur"",""39"",""526876""
""focus"",""39"",""528131""
","""event"",""trial"",""time""
""blur"",""39"",""526876""
","""event"",""trial"",""time""
""focus"",""39"",""528131""
","""event"",""trial"",""time""
""fullscreenenter"",""1"",""8454""
","
","","","-1","","","10","12670","3450","&#9789;","elianto","#f73b6a7A"," ","-1","0","0","[767.3999998569489]","1","0","4","","","","","","","",""
"pit-trial","95","825925","0.0-2.0-17.2-4.2","battery-v0.2","","""event"",""trial"",""time""
""fullscreenenter"",""1"",""8454""
""blur"",""39"",""526876""
""focus"",""39"",""528131""
","""event"",""trial"",""time""
""blur"",""39"",""526876""
","""event"",""trial"",""time""
""focus"",""39"",""528131""
","""event"",""trial"",""time""
""fullscreenenter"",""1"",""8454""
","
","","","-1","","","10","12670","3450","&#9789;","elianto","#f73b6a7A"," ","-1","0","-10","[840]","1","0","4","","","","","","","",""
"pit-trial","96","828850","0.0-2.0-17.3-0.3","battery-v0.2","","""event"",""trial"",""time""
""fullscreenenter"",""1"",""8454""
""blur"",""39"",""526876""
""focus"",""39"",""528131""
","""event"",""trial"",""time""
""blur"",""39"",""526876""
","""event"",""trial"",""time""
""focus"",""39"",""528131""
","""event"",""trial"",""time""
""fullscreenenter"",""1"",""8454""
","
","","","68","","","10","12670","3450","&#9789;","elianto","#f73b6a7A"," "," ","1","0","[919.0999999046326]","1","0","4","","","","","","","",""
"pit-trial","97","833479","0.0-2.0-17.3-1.3","battery-v0.2","","""event"",""trial"",""time""
""fullscreenenter"",""1"",""8454""
""blur"",""39"",""526876""
""focus"",""39"",""528131""
","""event"",""trial"",""time""
""blur"",""39"",""526876""
","""event"",""trial"",""time""
""focus"",""39"",""528131""
","""event"",""trial"",""time""
""fullscreenenter"",""1"",""8454""
","
","","","1774.5","","","10","12670","3450","&#9789;","elianto","#f73b6a7A"," "," ","1","0","[2625.300000190735]","1","0","4","","","","","","","",""
"pit-trial","98","836680","0.0-2.0-17.3-2.3","battery-v0.2","","""event"",""trial"",""time""
""fullscreenenter"",""1"",""8454""
""blur"",""39"",""526876""
""focus"",""39"",""528131""
","""event"",""trial"",""time""
""blur"",""39"",""526876""
","""event"",""trial"",""time""
""focus"",""39"",""528131""
","""event"",""trial"",""time""
""fullscreenenter"",""1"",""8454""
","
","","","345.60000014305115","","","10","12670","3450","&#9789;","elianto","#f73b6a7A"," "," ","1","0","[1196.6999998092651]","1","0","4","","","","","","","",""
"pit-trial","99","840403","0.0-2.0-17.3-3.3","battery-v0.2","","""event"",""trial"",""time""
""fullscreenenter"",""1"",""8454""
""blur"",""39"",""526876""
""focus"",""39"",""528131""
","""event"",""trial"",""time""
""blur"",""39"",""526876""
","""event"",""trial"",""time""
""focus"",""39"",""528131""
","""event"",""trial"",""time""
""fullscreenenter"",""1"",""8454""
","
","","","867.7999999523163","","","10","12670","3450","&#9789;","elianto","#f73b6a7A"," "," ","1","-10","[1718.7000000476837]","1","0","4","","","","","","","",""
"pit-trial","100","844241","0.0-2.0-17.3-4.3","battery-v0.2","","""event"",""trial"",""time""
""fullscreenenter"",""1"",""8454""
""blur"",""39"",""526876""
""focus"",""39"",""528131""
","""event"",""trial"",""time""
""blur"",""39"",""526876""
","""event"",""trial"",""time""
""focus"",""39"",""528131""
","""event"",""trial"",""time""
""fullscreenenter"",""1"",""8454""
","
","","","982.2000000476837","","","10","12670","3450","&#9789;","elianto","#f73b6a7A"," "," ","1","0","[1833.1000001430511]","1","0","4","","","","","","","",""
"call-function","101","844244","0.0-2.0-18.0","battery-v0.2","","""event"",""trial"",""time""
""fullscreenenter"",""1"",""8454""
""blur"",""39"",""526876""
""focus"",""39"",""528131""
","""event"",""trial"",""time""
""blur"",""39"",""526876""
","""event"",""trial"",""time""
""focus"",""39"",""528131""
","""event"",""trial"",""time""
""fullscreenenter"",""1"",""8454""
","
","","","","","","","","","","","","","","","","","","","","","","","","","","",""
"pit-instructions","102","924663","0.0-2.0-19.0","battery-v0.2","","""event"",""trial"",""time""
""fullscreenenter"",""1"",""8454""
""blur"",""39"",""526876""
""focus"",""39"",""528131""
","""event"",""trial"",""time""
""blur"",""39"",""526876""
","""event"",""trial"",""time""
""focus"",""39"",""528131""
","""event"",""trial"",""time""
""fullscreenenter"",""1"",""8454""
","
","","[{""page_index"":0,""viewing_time"":10643.200000047684},{""page_index"":1,""viewing_time"":6235.399999856949},{""page_index"":2,""viewing_time"":16170.100000143051},{""page_index"":3,""viewing_time"":7319.200000047684},{""page_index"":4,""viewing_time"":8502.299999952316},{""page_index"":5,""viewing_time"":8094.399999856949},{""page_index"":6,""viewing_time"":9266.800000190735},{""page_index"":7,""viewing_time"":9518.599999904633},{""page_index"":8,""viewing_time"":4666.799999952316}]","80417.40000009537","","","","","","","","","","","","","","","","","","","","","","","",""
"pit-comprehension","103","930452","0.0-2.0-20.0-0.0","battery-v0.2","","""event"",""trial"",""time""
""fullscreenenter"",""1"",""8454""
""blur"",""39"",""526876""
""focus"",""39"",""528131""
","""event"",""trial"",""time""
""blur"",""39"",""526876""
","""event"",""trial"",""time""
""focus"",""39"",""528131""
","""event"",""trial"",""time""
""fullscreenenter"",""1"",""8454""
","
","","","5785.299999952316","[""SPACE""]","0","10","12670","3450","","","","","","","","","","","","","","","","","","",""
"pit-instructions","104","934946","0.0-2.0-20.0-1.0","battery-v0.2","","""event"",""trial"",""time""
""fullscreenenter"",""1"",""8454""
""blur"",""39"",""526876""
""focus"",""39"",""528131""
","""event"",""trial"",""time""
""blur"",""39"",""526876""
","""event"",""trial"",""time""
""focus"",""39"",""528131""
","""event"",""trial"",""time""
""fullscreenenter"",""1"",""8454""
","
","","[{""page_index"":0,""viewing_time"":4463.100000143051}]","4463.400000095367","","","","","","","","","","","","","","","","","","","","","","","",""
"pit-comprehension","105","942885","0.0-2.0-21.0-0.0","battery-v0.2","","""event"",""trial"",""time""
""fullscreenenter"",""1"",""8454""
""blur"",""39"",""526876""
""focus"",""39"",""528131""
","""event"",""trial"",""time""
""blur"",""39"",""526876""
","""event"",""trial"",""time""
""focus"",""39"",""528131""
","""event"",""trial"",""time""
""fullscreenenter"",""1"",""8454""
","
","","","7937","[""10""]","0","10","12670","3450","","","","","","","","","","","","","","","","","","",""
"pit-instructions","106","944715","0.0-2.0-21.0-1.0","battery-v0.2","","""event"",""trial"",""time""
""fullscreenenter"",""1"",""8454""
""blur"",""39"",""526876""
""focus"",""39"",""528131""
","""event"",""trial"",""time""
""blur"",""39"",""526876""
","""event"",""trial"",""time""
""focus"",""39"",""528131""
","""event"",""trial"",""time""
""fullscreenenter"",""1"",""8454""
","
","","[{""page_index"":0,""viewing_time"":1804.2000000476837}]","1804.5","","","","","","","","","","","","","","","","","","","","","","","",""
"pit-comprehension","107","956135","0.0-2.0-22.0-0.0","battery-v0.2","","""event"",""trial"",""time""
""fullscreenenter"",""1"",""8454""
""blur"",""39"",""526876""
""focus"",""39"",""528131""
","""event"",""trial"",""time""
""blur"",""39"",""526876""
","""event"",""trial"",""time""
""focus"",""39"",""528131""
","""event"",""trial"",""time""
""fullscreenenter"",""1"",""8454""
","
","","","11417.300000190735","[""0""]","0","10","12670","3450","","","","","","","","","","","","","","","","","","",""
"pit-instructions","108","957948","0.0-2.0-22.0-1.0","battery-v0.2","","""event"",""trial"",""time""
""fullscreenenter"",""1"",""8454""
""blur"",""39"",""526876""
""focus"",""39"",""528131""
","""event"",""trial"",""time""
""blur"",""39"",""526876""
","""event"",""trial"",""time""
""focus"",""39"",""528131""
","""event"",""trial"",""time""
""fullscreenenter"",""1"",""8454""
","
","","[{""page_index"":0,""viewing_time"":1790.3999998569489}]","1790.7000000476837","","","","","","","","","","","","","","","","","","","","","","","",""
"pit-comprehension","109","970190","0.0-2.0-23.0-0.0","battery-v0.2","","""event"",""trial"",""time""
""fullscreenenter"",""1"",""8454""
""blur"",""39"",""526876""
""focus"",""39"",""528131""
","""event"",""trial"",""time""
""blur"",""39"",""526876""
","""event"",""trial"",""time""
""focus"",""39"",""528131""
","""event"",""trial"",""time""
""fullscreenenter"",""1"",""8454""
","
","","","12239.699999809265","[""True""]","0","10","12670","3450","","","","","","","","","","","","","","","","","","",""
"pit-instructions","110","972237","0.0-2.0-23.0-1.0","battery-v0.2","","""event"",""trial"",""time""
""fullscreenenter"",""1"",""8454""
""blur"",""39"",""526876""
""focus"",""39"",""528131""
","""event"",""trial"",""time""
""blur"",""39"",""526876""
","""event"",""trial"",""time""
""focus"",""39"",""528131""
","""event"",""trial"",""time""
""fullscreenenter"",""1"",""8454""
","
","","[{""page_index"":0,""viewing_time"":2026.1000001430511}]","2026.2999999523163","","","","","","","","","","","","","","","","","","","","","","","",""
"pit-comprehension","111","980461","0.0-2.0-24.0-0.0","battery-v0.2","","""event"",""trial"",""time""
""fullscreenenter"",""1"",""8454""
""blur"",""39"",""526876""
""focus"",""39"",""528131""
","""event"",""trial"",""time""
""blur"",""39"",""526876""
","""event"",""trial"",""time""
""focus"",""39"",""528131""
","""event"",""trial"",""time""
""fullscreenenter"",""1"",""8454""
","
","","","8221.299999952316","[""True""]","0","10","12670","3450","","","","","","","","","","","","","","","","","","",""
"pit-instructions","112","981994","0.0-2.0-24.0-1.0","battery-v0.2","","""event"",""trial"",""time""
""fullscreenenter"",""1"",""8454""
""blur"",""39"",""526876""
""focus"",""39"",""528131""
","""event"",""trial"",""time""
""blur"",""39"",""526876""
","""event"",""trial"",""time""
""focus"",""39"",""528131""
","""event"",""trial"",""time""
""fullscreenenter"",""1"",""8454""
","
","","[{""page_index"":0,""viewing_time"":1513.1000001430511}]","1513.2000000476837","","","","","","","","","","","","","","","","","","","","","","","",""
"pit-comprehension","113","988974","0.0-2.0-25.0-0.0","battery-v0.2","","""event"",""trial"",""time""
""fullscreenenter"",""1"",""8454""
""blur"",""39"",""526876""
""focus"",""39"",""528131""
","""event"",""trial"",""time""
""blur"",""39"",""526876""
","""event"",""trial"",""time""
""focus"",""39"",""528131""
","""event"",""trial"",""time""
""fullscreenenter"",""1"",""8454""
","
","","","6978.199999809265","[""True""]","0","10","12670","3450","","","","","","","","","","","","","","","","","","",""
"pit-instructions","114","990695","0.0-2.0-25.0-1.0","battery-v0.2","","""event"",""trial"",""time""
""fullscreenenter"",""1"",""8454""
""blur"",""39"",""526876""
""focus"",""39"",""528131""
","""event"",""trial"",""time""
""blur"",""39"",""526876""
","""event"",""trial"",""time""
""focus"",""39"",""528131""
","""event"",""trial"",""time""
""fullscreenenter"",""1"",""8454""
","
","","[{""page_index"":0,""viewing_time"":1695.3999998569489}]","1695.5999999046326","","","","","","","","","","","","","","","","","","","","","","","",""
"pit-comprehension","115","995746","0.0-2.0-26.0-0.0","battery-v0.2","","""event"",""trial"",""time""
""fullscreenenter"",""1"",""8454""
""blur"",""39"",""526876""
""focus"",""39"",""528131""
","""event"",""trial"",""time""
""blur"",""39"",""526876""
","""event"",""trial"",""time""
""focus"",""39"",""528131""
","""event"",""trial"",""time""
""fullscreenenter"",""1"",""8454""
","
","","","5048.799999952316","[""False""]","0","10","12670","3450","","","","","","","","","","","","","","","","","","",""
"pit-instructions","116","997628","0.0-2.0-26.0-1.0","battery-v0.2","","""event"",""trial"",""time""
""fullscreenenter"",""1"",""8454""
""blur"",""39"",""526876""
""focus"",""39"",""528131""
","""event"",""trial"",""time""
""blur"",""39"",""526876""
","""event"",""trial"",""time""
""focus"",""39"",""528131""
","""event"",""trial"",""time""
""fullscreenenter"",""1"",""8454""
","
","","[{""page_index"":0,""viewing_time"":1859.8999998569489}]","1860.2000000476837","","","","","","","","","","","","","","","","","","","","","","","",""
"pit-instructions","117","1016973","0.0-3.0","battery-v0.2","","""event"",""trial"",""time""
""fullscreenenter"",""1"",""8454""
""blur"",""39"",""526876""
""focus"",""39"",""528131""
","""event"",""trial"",""time""
""blur"",""39"",""526876""
","""event"",""trial"",""time""
""focus"",""39"",""528131""
","""event"",""trial"",""time""
""fullscreenenter"",""1"",""8454""
","
","","[{""page_index"":0,""viewing_time"":6686.299999952316},{""page_index"":1,""viewing_time"":5524.600000143051},{""page_index"":2,""viewing_time"":7132.599999904633}]","19343.799999952316","","","","","","","","","","","","","","","","","","","","","","","",""
"pit-trial","118","1020242","0.0-4.0","battery-v0.2","","""event"",""trial"",""time""
""fullscreenenter"",""1"",""8454""
""blur"",""39"",""526876""
""focus"",""39"",""528131""
","""event"",""trial"",""time""
""blur"",""39"",""526876""
","""event"",""trial"",""time""
""focus"",""39"",""528131""
","""event"",""trial"",""time""
""fullscreenenter"",""1"",""8454""
","
","","","406.7000000476837","","","10","12670","3450","&#9733;","elianto","#3366ff99","-1"," ","0","0","[1257.2000000476837]","1","1","","","12670","1","2","2","win","no-go","0"
"pit-trial","119","1023273","0.0-5.0","battery-v0.2","","""event"",""trial"",""time""
""fullscreenenter"",""1"",""8454""
""blur"",""39"",""526876""
""focus"",""39"",""528131""
","""event"",""trial"",""time""
""blur"",""39"",""526876""
","""event"",""trial"",""time""
""focus"",""39"",""528131""
","""event"",""trial"",""time""
""fullscreenenter"",""1"",""8454""
","
","","","167.20000004768372","","","10","12670","3450","&#9730;","elianto","#3366ff99"," "," ","1","0","[1018.7999999523163]","1","1","","","12670","2","1","1","win","go","1"
"pit-trial","120","1026939","0.0-6.0","battery-v0.2","","""event"",""trial"",""time""
""fullscreenenter"",""1"",""8454""
""blur"",""39"",""526876""
""focus"",""39"",""528131""
","""event"",""trial"",""time""
""blur"",""39"",""526876""
","""event"",""trial"",""time""
""focus"",""39"",""528131""
","""event"",""trial"",""time""
""fullscreenenter"",""1"",""8454""
","
","","","797.2999999523163","","","10","12670","3450","&#9728;","elianto","#f73b6a7A","-1"," ","0","0","[1649.2000000476837]","1","1","","","12670","3","0","4","lose","no-go","1"
"pit-trial","121","1030564","0.0-7.0","battery-v0.2","","""event"",""trial"",""time""
""fullscreenenter"",""1"",""8454""
""blur"",""39"",""526876""
""focus"",""39"",""528131""
","""event"",""trial"",""time""
""blur"",""39"",""526876""
","""event"",""trial"",""time""
""focus"",""39"",""528131""
","""event"",""trial"",""time""
""fullscreenenter"",""1"",""8454""
","
","","","757.1000001430511","","","10","12670","3450","&#9752;","elianto","#f73b6a7A"," "," ","1","0","[1610.4000000953674]","1","1","","","12670","4","3","3","lose","go","0"
"pit-trial","122","1033871","0.0-8.0","battery-v0.2","","""event"",""trial"",""time""
""fullscreenenter"",""1"",""8454""
""blur"",""39"",""526876""
""focus"",""39"",""528131""
","""event"",""trial"",""time""
""blur"",""39"",""526876""
","""event"",""trial"",""time""
""focus"",""39"",""528131""
","""event"",""trial"",""time""
""fullscreenenter"",""1"",""8454""
","
","","","445.59999990463257","","","10","12670","3450","&#9730;","elianto","#3366ff99"," "," ","1","+10","[1298]","1","1","","","12670","5","1","1","win","go","0"
"pit-trial","123","1038735","0.0-9.0","battery-v0.2","","""event"",""trial"",""time""
""fullscreenenter"",""1"",""8454""
""blur"",""39"",""526876""
""focus"",""39"",""528131""
","""event"",""trial"",""time""
""blur"",""39"",""526876""
","""event"",""trial"",""time""
""focus"",""39"",""528131""
","""event"",""trial"",""time""
""fullscreenenter"",""1"",""8454""
","
","","","-1","","","10","12670","3450","&#9752;","elianto","#f73b6a7A"," ","-1","0","-10","[803.4000000953674]","1","1","","","12670","6","3","3","lose","go","0"
"pit-trial","124","1041997","0.0-10.0","battery-v0.2","","""event"",""trial"",""time""
""fullscreenenter"",""1"",""8454""
""blur"",""39"",""526876""
""focus"",""39"",""528131""
","""event"",""trial"",""time""
""blur"",""39"",""526876""
","""event"",""trial"",""time""
""focus"",""39"",""528131""
","""event"",""trial"",""time""
""fullscreenenter"",""1"",""8454""
","
","","","395.09999990463257","","","10","12670","3450","&#9728;","elianto","#f73b6a7A","-1"," ","0","-10","[1246.2999999523163]","1","1","","","12670","7","0","4","lose","no-go","0"
"pit-trial","125","1045657","0.0-11.0","battery-v0.2","","""event"",""trial"",""time""
""fullscreenenter"",""1"",""8454""
""blur"",""39"",""526876""
""focus"",""39"",""528131""
","""event"",""trial"",""time""
""blur"",""39"",""526876""
","""event"",""trial"",""time""
""focus"",""39"",""528131""
","""event"",""trial"",""time""
""fullscreenenter"",""1"",""8454""
","
","","","800.0999999046326","","","10","12670","3450","&#9733;","elianto","#3366ff99","-1"," ","0","0","[1652.9000000953674]","1","1","","","12670","8","2","2","win","no-go","0"
"pit-trial","126","1049878","0.0-12.0","battery-v0.2","","""event"",""trial"",""time""
""fullscreenenter"",""1"",""8454""
""blur"",""39"",""526876""
""focus"",""39"",""528131""
","""event"",""trial"",""time""
""blur"",""39"",""526876""
","""event"",""trial"",""time""
""focus"",""39"",""528131""
","""event"",""trial"",""time""
""fullscreenenter"",""1"",""8454""
","
","","","1361.2999999523163","","","10","12670","3450","&#9752;","elianto","#f73b6a7A"," "," ","1","0","[2213.4000000953674]","1","1","","","12670","9","3","3","lose","go","0"
"pit-trial","127","1053846","0.0-13.0","battery-v0.2","","""event"",""trial"",""time""
""fullscreenenter"",""1"",""8454""
""blur"",""39"",""526876""
""focus"",""39"",""528131""
","""event"",""trial"",""time""
""blur"",""39"",""526876""
","""event"",""trial"",""time""
""focus"",""39"",""528131""
","""event"",""trial"",""time""
""fullscreenenter"",""1"",""8454""
","
","","","1115.3999998569489","","","10","12670","3450","&#9730;","elianto","#3366ff99"," "," ","1","+10","[1966.2999999523163]","1","1","","","12670","10","1","1","win","go","0"
"pit-trial","128","1058708","0.0-14.0","battery-v0.2","","""event"",""trial"",""time""
""fullscreenenter"",""1"",""8454""
""blur"",""39"",""526876""
""focus"",""39"",""528131""
","""event"",""trial"",""time""
""blur"",""39"",""526876""
","""event"",""trial"",""time""
""focus"",""39"",""528131""
","""event"",""trial"",""time""
""fullscreenenter"",""1"",""8454""
","
","","","-1","","","10","12670","3450","&#9733;","elianto","#3366ff99","-1","-1","1","+10","[]","0","1","","","12670","11","2","2","win","no-go","0"
"pit-trial","129","1063563","0.0-15.0","battery-v0.2","","""event"",""trial"",""time""
""fullscreenenter"",""1"",""8454""
""blur"",""39"",""526876""
""focus"",""39"",""528131""
","""event"",""trial"",""time""
""blur"",""39"",""526876""
","""event"",""trial"",""time""
""focus"",""39"",""528131""
","""event"",""trial"",""time""
""fullscreenenter"",""1"",""8454""
","
","","","-1","","","10","12670","3450","&#9728;","elianto","#f73b6a7A","-1","-1","1","0","[]","0","1","","","12670","12","0","4","lose","no-go","0"
"pit-trial","130","1068419","0.0-16.0","battery-v0.2","","""event"",""trial"",""time""
""fullscreenenter"",""1"",""8454""
""blur"",""39"",""526876""
""focus"",""39"",""528131""
","""event"",""trial"",""time""
""blur"",""39"",""526876""
","""event"",""trial"",""time""
""focus"",""39"",""528131""
","""event"",""trial"",""time""
""fullscreenenter"",""1"",""8454""
","
","","","-1","","","10","12670","3450","&#9733;","elianto","#3366ff99","-1","-1","1","+10","[]","0","1","","","12670","13","2","2","win","no-go","0"
"pit-trial","131","1073276","0.0-17.0","battery-v0.2","","""event"",""trial"",""time""
""fullscreenenter"",""1"",""8454""
""blur"",""39"",""526876""
""focus"",""39"",""528131""
","""event"",""trial"",""time""
""blur"",""39"",""526876""
","""event"",""trial"",""time""
""focus"",""39"",""528131""
","""event"",""trial"",""time""
""fullscreenenter"",""1"",""8454""
","
","","","-1","","","10","12670","3450","&#9752;","elianto","#f73b6a7A"," ","-1","0","0","[]","0","1","","","12670","14","3","3","lose","go","1"
"pit-trial","132","1077666","0.0-18.0","battery-v0.2","","""event"",""trial"",""time""
""fullscreenenter"",""1"",""8454""
""blur"",""39"",""526876""
""focus"",""39"",""528131""
","""event"",""trial"",""time""
""blur"",""39"",""526876""
","""event"",""trial"",""time""
""focus"",""39"",""528131""
","""event"",""trial"",""time""
""fullscreenenter"",""1"",""8454""
","
","","","1536.2999999523163","","","10","12670","3450","&#9730;","elianto","#3366ff99"," "," ","1","+10","[2386.7000000476837]","1","1","","","12670","15","1","1","win","go","0"
"pit-trial","133","1082522","0.0-19.0","battery-v0.2","","""event"",""trial"",""time""
""fullscreenenter"",""1"",""8454""
""blur"",""39"",""526876""
""focus"",""39"",""528131""
","""event"",""trial"",""time""
""blur"",""39"",""526876""
","""event"",""trial"",""time""
""focus"",""39"",""528131""
","""event"",""trial"",""time""
""fullscreenenter"",""1"",""8454""
","
","","","-1","","","10","12670","3450","&#9728;","elianto","#f73b6a7A","-1","-1","1","0","[]","0","1","","","12670","16","0","4","lose","no-go","0"
"pit-trial","134","1087377","0.0-20.0","battery-v0.2","","""event"",""trial"",""time""
""fullscreenenter"",""1"",""8454""
""blur"",""39"",""526876""
""focus"",""39"",""528131""
","""event"",""trial"",""time""
""blur"",""39"",""526876""
","""event"",""trial"",""time""
""focus"",""39"",""528131""
","""event"",""trial"",""time""
""fullscreenenter"",""1"",""8454""
","
","","","-1","","","10","12670","3450","&#9733;","elianto","#3366ff99","-1","-1","1","0","[]","0","1","","","12670","17","2","2","win","no-go","1"
"pit-trial","135","1092233","0.0-21.0","battery-v0.2","","""event"",""trial"",""time""
""fullscreenenter"",""1"",""8454""
""blur"",""39"",""526876""
""focus"",""39"",""528131""
","""event"",""trial"",""time""
""blur"",""39"",""526876""
","""event"",""trial"",""time""
""focus"",""39"",""528131""
","""event"",""trial"",""time""
""fullscreenenter"",""1"",""8454""
","
","","","-1","","","10","12670","3450","&#9752;","elianto","#f73b6a7A"," ","-1","0","0","[]","0","1","","","12670","18","3","3","lose","go","1"
"pit-trial","136","1097088","0.0-22.0","battery-v0.2","","""event"",""trial"",""time""
""fullscreenenter"",""1"",""8454""
""blur"",""39"",""526876""
""focus"",""39"",""528131""
","""event"",""trial"",""time""
""blur"",""39"",""526876""
","""event"",""trial"",""time""
""focus"",""39"",""528131""
","""event"",""trial"",""time""
""fullscreenenter"",""1"",""8454""
","
","","","-1","","","10","12670","3450","&#9728;","elianto","#f73b6a7A","-1","-1","1","0","[]","0","1","","","12670","19","0","4","lose","no-go","0"
"pit-trial","137","1100910","0.0-23.0","battery-v0.2","","""event"",""trial"",""time""
""fullscreenenter"",""1"",""8454""
""blur"",""39"",""526876""
""focus"",""39"",""528131""
","""event"",""trial"",""time""
""blur"",""39"",""526876""
","""event"",""trial"",""time""
""focus"",""39"",""528131""
","""event"",""trial"",""time""
""fullscreenenter"",""1"",""8454""
","
","","","967.5999999046326","","","10","12670","3450","&#9730;","elianto","#3366ff99"," "," ","1","0","[1818.4000000953674]","1","1","","","12670","20","1","1","win","go","1"
"pit-instructions","138","1115005","0.0-24.0","battery-v0.2","","""event"",""trial"",""time""
""fullscreenenter"",""1"",""8454""
""blur"",""39"",""526876""
""focus"",""39"",""528131""
","""event"",""trial"",""time""
""blur"",""39"",""526876""
","""event"",""trial"",""time""
""focus"",""39"",""528131""
","""event"",""trial"",""time""
""fullscreenenter"",""1"",""8454""
","
","","[{""page_index"":0,""viewing_time"":5743.799999952316},{""page_index"":1,""viewing_time"":8347.900000095367}]","14092.200000047684","","","","","","","","","","","","","","","","","","","","","","","",""
"pit-trial","139","1119053","0.0-25.0","battery-v0.2","","""event"",""trial"",""time""
""fullscreenenter"",""1"",""8454""
""blur"",""39"",""526876""
""focus"",""39"",""528131""
","""event"",""trial"",""time""
""blur"",""39"",""526876""
","""event"",""trial"",""time""
""focus"",""39"",""528131""
","""event"",""trial"",""time""
""fullscreenenter"",""1"",""8454""
","
","","","1190","","","10","12670","3450","n","elianto","#f73b6a7A"," "," ","1","0","[2041.2000000476837]","1","2","","","12670","21","0","3","lose","go","0"
"pit-trial","140","1122819","0.0-26.0","battery-v0.2","","""event"",""trial"",""time""
""fullscreenenter"",""1"",""8454""
""blur"",""39"",""526876""
""focus"",""39"",""528131""
","""event"",""trial"",""time""
""blur"",""39"",""526876""
","""event"",""trial"",""time""
""focus"",""39"",""528131""
","""event"",""trial"",""time""
""fullscreenenter"",""1"",""8454""
","
","","","904.4000000953674","","","10","12670","3450","b","elianto","#f73b6a7A","-1"," ","0","-10","[1756.5999999046326]","1","2","","","12670","22","3","4","lose","no-go","0"
"pit-trial","141","1126888","0.0-27.0","battery-v0.2","","""event"",""trial"",""time""
""fullscreenenter"",""1"",""8454""
""blur"",""39"",""526876""
""focus"",""39"",""528131""
","""event"",""trial"",""time""
""blur"",""39"",""526876""
","""event"",""trial"",""time""
""focus"",""39"",""528131""
","""event"",""trial"",""time""
""fullscreenenter"",""1"",""8454""
","
","","","1208.4000000953674","","","10","12670","3450","t","elianto","#f73b6a7A"," "," ","1","0","[2059.4000000953674]","1","2","","","12670","23","2","3","lose","go","0"
"pit-trial","142","1130940","0.0-28.0","battery-v0.2","","""event"",""trial"",""time""
""fullscreenenter"",""1"",""8454""
""blur"",""39"",""526876""
""focus"",""39"",""528131""
","""event"",""trial"",""time""
""blur"",""39"",""526876""
","""event"",""trial"",""time""
""focus"",""39"",""528131""
","""event"",""trial"",""time""
""fullscreenenter"",""1"",""8454""
","
","","","1184.7000000476837","","","10","12670","3450","f","elianto","#3366ff99","-1"," ","0","0","[2039.4000000953674]","1","2","","","12670","24","1","2","win","no-go","0"
"pit-trial","143","1135814","0.0-29.0","battery-v0.2","","""event"",""trial"",""time""
""fullscreenenter"",""1"",""8454""
""blur"",""39"",""526876""
""focus"",""39"",""528131""
","""event"",""trial"",""time""
""blur"",""39"",""526876""
","""event"",""trial"",""time""
""focus"",""39"",""528131""
","""event"",""trial"",""time""
""fullscreenenter"",""1"",""8454""
","
","","","-1","","","10","12670","3450","n","elianto","#f73b6a7A"," ","-1","0","-10","[]","0","2","","","12670","25","0","3","lose","go","0"
"pit-trial","144","1140225","0.0-30.0","battery-v0.2","","""event"",""trial"",""time""
""fullscreenenter"",""1"",""8454""
""blur"",""39"",""526876""
""focus"",""39"",""528131""
","""event"",""trial"",""time""
""blur"",""39"",""526876""
","""event"",""trial"",""time""
""focus"",""39"",""528131""
","""event"",""trial"",""time""
""fullscreenenter"",""1"",""8454""
","
","","","1549.2999999523163","","","10","12670","3450","f","elianto","#3366ff99","-1"," ","0","0","[2399.899999856949]","1","2","","","12670","26","1","2","win","no-go","0"
"pit-trial","145","1145093","0.0-31.0","battery-v0.2","","""event"",""trial"",""time""
""fullscreenenter"",""1"",""8454""
""blur"",""39"",""526876""
""focus"",""39"",""528131""
","""event"",""trial"",""time""
""blur"",""39"",""526876""
","""event"",""trial"",""time""
""focus"",""39"",""528131""
","""event"",""trial"",""time""
""fullscreenenter"",""1"",""8454""
","
","","","-1","","","10","12670","3450","t","elianto","#f73b6a7A"," ","-1","0","0","[]","0","2","","","12670","27","2","3","lose","go","1"
"pit-trial","146","1149954","0.0-32.0","battery-v0.2","","""event"",""trial"",""time""
""fullscreenenter"",""1"",""8454""
""blur"",""39"",""526876""
""focus"",""39"",""528131""
","""event"",""trial"",""time""
""blur"",""39"",""526876""
","""event"",""trial"",""time""
""focus"",""39"",""528131""
","""event"",""trial"",""time""
""fullscreenenter"",""1"",""8454""
","
","","","-1","","","10","12670","3450","b","elianto","#f73b6a7A","-1","-1","1","0","[]","0","2","","","12670","28","3","4","lose","no-go","0"
"pit-trial","147","1153873","0.0-33.0","battery-v0.2","","""event"",""trial"",""time""
""fullscreenenter"",""1"",""8454""
""blur"",""39"",""526876""
""focus"",""39"",""528131""
","""event"",""trial"",""time""
""blur"",""39"",""526876""
","""event"",""trial"",""time""
""focus"",""39"",""528131""
","""event"",""trial"",""time""
""fullscreenenter"",""1"",""8454""
","
","","","1063.1000001430511","","","10","12670","3450","f","elianto","#3366ff99","-1"," ","0","0","[1913.2999999523163]","1","2","","","12670","29","1","2","win","no-go","0"
"pit-trial","148","1158213","0.0-34.0","battery-v0.2","","""event"",""trial"",""time""
""fullscreenenter"",""1"",""8454""
""blur"",""39"",""526876""
""focus"",""39"",""528131""
","""event"",""trial"",""time""
""blur"",""39"",""526876""
","""event"",""trial"",""time""
""focus"",""39"",""528131""
","""event"",""trial"",""time""
""fullscreenenter"",""1"",""8454""
","
","","","1486.4000000953674","","","10","12670","3450","n","elianto","#f73b6a7A"," "," ","1","0","[2336.2999999523163]","1","2","","","12670","30","0","3","lose","go","0"
"pit-trial","149","1162607","0.0-35.0","battery-v0.2","","""event"",""trial"",""time""
""fullscreenenter"",""1"",""8454""
""blur"",""39"",""526876""
""focus"",""39"",""528131""
","""event"",""trial"",""time""
""blur"",""39"",""526876""
","""event"",""trial"",""time""
""focus"",""39"",""528131""
","""event"",""trial"",""time""
""fullscreenenter"",""1"",""8454""
","
","","","1537.7999999523163","","","10","12670","3450","t","elianto","#f73b6a7A"," "," ","1","-10","[2389.5999999046326,3196.5]","2","2","","","12670","31","2","3","lose","go","1"
"pit-trial","150","1167462","0.0-36.0","battery-v0.2","","""event"",""trial"",""time""
""fullscreenenter"",""1"",""8454""
""blur"",""39"",""526876""
""focus"",""39"",""528131""
","""event"",""trial"",""time""
""blur"",""39"",""526876""
","""event"",""trial"",""time""
""focus"",""39"",""528131""
","""event"",""trial"",""time""
""fullscreenenter"",""1"",""8454""
","
","","","-1","","","10","12670","3450","b","elianto","#f73b6a7A","-1","-1","1","0","[]","0","2","","","12670","32","3","4","lose","no-go","0"
"pit-trial","151","1172319","0.0-37.0","battery-v0.2","","""event"",""trial"",""time""
""fullscreenenter"",""1"",""8454""
""blur"",""39"",""526876""
""focus"",""39"",""528131""
","""event"",""trial"",""time""
""blur"",""39"",""526876""
","""event"",""trial"",""time""
""focus"",""39"",""528131""
","""event"",""trial"",""time""
""fullscreenenter"",""1"",""8454""
","
","","","-1","","","10","12670","3450","f","elianto","#3366ff99","-1","-1","1","0","[2891.300000190735]","1","2","","","12670","33","1","2","win","no-go","1"
"pit-trial","152","1177180","0.0-38.0","battery-v0.2","","""event"",""trial"",""time""
""fullscreenenter"",""1"",""8454""
""blur"",""39"",""526876""
""focus"",""39"",""528131""
","""event"",""trial"",""time""
""blur"",""39"",""526876""
","""event"",""trial"",""time""
""focus"",""39"",""528131""
","""event"",""trial"",""time""
""fullscreenenter"",""1"",""8454""
","
","","","-1","","","10","12670","3450","b","elianto","#f73b6a7A","-1","-1","1","0","[]","0","2","","","12670","34","3","4","lose","no-go","0"
"pit-trial","153","1181680","0.0-39.0","battery-v0.2","","""event"",""trial"",""time""
""fullscreenenter"",""1"",""8454""
""blur"",""39"",""526876""
""focus"",""39"",""528131""
","""event"",""trial"",""time""
""blur"",""39"",""526876""
","""event"",""trial"",""time""
""focus"",""39"",""528131""
","""event"",""trial"",""time""
""fullscreenenter"",""1"",""8454""
","
","","","1647.2999999523163","","","10","12670","3450","n","elianto","#f73b6a7A"," "," ","1","0","[2497.2000000476837]","1","2","","","12670","35","0","3","lose","go","0"
"pit-trial","154","1186535","0.0-40.0","battery-v0.2","","""event"",""trial"",""time""
""fullscreenenter"",""1"",""8454""
""blur"",""39"",""526876""
""focus"",""39"",""528131""
","""event"",""trial"",""time""
""blur"",""39"",""526876""
","""event"",""trial"",""time""
""focus"",""39"",""528131""
","""event"",""trial"",""time""
""fullscreenenter"",""1"",""8454""
","
","","","-1","","","10","12670","3450","t","elianto","#f73b6a7A"," ","-1","0","0","[]","0","2","","","12670","36","2","3","lose","go","1"
"pit-trial","155","1191393","0.0-41.0","battery-v0.2","","""event"",""trial"",""time""
""fullscreenenter"",""1"",""8454""
""blur"",""39"",""526876""
""focus"",""39"",""528131""
","""event"",""trial"",""time""
""blur"",""39"",""526876""
","""event"",""trial"",""time""
""focus"",""39"",""528131""
","""event"",""trial"",""time""
""fullscreenenter"",""1"",""8454""
","
","","","-1","","","10","12670","3450","t","elianto","#f73b6a7A"," ","-1","0","-10","[]","0","2","","","12670","37","2","3","lose","go","0"
"pit-trial","156","1196144","0.0-42.0","battery-v0.2","","""event"",""trial"",""time""
""fullscreenenter"",""1"",""8454""
""blur"",""39"",""526876""
""focus"",""39"",""528131""
","""event"",""trial"",""time""
""blur"",""39"",""526876""
","""event"",""trial"",""time""
""focus"",""39"",""528131""
","""event"",""trial"",""time""
""fullscreenenter"",""1"",""8454""
","
","","","1897.2999999523163","","","10","12670","3450","b","elianto","#f73b6a7A","-1"," ","0","-10","[2748.2999999523163]","1","2","","","12670","38","3","4","lose","no-go","0"
"pit-trial","157","1200997","0.0-43.0","battery-v0.2","","""event"",""trial"",""time""
""fullscreenenter"",""1"",""8454""
""blur"",""39"",""526876""
""focus"",""39"",""528131""
","""event"",""trial"",""time""
""blur"",""39"",""526876""
","""event"",""trial"",""time""
""focus"",""39"",""528131""
","""event"",""trial"",""time""
""fullscreenenter"",""1"",""8454""
","
","","","-1","","","10","12670","3450","n","elianto","#f73b6a7A"," ","-1","0","-10","[]","0","2","","","12670","39","0","3","lose","go","0"
"pit-trial","158","1205852","0.0-44.0","battery-v0.2","","""event"",""trial"",""time""
""fullscreenenter"",""1"",""8454""
""blur"",""39"",""526876""
""focus"",""39"",""528131""
","""event"",""trial"",""time""
""blur"",""39"",""526876""
","""event"",""trial"",""time""
""focus"",""39"",""528131""
","""event"",""trial"",""time""
""fullscreenenter"",""1"",""8454""
","
","","","-1","","","10","12670","3450","f","elianto","#3366ff99","-1","-1","1","+10","[]","0","2","","","12670","40","1","2","win","no-go","0"
"pit-trial","159","1210178","0.0-45.0","battery-v0.2","","""event"",""trial"",""time""
""fullscreenenter"",""1"",""8454""
""blur"",""39"",""526876""
""focus"",""39"",""528131""
","""event"",""trial"",""time""
""blur"",""39"",""526876""
","""event"",""trial"",""time""
""focus"",""39"",""528131""
","""event"",""trial"",""time""
""fullscreenenter"",""1"",""8454""
","
","","","1471.9000000953674","","","10","12670","3450","n","elianto","#f73b6a7A"," "," ","1","0","[2322.5999999046326]","1","2","","","12670","41","0","3","lose","go","0"
"pit-trial","160","1215034","0.0-46.0","battery-v0.2","","""event"",""trial"",""time""
""fullscreenenter"",""1"",""8454""
""blur"",""39"",""526876""
""focus"",""39"",""528131""
","""event"",""trial"",""time""
""blur"",""39"",""526876""
","""event"",""trial"",""time""
""focus"",""39"",""528131""
","""event"",""trial"",""time""
""fullscreenenter"",""1"",""8454""
","
","","","-1","","","10","12670","3450","t","elianto","#f73b6a7A"," ","-1","0","-10","[]","0","2","","","12670","42","2","3","lose","go","0"
"pit-trial","161","1219486","0.0-47.0","battery-v0.2","","""event"",""trial"",""time""
""fullscreenenter"",""1"",""8454""
""blur"",""39"",""526876""
""focus"",""39"",""528131""
","""event"",""trial"",""time""
""blur"",""39"",""526876""
","""event"",""trial"",""time""
""focus"",""39"",""528131""
","""event"",""trial"",""time""
""fullscreenenter"",""1"",""8454""
","
","","","1599","","","10","12670","3450","f","elianto","#3366ff99","-1"," ","0","0","[2449.399999856949]","1","2","","","12670","43","1","2","win","no-go","0"
"pit-trial","162","1224339","0.0-48.0","battery-v0.2","","""event"",""trial"",""time""
""fullscreenenter"",""1"",""8454""
""blur"",""39"",""526876""
""focus"",""39"",""528131""
","""event"",""trial"",""time""
""blur"",""39"",""526876""
","""event"",""trial"",""time""
""focus"",""39"",""528131""
","""event"",""trial"",""time""
""fullscreenenter"",""1"",""8454""
","
","","","-1","","","10","12670","3450","b","elianto","#f73b6a7A","-1","-1","1","0","[]","0","2","","","12670","44","3","4","lose","no-go","0"
"pit-trial","163","1228672","0.0-49.0","battery-v0.2","","""event"",""trial"",""time""
""fullscreenenter"",""1"",""8454""
""blur"",""39"",""526876""
""focus"",""39"",""528131""
","""event"",""trial"",""time""
""blur"",""39"",""526876""
","""event"",""trial"",""time""
""focus"",""39"",""528131""
","""event"",""trial"",""time""
""fullscreenenter"",""1"",""8454""
","
","","","1479.5999999046326","","","10","12670","3450","f","elianto","#3366ff99","-1"," ","0","+10","[2330.199999809265]","1","2","","","12670","45","1","2","win","no-go","1"
"pit-trial","164","1232708","0.0-50.0","battery-v0.2","","""event"",""trial"",""time""
""fullscreenenter"",""1"",""8454""
""blur"",""39"",""526876""
""focus"",""39"",""528131""
","""event"",""trial"",""time""
""blur"",""39"",""526876""
","""event"",""trial"",""time""
""focus"",""39"",""528131""
","""event"",""trial"",""time""
""fullscreenenter"",""1"",""8454""
","
","","","1183.4000000953674","","","10","12670","3450","t","elianto","#f73b6a7A"," "," ","1","0","[2033.8000001907349]","1","2","","","12670","46","2","3","lose","go","0"
"pit-trial","165","1237030","0.0-51.0","battery-v0.2","","""event"",""trial"",""time""
""fullscreenenter"",""1"",""8454""
""blur"",""39"",""526876""
""focus"",""39"",""528131""
","""event"",""trial"",""time""
""blur"",""39"",""526876""
","""event"",""trial"",""time""
""focus"",""39"",""528131""
","""event"",""trial"",""time""
""fullscreenenter"",""1"",""8454""
","
","","","1467.1000001430511","","","10","12670","3450","b","elianto","#f73b6a7A","-1"," ","0","0","[2318.399999856949]","1","2","","","12670","47","3","4","lose","no-go","1"
"pit-trial","166","1241024","0.0-52.0","battery-v0.2","","""event"",""trial"",""time""
""fullscreenenter"",""1"",""8454""
""blur"",""39"",""526876""
""focus"",""39"",""528131""
","""event"",""trial"",""time""
""blur"",""39"",""526876""
","""event"",""trial"",""time""
""focus"",""39"",""528131""
","""event"",""trial"",""time""
""fullscreenenter"",""1"",""8454""
","
","","","1139.5999999046326","","","10","12670","3450","n","elianto","#f73b6a7A"," "," ","1","0","[1991]","1","2","","","12670","48","0","3","lose","go","0"
"pit-trial","167","1244999","0.0-53.0","battery-v0.2","","""event"",""trial"",""time""
""fullscreenenter"",""1"",""8454""
""blur"",""39"",""526876""
""focus"",""39"",""528131""
","""event"",""trial"",""time""
""blur"",""39"",""526876""
","""event"",""trial"",""time""
""focus"",""39"",""528131""
","""event"",""trial"",""time""
""fullscreenenter"",""1"",""8454""
","
","","","1119.2000000476837","","","10","12670","3450","b","elianto","#f73b6a7A","-1"," ","0","-10","[1971.4000000953674]","1","2","","","12670","49","3","4","lose","no-go","0"
"pit-trial","168","1248977","0.0-54.0","battery-v0.2","","""event"",""trial"",""time""
""fullscreenenter"",""1"",""8454""
""blur"",""39"",""526876""
""focus"",""39"",""528131""
","""event"",""trial"",""time""
""blur"",""39"",""526876""
","""event"",""trial"",""time""
""focus"",""39"",""528131""
","""event"",""trial"",""time""
""fullscreenenter"",""1"",""8454""
","
","","","1121.5999999046326","","","10","12670","3450","t","elianto","#f73b6a7A"," "," ","1","0","[1973.7999999523163]","1","2","","","12670","50","2","3","lose","go","0"
"pit-trial","169","1252591","0.0-55.0","battery-v0.2","","""event"",""trial"",""time""
""fullscreenenter"",""1"",""8454""
""blur"",""39"",""526876""
""focus"",""39"",""528131""
""blur"",""170"",""1252673""
""focus"",""170"",""1252678""
","""event"",""trial"",""time""
""blur"",""39"",""526876""
""blur"",""170"",""1252673""
","""event"",""trial"",""time""
""focus"",""39"",""528131""
""focus"",""170"",""1252678""
","""event"",""trial"",""time""
""fullscreenenter"",""1"",""8454""
","
","","","756.5999999046326","","","10","12670","3450","f","elianto","#3366ff99","-1"," ","0","0","[1608.5]","1","2","","","12670","51","1","2","win","no-go","0"
"pit-trial","170","1256502","0.0-56.0","battery-v0.2","","""event"",""trial"",""time""
""fullscreenenter"",""1"",""8454""
""blur"",""39"",""526876""
""focus"",""39"",""528131""
""blur"",""170"",""1252673""
""focus"",""170"",""1252678""
","""event"",""trial"",""time""
""blur"",""39"",""526876""
""blur"",""170"",""1252673""
","""event"",""trial"",""time""
""focus"",""39"",""528131""
""focus"",""170"",""1252678""
","""event"",""trial"",""time""
""fullscreenenter"",""1"",""8454""
","
","","","1056.5","","","10","12670","3450","n","elianto","#f73b6a7A"," "," ","1","0","[1907.5999999046326]","1","2","","","12670","52","0","3","lose","go","0"
"pit-trial","171","1260275","0.0-57.0","battery-v0.2","","""event"",""trial"",""time""
""fullscreenenter"",""1"",""8454""
""blur"",""39"",""526876""
""focus"",""39"",""528131""
""blur"",""170"",""1252673""
""focus"",""170"",""1252678""
","""event"",""trial"",""time""
""blur"",""39"",""526876""
""blur"",""170"",""1252673""
","""event"",""trial"",""time""
""focus"",""39"",""528131""
""focus"",""170"",""1252678""
","""event"",""trial"",""time""
""fullscreenenter"",""1"",""8454""
","
","","","917.5999999046326","","","10","12670","3450","n","elianto","#f73b6a7A"," "," ","1","0","[1768.6000001430511]","1","2","","","12670","53","0","3","lose","go","0"
"pit-trial","172","1264189","0.0-58.0","battery-v0.2","","""event"",""trial"",""time""
""fullscreenenter"",""1"",""8454""
""blur"",""39"",""526876""
""focus"",""39"",""528131""
""blur"",""170"",""1252673""
""focus"",""170"",""1252678""
","""event"",""trial"",""time""
""blur"",""39"",""526876""
""blur"",""170"",""1252673""
","""event"",""trial"",""time""
""focus"",""39"",""528131""
""focus"",""170"",""1252678""
","""event"",""trial"",""time""
""fullscreenenter"",""1"",""8454""
","
","","","1059.4000000953674","","","10","12670","3450","b","elianto","#f73b6a7A","-1"," ","0","-10","[1909.4000000953674]","1","2","","","12670","54","3","4","lose","no-go","0"
"pit-trial","173","1268034","0.0-59.0","battery-v0.2","","""event"",""trial"",""time""
""fullscreenenter"",""1"",""8454""
""blur"",""39"",""526876""
""focus"",""39"",""528131""
""blur"",""170"",""1252673""
""focus"",""170"",""1252678""
","""event"",""trial"",""time""
""blur"",""39"",""526876""
""blur"",""170"",""1252673""
","""event"",""trial"",""time""
""focus"",""39"",""528131""
""focus"",""170"",""1252678""
","""event"",""trial"",""time""
""fullscreenenter"",""1"",""8454""
","
","","","989.3999998569489","","","10","12670","3450","t","elianto","#f73b6a7A"," "," ","1","0","[1841.4000000953674]","1","2","","","12670","55","2","3","lose","go","0"
"pit-trial","174","1272889","0.0-60.0","battery-v0.2","","""event"",""trial"",""time""
""fullscreenenter"",""1"",""8454""
""blur"",""39"",""526876""
""focus"",""39"",""528131""
""blur"",""170"",""1252673""
""focus"",""170"",""1252678""
","""event"",""trial"",""time""
""blur"",""39"",""526876""
""blur"",""170"",""1252673""
","""event"",""trial"",""time""
""focus"",""39"",""528131""
""focus"",""170"",""1252678""
","""event"",""trial"",""time""
""fullscreenenter"",""1"",""8454""
","
","","","-1","","","10","12670","3450","f","elianto","#3366ff99","-1","-1","1","+10","[]","0","2","","","12670","56","1","2","win","no-go","0"
"pit-trial","175","1277096","0.0-61.0","battery-v0.2","","""event"",""trial"",""time""
""fullscreenenter"",""1"",""8454""
""blur"",""39"",""526876""
""focus"",""39"",""528131""
""blur"",""170"",""1252673""
""focus"",""170"",""1252678""
","""event"",""trial"",""time""
""blur"",""39"",""526876""
""blur"",""170"",""1252673""
","""event"",""trial"",""time""
""focus"",""39"",""528131""
""focus"",""170"",""1252678""
","""event"",""trial"",""time""
""fullscreenenter"",""1"",""8454""
","
","","","1346.5999999046326","","","10","12670","3450","t","elianto","#f73b6a7A"," "," ","1","0","[2196.7000000476837]","1","2","","","12670","57","2","3","lose","go","0"
"pit-trial","176","1281340","0.0-62.0","battery-v0.2","","""event"",""trial"",""time""
""fullscreenenter"",""1"",""8454""
""blur"",""39"",""526876""
""focus"",""39"",""528131""
""blur"",""170"",""1252673""
""focus"",""170"",""1252678""
","""event"",""trial"",""time""
""blur"",""39"",""526876""
""blur"",""170"",""1252673""
","""event"",""trial"",""time""
""focus"",""39"",""528131""
""focus"",""170"",""1252678""
","""event"",""trial"",""time""
""fullscreenenter"",""1"",""8454""
","
","","","1389.7999999523163","","","10","12670","3450","c","elianto","#3366ff99"," "," ","1","+10","[2241.2999999523163]","1","2","","","12670","58","4","1","win","go","0"
"pit-trial","177","1285084","0.0-63.0","battery-v0.2","","""event"",""trial"",""time""
""fullscreenenter"",""1"",""8454""
""blur"",""39"",""526876""
""focus"",""39"",""528131""
""blur"",""170"",""1252673""
""focus"",""170"",""1252678""
","""event"",""trial"",""time""
""blur"",""39"",""526876""
""blur"",""170"",""1252673""
","""event"",""trial"",""time""
""focus"",""39"",""528131""
""focus"",""170"",""1252678""
","""event"",""trial"",""time""
""fullscreenenter"",""1"",""8454""
","
","","","889.5999999046326","","","10","12670","3450","n","elianto","#f73b6a7A"," "," ","1","0","[1739.7000000476837]","1","2","","","12670","59","0","3","lose","go","0"
"pit-trial","178","1289107","0.0-64.0","battery-v0.2","","""event"",""trial"",""time""
""fullscreenenter"",""1"",""8454""
""blur"",""39"",""526876""
""focus"",""39"",""528131""
""blur"",""170"",""1252673""
""focus"",""170"",""1252678""
","""event"",""trial"",""time""
""blur"",""39"",""526876""
""blur"",""170"",""1252673""
","""event"",""trial"",""time""
""focus"",""39"",""528131""
""focus"",""170"",""1252678""
","""event"",""trial"",""time""
""fullscreenenter"",""1"",""8454""
","
","","","1168.8000001907349","","","10","12670","3450","b","elianto","#f73b6a7A","-1"," ","0","-10","[2019.7000000476837]","1","2","","","12670","60","3","4","lose","no-go","0"
"pit-trial","179","1292966","0.0-65.0","battery-v0.2","","""event"",""trial"",""time""
""fullscreenenter"",""1"",""8454""
""blur"",""39"",""526876""
""focus"",""39"",""528131""
""blur"",""170"",""1252673""
""focus"",""170"",""1252678""
","""event"",""trial"",""time""
""blur"",""39"",""526876""
""blur"",""170"",""1252673""
","""event"",""trial"",""time""
""focus"",""39"",""528131""
""focus"",""170"",""1252678""
","""event"",""trial"",""time""
""fullscreenenter"",""1"",""8454""
","
","","","1005.8999998569489","","","10","12670","3450","c","elianto","#3366ff99"," "," ","1","+10","[1856.2999999523163]","1","2","","","12670","61","4","1","win","go","0"
"pit-trial","180","1297822","0.0-66.0","battery-v0.2","","""event"",""trial"",""time""
""fullscreenenter"",""1"",""8454""
""blur"",""39"",""526876""
""focus"",""39"",""528131""
""blur"",""170"",""1252673""
""focus"",""170"",""1252678""
","""event"",""trial"",""time""
""blur"",""39"",""526876""
""blur"",""170"",""1252673""
","""event"",""trial"",""time""
""focus"",""39"",""528131""
""focus"",""170"",""1252678""
","""event"",""trial"",""time""
""fullscreenenter"",""1"",""8454""
","
","","","-1","","","10","12670","3450","f","elianto","#3366ff99","-1","-1","1","+10","[]","0","2","","","12670","62","1","2","win","no-go","0"
"pit-trial","181","1301917","0.0-67.0","battery-v0.2","","""event"",""trial"",""time""
""fullscreenenter"",""1"",""8454""
""blur"",""39"",""526876""
""focus"",""39"",""528131""
""blur"",""170"",""1252673""
""focus"",""170"",""1252678""
","""event"",""trial"",""time""
""blur"",""39"",""526876""
""blur"",""170"",""1252673""
","""event"",""trial"",""time""
""focus"",""39"",""528131""
""focus"",""170"",""1252678""
","""event"",""trial"",""time""
""fullscreenenter"",""1"",""8454""
","
","","","1240.7999999523163","","","10","12670","3450","b","elianto","#f73b6a7A","-1"," ","0","-10","[2091.7000000476837]","1","2","","","12670","63","3","4","lose","no-go","0"
"pit-trial","182","1305832","0.0-68.0","battery-v0.2","","""event"",""trial"",""time""
""fullscreenenter"",""1"",""8454""
""blur"",""39"",""526876""
""focus"",""39"",""528131""
""blur"",""170"",""1252673""
""focus"",""170"",""1252678""
","""event"",""trial"",""time""
""blur"",""39"",""526876""
""blur"",""170"",""1252673""
","""event"",""trial"",""time""
""focus"",""39"",""528131""
""focus"",""170"",""1252678""
","""event"",""trial"",""time""
""fullscreenenter"",""1"",""8454""
","
","","","1060.3999998569489","","","10","12670","3450","t","elianto","#f73b6a7A"," "," ","1","0","[8.700000047683716,1911.0999999046326]","2","2","","","12670","64","2","3","lose","go","0"
"pit-trial","183","1310688","0.0-69.0","battery-v0.2","","""event"",""trial"",""time""
""fullscreenenter"",""1"",""8454""
""blur"",""39"",""526876""
""focus"",""39"",""528131""
""blur"",""170"",""1252673""
""focus"",""170"",""1252678""
","""event"",""trial"",""time""
""blur"",""39"",""526876""
""blur"",""170"",""1252673""
","""event"",""trial"",""time""
""focus"",""39"",""528131""
""focus"",""170"",""1252678""
","""event"",""trial"",""time""
""fullscreenenter"",""1"",""8454""
","
","","","-1","","","10","12670","3450","b","elianto","#f73b6a7A","-1","-1","1","0","[]","0","2","","","12670","65","3","4","lose","no-go","0"
"pit-trial","184","1314744","0.0-70.0","battery-v0.2","","""event"",""trial"",""time""
""fullscreenenter"",""1"",""8454""
""blur"",""39"",""526876""
""focus"",""39"",""528131""
""blur"",""170"",""1252673""
""focus"",""170"",""1252678""
","""event"",""trial"",""time""
""blur"",""39"",""526876""
""blur"",""170"",""1252673""
","""event"",""trial"",""time""
""focus"",""39"",""528131""
""focus"",""170"",""1252678""
","""event"",""trial"",""time""
""fullscreenenter"",""1"",""8454""
","
","","","1203.5999999046326","","","10","12670","3450","z","elianto","#3366ff99","-1"," ","0","0","[2054.2000000476837]","1","2","","","12670","66","5","2","win","no-go","0"
"pit-trial","185","1319598","0.0-71.0","battery-v0.2","","""event"",""trial"",""time""
""fullscreenenter"",""1"",""8454""
""blur"",""39"",""526876""
""focus"",""39"",""528131""
""blur"",""170"",""1252673""
""focus"",""170"",""1252678""
","""event"",""trial"",""time""
""blur"",""39"",""526876""
""blur"",""170"",""1252673""
","""event"",""trial"",""time""
""focus"",""39"",""528131""
""focus"",""170"",""1252678""
","""event"",""trial"",""time""
""fullscreenenter"",""1"",""8454""
","
","","","-1","","","10","12670","3450","f","elianto","#3366ff99","-1","-1","1","+10","[]","0","2","","","12670","67","1","2","win","no-go","0"
"pit-trial","186","1323804","0.0-72.0","battery-v0.2","","""event"",""trial"",""time""
""fullscreenenter"",""1"",""8454""
""blur"",""39"",""526876""
""focus"",""39"",""528131""
""blur"",""170"",""1252673""
""focus"",""170"",""1252678""
","""event"",""trial"",""time""
""blur"",""39"",""526876""
""blur"",""170"",""1252673""
","""event"",""trial"",""time""
""focus"",""39"",""528131""
""focus"",""170"",""1252678""
","""event"",""trial"",""time""
""fullscreenenter"",""1"",""8454""
","
","","","1352.4000000953674","","","10","12670","3450","c","elianto","#3366ff99"," "," ","1","+10","[2203.2000000476837]","1","2","","","12670","68","4","1","win","go","0"
"pit-trial","187","1328664","0.0-73.0","battery-v0.2","","""event"",""trial"",""time""
""fullscreenenter"",""1"",""8454""
""blur"",""39"",""526876""
""focus"",""39"",""528131""
""blur"",""170"",""1252673""
""focus"",""170"",""1252678""
","""event"",""trial"",""time""
""blur"",""39"",""526876""
""blur"",""170"",""1252673""
","""event"",""trial"",""time""
""focus"",""39"",""528131""
""focus"",""170"",""1252678""
","""event"",""trial"",""time""
""fullscreenenter"",""1"",""8454""
","
","","","-1","","","10","12670","3450","f","elianto","#3366ff99","-1","-1","1","+10","[]","0","2","","","12670","69","1","2","win","no-go","0"
"pit-trial","188","1332916","0.0-74.0","battery-v0.2","","""event"",""trial"",""time""
""fullscreenenter"",""1"",""8454""
""blur"",""39"",""526876""
""focus"",""39"",""528131""
""blur"",""170"",""1252673""
""focus"",""170"",""1252678""
","""event"",""trial"",""time""
""blur"",""39"",""526876""
""blur"",""170"",""1252673""
