"trial_type","trial_index","time_elapsed","internal_node_id","task_version","subject_id","interactions","blur_events","focus_events","fullscreenenter_events","fullscreenexit_events","success","view_history","rt","responses","num_errors","age","subject","participantId","rune","rune_set","hex","correct","choice","accuracy","outcome","keys","total_keys","block","practice","value","sub","trial","stimulus","robot","valence","action","sham"
"pavlovia","0","14","0.0-0.0","battery-v0.2","","""event"",""trial"",""time""
""fullscreenenter"",""1"",""2467""
","
","
","""event"",""trial"",""time""
""fullscreenenter"",""1"",""2467""
","
","","","","","","","","","","","","","","","","","","","","","","","","","","",""
"fullscreen","1","3461","0.0-1.0","battery-v0.2","","""event"",""trial"",""time""
""fullscreenenter"",""1"",""2467""
","
","
","""event"",""trial"",""time""
""fullscreenenter"",""1"",""2467""
","
","true","","","","","","","","","","","","","","","","","","","","","","","","","",""
"pit-instructions","2","7506","0.0-2.0-0.0","battery-v0.2","","""event"",""trial"",""time""
""fullscreenenter"",""1"",""2467""
","
","
","""event"",""trial"",""time""
""fullscreenenter"",""1"",""2467""
","
","","[{""page_index"":0,""viewing_time"":4039}]","4039.7999992370605","","","","","","","","","","","","","","","","","","","","","","","",""
"pit-comprehension","3","10713","0.0-2.0-1.0-0.0","battery-v0.2","","""event"",""trial"",""time""
""fullscreenenter"",""1"",""2467""
","
","
","""event"",""trial"",""time""
""fullscreenenter"",""1"",""2467""
","
","","","3201.5","[""shark""]","0","12","15988","401","","","","","","","","","","","","","","","","","","",""
"pit-instructions","4","11837","0.0-2.0-1.0-1.0","battery-v0.2","","""event"",""trial"",""time""
""fullscreenenter"",""1"",""2467""
","
","
","""event"",""trial"",""time""
""fullscreenenter"",""1"",""2467""
","
","","[{""page_index"":0,""viewing_time"":1114.1000003814697}]","1114.8000001907349","","","","","","","","","","","","","","","","","","","","","","","",""
"pit-comprehension","5","14839","0.0-2.0-2.0-0.0","battery-v0.2","","""event"",""trial"",""time""
""fullscreenenter"",""1"",""2467""
","
","
","""event"",""trial"",""time""
""fullscreenenter"",""1"",""2467""
","
","","","2997.3999996185303","[""tiger""]","0","12","15988","401","","","","","","","","","","","","","","","","","","",""
"pit-instructions","6","16186","0.0-2.0-2.0-1.0","battery-v0.2","","""event"",""trial"",""time""
""fullscreenenter"",""1"",""2467""
","
","
","""event"",""trial"",""time""
""fullscreenenter"",""1"",""2467""
","
","","[{""page_index"":0,""viewing_time"":1342.1000003814697}]","1342.6000003814697","","","","","","","","","","","","","","","","","","","","","","","",""
"pit-instructions","7","120192","0.0-2.0-3.0","battery-v0.2","","""event"",""trial"",""time""
""fullscreenenter"",""1"",""2467""
","
","
","""event"",""trial"",""time""
""fullscreenenter"",""1"",""2467""
","
","","[{""page_index"":0,""viewing_time"":9614.39999961853},{""page_index"":1,""viewing_time"":6066},{""page_index"":2,""viewing_time"":6440.5},{""page_index"":3,""viewing_time"":5614.89999961853},{""page_index"":4,""viewing_time"":5978.10000038147},{""page_index"":5,""viewing_time"":6457.39999961853},{""page_index"":6,""viewing_time"":7318.400000572205},{""page_index"":7,""viewing_time"":8221.39999961853},{""page_index"":8,""viewing_time"":8325.10000038147},{""page_index"":9,""viewing_time"":10244.599999427795},{""page_index"":10,""viewing_time"":8971.10000038147},{""page_index"":11,""viewing_time"":7830.10000038147},{""page_index"":12,""viewing_time"":8308.199999809265},{""page_index"":13,""viewing_time"":4610.300000190735}]","104001.0999994278","","","","","","","","","","","","","","","","","","","","","","","",""
"pit-trial","8","123631","0.0-2.0-4.0-0.0","battery-v0.2","","""event"",""trial"",""time""
""fullscreenenter"",""1"",""2467""
","
","
","""event"",""trial"",""time""
""fullscreenenter"",""1"",""2467""
","
","","","581.3000001907349","","","12","15988","401","&#9784;","elianto","#FFFFF080"," "," ","1","&#10004","[1432.6999998092651]","1","0","0","","","","","","","",""
"pit-trial","9","126942","0.0-2.0-4.1-0.1","battery-v0.2","","""event"",""trial"",""time""
""fullscreenenter"",""1"",""2467""
","
","
","""event"",""trial"",""time""
""fullscreenenter"",""1"",""2467""
","
","","","453.80000019073486","","","12","15988","401","&#9784;","elianto","#FFFFF080"," "," ","1","&#10004","[1304.4000005722046]","1","0","0","","","","","","","",""
"pit-trial","10","130269","0.0-2.0-4.2-0.2","battery-v0.2","","""event"",""trial"",""time""
""fullscreenenter"",""1"",""2467""
","
","
","""event"",""trial"",""time""
""fullscreenenter"",""1"",""2467""
","
","","","469.1000003814697","","","12","15988","401","&#9784;","elianto","#FFFFF080"," "," ","1","&#10004","[1320.7999992370605]","1","0","0","","","","","","","",""
"pit-trial","11","133642","0.0-2.0-4.3-0.3","battery-v0.2","","""event"",""trial"",""time""
""fullscreenenter"",""1"",""2467""
","
","
","""event"",""trial"",""time""
""fullscreenenter"",""1"",""2467""
","
","","","516.7000007629395","","","12","15988","401","&#9784;","elianto","#FFFFF080"," "," ","1","&#10004","[1367.7000007629395]","1","0","0","","","","","","","",""
"pit-trial","12","137056","0.0-2.0-4.4-0.4","battery-v0.2","","""event"",""trial"",""time""
""fullscreenenter"",""1"",""2467""
","
","
","""event"",""trial"",""time""
""fullscreenenter"",""1"",""2467""
","
","","","556.6000003814697","","","12","15988","401","&#9784;","elianto","#FFFFF080"," "," ","1","&#10004","[1408.3999996185303]","1","0","0","","","","","","","",""
"pit-instructions","13","159684","0.0-2.0-5.0","battery-v0.2","","""event"",""trial"",""time""
""fullscreenenter"",""1"",""2467""
","
","
","""event"",""trial"",""time""
""fullscreenenter"",""1"",""2467""
","
","","[{""page_index"":0,""viewing_time"":4715.599999427795},{""page_index"":1,""viewing_time"":5651},{""page_index"":2,""viewing_time"":5219.900000572205},{""page_index"":3,""viewing_time"":7039.5}]","22626.599999427795","","","","","","","","","","","","","","","","","","","","","","","",""
"pit-trial","14","164540","0.0-2.0-6.0-0.0","battery-v0.2","","""event"",""trial"",""time""
""fullscreenenter"",""1"",""2467""
","
","
","""event"",""trial"",""time""
""fullscreenenter"",""1"",""2467""
","
","","","-1","","","12","15988","401","&#9854;","elianto","#FFFFF080","-1","-1","1","&#10004","[]","0","0","1","","","","","","","",""
"pit-trial","15","169397","0.0-2.0-6.1-0.1","battery-v0.2","","""event"",""trial"",""time""
""fullscreenenter"",""1"",""2467""
","
","
","""event"",""trial"",""time""
""fullscreenenter"",""1"",""2467""
","
","","","-1","","","12","15988","401","&#9854;","elianto","#FFFFF080","-1","-1","1","&#10004","[]","0","0","1","","","","","","","",""
"pit-trial","16","174254","0.0-2.0-6.2-0.2","battery-v0.2","","""event"",""trial"",""time""
""fullscreenenter"",""1"",""2467""
","
","
","""event"",""trial"",""time""
""fullscreenenter"",""1"",""2467""
","
","","","-1","","","12","15988","401","&#9854;","elianto","#FFFFF080","-1","-1","1","&#10004","[]","0","0","1","","","","","","","",""
"pit-trial","17","179112","0.0-2.0-6.3-0.3","battery-v0.2","","""event"",""trial"",""time""
""fullscreenenter"",""1"",""2467""
","
","
","""event"",""trial"",""time""
""fullscreenenter"",""1"",""2467""
","
","","","-1","","","12","15988","401","&#9854;","elianto","#FFFFF080","-1","-1","1","&#10004","[]","0","0","1","","","","","","","",""
"pit-trial","18","183968","0.0-2.0-6.4-0.4","battery-v0.2","","""event"",""trial"",""time""
""fullscreenenter"",""1"",""2467""
","
","
","""event"",""trial"",""time""
""fullscreenenter"",""1"",""2467""
","
","","","-1","","","12","15988","401","&#9854;","elianto","#FFFFF080","-1","-1","1","&#10004","[]","0","0","1","","","","","","","",""
"pit-instructions","19","305902","0.0-2.0-7.0","battery-v0.2","","""event"",""trial"",""time""
""fullscreenenter"",""1"",""2467""
","
","
","""event"",""trial"",""time""
""fullscreenenter"",""1"",""2467""
","
","","[{""page_index"":0,""viewing_time"":5897.199999809265},{""page_index"":1,""viewing_time"":6903.699999809265},{""page_index"":2,""viewing_time"":7386.200000762939},{""page_index"":3,""viewing_time"":7128.299999237061},{""page_index"":4,""viewing_time"":5602.700000762939},{""page_index"":5,""viewing_time"":6800},{""page_index"":6,""viewing_time"":4852.5},{""page_index"":7,""viewing_time"":7151},{""page_index"":8,""viewing_time"":7015.099999427795},{""page_index"":9,""viewing_time"":5746.10000038147},{""page_index"":10,""viewing_time"":6312.099999427795},{""page_index"":11,""viewing_time"":5722.300000190735},{""page_index"":12,""viewing_time"":6648.300000190735},{""page_index"":13,""viewing_time"":7557.10000038147},{""page_index"":14,""viewing_time"":7469.89999961853},{""page_index"":15,""viewing_time"":7696.199999809265},{""page_index"":16,""viewing_time"":7811.300000190735},{""page_index"":17,""viewing_time"":8228.5}]","121929.19999980927","","","","","","","","","","","","","","","","","","","","","","","",""
"pit-trial","20","309262","0.0-2.0-8.0-0.0","battery-v0.2","","""event"",""trial"",""time""
""fullscreenenter"",""1"",""2467""
","
","
","""event"",""trial"",""time""
""fullscreenenter"",""1"",""2467""
","
","","","504.5","","","12","15988","401","&#9776;","elianto","#3366ff99"," "," ","1","+10","[1355]","1","0","1","","","","","","","",""
"pit-trial","21","312603","0.0-2.0-8.0-1.0","battery-v0.2","","""event"",""trial"",""time""
""fullscreenenter"",""1"",""2467""
","
","
","""event"",""trial"",""time""
""fullscreenenter"",""1"",""2467""
","
","","","485.0999994277954","","","12","15988","401","&#9776;","elianto","#3366ff99"," "," ","1","+10","[1336.3999996185303]","1","0","1","","","","","","","",""
"pit-trial","22","315958","0.0-2.0-8.0-2.0","battery-v0.2","","""event"",""trial"",""time""
""fullscreenenter"",""1"",""2467""
","
","
","""event"",""trial"",""time""
""fullscreenenter"",""1"",""2467""
","
","","","500.1000003814697","","","12","15988","401","&#9776;","elianto","#3366ff99"," "," ","1","+10","[1350.8000001907349]","1","0","1","","","","","","","",""
"pit-trial","23","319290","0.0-2.0-8.0-3.0","battery-v0.2","","""event"",""trial"",""time""
""fullscreenenter"",""1"",""2467""
","
","
","""event"",""trial"",""time""
""fullscreenenter"",""1"",""2467""
","
","","","476.80000019073486","","","12","15988","401","&#9776;","elianto","#3366ff99"," "," ","1","0","[1327.3999996185303]","1","0","1","","","","","","","",""
"pit-trial","24","322660","0.0-2.0-8.0-4.0","battery-v0.2","","""event"",""trial"",""time""
""fullscreenenter"",""1"",""2467""
","
","
","""event"",""trial"",""time""
""fullscreenenter"",""1"",""2467""
","
","","","513.3999996185303","","","12","15988","401","&#9776;","elianto","#3366ff99"," "," ","1","+10","[1365.0999994277954]","1","0","1","","","","","","","",""
"pit-trial","25","326022","0.0-2.0-8.1-0.1","battery-v0.2","","""event"",""trial"",""time""
""fullscreenenter"",""1"",""2467""
","
","
","""event"",""trial"",""time""
""fullscreenenter"",""1"",""2467""
","
","","","505.70000076293945","","","12","15988","401","&#9776;","elianto","#3366ff99"," "," ","1","+10","[1357.1000003814697]","1","0","1","","","","","","","",""
"pit-trial","26","329476","0.0-2.0-8.1-1.1","battery-v0.2","","""event"",""trial"",""time""
""fullscreenenter"",""1"",""2467""
","
","
","""event"",""trial"",""time""
""fullscreenenter"",""1"",""2467""
","
","","","599.6999998092651","","","12","15988","401","&#9776;","elianto","#3366ff99"," "," ","1","+10","[1450.6999998092651]","1","0","1","","","","","","","",""
"pit-trial","27","333021","0.0-2.0-8.1-2.1","battery-v0.2","","""event"",""trial"",""time""
""fullscreenenter"",""1"",""2467""
","
","
","""event"",""trial"",""time""
""fullscreenenter"",""1"",""2467""
","
","","","688.2999992370605","","","12","15988","401","&#9776;","elianto","#3366ff99"," "," ","1","+10","[1539.8999996185303]","1","0","1","","","","","","","",""
"pit-trial","28","336539","0.0-2.0-8.1-3.1","battery-v0.2","","""event"",""trial"",""time""
""fullscreenenter"",""1"",""2467""
","
","
","""event"",""trial"",""time""
""fullscreenenter"",""1"",""2467""
","
","","","662.8000001907349","","","12","15988","401","&#9776;","elianto","#3366ff99"," "," ","1","0","[1513.5999994277954]","1","0","1","","","","","","","",""
"pit-trial","29","340108","0.0-2.0-8.1-4.1","battery-v0.2","","""event"",""trial"",""time""
""fullscreenenter"",""1"",""2467""
","
","
","""event"",""trial"",""time""
""fullscreenenter"",""1"",""2467""
","
","","","712.8000001907349","","","12","15988","401","&#9776;","elianto","#3366ff99"," "," ","1","+10","[1564]","1","0","1","","","","","","","",""
"pit-trial","30","343473","0.0-2.0-8.2-0.2","battery-v0.2","","""event"",""trial"",""time""
""fullscreenenter"",""1"",""2467""
","
","
","""event"",""trial"",""time""
""fullscreenenter"",""1"",""2467""
","
","","","509.5999994277954","","","12","15988","401","&#9776;","elianto","#3366ff99"," "," ","1","+10","[1360.2999992370605]","1","0","1","","","","","","","",""
"pit-trial","31","346837","0.0-2.0-8.2-1.2","battery-v0.2","","""event"",""trial"",""time""
""fullscreenenter"",""1"",""2467""
","
","
","""event"",""trial"",""time""
""fullscreenenter"",""1"",""2467""
","
","","","507.3999996185303","","","12","15988","401","&#9776;","elianto","#3366ff99"," "," ","1","+10","[1358.8000001907349]","1","0","1","","","","","","","",""
"pit-trial","32","350489","0.0-2.0-8.2-2.2","battery-v0.2","","""event"",""trial"",""time""
""fullscreenenter"",""1"",""2467""
","
","
","""event"",""trial"",""time""
""fullscreenenter"",""1"",""2467""
","
","","","796","","","12","15988","401","&#9776;","elianto","#3366ff99"," "," ","1","+10","[1646.3000001907349]","1","0","1","","","","","","","",""
"pit-trial","33","353852","0.0-2.0-8.2-3.2","battery-v0.2","","""event"",""trial"",""time""
""fullscreenenter"",""1"",""2467""
","
","
","""event"",""trial"",""time""
""fullscreenenter"",""1"",""2467""
","
","","","509","","","12","15988","401","&#9776;","elianto","#3366ff99"," "," ","1","0","[1359.5999994277954]","1","0","1","","","","","","","",""
"pit-trial","34","357489","0.0-2.0-8.2-4.2","battery-v0.2","","""event"",""trial"",""time""
""fullscreenenter"",""1"",""2467""
","
","
","""event"",""trial"",""time""
""fullscreenenter"",""1"",""2467""
","
","","","781.6000003814697","","","12","15988","401","&#9776;","elianto","#3366ff99"," "," ","1","+10","[1632.3000001907349]","1","0","1","","","","","","","",""
"call-function","35","357492","0.0-2.0-9.0","battery-v0.2","","""event"",""trial"",""time""
""fullscreenenter"",""1"",""2467""
","
","
","""event"",""trial"",""time""
""fullscreenenter"",""1"",""2467""
","
","","","","","","","","","","","","","","","","","","","","","","","","","","",""
"pit-instructions","36","395935","0.0-2.0-10.0","battery-v0.2","","""event"",""trial"",""time""
""fullscreenenter"",""1"",""2467""
","
","
","""event"",""trial"",""time""
""fullscreenenter"",""1"",""2467""
","
","","[{""page_index"":0,""viewing_time"":5820.5},{""page_index"":1,""viewing_time"":6759.60000038147},{""page_index"":2,""viewing_time"":9185.699999809265},{""page_index"":3,""viewing_time"":8566.300000190735},{""page_index"":4,""viewing_time"":8109}]","38441.699999809265","","","","","","","","","","","","","","","","","","","","","","","",""
"pit-trial","37","399631","0.0-2.0-11.0-0.0","battery-v0.2","","""event"",""trial"",""time""
""fullscreenenter"",""1"",""2467""
","
","
","""event"",""trial"",""time""
""fullscreenenter"",""1"",""2467""
","
","","","841.7000007629395","","","12","15988","401","&#9761;","elianto","#3366ff99","-1"," ","0","0","[1692.6000003814697]","1","0","2","","","","","","","",""
"pit-trial","38","402960","0.0-2.0-11.0-1.0","battery-v0.2","","""event"",""trial"",""time""
""fullscreenenter"",""1"",""2467""
","
","
","""event"",""trial"",""time""
""fullscreenenter"",""1"",""2467""
","
","","","472.1000003814697","","","12","15988","401","&#9761;","elianto","#3366ff99","-1"," ","0","0","[1323.8999996185303]","1","0","2","","","","","","","",""
"pit-trial","39","406105","0.0-2.0-11.0-2.0","battery-v0.2","","""event"",""trial"",""time""
""fullscreenenter"",""1"",""2467""
","
","
","""event"",""trial"",""time""
""fullscreenenter"",""1"",""2467""
","
","","","288.4000005722046","","","12","15988","401","&#9761;","elianto","#3366ff99","-1"," ","0","0","[1140.1999998092651]","1","0","2","","","","","","","",""
"pit-trial","40","409062","0.0-2.0-11.0-3.0","battery-v0.2","","""event"",""trial"",""time""
""fullscreenenter"",""1"",""2467""
","
","
","""event"",""trial"",""time""
""fullscreenenter"",""1"",""2467""
","
","","","101.80000019073486","","","12","15988","401","&#9761;","elianto","#3366ff99","-1"," ","0","+10","[952]","1","0","2","","","","","","","",""
"pit-trial","41","412119","0.0-2.0-11.0-4.0","battery-v0.2","","""event"",""trial"",""time""
""fullscreenenter"",""1"",""2467""
","
","
","""event"",""trial"",""time""
""fullscreenenter"",""1"",""2467""
","
","","","202.39999961853027","","","12","15988","401","&#9761;","elianto","#3366ff99","-1"," ","0","0","[1053.1999998092651]","1","0","2","","","","","","","",""
"pit-trial","42","415384","0.0-2.0-11.1-0.1","battery-v0.2","","""event"",""trial"",""time""
""fullscreenenter"",""1"",""2467""
","
","
","""event"",""trial"",""time""
""fullscreenenter"",""1"",""2467""
","
","","","407.5999994277954","","","12","15988","401","&#9761;","elianto","#3366ff99","-1"," ","0","0","[1259]","1","0","2","","","","","","","",""
"pit-trial","43","418726","0.0-2.0-11.1-1.1","battery-v0.2","","""event"",""trial"",""time""
""fullscreenenter"",""1"",""2467""
","
","
","""event"",""trial"",""time""
""fullscreenenter"",""1"",""2467""
","
","","","487","","","12","15988","401","&#9761;","elianto","#3366ff99","-1"," ","0","0","[1338]","1","0","2","","","","","","","",""
"pit-trial","44","421776","0.0-2.0-11.1-2.1","battery-v0.2","","""event"",""trial"",""time""
""fullscreenenter"",""1"",""2467""
","
","
","""event"",""trial"",""time""
""fullscreenenter"",""1"",""2467""
","
","","","195.10000038146973","","","12","15988","401","&#9761;","elianto","#3366ff99","-1"," ","0","0","[1046.3999996185303]","1","0","2","","","","","","","",""
"pit-trial","45","426633","0.0-2.0-11.1-3.1","battery-v0.2","","""event"",""trial"",""time""
""fullscreenenter"",""1"",""2467""
","
","
","""event"",""trial"",""time""
""fullscreenenter"",""1"",""2467""
","
","","","-1","","","12","15988","401","&#9761;","elianto","#3366ff99","-1","-1","1","0","[]","0","0","2","","","","","","","",""
"pit-trial","46","430276","0.0-2.0-11.1-4.1","battery-v0.2","","""event"",""trial"",""time""
""fullscreenenter"",""1"",""2467""
","
","
","""event"",""trial"",""time""
""fullscreenenter"",""1"",""2467""
","
","","","787.4000005722046","","","12","15988","401","&#9761;","elianto","#3366ff99","-1"," ","0","0","[1639.1999998092651]","1","0","2","","","","","","","",""
"pit-trial","47","433492","0.0-2.0-11.2-0.2","battery-v0.2","","""event"",""trial"",""time""
""fullscreenenter"",""1"",""2467""
","
","
","""event"",""trial"",""time""
""fullscreenenter"",""1"",""2467""
","
","","","361","","","12","15988","401","&#9761;","elianto","#3366ff99","-1"," ","0","0","[1212]","1","0","2","","","","","","","",""
"pit-trial","48","438348","0.0-2.0-11.2-1.2","battery-v0.2","","""event"",""trial"",""time""
""fullscreenenter"",""1"",""2467""
","
","
","""event"",""trial"",""time""
""fullscreenenter"",""1"",""2467""
","
","","","-1","","","12","15988","401","&#9761;","elianto","#3366ff99","-1","-1","1","+10","[]","0","0","2","","","","","","","",""
"pit-trial","49","441705","0.0-2.0-11.2-2.2","battery-v0.2","","""event"",""trial"",""time""
""fullscreenenter"",""1"",""2467""
","
","
","""event"",""trial"",""time""
""fullscreenenter"",""1"",""2467""
","
","","","501.0999994277954","","","12","15988","401","&#9761;","elianto","#3366ff99","-1"," ","0","0","[1352.6000003814697]","1","0","2","","","","","","","",""
"pit-trial","50","444715","0.0-2.0-11.2-3.2","battery-v0.2","","""event"",""trial"",""time""
""fullscreenenter"",""1"",""2467""
","
","
","""event"",""trial"",""time""
""fullscreenenter"",""1"",""2467""
","
","","","154.69999980926514","","","12","15988","401","&#9761;","elianto","#3366ff99","-1"," ","0","+10","[1005.1000003814697]","1","0","2","","","","","","","",""
"pit-trial","51","448046","0.0-2.0-11.2-4.2","battery-v0.2","","""event"",""trial"",""time""
""fullscreenenter"",""1"",""2467""
","
","
","""event"",""trial"",""time""
""fullscreenenter"",""1"",""2467""
","
","","","474.80000019073486","","","12","15988","401","&#9761;","elianto","#3366ff99","-1"," ","0","0","[1326.4000005722046]","1","0","2","","","","","","","",""
"pit-trial","52","451207","0.0-2.0-11.3-0.3","battery-v0.2","","""event"",""trial"",""time""
""fullscreenenter"",""1"",""2467""
","
","
","""event"",""trial"",""time""
""fullscreenenter"",""1"",""2467""
","
","","","304.19999980926514","","","12","15988","401","&#9761;","elianto","#3366ff99","-1"," ","0","0","[1155.4000005722046]","1","0","2","","","","","","","",""
"pit-trial","53","454129","0.0-2.0-11.3-1.3","battery-v0.2","","""event"",""trial"",""time""
""fullscreenenter"",""1"",""2467""
","
","
","""event"",""trial"",""time""
""fullscreenenter"",""1"",""2467""
","
","","","66.59999942779541","","","12","15988","401","&#9761;","elianto","#3366ff99","-1"," ","0","0","[917.8999996185303]","1","0","2","","","","","","","",""
"pit-trial","54","457842","0.0-2.0-11.3-2.3","battery-v0.2","","""event"",""trial"",""time""
""fullscreenenter"",""1"",""2467""
","
","
","""event"",""trial"",""time""
""fullscreenenter"",""1"",""2467""
","
","","","856.8000001907349","","","12","15988","401","&#9761;","elianto","#3366ff99","-1"," ","0","0","[1708.3000001907349]","1","0","2","","","","","","","",""
"pit-trial","55","462144","0.0-2.0-11.3-3.3","battery-v0.2","","""event"",""trial"",""time""
""fullscreenenter"",""1"",""2467""
","
","
","""event"",""trial"",""time""
""fullscreenenter"",""1"",""2467""
","
","","","1445.5","","","12","15988","401","&#9761;","elianto","#3366ff99","-1"," ","0","+10","[2296.5]","1","0","2","","","","","","","",""
"pit-trial","56","465784","0.0-2.0-11.3-4.3","battery-v0.2","","""event"",""trial"",""time""
""fullscreenenter"",""1"",""2467""
","
","
","""event"",""trial"",""time""
""fullscreenenter"",""1"",""2467""
","
","","","783.8000001907349","","","12","15988","401","&#9761;","elianto","#3366ff99","-1"," ","0","0","[1634.6999998092651]","1","0","2","","","","","","","",""
"call-function","57","465786","0.0-2.0-12.0","battery-v0.2","","""event"",""trial"",""time""
""fullscreenenter"",""1"",""2467""
","
","
","""event"",""trial"",""time""
""fullscreenenter"",""1"",""2467""
","
","","","","","","","","","","","","","","","","","","","","","","","","","","",""
"pit-instructions","58","505410","0.0-2.0-13.0","battery-v0.2","","""event"",""trial"",""time""
""fullscreenenter"",""1"",""2467""
","
","
","""event"",""trial"",""time""
""fullscreenenter"",""1"",""2467""
","
","","[{""page_index"":0,""viewing_time"":5428.10000038147},{""page_index"":1,""viewing_time"":9664.800000190735},{""page_index"":2,""viewing_time"":7240.699999809265},{""page_index"":3,""viewing_time"":12200.39999961853},{""page_index"":4,""viewing_time"":5088.300000190735}]","39622.900000572205","","","","","","","","","","","","","","","","","","","","","","","",""
"pit-trial","59","510267","0.0-2.0-14.0-0.0","battery-v0.2","","""event"",""trial"",""time""
""fullscreenenter"",""1"",""2467""
","
","
","""event"",""trial"",""time""
""fullscreenenter"",""1"",""2467""
","
","","","-1","","","12","15988","401","&#9826;","elianto","#f73b6a7A","-1","-1","1","0","[]","0","0","3","","","","","","","",""
"pit-trial","60","515123","0.0-2.0-14.0-1.0","battery-v0.2","","""event"",""trial"",""time""
""fullscreenenter"",""1"",""2467""
","
","
","""event"",""trial"",""time""
""fullscreenenter"",""1"",""2467""
","
","","","-1","","","12","15988","401","&#9826;","elianto","#f73b6a7A","-1","-1","1","0","[]","0","0","3","","","","","","","",""
"pit-trial","61","519980","0.0-2.0-14.0-2.0","battery-v0.2","","""event"",""trial"",""time""
""fullscreenenter"",""1"",""2467""
","
","
","""event"",""trial"",""time""
""fullscreenenter"",""1"",""2467""
","
","","","-1","","","12","15988","401","&#9826;","elianto","#f73b6a7A","-1","-1","1","0","[]","0","0","3","","","","","","","",""
"pit-trial","62","524837","0.0-2.0-14.0-3.0","battery-v0.2","","""event"",""trial"",""time""
""fullscreenenter"",""1"",""2467""
","
","
","""event"",""trial"",""time""
""fullscreenenter"",""1"",""2467""
","
","","","-1","","","12","15988","401","&#9826;","elianto","#f73b6a7A","-1","-1","1","-10","[]","0","0","3","","","","","","","",""
"pit-trial","63","529693","0.0-2.0-14.0-4.0","battery-v0.2","","""event"",""trial"",""time""
""fullscreenenter"",""1"",""2467""
","
","
","""event"",""trial"",""time""
""fullscreenenter"",""1"",""2467""
","
","","","-1","","","12","15988","401","&#9826;","elianto","#f73b6a7A","-1","-1","1","0","[]","0","0","3","","","","","","","",""
"pit-trial","64","534550","0.0-2.0-14.1-0.1","battery-v0.2","","""event"",""trial"",""time""
""fullscreenenter"",""1"",""2467""
","
","
","""event"",""trial"",""time""
""fullscreenenter"",""1"",""2467""
","
","","","-1","","","12","15988","401","&#9826;","elianto","#f73b6a7A","-1","-1","1","0","[]","0","0","3","","","","","","","",""
"pit-trial","65","539406","0.0-2.0-14.1-1.1","battery-v0.2","","""event"",""trial"",""time""
""fullscreenenter"",""1"",""2467""
","
","
","""event"",""trial"",""time""
""fullscreenenter"",""1"",""2467""
","
","","","-1","","","12","15988","401","&#9826;","elianto","#f73b6a7A","-1","-1","1","0","[]","0","0","3","","","","","","","",""
"pit-trial","66","544260","0.0-2.0-14.1-2.1","battery-v0.2","","""event"",""trial"",""time""
""fullscreenenter"",""1"",""2467""
","
","
","""event"",""trial"",""time""
""fullscreenenter"",""1"",""2467""
","
","","","-1","","","12","15988","401","&#9826;","elianto","#f73b6a7A","-1","-1","1","0","[]","0","0","3","","","","","","","",""
"pit-trial","67","549117","0.0-2.0-14.1-3.1","battery-v0.2","","""event"",""trial"",""time""
""fullscreenenter"",""1"",""2467""
","
","
","""event"",""trial"",""time""
""fullscreenenter"",""1"",""2467""
","
","","","-1","","","12","15988","401","&#9826;","elianto","#f73b6a7A","-1","-1","1","-10","[]","0","0","3","","","","","","","",""
"pit-trial","68","553974","0.0-2.0-14.1-4.1","battery-v0.2","","""event"",""trial"",""time""
""fullscreenenter"",""1"",""2467""
","
","
","""event"",""trial"",""time""
""fullscreenenter"",""1"",""2467""
","
","","","-1","","","12","15988","401","&#9826;","elianto","#f73b6a7A","-1","-1","1","0","[]","0","0","3","","","","","","","",""
"pit-trial","69","558832","0.0-2.0-14.2-0.2","battery-v0.2","","""event"",""trial"",""time""
""fullscreenenter"",""1"",""2467""
","
","
","""event"",""trial"",""time""
""fullscreenenter"",""1"",""2467""
","
","","","-1","","","12","15988","401","&#9826;","elianto","#f73b6a7A","-1","-1","1","0","[]","0","0","3","","","","","","","",""
"pit-trial","70","563688","0.0-2.0-14.2-1.2","battery-v0.2","","""event"",""trial"",""time""
""fullscreenenter"",""1"",""2467""
","
","
","""event"",""trial"",""time""
""fullscreenenter"",""1"",""2467""
","
","","","-1","","","12","15988","401","&#9826;","elianto","#f73b6a7A","-1","-1","1","0","[]","0","0","3","","","","","","","",""
"pit-trial","71","568545","0.0-2.0-14.2-2.2","battery-v0.2","","""event"",""trial"",""time""
""fullscreenenter"",""1"",""2467""
","
","
","""event"",""trial"",""time""
""fullscreenenter"",""1"",""2467""
","
","","","-1","","","12","15988","401","&#9826;","elianto","#f73b6a7A","-1","-1","1","0","[]","0","0","3","","","","","","","",""
"pit-trial","72","573401","0.0-2.0-14.2-3.2","battery-v0.2","","""event"",""trial"",""time""
""fullscreenenter"",""1"",""2467""
","
","
","""event"",""trial"",""time""
""fullscreenenter"",""1"",""2467""
","
","","","-1","","","12","15988","401","&#9826;","elianto","#f73b6a7A","-1","-1","1","-10","[]","0","0","3","","","","","","","",""
"pit-trial","73","578257","0.0-2.0-14.2-4.2","battery-v0.2","","""event"",""trial"",""time""
""fullscreenenter"",""1"",""2467""
","
","
","""event"",""trial"",""time""
""fullscreenenter"",""1"",""2467""
","
","","","-1","","","12","15988","401","&#9826;","elianto","#f73b6a7A","-1","-1","1","0","[]","0","0","3","","","","","","","",""
"pit-trial","74","583113","0.0-2.0-14.3-0.3","battery-v0.2","","""event"",""trial"",""time""
""fullscreenenter"",""1"",""2467""
","
","
","""event"",""trial"",""time""
""fullscreenenter"",""1"",""2467""
","
","","","-1","","","12","15988","401","&#9826;","elianto","#f73b6a7A","-1","-1","1","0","[]","0","0","3","","","","","","","",""
"pit-trial","75","587969","0.0-2.0-14.3-1.3","battery-v0.2","","""event"",""trial"",""time""
""fullscreenenter"",""1"",""2467""
","
","
","""event"",""trial"",""time""
""fullscreenenter"",""1"",""2467""
","
","","","-1","","","12","15988","401","&#9826;","elianto","#f73b6a7A","-1","-1","1","0","[]","0","0","3","","","","","","","",""
"pit-trial","76","592825","0.0-2.0-14.3-2.3","battery-v0.2","","""event"",""trial"",""time""
""fullscreenenter"",""1"",""2467""
","
","
","""event"",""trial"",""time""
""fullscreenenter"",""1"",""2467""
","
","","","-1","","","12","15988","401","&#9826;","elianto","#f73b6a7A","-1","-1","1","0","[]","0","0","3","","","","","","","",""
"pit-trial","77","597680","0.0-2.0-14.3-3.3","battery-v0.2","","""event"",""trial"",""time""
""fullscreenenter"",""1"",""2467""
","
","
","""event"",""trial"",""time""
""fullscreenenter"",""1"",""2467""
","
","","","-1","","","12","15988","401","&#9826;","elianto","#f73b6a7A","-1","-1","1","-10","[]","0","0","3","","","","","","","",""
"pit-trial","78","602537","0.0-2.0-14.3-4.3","battery-v0.2","","""event"",""trial"",""time""
""fullscreenenter"",""1"",""2467""
","
","
","""event"",""trial"",""time""
""fullscreenenter"",""1"",""2467""
","
","","","-1","","","12","15988","401","&#9826;","elianto","#f73b6a7A","-1","-1","1","0","[]","0","0","3","","","","","","","",""
"call-function","79","602539","0.0-2.0-15.0","battery-v0.2","","""event"",""trial"",""time""
""fullscreenenter"",""1"",""2467""
","
","
","""event"",""trial"",""time""
""fullscreenenter"",""1"",""2467""
","
","","","","","","","","","","","","","","","","","","","","","","","","","","",""
"pit-instructions","80","632208","0.0-2.0-16.0","battery-v0.2","","""event"",""trial"",""time""
""fullscreenenter"",""1"",""2467""
","
","
","""event"",""trial"",""time""
""fullscreenenter"",""1"",""2467""
","
","","[{""page_index"":0,""viewing_time"":6920.5},{""page_index"":1,""viewing_time"":8278.800000190735},{""page_index"":2,""viewing_time"":6519.60000038147},{""page_index"":3,""viewing_time"":7947.800000190735}]","29667.300000190735","","","","","","","","","","","","","","","","","","","","","","","",""
"pit-trial","81","635618","0.0-2.0-17.0-0.0","battery-v0.2","","""event"",""trial"",""time""
""fullscreenenter"",""1"",""2467""
","
","
","""event"",""trial"",""time""
""fullscreenenter"",""1"",""2467""
","
","","","554.7000007629395","","","12","15988","401","&#9789;","elianto","#f73b6a7A"," "," ","1","0","[1405]","1","0","4","","","","","","","",""
"pit-trial","82","638930","0.0-2.0-17.0-1.0","battery-v0.2","","""event"",""trial"",""time""
""fullscreenenter"",""1"",""2467""
","
","
","""event"",""trial"",""time""
""fullscreenenter"",""1"",""2467""
","
","","","455.5","","","12","15988","401","&#9789;","elianto","#f73b6a7A"," "," ","1","0","[1306.8999996185303]","1","0","4","","","","","","","",""
"pit-trial","83","643787","0.0-2.0-17.0-2.0","battery-v0.2","","""event"",""trial"",""time""
""fullscreenenter"",""1"",""2467""
","
","
","""event"",""trial"",""time""
""fullscreenenter"",""1"",""2467""
","
","","","-1","","","12","15988","401","&#9789;","elianto","#f73b6a7A"," ","-1","0","-10","[]","0","0","4","","","","","","","",""
"pit-trial","84","648643","0.0-2.0-17.0-3.0","battery-v0.2","","""event"",""trial"",""time""
""fullscreenenter"",""1"",""2467""
","
","
","""event"",""trial"",""time""
""fullscreenenter"",""1"",""2467""
","
","","","-1","","","12","15988","401","&#9789;","elianto","#f73b6a7A"," ","-1","0","0","[]","0","0","4","","","","","","","",""
"pit-trial","85","653500","0.0-2.0-17.0-4.0","battery-v0.2","","""event"",""trial"",""time""
""fullscreenenter"",""1"",""2467""
","
","
","""event"",""trial"",""time""
""fullscreenenter"",""1"",""2467""
","
","","","-1","","","12","15988","401","&#9789;","elianto","#f73b6a7A"," ","-1","0","-10","[]","0","0","4","","","","","","","",""
"pit-trial","86","658357","0.0-2.0-17.1-0.1","battery-v0.2","","""event"",""trial"",""time""
""fullscreenenter"",""1"",""2467""
","
","
","""event"",""trial"",""time""
""fullscreenenter"",""1"",""2467""
","
","","","-1","","","12","15988","401","&#9789;","elianto","#f73b6a7A"," ","-1","0","-10","[]","0","0","4","","","","","","","",""
"pit-trial","87","663215","0.0-2.0-17.1-1.1","battery-v0.2","","""event"",""trial"",""time""
""fullscreenenter"",""1"",""2467""
","
","
","""event"",""trial"",""time""
""fullscreenenter"",""1"",""2467""
","
","","","-1","","","12","15988","401","&#9789;","elianto","#f73b6a7A"," ","-1","0","-10","[]","0","0","4","","","","","","","",""
"pit-trial","88","668072","0.0-2.0-17.1-2.1","battery-v0.2","","""event"",""trial"",""time""
""fullscreenenter"",""1"",""2467""
","
","
","""event"",""trial"",""time""
""fullscreenenter"",""1"",""2467""
","
","","","-1","","","12","15988","401","&#9789;","elianto","#f73b6a7A"," ","-1","0","-10","[]","0","0","4","","","","","","","",""
"pit-trial","89","672929","0.0-2.0-17.1-3.1","battery-v0.2","","""event"",""trial"",""time""
""fullscreenenter"",""1"",""2467""
","
","
","""event"",""trial"",""time""
""fullscreenenter"",""1"",""2467""
","
","","","-1","","","12","15988","401","&#9789;","elianto","#f73b6a7A"," ","-1","0","0","[]","0","0","4","","","","","","","",""
"pit-trial","90","677784","0.0-2.0-17.1-4.1","battery-v0.2","","""event"",""trial"",""time""
""fullscreenenter"",""1"",""2467""
","
","
","""event"",""trial"",""time""
""fullscreenenter"",""1"",""2467""
","
","","","-1","","","12","15988","401","&#9789;","elianto","#f73b6a7A"," ","-1","0","-10","[]","0","0","4","","","","","","","",""
"pit-trial","91","682640","0.0-2.0-17.2-0.2","battery-v0.2","","""event"",""trial"",""time""
""fullscreenenter"",""1"",""2467""
","
","
","""event"",""trial"",""time""
""fullscreenenter"",""1"",""2467""
","
","","","-1","","","12","15988","401","&#9789;","elianto","#f73b6a7A"," ","-1","0","-10","[]","0","0","4","","","","","","","",""
"pit-trial","92","687496","0.0-2.0-17.2-1.2","battery-v0.2","","""event"",""trial"",""time""
""fullscreenenter"",""1"",""2467""
","
","
","""event"",""trial"",""time""
""fullscreenenter"",""1"",""2467""
","
","","","-1","","","12","15988","401","&#9789;","elianto","#f73b6a7A"," ","-1","0","-10","[]","0","0","4","","","","","","","",""
"pit-trial","93","692353","0.0-2.0-17.2-2.2","battery-v0.2","","""event"",""trial"",""time""
""fullscreenenter"",""1"",""2467""
","
","
","""event"",""trial"",""time""
""fullscreenenter"",""1"",""2467""
","
","","","-1","","","12","15988","401","&#9789;","elianto","#f73b6a7A"," ","-1","0","-10","[]","0","0","4","","","","","","","",""
"pit-trial","94","697209","0.0-2.0-17.2-3.2","battery-v0.2","","""event"",""trial"",""time""
""fullscreenenter"",""1"",""2467""
","
","
","""event"",""trial"",""time""
""fullscreenenter"",""1"",""2467""
","
","","","-1","","","12","15988","401","&#9789;","elianto","#f73b6a7A"," ","-1","0","0","[]","0","0","4","","","","","","","",""
"pit-trial","95","702065","0.0-2.0-17.2-4.2","battery-v0.2","","""event"",""trial"",""time""
""fullscreenenter"",""1"",""2467""
","
","
","""event"",""trial"",""time""
""fullscreenenter"",""1"",""2467""
","
","","","-1","","","12","15988","401","&#9789;","elianto","#f73b6a7A"," ","-1","0","-10","[]","0","0","4","","","","","","","",""
"pit-trial","96","706921","0.0-2.0-17.3-0.3","battery-v0.2","","""event"",""trial"",""time""
""fullscreenenter"",""1"",""2467""
","
","
","""event"",""trial"",""time""
""fullscreenenter"",""1"",""2467""
","
","","","-1","","","12","15988","401","&#9789;","elianto","#f73b6a7A"," ","-1","0","-10","[]","0","0","4","","","","","","","",""
"pit-trial","97","711777","0.0-2.0-17.3-1.3","battery-v0.2","","""event"",""trial"",""time""
""fullscreenenter"",""1"",""2467""
","
","
","""event"",""trial"",""time""
""fullscreenenter"",""1"",""2467""
","
","","","-1","","","12","15988","401","&#9789;","elianto","#f73b6a7A"," ","-1","0","-10","[]","0","0","4","","","","","","","",""
"pit-trial","98","716634","0.0-2.0-17.3-2.3","battery-v0.2","","""event"",""trial"",""time""
""fullscreenenter"",""1"",""2467""
","
","
","""event"",""trial"",""time""
""fullscreenenter"",""1"",""2467""
","
","","","-1","","","12","15988","401","&#9789;","elianto","#f73b6a7A"," ","-1","0","-10","[]","0","0","4","","","","","","","",""
"pit-trial","99","721491","0.0-2.0-17.3-3.3","battery-v0.2","","""event"",""trial"",""time""
""fullscreenenter"",""1"",""2467""
","
","
","""event"",""trial"",""time""
""fullscreenenter"",""1"",""2467""
","
","","","-1","","","12","15988","401","&#9789;","elianto","#f73b6a7A"," ","-1","0","0","[]","0","0","4","","","","","","","",""
"pit-trial","100","726348","0.0-2.0-17.3-4.3","battery-v0.2","","""event"",""trial"",""time""
""fullscreenenter"",""1"",""2467""
","
","
","""event"",""trial"",""time""
""fullscreenenter"",""1"",""2467""
","
","","","-1","","","12","15988","401","&#9789;","elianto","#f73b6a7A"," ","-1","0","-10","[]","0","0","4","","","","","","","",""
"call-function","101","726351","0.0-2.0-18.0","battery-v0.2","","""event"",""trial"",""time""
""fullscreenenter"",""1"",""2467""
","
","
","""event"",""trial"",""time""
""fullscreenenter"",""1"",""2467""
","
","","","","","","","","","","","","","","","","","","","","","","","","","","",""
"pit-instructions","102","807446","0.0-2.0-19.0","battery-v0.2","","""event"",""trial"",""time""
""fullscreenenter"",""1"",""2467""
","
","
","""event"",""trial"",""time""
""fullscreenenter"",""1"",""2467""
","
","","[{""page_index"":0,""viewing_time"":7233.700000762939},{""page_index"":1,""viewing_time"":11455.89999961853},{""page_index"":2,""viewing_time"":12675.699999809265},{""page_index"":3,""viewing_time"":8500.60000038147},{""page_index"":4,""viewing_time"":9583.199999809265},{""page_index"":5,""viewing_time"":8693.60000038147},{""page_index"":6,""viewing_time"":8941.699999809265},{""page_index"":7,""viewing_time"":9064.5},{""page_index"":8,""viewing_time"":4943.599999427795}]","81093.20000076294","","","","","","","","","","","","","","","","","","","","","","","",""
"pit-comprehension","103","812622","0.0-2.0-20.0-0.0","battery-v0.2","","""event"",""trial"",""time""
""fullscreenenter"",""1"",""2467""
","
","
","""event"",""trial"",""time""
""fullscreenenter"",""1"",""2467""
","
","","","5170.39999961853","[""SPACE""]","0","12","15988","401","","","","","","","","","","","","","","","","","","",""
"pit-instructions","104","816291","0.0-2.0-20.0-1.0","battery-v0.2","","""event"",""trial"",""time""
""fullscreenenter"",""1"",""2467""
","
","
","""event"",""trial"",""time""
""fullscreenenter"",""1"",""2467""
","
","","[{""page_index"":0,""viewing_time"":3637.0999994277954}]","3637.5","","","","","","","","","","","","","","","","","","","","","","","",""
"pit-comprehension","105","823133","0.0-2.0-21.0-0.0","battery-v0.2","","""event"",""trial"",""time""
""fullscreenenter"",""1"",""2467""
","
","
","""event"",""trial"",""time""
""fullscreenenter"",""1"",""2467""
","
","","","6836.10000038147","[""10""]","0","12","15988","401","","","","","","","","","","","","","","","","","","",""
"pit-instructions","106","826653","0.0-2.0-21.0-1.0","battery-v0.2","","""event"",""trial"",""time""
""fullscreenenter"",""1"",""2467""
","
","
","""event"",""trial"",""time""
""fullscreenenter"",""1"",""2467""
","
","","[{""page_index"":0,""viewing_time"":3488.0999994277954}]","3488.699999809265","","","","","","","","","","","","","","","","","","","","","","","",""
"pit-comprehension","107","833241","0.0-2.0-22.0-0.0","battery-v0.2","","""event"",""trial"",""time""
""fullscreenenter"",""1"",""2467""
","
","
","""event"",""trial"",""time""
""fullscreenenter"",""1"",""2467""
","
","","","6582","[""-10""]","1","12","15988","401","","","","","","","","","","","","","","","","","","",""
"pit-instructions","108","838017","0.0-2.0-22.0-1.0","battery-v0.2","","""event"",""trial"",""time""
""fullscreenenter"",""1"",""2467""
","
","
","""event"",""trial"",""time""
""fullscreenenter"",""1"",""2467""
","
","","[{""page_index"":0,""viewing_time"":4743.60000038147}]","4743.800000190735","","","","","","","","","","","","","","","","","","","","","","","",""
"pit-instructions","109","839445","0.0-2.0-22.0-2.0-0.0","battery-v0.2","","""event"",""trial"",""time""
""fullscreenenter"",""1"",""2467""
","
","
","""event"",""trial"",""time""
""fullscreenenter"",""1"",""2467""
","
","","[{""page_index"":0,""viewing_time"":1426}]","1426.1000003814697","","","","","","","","","","","","","","","","","","","","","","","",""
"pit-comprehension","110","847316","0.0-2.0-22.1-0.1","battery-v0.2","","""event"",""trial"",""time""
""fullscreenenter"",""1"",""2467""
","
","
","""event"",""trial"",""time""
""fullscreenenter"",""1"",""2467""
","
","","","7869.699999809265","[""0""]","0","12","15988","401","","","","","","","","","","","","","","","","","","",""
"pit-instructions","111","855570","0.0-2.0-22.1-1.1","battery-v0.2","","""event"",""trial"",""time""
""fullscreenenter"",""1"",""2467""
","
","
","""event"",""trial"",""time""
""fullscreenenter"",""1"",""2467""
","
","","[{""page_index"":0,""viewing_time"":8222.199999809265}]","8222.699999809265","","","","","","","","","","","","","","","","","","","","","","","",""
"pit-comprehension","112","864240","0.0-2.0-23.0-0.0","battery-v0.2","","""event"",""trial"",""time""
""fullscreenenter"",""1"",""2467""
","
","
","""event"",""trial"",""time""
""fullscreenenter"",""1"",""2467""
","
","","","8664.199999809265","[""False""]","1","12","15988","401","","","","","","","","","","","","","","","","","","",""
"pit-instructions","113","867312","0.0-2.0-23.0-1.0","battery-v0.2","","""event"",""trial"",""time""
""fullscreenenter"",""1"",""2467""
","
","
","""event"",""trial"",""time""
""fullscreenenter"",""1"",""2467""
","
","","[{""page_index"":0,""viewing_time"":3039.2999992370605}]","3039.7999992370605","","","","","","","","","","","","","","","","","","","","","","","",""
"pit-instructions","114","868190","0.0-2.0-23.0-2.0-0.0","battery-v0.2","","""event"",""trial"",""time""
""fullscreenenter"",""1"",""2467""
","
","
","""event"",""trial"",""time""
""fullscreenenter"",""1"",""2467""
","
","","[{""page_index"":0,""viewing_time"":875}]","875.5","","","","","","","","","","","","","","","","","","","","","","","",""
"pit-comprehension","115","876717","0.0-2.0-23.1-0.1","battery-v0.2","","""event"",""trial"",""time""
""fullscreenenter"",""1"",""2467""
","
","
","""event"",""trial"",""time""
""fullscreenenter"",""1"",""2467""
","
","","","8522.400000572205","[""True""]","0","12","15988","401","","","","","","","","","","","","","","","","","","",""
"pit-instructions","116","878615","0.0-2.0-23.1-1.1","battery-v0.2","","""event"",""trial"",""time""
""fullscreenenter"",""1"",""2467""
","
","
","""event"",""trial"",""time""
""fullscreenenter"",""1"",""2467""
","
","","[{""page_index"":0,""viewing_time"":1863.1999998092651}]","1863.6999998092651","","","","","","","","","","","","","","","","","","","","","","","",""
"pit-comprehension","117","887196","0.0-2.0-24.0-0.0","battery-v0.2","","""event"",""trial"",""time""
""fullscreenenter"",""1"",""2467""
","
","
","""event"",""trial"",""time""
""fullscreenenter"",""1"",""2467""
","
","","","8576.699999809265","[""True""]","0","12","15988","401","","","","","","","","","","","","","","","","","","",""
"pit-instructions","118","891983","0.0-2.0-24.0-1.0","battery-v0.2","","""event"",""trial"",""time""
""fullscreenenter"",""1"",""2467""
","
","
","""event"",""trial"",""time""
""fullscreenenter"",""1"",""2467""
","
","","[{""page_index"":0,""viewing_time"":4752.099999427795}]","4752.599999427795","","","","","","","","","","","","","","","","","","","","","","","",""
"pit-comprehension","119","903581","0.0-2.0-25.0-0.0","battery-v0.2","","""event"",""trial"",""time""
""fullscreenenter"",""1"",""2467""
","
","
","""event"",""trial"",""time""
""fullscreenenter"",""1"",""2467""
","
","","","11592.400000572205","[""True""]","0","12","15988","401","","","","","","","","","","","","","","","","","","",""
"pit-instructions","120","913974","0.0-2.0-25.0-1.0","battery-v0.2","","""event"",""trial"",""time""
""fullscreenenter"",""1"",""2467""
","
","
","""event"",""trial"",""time""
""fullscreenenter"",""1"",""2467""
","
","","[{""page_index"":0,""viewing_time"":10359.199999809265}]","10359.5","","","","","","","","","","","","","","","","","","","","","","","",""
"pit-comprehension","121","920458","0.0-2.0-26.0-0.0","battery-v0.2","","""event"",""trial"",""time""
""fullscreenenter"",""1"",""2467""
","
","
","""event"",""trial"",""time""
""fullscreenenter"",""1"",""2467""
","
","","","6479.39999961853","[""True""]","1","12","15988","401","","","","","","","","","","","","","","","","","","",""
"pit-instructions","122","922603","0.0-2.0-26.0-1.0","battery-v0.2","","""event"",""trial"",""time""
""fullscreenenter"",""1"",""2467""
","
","
","""event"",""trial"",""time""
""fullscreenenter"",""1"",""2467""
","
","","[{""page_index"":0,""viewing_time"":2110.6000003814697}]","2111.1000003814697","","","","","","","","","","","","","","","","","","","","","","","",""
"pit-instructions","123","923824","0.0-2.0-26.0-2.0-0.0","battery-v0.2","","""event"",""trial"",""time""
""fullscreenenter"",""1"",""2467""
","
","
","""event"",""trial"",""time""
""fullscreenenter"",""1"",""2467""
","
","","[{""page_index"":0,""viewing_time"":1217.9000005722046}]","1218.4000005722046","","","","","","","","","","","","","","","","","","","","","","","",""
"pit-comprehension","124","929047","0.0-2.0-26.1-0.1","battery-v0.2","","""event"",""trial"",""time""
""fullscreenenter"",""1"",""2467""
","
","
","""event"",""trial"",""time""
""fullscreenenter"",""1"",""2467""
","
","","","5218.799999237061","[""False""]","0","12","15988","401","","","","","","","","","","","","","","","","","","",""
"pit-instructions","125","930834","0.0-2.0-26.1-1.1","battery-v0.2","","""event"",""trial"",""time""
""fullscreenenter"",""1"",""2467""
","
","
","""event"",""trial"",""time""
""fullscreenenter"",""1"",""2467""
","
","","[{""page_index"":0,""viewing_time"":1754.3999996185303}]","1754.8999996185303","","","","","","","","","","","","","","","","","","","","","","","",""
"pit-instructions","126","948465","0.0-3.0","battery-v0.2","","""event"",""trial"",""time""
""fullscreenenter"",""1"",""2467""
","
","
","""event"",""trial"",""time""
""fullscreenenter"",""1"",""2467""
","
","","[{""page_index"":0,""viewing_time"":4472.300000190735},{""page_index"":1,""viewing_time"":5783.5},{""page_index"":2,""viewing_time"":7371.400000572205}]","17627.800000190735","","","","","","","","","","","","","","","","","","","","","","","",""
"pit-trial","127","952186","0.0-4.0","battery-v0.2","","""event"",""trial"",""time""
""fullscreenenter"",""1"",""2467""
","
","
","""event"",""trial"",""time""
""fullscreenenter"",""1"",""2467""
","
","","","861.1000003814697","","","12","15988","401","&#9733;","elianto","#3366ff99","-1"," ","0","0","[1712.3000001907349]","1","1","","","15988","1","2","2","win","no-go","0"
"pit-trial","128","957043","0.0-5.0","battery-v0.2","","""event"",""trial"",""time""
""fullscreenenter"",""1"",""2467""
","
","
","""event"",""trial"",""time""
""fullscreenenter"",""1"",""2467""
","
","","","-1","","","12","15988","401","&#9752;","elianto","#f73b6a7A"," ","-1","0","0","[]","0","1","","","15988","2","3","3","lose","go","1"
"pit-trial","129","960457","0.0-6.0","battery-v0.2","","""event"",""trial"",""time""
""fullscreenenter"",""1"",""2467""
","
","
","""event"",""trial"",""time""
""fullscreenenter"",""1"",""2467""
","
","","","559.1999998092651","","","12","15988","401","&#9730;","elianto","#3366ff99"," "," ","1","+10","[1409.5]","1","1","","","15988","3","1","1","win","go","0"
"pit-trial","130","965314","0.0-7.0","battery-v0.2","","""event"",""trial"",""time""
""fullscreenenter"",""1"",""2467""
","
","
","""event"",""trial"",""time""
""fullscreenenter"",""1"",""2467""
","
","","","-1","","","12","15988","401","&#9728;","elianto","#f73b6a7A","-1","-1","1","0","[]","0","1","","","15988","4","0","4","lose","no-go","0"
"pit-trial","131","970170","0.0-8.0","battery-v0.2","","""event"",""trial"",""time""
""fullscreenenter"",""1"",""2467""
","
","
","""event"",""trial"",""time""
""fullscreenenter"",""1"",""2467""
","
","","","-1","","","12","15988","401","&#9728;","elianto","#f73b6a7A","-1","-1","1","-10","[]","0","1","","","15988","5","0","4","lose","no-go","1"
"pit-trial","132","973729","0.0-9.0","battery-v0.2","","""event"",""trial"",""time""
""fullscreenenter"",""1"",""2467""
","
","
","""event"",""trial"",""time""
""fullscreenenter"",""1"",""2467""
","
","","","703.8000001907349","","","12","15988","401","&#9733;","elianto","#3366ff99","-1"," ","0","0","[1554.3000001907349]","1","1","","","15988","6","2","2","win","no-go","0"
"pit-trial","133","977368","0.0-10.0","battery-v0.2","","""event"",""trial"",""time""
""fullscreenenter"",""1"",""2467""
","
","
","""event"",""trial"",""time""
""fullscreenenter"",""1"",""2467""
","
","","","782.7999992370605","","","12","15988","401","&#9730;","elianto","#3366ff99"," "," ","1","+10","[1633.3999996185303]","1","1","","","15988","7","1","1","win","go","0"
"pit-trial","134","982224","0.0-11.0","battery-v0.2","","""event"",""trial"",""time""
""fullscreenenter"",""1"",""2467""
","
","
","""event"",""trial"",""time""
""fullscreenenter"",""1"",""2467""
","
","","","-1","","","12","15988","401","&#9752;","elianto","#f73b6a7A"," ","-1","0","-10","[]","0","1","","","15988","8","3","3","lose","go","0"
"pit-trial","135","987057","0.0-12.0","battery-v0.2","","""event"",""trial"",""time""
""fullscreenenter"",""1"",""2467""
","
","
","""event"",""trial"",""time""
""fullscreenenter"",""1"",""2467""
","
","","","1978.3000001907349","","","12","15988","401","&#9730;","elianto","#3366ff99"," "," ","1","0","[2828.5]","1","1","","","15988","9","1","1","win","go","1"
"pit-trial","136","991914","0.0-13.0","battery-v0.2","","""event"",""trial"",""time""
""fullscreenenter"",""1"",""2467""
","
","
","""event"",""trial"",""time""
""fullscreenenter"",""1"",""2467""
","
","","","-1","","","12","15988","401","&#9728;","elianto","#f73b6a7A","-1","-1","1","0","[]","0","1","","","15988","10","0","4","lose","no-go","0"
"pit-trial","137","996771","0.0-14.0","battery-v0.2","","""event"",""trial"",""time""
""fullscreenenter"",""1"",""2467""
","
","
","""event"",""trial"",""time""
""fullscreenenter"",""1"",""2467""
","
","","","-1","","","12","15988","401","&#9752;","elianto","#f73b6a7A"," ","-1","0","-10","[]","0","1","","","15988","11","3","3","lose","go","0"
"pit-trial","138","1000395","0.0-15.0","battery-v0.2","","""event"",""trial"",""time""
""fullscreenenter"",""1"",""2467""
","
","
","""event"",""trial"",""time""
""fullscreenenter"",""1"",""2467""
","
","","","766.8000001907349","","","12","15988","401","&#9733;","elianto","#3366ff99","-1"," ","0","0","[1618.1999998092651]","1","1","","","15988","12","2","2","win","no-go","0"
"pit-trial","139","1005251","0.0-16.0","battery-v0.2","","""event"",""trial"",""time""
""fullscreenenter"",""1"",""2467""
","
","
","""event"",""trial"",""time""
""fullscreenenter"",""1"",""2467""
","
","","","-1","","","12","15988","401","&#9752;","elianto","#f73b6a7A"," ","-1","0","-10","[]","0","1","","","15988","13","3","3","lose","go","0"
"pit-trial","140","1010107","0.0-17.0","battery-v0.2","","""event"",""trial"",""time""
""fullscreenenter"",""1"",""2467""
","
","
","""event"",""trial"",""time""
""fullscreenenter"",""1"",""2467""
","
","","","-1","","","12","15988","401","&#9733;","elianto","#3366ff99","-1","-1","1","+10","[]","0","1","","","15988","14","2","2","win","no-go","0"
"pit-trial","141","1013512","0.0-18.0","battery-v0.2","","""event"",""trial"",""time""
""fullscreenenter"",""1"",""2467""
","
","
","""event"",""trial"",""time""
""fullscreenenter"",""1"",""2467""
","
","","","549.7999992370605","","","12","15988","401","&#9730;","elianto","#3366ff99"," "," ","1","+10","[1400.0999994277954]","1","1","","","15988","15","1","1","win","go","0"
"pit-trial","142","1018369","0.0-19.0","battery-v0.2","","""event"",""trial"",""time""
""fullscreenenter"",""1"",""2467""
","
","
","""event"",""trial"",""time""
""fullscreenenter"",""1"",""2467""
","
","","","-1","","","12","15988","401","&#9728;","elianto","#f73b6a7A","-1","-1","1","0","[]","0","1","","","15988","16","0","4","lose","no-go","0"
"pit-trial","143","1023226","0.0-20.0","battery-v0.2","","""event"",""trial"",""time""
""fullscreenenter"",""1"",""2467""
","
","
","""event"",""trial"",""time""
""fullscreenenter"",""1"",""2467""
","
","","","-1","","","12","15988","401","&#9728;","elianto","#f73b6a7A","-1","-1","1","0","[]","0","1","","","15988","17","0","4","lose","no-go","0"
"pit-trial","144","1027026","0.0-21.0","battery-v0.2","","""event"",""trial"",""time""
""fullscreenenter"",""1"",""2467""
","
","
","""event"",""trial"",""time""
""fullscreenenter"",""1"",""2467""
","
","","","944.6999998092651","","","12","15988","401","&#9730;","elianto","#3366ff99"," "," ","1","+10","[1795.5999994277954]","1","1","","","15988","18","1","1","win","go","0"
"pit-trial","145","1031513","0.0-22.0","battery-v0.2","","""event"",""trial"",""time""
""fullscreenenter"",""1"",""2467""
","
","
","""event"",""trial"",""time""
""fullscreenenter"",""1"",""2467""
","
","","","1631.5999994277954","","","12","15988","401","&#9733;","elianto","#3366ff99","-1"," ","0","0","[2482.1000003814697]","1","1","","","15988","19","2","2","win","no-go","0"
"pit-trial","146","1036370","0.0-23.0","battery-v0.2","","""event"",""trial"",""time""
""fullscreenenter"",""1"",""2467""
","
","
","""event"",""trial"",""time""
""fullscreenenter"",""1"",""2467""
","
","","","-1","","","12","15988","401","&#9752;","elianto","#f73b6a7A"," ","-1","0","0","[]","0","1","","","15988","20","3","3","lose","go","1"
"pit-instructions","147","1049483","0.0-24.0","battery-v0.2","","""event"",""trial"",""time""
""fullscreenenter"",""1"",""2467""
","
","
","""event"",""trial"",""time""
""fullscreenenter"",""1"",""2467""
","
","","[{""page_index"":0,""viewing_time"":5974.800000190735},{""page_index"":1,""viewing_time"":7134.400000572205}]","13109.800000190735","","","","","","","","","","","","","","","","","","","","","","","",""
"pit-trial","148","1053133","0.0-25.0","battery-v0.2","","""event"",""trial"",""time""
""fullscreenenter"",""1"",""2467""
","
","
","""event"",""trial"",""time""
""fullscreenenter"",""1"",""2467""
","
","","","792.3999996185303","","","12","15988","401","l","elianto","#3366ff99"," "," ","1","+10","[1643.6000003814697]","1","2","","","15988","21","1","1","win","go","0"
"pit-trial","149","1057990","0.0-26.0","battery-v0.2","","""event"",""trial"",""time""
""fullscreenenter"",""1"",""2467""
","
","
","""event"",""trial"",""time""
""fullscreenenter"",""1"",""2467""
","
","","","-1","","","12","15988","401","a","elianto","#f73b6a7A","-1","-1","1","-10","[]","0","2","","","15988","22","2","4","lose","no-go","1"
"pit-trial","150","1062847","0.0-27.0","battery-v0.2","","""event"",""trial"",""time""
""fullscreenenter"",""1"",""2467""
","
","
","""event"",""trial"",""time""
""fullscreenenter"",""1"",""2467""
","
","","","-1","","","12","15988","401","g","elianto","#f73b6a7A"," ","-1","0","0","[]","0","2","","","15988","23","3","3","lose","go","1"
"pit-trial","151","1067703","0.0-28.0","battery-v0.2","","""event"",""trial"",""time""
""fullscreenenter"",""1"",""2467""
","
","
","""event"",""trial"",""time""
""fullscreenenter"",""1"",""2467""
","
","","","-1","","","12","15988","401","u","elianto","#f73b6a7A","-1","-1","1","0","[]","0","2","","","15988","24","0","4","lose","no-go","0"
"pit-trial","152","1071106","0.0-29.0","battery-v0.2","","""event"",""trial"",""time""
""fullscreenenter"",""1"",""2467""
","
","
","""event"",""trial"",""time""
""fullscreenenter"",""1"",""2467""
","
","","","546.1999998092651","","","12","15988","401","l","elianto","#3366ff99"," "," ","1","+10","[1397.9000005722046]","1","2","","","15988","25","1","1","win","go","0"
"pit-trial","153","1075962","0.0-30.0","battery-v0.2","","""event"",""trial"",""time""
""fullscreenenter"",""1"",""2467""
","
","
","""event"",""trial"",""time""
""fullscreenenter"",""1"",""2467""
","
","","","-1","","","12","15988","401","g","elianto","#f73b6a7A"," ","-1","0","-10","[]","0","2","","","15988","26","3","3","lose","go","0"
"pit-trial","154","1080819","0.0-31.0","battery-v0.2","","""event"",""trial"",""time""
""fullscreenenter"",""1"",""2467""
","
","
","""event"",""trial"",""time""
""fullscreenenter"",""1"",""2467""
","
","","","-1","","","12","15988","401","a","elianto","#f73b6a7A","-1","-1","1","0","[]","0","2","","","15988","27","2","4","lose","no-go","0"
"pit-trial","155","1085674","0.0-32.0","battery-v0.2","","""event"",""trial"",""time""
""fullscreenenter"",""1"",""2467""
","
","
","""event"",""trial"",""time""
""fullscreenenter"",""1"",""2467""
","
","","","-1","","","12","15988","401","u","elianto","#f73b6a7A","-1","-1","1","0","[]","0","2","","","15988","28","0","4","lose","no-go","0"
"pit-trial","156","1090531","0.0-33.0","battery-v0.2","","""event"",""trial"",""time""
""fullscreenenter"",""1"",""2467""
","
","
","""event"",""trial"",""time""
""fullscreenenter"",""1"",""2467""
","
","","","-1","","","12","15988","401","u","elianto","#f73b6a7A","-1","-1","1","0","[]","0","2","","","15988","29","0","4","lose","no-go","0"
"pit-trial","157","1095388","0.0-34.0","battery-v0.2","","""event"",""trial"",""time""
""fullscreenenter"",""1"",""2467""
","
","
","""event"",""trial"",""time""
""fullscreenenter"",""1"",""2467""
","
","","","-1","","","12","15988","401","a","elianto","#f73b6a7A","-1","-1","1","0","[]","0","2","","","15988","30","2","4","lose","no-go","0"
"pit-trial","158","1100245","0.0-35.0","battery-v0.2","","""event"",""trial"",""time""
""fullscreenenter"",""1"",""2467""
","
","
","""event"",""trial"",""time""
""fullscreenenter"",""1"",""2467""
","
","","","-1","","","12","15988","401","g","elianto","#f73b6a7A"," ","-1","0","-10","[]","0","2","","","15988","31","3","3","lose","go","0"
"pit-trial","159","1103680","0.0-36.0","battery-v0.2","","""event"",""trial"",""time""
""fullscreenenter"",""1"",""2467""
","
","
","""event"",""trial"",""time""
""fullscreenenter"",""1"",""2467""
","
","","","578.6999998092651","","","12","15988","401","l","elianto","#3366ff99"," "," ","1","+10","[1429.8999996185303]","1","2","","","15988","32","1","1","win","go","0"
"pit-trial","160","1108537","0.0-37.0","battery-v0.2","","""event"",""trial"",""time""
""fullscreenenter"",""1"",""2467""
","
","
","""event"",""trial"",""time""
""fullscreenenter"",""1"",""2467""
","
","","","-1","","","12","15988","401","g","elianto","#f73b6a7A"," ","-1","0","-10","[]","0","2","","","15988","33","3","3","lose","go","0"
"pit-trial","161","1112062","0.0-38.0","battery-v0.2","","""event"",""trial"",""time""
""fullscreenenter"",""1"",""2467""
","
","
","""event"",""trial"",""time""
""fullscreenenter"",""1"",""2467""
","
","","","668.8000001907349","","","12","15988","401","l","elianto","#3366ff99"," "," ","1","+10","[1519.7000007629395]","1","2","","","15988","34","1","1","win","go","0"
"pit-trial","162","1116919","0.0-39.0","battery-v0.2","","""event"",""trial"",""time""
""fullscreenenter"",""1"",""2467""
","
","
","""event"",""trial"",""time""
""fullscreenenter"",""1"",""2467""
","
","","","-1","","","12","15988","401","u","elianto","#f73b6a7A","-1","-1","1","0","[]","0","2","","","15988","35","0","4","lose","no-go","0"
"pit-trial","163","1121776","0.0-40.0","battery-v0.2","","""event"",""trial"",""time""
""fullscreenenter"",""1"",""2467""
","
","
","""event"",""trial"",""time""
""fullscreenenter"",""1"",""2467""
","
","","","-1","","","12","15988","401","a","elianto","#f73b6a7A","-1","-1","1","-10","[]","0","2","","","15988","36","2","4","lose","no-go","1"
"pit-trial","164","1125367","0.0-41.0","battery-v0.2","","""event"",""trial"",""time""
""fullscreenenter"",""1"",""2467""
","
","
","""event"",""trial"",""time""
""fullscreenenter"",""1"",""2467""
","
","","","734.9000005722046","","","12","15988","401","l","elianto","#3366ff99"," "," ","1","0","[1585.5]","1","2","","","15988","37","1","1","win","go","1"
"pit-trial","165","1130223","0.0-42.0","battery-v0.2","","""event"",""trial"",""time""
""fullscreenenter"",""1"",""2467""
","
","
","""event"",""trial"",""time""
""fullscreenenter"",""1"",""2467""
","
","","","-1","","","12","15988","401","g","elianto","#f73b6a7A"," ","-1","0","-10","[]","0","2","","","15988","38","3","3","lose","go","0"
"pit-trial","166","1135081","0.0-43.0","battery-v0.2","","""event"",""trial"",""time""
""fullscreenenter"",""1"",""2467""
","
","
","""event"",""trial"",""time""
""fullscreenenter"",""1"",""2467""
","
","","","-1","","","12","15988","401","a","elianto","#f73b6a7A","-1","-1","1","0","[]","0","2","","","15988","39","2","4","lose","no-go","0"
"pit-trial","167","1139939","0.0-44.0","battery-v0.2","","""event"",""trial"",""time""
""fullscreenenter"",""1"",""2467""
","
","
","""event"",""trial"",""time""
""fullscreenenter"",""1"",""2467""
","
","","","-1","","","12","15988","401","u","elianto","#f73b6a7A","-1","-1","1","0","[]","0","2","","","15988","40","0","4","lose","no-go","0"
"pit-trial","168","1144795","0.0-45.0","battery-v0.2","","""event"",""trial"",""time""
""fullscreenenter"",""1"",""2467""
","
","
","""event"",""trial"",""time""
""fullscreenenter"",""1"",""2467""
","
","","","-1","","","12","15988","401","a","elianto","#f73b6a7A","-1","-1","1","0","[]","0","2","","","15988","41","2","4","lose","no-go","0"
"pit-trial","169","1148694","0.0-46.0","battery-v0.2","","""event"",""trial"",""time""
""fullscreenenter"",""1"",""2467""
","
","
","""event"",""trial"",""time""
""fullscreenenter"",""1"",""2467""
","
","","","1042.9000005722046","","","12","15988","401","l","elianto","#3366ff99"," "," ","1","+10","[1893.8000001907349]","1","2","","","15988","42","1","1","win","go","0"
"pit-trial","170","1153551","0.0-47.0","battery-v0.2","","""event"",""trial"",""time""
""fullscreenenter"",""1"",""2467""
","
","
","""event"",""trial"",""time""
""fullscreenenter"",""1"",""2467""
","
","","","-1","","","12","15988","401","g","elianto","#f73b6a7A"," ","-1","0","-10","[]","0","2","","","15988","43","3","3","lose","go","0"
"pit-trial","171","1158407","0.0-48.0","battery-v0.2","","""event"",""trial"",""time""
""fullscreenenter"",""1"",""2467""
","
","
","""event"",""trial"",""time""
""fullscreenenter"",""1"",""2467""
","
","","","-1","","","12","15988","401","u","elianto","#f73b6a7A","-1","-1","1","0","[]","0","2","","","15988","44","0","4","lose","no-go","0"
"pit-trial","172","1163264","0.0-49.0","battery-v0.2","","""event"",""trial"",""time""
""fullscreenenter"",""1"",""2467""
","
","
","""event"",""trial"",""time""
""fullscreenenter"",""1"",""2467""
","
","","","-1","","","12","15988","401","g","elianto","#f73b6a7A"," ","-1","0","-10","[]","0","2","","","15988","45","3","3","lose","go","0"
"pit-trial","173","1166805","0.0-50.0","battery-v0.2","","""event"",""trial"",""time""
""fullscreenenter"",""1"",""2467""
","
","
","""event"",""trial"",""time""
""fullscreenenter"",""1"",""2467""
","
","","","684.3000001907349","","","12","15988","401","p","elianto","#3366ff99","-1"," ","0","0","[1535.6999998092651]","1","2","","","15988","46","4","2","win","no-go","0"
"pit-trial","174","1171662","0.0-51.0","battery-v0.2","","""event"",""trial"",""time""
""fullscreenenter"",""1"",""2467""
","
","
","""event"",""trial"",""time""
""fullscreenenter"",""1"",""2467""
","
","","","-1","","","12","15988","401","a","elianto","#f73b6a7A","-1","-1","1","0","[]","0","2","","","15988","47","2","4","lose","no-go","0"
"pit-trial","175","1176518","0.0-52.0","battery-v0.2","","""event"",""trial"",""time""
""fullscreenenter"",""1"",""2467""
","
","
","""event"",""trial"",""time""
""fullscreenenter"",""1"",""2467""
","
","","","-1","","","12","15988","401","u","elianto","#f73b6a7A","-1","-1","1","0","[]","0","2","","","15988","48","0","4","lose","no-go","0"
"pit-trial","176","1181375","0.0-53.0","battery-v0.2","","""event"",""trial"",""time""
""fullscreenenter"",""1"",""2467""
","
","
","""event"",""trial"",""time""
""fullscreenenter"",""1"",""2467""
","
","","","-1","","","12","15988","401","g","elianto","#f73b6a7A"," ","-1","0","-10","[]","0","2","","","15988","49","3","3","lose","go","0"
"pit-trial","177","1184846","0.0-54.0","battery-v0.2","","""event"",""trial"",""time""
""fullscreenenter"",""1"",""2467""
","
","
","""event"",""trial"",""time""
""fullscreenenter"",""1"",""2467""
","
","","","614.8999996185303","","","12","15988","401","p","elianto","#3366ff99","-1"," ","0","0","[1465.3000001907349]","1","2","","","15988","50","4","2","win","no-go","0"
"pit-trial","178","1188804","0.0-55.0","battery-v0.2","","""event"",""trial"",""time""
""fullscreenenter"",""1"",""2467""
","
","
","""event"",""trial"",""time""
""fullscreenenter"",""1"",""2467""
","
","","","1102.9000005722046","","","12","15988","401","l","elianto","#3366ff99"," "," ","1","+10","[1954]","1","2","","","15988","51","1","1","win","go","0"
"pit-trial","179","1193661","0.0-56.0","battery-v0.2","","""event"",""trial"",""time""
""fullscreenenter"",""1"",""2467""
","
","
","""event"",""trial"",""time""
""fullscreenenter"",""1"",""2467""
","
","","","-1","","","12","15988","401","u","elianto","#f73b6a7A","-1","-1","1","-10","[]","0","2","","","15988","52","0","4","lose","no-go","1"
"pit-trial","180","1197866","0.0-57.0","battery-v0.2","","""event"",""trial"",""time""
""fullscreenenter"",""1"",""2467""
","
","
","""event"",""trial"",""time""
""fullscreenenter"",""1"",""2467""
","
","","","1349.1000003814697","","","12","15988","401","l","elianto","#3366ff99"," "," ","1","+10","[2199.8999996185303]","1","2","","","15988","53","1","1","win","go","0"
"pit-trial","181","1202723","0.0-58.0","battery-v0.2","","""event"",""trial"",""time""
""fullscreenenter"",""1"",""2467""
","
","
","""event"",""trial"",""time""
""fullscreenenter"",""1"",""2467""
","
","","","-1","","","12","15988","401","u","elianto","#f73b6a7A","-1","-1","1","-10","[]","0","2","","","15988","54","0","4","lose","no-go","1"
"pit-trial","182","1207579","0.0-59.0","battery-v0.2","","""event"",""trial"",""time""
""fullscreenenter"",""1"",""2467""
","
","
","""event"",""trial"",""time""
""fullscreenenter"",""1"",""2467""
","
","","","-1","","","12","15988","401","p","elianto","#3366ff99","-1","-1","1","0","[]","0","2","","","15988","55","4","2","win","no-go","1"
"pit-trial","183","1212436","0.0-60.0","battery-v0.2","","""event"",""trial"",""time""
""fullscreenenter"",""1"",""2467""
","
","
","""event"",""trial"",""time""
""fullscreenenter"",""1"",""2467""
","
","","","-1","","","12","15988","401","a","elianto","#f73b6a7A","-1","-1","1","-10","[]","0","2","","","15988","56","2","4","lose","no-go","1"
"pit-trial","184","1217292","0.0-61.0","battery-v0.2","","""event"",""trial"",""time""
""fullscreenenter"",""1"",""2467""
","
","
","""event"",""trial"",""time""
""fullscreenenter"",""1"",""2467""
","
","","","-1","","","12","15988","401","p","elianto","#3366ff99","-1","-1","1","+10","[]","0","2","","","15988","57","4","2","win","no-go","0"
"pit-trial","185","1222149","0.0-62.0","battery-v0.2","","""event"",""trial"",""time""
""fullscreenenter"",""1"",""2467""
","
","
","""event"",""trial"",""time""
""fullscreenenter"",""1"",""2467""
","
","","","-1","","","12","15988","401","u","elianto","#f73b6a7A","-1","-1","1","-10","[]","0","2","","","15988","58","0","4","lose","no-go","1"
"pit-trial","186","1226242","0.0-63.0","battery-v0.2","","""event"",""trial"",""time""
""fullscreenenter"",""1"",""2467""
","
","
","""event"",""trial"",""time""
""fullscreenenter"",""1"",""2467""
","
","","","1237","","","12","15988","401","l","elianto","#3366ff99"," "," ","1","+10","[2088]","1","2","","","15988","59","1","1","win","go","0"
"pit-trial","187","1231099","0.0-64.0","battery-v0.2","","""event"",""trial"",""time""
""fullscreenenter"",""1"",""2467""
","
","
","""event"",""trial"",""time""
""fullscreenenter"",""1"",""2467""
","
","","","-1","","","12","15988","401","g","elianto","#f73b6a7A"," ","-1","0","-10","[]","0","2","","","15988","60","3","3","lose","go","0"
"pit-trial","188","1235604","0.0-65.0","battery-v0.2","","""event"",""trial"",""time""
""fullscreenenter"",""1"",""2467""
","
","
","""event"",""trial"",""time""
""fullscreenenter"",""1"",""2467""
","
","","","1648.7000007629395","","","12","15988","401","p","elianto","#3366ff99","-1"," ","0","+10","[2499.8999996185303]","1","2","","","15988","61","4","2","win","no-go","1"
"pit-trial","189","1240191","0.0-66.0","battery-v0.2","","""event"",""trial"",""time""
""fullscreenenter"",""1"",""2467""
","
","
","""event"",""trial"",""time""
""fullscreenenter"",""1"",""2467""
","
","","","1731.2000007629395","","","12","15988","401","l","elianto","#3366ff99"," "," ","1","+10","[2582.2000007629395]","1","2","","","15988","62","1","1","win","go","0"
"pit-trial","190","1245048","0.0-67.0","battery-v0.2","","""event"",""trial"",""time""
""fullscreenenter"",""1"",""2467""
","
","
","""event"",""trial"",""time""
""fullscreenenter"",""1"",""2467""
","
","","","-1","","","12","15988","401","g","elianto","#f73b6a7A"," ","-1","0","-10","[]","0","2","","","15988","63","3","3","lose","go","0"
"pit-trial","191","1249905","0.0-68.0","battery-v0.2","","""event"",""trial"",""time""
""fullscreenenter"",""1"",""2467""
","
","
","""event"",""trial"",""time""
""fullscreenenter"",""1"",""2467""
","
","","","-1","","","12","15988","401","a","elianto","#f73b6a7A","-1","-1","1","0","[]","0","2","","","15988","64","2","4","lose","no-go","0"
"pit-trial","192","1254762","0.0-69.0","battery-v0.2","","""event"",""trial"",""time""
""fullscreenenter"",""1"",""2467""
","
","
","""event"",""trial"",""time""
""fullscreenenter"",""1"",""2467""
","
","","","-1","","","12","15988","401","g","elianto","#f73b6a7A"," ","-1","0","-10","[]","0","2","","","15988","65","3","3","lose","go","0"
"pit-trial","193","1259619","0.0-70.0","battery-v0.2","","""event"",""trial"",""time""
""fullscreenenter"",""1"",""2467""
","
","
","""event"",""trial"",""time""
""fullscreenenter"",""1"",""2467""
","
","","","-1","","","12","15988","401","a","elianto","#f73b6a7A","-1","-1","1","0","[]","0","2","","","15988","66","2","4","lose","no-go","0"
"pit-trial","194","1263313","0.0-71.0","battery-v0.2","","""event"",""trial"",""time""
""fullscreenenter"",""1"",""2467""
","
","
","""event"",""trial"",""time""
""fullscreenenter"",""1"",""2467""
","
","","","837.4000005722046","","","12","15988","401","l","elianto","#3366ff99"," "," ","1","+10","[1689.0999994277954]","1","2","","","15988","67","1","1","win","go","0"
"pit-trial","195","1266988","0.0-72.0","battery-v0.2","","""event"",""trial"",""time""
""fullscreenenter"",""1"",""2467""
","
","
","""event"",""trial"",""time""
""fullscreenenter"",""1"",""2467""
","
","","","819.9000005722046","","","12","15988","401","p","elianto","#3366ff99","-1"," ","0","0","[1670.6000003814697]","1","2","","","15988","68","4","2","win","no-go","0"
"pit-trial","196","1270756","0.0-73.0","battery-v0.2","","""event"",""trial"",""time""
""fullscreenenter"",""1"",""2467""
","
","
","""event"",""trial"",""time""
""fullscreenenter"",""1"",""2467""
","
","","","911.0999994277954","","","12","15988","401","s","elianto","#3366ff99"," "," ","1","+10","[1762.6999998092651]","1","2","","","15988","69","5","1","win","go","0"
"pit-trial","197","1275613","0.0-74.0","battery-v0.2","","""event"",""trial"",""time""
""fullscreenenter"",""1"",""2467""
","
","
","""event"",""trial"",""time""
""fullscreenenter"",""1"",""2467""
","
","","","-1","","","12","15988","401","g","elianto","#f73b6a7A"," ","-1","0","-10","[]","0","2","","","15988","70","3","3","lose","go","0"
"pit-trial","198","1280470","0.0-75.0","battery-v0.2","","""event"",""trial"",""time""
""fullscreenenter"",""1"",""2467""
","
","
","""event"",""trial"",""time""
""fullscreenenter"",""1"",""2467""
","
","","","-1","","","12","15988","401","p","elianto","#3366ff99","-1","-1","1","0","[]","0","2","","","15988","71","4","2","win","no-go","1"
"pit-trial","199","1284202","0.0-76.0","battery-v0.2","","""event"",""trial"",""time""
""fullscreenenter"",""1"",""2467""
","
","
","""event"",""trial"",""time""
""fullscreenenter"",""1"",""2467""
","
","","","875.6999998092651","","","12","15988","401","l","elianto","#3366ff99"," "," ","1","+10","[1727.1999998092651]","1","2","","","15988","72","1","1","win","go","0"
"pit-trial","200","1287614","0.0-77.0","battery-v0.2","","""event"",""trial"",""time""
""fullscreenenter"",""1"",""2467""
","
","
","""event"",""trial"",""time""
""fullscreenenter"",""1"",""2467""
","
","","","556.1999998092651","","","12","15988","401","p","elianto","#3366ff99","-1"," ","0","0","[1407.5999994277954]","1","2","","","15988","73","4","2","win","no-go","0"
"pit-trial","201","1292469","0.0-78.0","battery-v0.2","","""event"",""trial"",""time""
""fullscreenenter"",""1"",""2467""
","
","
","""event"",""trial"",""time""
""fullscreenenter"",""1"",""2467""
","
","","","-1","","","12","15988","401","g","elianto","#f73b6a7A"," ","-1","0","-10","[]","0","2","","","15988","74","3","3","lose","go","0"
"pit-trial","202","1296308","0.0-79.0","battery-v0.2","","""event"",""trial"",""time""
""fullscreenenter"",""1"",""2467""
","
","
","""event"",""trial"",""time""
""fullscreenenter"",""1"",""2467""
","
","","","984.3000001907349","","","12","15988","401","s","elianto","#3366ff99"," "," ","1","+10","[1834.8999996185303]","1","2","","","15988","75","5","1","win","go","0"
"pit-trial","203","1300143","0.0-80.0","battery-v0.2","","""event"",""trial"",""time""
""fullscreenenter"",""1"",""2467""
","
","
","""event"",""trial"",""time""
""fullscreenenter"",""1"",""2467""
","
","","","979.8000001907349","","","12","15988","401","l","elianto","#3366ff99"," "," ","1","+10","[1830.3000001907349]","1","2","","","15988","76","1","1","win","go","0"
"pit-trial","204","1305000","0.0-81.0","battery-v0.2","","""event"",""trial"",""time""
""fullscreenenter"",""1"",""2467""
","
","
","""event"",""trial"",""time""
""fullscreenenter"",""1"",""2467""
","
","","","-1","","","12","15988","401","p","elianto","#3366ff99","-1","-1","1","0","[]","0","2","","","15988","77","4","2","win","no-go","1"
"pit-trial","205","1309857","0.0-82.0","battery-v0.2","","""event"",""trial"",""time""
""fullscreenenter"",""1"",""2467""
","
","
","""event"",""trial"",""time""
""fullscreenenter"",""1"",""2467""
","
","","","-1","","","12","15988","401","g","elianto","#f73b6a7A"," ","-1","0","-10","[]","0","2","","","15988","78","3","3","lose","go","0"
"pit-trial","206","1314714","0.0-83.0","battery-v0.2","","""event"",""trial"",""time""
""fullscreenenter"",""1"",""2467""
","
","
","""event"",""trial"",""time""
""fullscreenenter"",""1"",""2467""
","
","","","-1","","","12","15988","401","w","elianto","#f73b6a7A","-1","-1","1","0","[]","0","2","","","15988","79","6","4","lose","no-go","0"
"pit-trial","207","1318288","0.0-84.0","battery-v0.2","","""event"",""trial"",""time""
""fullscreenenter"",""1"",""2467""
","
","
","""event"",""trial"",""time""
""fullscreenenter"",""1"",""2467""
","
","","","717.4000005722046","","","12","15988","401","s","elianto","#3366ff99"," "," ","1","+10","[1568.0999994277954]","1","2","","","15988","80","5","1","win","go","0"
"pit-trial","208","1322344","0.0-85.0","battery-v0.2","","""event"",""trial"",""time""
""fullscreenenter"",""1"",""2467""
","
","
","""event"",""trial"",""time""
""fullscreenenter"",""1"",""2467""
","
","","","1199.5","","","12","15988","401","s","elianto","#3366ff99"," "," ","1","0","[2051.199999809265]","1","2","","","15988","81","5","1","win","go","1"
"pit-trial","209","1326476","0.0-86.0","battery-v0.2","","""event"",""trial"",""time""
""fullscreenenter"",""1"",""2467""
","
","
","""event"",""trial"",""time""
""fullscreenenter"",""1"",""2467""
","
","","","1275.9000005722046","","","12","15988","401","p","elianto","#3366ff99","-1"," ","0","0","[2126.4000005722046]","1","2","","","15988","82","4","2","win","no-go","0"
"pit-trial","210","1331332","0.0-87.0","battery-v0.2","","""event"",""trial"",""time""
""fullscreenenter"",""1"",""2467""
","
","
","""event"",""trial"",""time""
""fullscreenenter"",""1"",""2467""
","
","","","-1","","","12","15988","401","e","elianto","#f73b6a7A"," ","-1","0","-10","[]","0","2","","","15988","83","7","3","lose","go","0"
"pit-trial","211","1336190","0.0-88.0","battery-v0.2","","""event"",""trial"",""time""
""fullscreenenter"",""1"",""2467""
","
","
","""event"",""trial"",""time""
""fullscreenenter"",""1"",""2467""
","
","","","-1","","","12","15988","401","w","elianto","#f73b6a7A","-1","-1","1","-10","[]","0","2","","","15988","84","6","4","lose","no-go","1"
"pit-trial","212","1341045","0.0-89.0","battery-v0.2","","""event"",""trial"",""time""
""fullscreenenter"",""1"",""2467""
","
","
","""event"",""trial"",""time""
""fullscreenenter"",""1"",""2467""
","
","","","-1","","","12","15988","401","p","elianto","#3366ff99","-1","-1","1","0","[]","0","2","","","15988","85","4","2","win","no-go","1"
"pit-trial","213","1345903","0.0-90.0","battery-v0.2","","""event"",""trial"",""time""
""fullscreenenter"",""1"",""2467""
","
","
","""event"",""trial"",""time""
""fullscreenenter"",""1"",""2467""
","
","","","-1","","","12","15988","401","w","elianto","#f73b6a7A","-1","-1","1","-10","[]","0","2","","","15988","86","6","4","lose","no-go","1"
"pit-trial","214","1349786","0.0-91.0","battery-v0.2","","""event"",""trial"",""time""
""fullscreenenter"",""1"",""2467""
","
","
","""event"",""trial"",""time""
""fullscreenenter"",""1"",""2467""
","
","","","1027.3000001907349","","","12","15988","401","s","elianto","#3366ff99"," "," ","1","+10","[1878.3999996185303]","1","2","","","15988","87","5","1","win","go","0"
"pit-trial","215","1354643","0.0-92.0","battery-v0.2","","""event"",""trial"",""time""
""fullscreenenter"",""1"",""2467""
","
","
","""event"",""trial"",""time""
""fullscreenenter"",""1"",""2467""
","
","","","-1","","","12","15988","401","e","elianto","#f73b6a7A"," ","-1","0","-10","[]","0","2","","","15988","88","7","3","lose","go","0"
"pit-trial","216","1358339","0.0-93.0","battery-v0.2","","""event"",""trial"",""time""
""fullscreenenter"",""1"",""2467""
","
","
","""event"",""trial"",""time""
""fullscreenenter"",""1"",""2467""
","
","","","839.8999996185303","","","12","15988","401","s","elianto","#3366ff99"," "," ","1","0","[1691]","1","2","","","15988","89","5","1","win","go","1"
"pit-trial","217","1362185","0.0-94.0","battery-v0.2","","""event"",""trial"",""time""
""fullscreenenter"",""1"",""2467""
","
","
","""event"",""trial"",""time""
""fullscreenenter"",""1"",""2467""
","
","","","989.0999994277954","","","12","15988","401","p","elianto","#3366ff99","-1"," ","0","+10","[1840.0999994277954]","1","2","","","15988","90","4","2","win","no-go","1"
"pit-trial","218","1367042","0.0-95.0","battery-v0.2","","""event"",""trial"",""time""
""fullscreenenter"",""1"",""2467""
","
","
","""event"",""trial"",""time""
""fullscreenenter"",""1"",""2467""
","
","","","-1","","","12","15988","401","e","elianto","#f73b6a7A"," ","-1","0","-10","[]","0","2","","","15988","91","7","3","lose","go","0"
"pit-trial","219","1371898","0.0-96.0","battery-v0.2","","""event"",""trial"",""time""
""fullscreenenter"",""1"",""2467""
","
","
","""event"",""trial"",""time""
""fullscreenenter"",""1"",""2467""
","
","","","-1","","","12","15988","401","w","elianto","#f73b6a7A","-1","-1","1","-10","[]","0","2","","","15988","92","6","4","lose","no-go","1"
"pit-trial","220","1376755","0.0-97.0","battery-v0.2","","""event"",""trial"",""time""
""fullscreenenter"",""1"",""2467""
","
","
","""event"",""trial"",""time""
""fullscreenenter"",""1"",""2467""
","
","","","-1","","","12","15988","401","w","elianto","#f73b6a7A","-1","-1","1","0","[]","0","2","","","15988","93","6","4","lose","no-go","0"
"pit-trial","221","1381612","0.0-98.0","battery-v0.2","","""event"",""trial"",""time""
""fullscreenenter"",""1"",""2467""
","
","
","""event"",""trial"",""time""
""fullscreenenter"",""1"",""2467""
","
","","","-1","","","12","15988","401","e","elianto","#f73b6a7A"," ","-1","0","0","[]","0","2","","","15988","94","7","3","lose","go","1"
"pit-trial","222","1385104","0.0-99.0","battery-v0.2","","""event"",""trial"",""time""
""fullscreenenter"",""1"",""2467""
","
","
","""event"",""trial"",""time""
""fullscreenenter"",""1"",""2467""
","
","","","636.5","","","12","15988","401","s","elianto","#3366ff99"," "," ","1","+10","[1486.8000001907349]","1","2","","","15988","95","5","1","win","go","0"
"pit-trial","223","1389310","0.0-100.0","battery-v0.2","","""event"",""trial"",""time""
""fullscreenenter"",""1"",""2467""
","
","
","""event"",""trial"",""time""
""fullscreenenter"",""1"",""2467""
","
","","","1351.5","","","12","15988","401","d","elianto","#3366ff99","-1"," ","0","0","[2202.5999994277954]","1","2","","","15988","96","8","2","win","no-go","0"
"pit-trial","224","1394167","0.0-101.0","battery-v0.2","","""event"",""trial"",""time""
""fullscreenenter"",""1"",""2467""
","
","
","""event"",""trial"",""time""
""fullscreenenter"",""1"",""2467""
","
","","","-1","","","12","15988","401","w","elianto","#f73b6a7A","-1","-1","1","0","[]","0","2","","","15988","97","6","4","lose","no-go","0"
"pit-trial","225","1399023","0.0-102.0","battery-v0.2","","""event"",""trial"",""time""
""fullscreenenter"",""1"",""2467""
","
","
","""event"",""trial"",""time""
""fullscreenenter"",""1"",""2467""
","
","","","-1","","","12","15988","401","e","elianto","#f73b6a7A"," ","-1","0","-10","[]","0","2","","","15988","98","7","3","lose","go","0"
"pit-trial","226","1403467","0.0-103.0","battery-v0.2","","""event"",""trial"",""time""
""fullscreenenter"",""1"",""2467""
","
","
","""event"",""trial"",""time""
""fullscreenenter"",""1"",""2467""
","
","","","1588.2999992370605","","","12","15988","401","d","elianto","#3366ff99","-1"," ","0","0","[2439.5]","1","2","","","15988","99","8","2","win","no-go","0"
"pit-trial","227","1407567","0.0-104.0","battery-v0.2","","""event"",""trial"",""time""
""fullscreenenter"",""1"",""2467""
","
","
","""event"",""trial"",""time""
""fullscreenenter"",""1"",""2467""
","
","","","1244.1999998092651","","","12","15988","401","s","elianto","#3366ff99"," "," ","1","0","[2094.8999996185303]","1","2","","","15988","100","5","1","win","go","1"
"pit-trial","228","1412035","0.0-105.0","battery-v0.2","","""event"",""trial"",""time""
""fullscreenenter"",""1"",""2467""
","
","
","""event"",""trial"",""time""
""fullscreenenter"",""1"",""2467""
","
","","","1610.6999998092651","","","12","15988","401","s","elianto","#3366ff99"," "," ","1","+10","[2461.699999809265]","1","2","","","15988","101","5","1","win","go","0"
"pit-trial","229","1416891","0.0-106.0","battery-v0.2","","""event"",""trial"",""time""
""fullscreenenter"",""1"",""2467""
","
","
","""event"",""trial"",""time""
""fullscreenenter"",""1"",""2467""
","
","","","-1","","","12","15988","401","d","elianto","#3366ff99","-1","-1","1","+10","[3003.800000190735]","1","2","","","15988","102","8","2","win","no-go","0"
"pit-trial","230","1421747","0.0-107.0","battery-v0.2","","""event"",""trial"",""time""
""fullscreenenter"",""1"",""2467""
","
","
","""event"",""trial"",""time""
""fullscreenenter"",""1"",""2467""
","
","","","-1","","","12","15988","401","j","elianto","#3366ff99","-1","-1","1","+10","[4514.60000038147]","1","2","","","15988","103","9","2","win","no-go","0"
"pit-trial","231","1426604","0.0-108.0","battery-v0.2","","""event"",""trial"",""time""
""fullscreenenter"",""1"",""2467""
","
","
","""event"",""trial"",""time""
""fullscreenenter"",""1"",""2467""
","
","","","-1","","","12","15988","401","w","elianto","#f73b6a7A","-1","-1","1","0","[]","0","2","","","15988","104","6","4","lose","no-go","0"
"pit-trial","232","1430575","0.0-109.0","battery-v0.2","","""event"",""trial"",""time""
""fullscreenenter"",""1"",""2467""
","
","
","""event"",""trial"",""time""
""fullscreenenter"",""1"",""2467""
","
","","","1114.5","","","12","15988","401","d","elianto","#3366ff99","-1"," ","0","0","[1965.8999996185303,2193.0999994277954,2366.5]","3","2","","","15988","105","8","2","win","no-go","0"
"pit-trial","233","1434230","0.0-110.0","battery-v0.2","","""event"",""trial"",""time""
""fullscreenenter"",""1"",""2467""
","
","
","""event"",""trial"",""time""
""fullscreenenter"",""1"",""2467""
","
","","","798.3999996185303","","","12","15988","401","s","elianto","#3366ff99"," "," ","1","+10","[1650.1999998092651]","1","2","","","15988","106","5","1","win","go","0"
"pit-trial","234","1439087","0.0-111.0","battery-v0.2","","""event"",""trial"",""time""
""fullscreenenter"",""1"",""2467""
","
","
","""event"",""trial"",""time""
""fullscreenenter"",""1"",""2467""
","
","","","-1","","","12","15988","401","w","elianto","#f73b6a7A","-1","-1","1","0","[]","0","2","","","15988","107","6","4","lose","no-go","0"
"pit-trial","235","1443111","0.0-112.0","battery-v0.2","","""event"",""trial"",""time""
""fullscreenenter"",""1"",""2467""
","
","
","""event"",""trial"",""time""
""fullscreenenter"",""1"",""2467""
","
","","","1168.1999998092651","","","12","15988","401","j","elianto","#3366ff99","-1"," ","0","0","[2019.5999994277954]","1","2","","","15988","108","9","2","win","no-go","0"
"pit-trial","236","1446649","0.0-113.0","battery-v0.2","","""event"",""trial"",""time""
""fullscreenenter"",""1"",""2467""
","
","
","""event"",""trial"",""time""
""fullscreenenter"",""1"",""2467""
","
","","","681.6999998092651","","","12","15988","401","d","elianto","#3366ff99","-1"," ","0","0","[1532.8999996185303]","1","2","","","15988","109","8","2","win","no-go","0"
"pit-trial","237","1451506","0.0-114.0","battery-v0.2","","""event"",""trial"",""time""
""fullscreenenter"",""1"",""2467""
","
","
","""event"",""trial"",""time""
""fullscreenenter"",""1"",""2467""
","
","","","-1","","","12","15988","401","j","elianto","#3366ff99","-1","-1","1","+10","[]","0","2","","","15988","110","9","2","win","no-go","0"
"pit-trial","238","1456194","0.0-115.0","battery-v0.2","","""event"",""trial"",""time""
""fullscreenenter"",""1"",""2467""
","
","
","""event"",""trial"",""time""
""fullscreenenter"",""1"",""2467""
","
","","","1831.6999998092651","","","12","15988","401","w","elianto","#f73b6a7A","-1"," ","0","-10","[177.4000005722046,2682.800000190735]","2","2","","","15988","111","6","4","lose","no-go","0"
"pit-trial","239","1460231","0.0-116.0","battery-v0.2","","""event"",""trial"",""time""
""fullscreenenter"",""1"",""2467""
","
","
","""event"",""trial"",""time""
""fullscreenenter"",""1"",""2467""
","
","","","1181.5","","","12","15988","401","s","elianto","#3366ff99"," "," ","1","+10","[2031.6000003814697]","1","2","","","15988","112","5","1","win","go","0"
"pit-trial","240","1463680","0.0-117.0","battery-v0.2","","""event"",""trial"",""time""
""fullscreenenter"",""1"",""2467""
","
","
","""event"",""trial"",""time""
""fullscreenenter"",""1"",""2467""
","
","","","592.8000001907349","","","12","15988","401","s","elianto","#3366ff99"," "," ","1","+10","[1443.6000003814697]","1","2","","","15988","113","5","1","win","go","0"
"pit-trial","241","1468537","0.0-118.0","battery-v0.2","","""event"",""trial"",""time""
""fullscreenenter"",""1"",""2467""
","
","
","""event"",""trial"",""time""
""fullscreenenter"",""1"",""2467""
","
","","","-1","","","12","15988","401","d","elianto","#3366ff99","-1","-1","1","+10","[]","0","2","","","15988","114","8","2","win","no-go","0"
"pit-trial","242","1472509","0.0-119.0","battery-v0.2","","""event"",""trial"",""time""
""fullscreenenter"",""1"",""2467""
","
","
","""event"",""trial"",""time""
""fullscreenenter"",""1"",""2467""
","
","","","1115.1000003814697","","","12","15988","401","j","elianto","#3366ff99","-1"," ","0","0","[1966.3000001907349,2263.7000007629395]","2","2","","","15988","115","9","2","win","no-go","0"
"pit-trial","243","1477366","0.0-120.0","battery-v0.2","","""event"",""trial"",""time""
""fullscreenenter"",""1"",""2467""
","
","
","""event"",""trial"",""time""
""fullscreenenter"",""1"",""2467""
","
","","","-1","","","12","15988","401","e","elianto","#f73b6a7A"," ","-1","0","-10","[]","0","2","","","15988","116","7","3","lose","go","0"
"pit-trial","244","1482223","0.0-121.0","battery-v0.2","","""event"",""trial"",""time""
""fullscreenenter"",""1"",""2467""
","
","
","""event"",""trial"",""time""
""fullscreenenter"",""1"",""2467""
","
","","","-1","","","12","15988","401","j","elianto","#3366ff99","-1","-1","1","+10","[3024.199999809265]","1","2","","","15988","117","9","2","win","no-go","0"
"pit-trial","245","1486997","0.0-122.0","battery-v0.2","","""event"",""trial"",""time""
""fullscreenenter"",""1"",""2467""
","
","
","""event"",""trial"",""time""
""fullscreenenter"",""1"",""2467""
","
","","","1918.1000003814697","","","12","15988","401","d","elianto","#3366ff99","-1"," ","0","0","[2769.300000190735]","1","2","","","15988","118","8","2","win","no-go","0"
"pit-trial","246","1491853","0.0-123.0","battery-v0.2","","""event"",""trial"",""time""
""fullscreenenter"",""1"",""2467""
","
","
","""event"",""trial"",""time""
""fullscreenenter"",""1"",""2467""
","
","","","-1","","","12","15988","401","w","elianto","#f73b6a7A","-1","-1","1","0","[]","0","2","","","15988","119","6","4","lose","no-go","0"
"pit-trial","247","1495600","0.0-124.0","battery-v0.2","","""event"",""trial"",""time""
""fullscreenenter"",""1"",""2467""
","
","
","""event"",""trial"",""time""
""fullscreenenter"",""1"",""2467""
","
","","","889.9000005722046","","","12","15988","401","s","elianto","#3366ff99"," "," ","1","+10","[1740.8999996185303]","1","2","","","15988","120","5","1","win","go","0"
"pit-trial","248","1500457","0.0-125.0","battery-v0.2","","""event"",""trial"",""time""
""fullscreenenter"",""1"",""2467""
","
","
","""event"",""trial"",""time""
""fullscreenenter"",""1"",""2467""
","
","","","-1","","","12","15988","401","e","elianto","#f73b6a7A"," ","-1","0","-10","[]","0","2","","","15988","121","7","3","lose","go","0"
"pit-trial","249","1504245","0.0-126.0","battery-v0.2","","""event"",""trial"",""time""
""fullscreenenter"",""1"",""2467""
","
","
","""event"",""trial"",""time""
""fullscreenenter"",""1"",""2467""
","
","","","932.8000001907349","","","12","15988","401","s","elianto","#3366ff99"," "," ","1","+10","[1784.8000001907349]","1","2","","","15988","122","5","1","win","go","0"
"pit-trial","250","1508217","0.0-127.0","battery-v0.2","","""event"",""trial"",""time""
""fullscreenenter"",""1"",""2467""
","
","
","""event"",""trial"",""time""
""fullscreenenter"",""1"",""2467""
","
","","","1114.6000003814697","","","12","15988","401","d","elianto","#3366ff99","-1"," ","0","0","[1965.3999996185303,2653.3999996185303]","2","2","","","15988","123","8","2","win","no-go","0"
"pit-trial","251","1511968","0.0-128.0","battery-v0.2","","""event"",""trial"",""time""
""fullscreenenter"",""1"",""2467""
","
","
","""event"",""trial"",""time""
""fullscreenenter"",""1"",""2467""
","
","","","894.3999996185303","","","12","15988","401","j","elianto","#3366ff99","-1"," ","0","0","[1746]","1","2","","","15988","124","9","2","win","no-go","0"
"pit-trial","252","1515455","0.0-129.0","battery-v0.2","","""event"",""trial"",""time""
""fullscreenenter"",""1"",""2467""
","
","
","""event"",""trial"",""time""
""fullscreenenter"",""1"",""2467""
","
","","","631.0999994277954","","","12","15988","401","d","elianto","#3366ff99","-1"," ","0","0","[1482.7999992370605]","1","2","","","15988","125","8","2","win","no-go","0"
"pit-trial","253","1520312","0.0-130.0","battery-v0.2","","""event"",""trial"",""time""
""fullscreenenter"",""1"",""2467""
","
","
","""event"",""trial"",""time""
""fullscreenenter"",""1"",""2467""
","
","","","-1","","","12","15988","401","w","elianto","#f73b6a7A","-1","-1","1","-10","[]","0","2","","","15988","126","6","4","lose","no-go","1"
"pit-trial","254","1525168","0.0-131.0","battery-v0.2","","""event"",""trial"",""time""
""fullscreenenter"",""1"",""2467""
","
","
","""event"",""trial"",""time""
""fullscreenenter"",""1"",""2467""
","
","","","-1","","","12","15988","401","e","elianto","#f73b6a7A"," ","-1","0","-10","[]","0","2","","","15988","127","7","3","lose","go","0"
"pit-trial","255","1528673","0.0-132.0","battery-v0.2","","""event"",""trial"",""time""
""fullscreenenter"",""1"",""2467""
","
","
","""event"",""trial"",""time""
""fullscreenenter"",""1"",""2467""
","
","","","647.5999994277954","","","12","15988","401","j","elianto","#3366ff99","-1"," ","0","+10","[1499.1999998092651]","1","2","","","15988","128","9","2","win","no-go","1"
"pit-trial","256","1533306","0.0-133.0","battery-v0.2","","""event"",""trial"",""time""
""fullscreenenter"",""1"",""2467""
","
","
","""event"",""trial"",""time""
""fullscreenenter"",""1"",""2467""
","
","","","1775.5999994277954","","","12","15988","401","d","elianto","#3366ff99","-1"," ","0","0","[2627.300000190735]","1","2","","","15988","129","8","2","win","no-go","0"
"pit-trial","257","1538163","0.0-134.0","battery-v0.2","","""event"",""trial"",""time""
""fullscreenenter"",""1"",""2467""
","
","
","""event"",""trial"",""time""
""fullscreenenter"",""1"",""2467""
","
","","","-1","","","12","15988","401","e","elianto","#f73b6a7A"," ","-1","0","-10","[]","0","2","","","15988","130","7","3","lose","go","0"
"pit-trial","258","1542133","0.0-135.0","battery-v0.2","","""event"",""trial"",""time""
""fullscreenenter"",""1"",""2467""
","
","
","""event"",""trial"",""time""
""fullscreenenter"",""1"",""2467""
","
","","","1114","","","12","15988","401","j","elianto","#3366ff99","-1"," ","0","0","[1964.8000001907349]","1","2","","","15988","131","9","2","win","no-go","0"
"pit-trial","259","1546989","0.0-136.0","battery-v0.2","","""event"",""trial"",""time""
""fullscreenenter"",""1"",""2467""
","
","
","""event"",""trial"",""time""
""fullscreenenter"",""1"",""2467""
","
","","","-1","","","12","15988","401","w","elianto","#f73b6a7A","-1","-1","1","0","[]","0","2","","","15988","132","6","4","lose","no-go","0"
"pit-trial","260","1551846","0.0-137.0","battery-v0.2","","""event"",""trial"",""time""
""fullscreenenter"",""1"",""2467""
","
","
","""event"",""trial"",""time""
""fullscreenenter"",""1"",""2467""
","
","","","-1","","","12","15988","401","j","elianto","#3366ff99","-1","-1","1","+10","[2910.5999994277954]","1","2","","","15988","133","9","2","win","no-go","0"
"pit-trial","261","1556703","0.0-138.0","battery-v0.2","","""event"",""trial"",""time""
""fullscreenenter"",""1"",""2467""
","
","
","""event"",""trial"",""time""
""fullscreenenter"",""1"",""2467""
","
","","","-1","","","12","15988","401","w","elianto","#f73b6a7A","-1","-1","1","0","[]","0","2","","","15988","134","6","4","lose","no-go","0"
"pit-trial","262","1560303","0.0-139.0","battery-v0.2","","""event"",""trial"",""time""
""fullscreenenter"",""1"",""2467""
","
","
","""event"",""trial"",""time""
""fullscreenenter"",""1"",""2467""
","
","","","745.1000003814697","","","12","15988","401","d","elianto","#3366ff99","-1"," ","0","+10","[1595.5]","1","2","","","15988","135","8","2","win","no-go","1"
"pit-trial","263","1565160","0.0-140.0","battery-v0.2","","""event"",""trial"",""time""
""fullscreenenter"",""1"",""2467""
","
","
","""event"",""trial"",""time""
""fullscreenenter"",""1"",""2467""
","
","","","-1","","","12","15988","401","e","elianto","#f73b6a7A"," ","-1","0","-10","[]","0","2","","","15988","136","7","3","lose","go","0"
"pit-trial","264","1570016","0.0-141.0","battery-v0.2","","""event"",""trial"",""time""
""fullscreenenter"",""1"",""2467""
","
","
","""event"",""trial"",""time""
""fullscreenenter"",""1"",""2467""
","
","","","-1","","","12","15988","401","w","elianto","#f73b6a7A","-1","-1","1","0","[]","0","2","","","15988","137","6","4","lose","no-go","0"
"pit-trial","265","1573844","0.0-142.0","battery-v0.2","","""event"",""trial"",""time""
""fullscreenenter"",""1"",""2467""
","
","
","""event"",""trial"",""time""
""fullscreenenter"",""1"",""2467""
","
","","","972","","","12","15988","401","d","elianto","#3366ff99","-1"," ","0","0","[1822.8000001907349]","1","2","","","15988","138","8","2","win","no-go","0"
"pit-trial","266","1577441","0.0-143.0","battery-v0.2","","""event"",""trial"",""time""
""fullscreenenter"",""1"",""2467""
","
","
","""event"",""trial"",""time""
""fullscreenenter"",""1"",""2467""
","
","","","740.7000007629395","","","12","15988","401","j","elianto","#3366ff99","-1"," ","0","0","[1591.8000001907349]","1","2","","","15988","139","9","2","win","no-go","0"
"pit-trial","267","1582297","0.0-144.0","battery-v0.2","","""event"",""trial"",""time""
""fullscreenenter"",""1"",""2467""
","
","
","""event"",""trial"",""time""
""fullscreenenter"",""1"",""2467""
","
","","","-1","","","12","15988","401","e","elianto","#f73b6a7A"," ","-1","0","-10","[]","0","2","","","15988","140","7","3","lose","go","0"
"pit-instructions","268","1608886","0.0-145.0","battery-v0.2","","""event"",""trial"",""time""
""fullscreenenter"",""1"",""2467""
","
","
","""event"",""trial"",""time""
""fullscreenenter"",""1"",""2467""
","
