"trial_type","trial_index","time_elapsed","internal_node_id","task_version","subject_id","interactions","blur_events","focus_events","fullscreenenter_events","fullscreenexit_events","success","view_history","rt","responses","num_errors","age","subject","participantId","rune","rune_set","hex","correct","choice","accuracy","outcome","keys","total_keys","block","practice","value","sub","trial","stimulus","robot","valence","action","sham"
"pavlovia","0","9","0.0-0.0","battery-v0.2","","""event"",""trial"",""time""
""fullscreenenter"",""1"",""1024""
""fullscreenexit"",""1"",""1776""
","
","
","""event"",""trial"",""time""
""fullscreenenter"",""1"",""1024""
","""event"",""trial"",""time""
""fullscreenexit"",""1"",""1776""
","","","","","","","","","","","","","","","","","","","","","","","","","","",""
"fullscreen","1","1893","0.0-1.0","battery-v0.2","","""event"",""trial"",""time""
""fullscreenenter"",""1"",""1024""
""fullscreenexit"",""1"",""1776""
","
","
","""event"",""trial"",""time""
""fullscreenenter"",""1"",""1024""
","""event"",""trial"",""time""
""fullscreenexit"",""1"",""1776""
","true","","","","","","","","","","","","","","","","","","","","","","","","","",""
"pit-instructions","2","6814","0.0-2.0-0.0","battery-v0.2","","""event"",""trial"",""time""
""fullscreenenter"",""1"",""1024""
""fullscreenexit"",""1"",""1776""
","
","
","""event"",""trial"",""time""
""fullscreenenter"",""1"",""1024""
","""event"",""trial"",""time""
""fullscreenexit"",""1"",""1776""
","","[{""page_index"":0,""viewing_time"":4916.199999999255}]","4916.699999999255","","","","","","","","","","","","","","","","","","","","","","","",""
"pit-comprehension","3","9354","0.0-2.0-1.0-0.0","battery-v0.2","","""event"",""trial"",""time""
""fullscreenenter"",""1"",""1024""
""fullscreenexit"",""1"",""1776""
","
","
","""event"",""trial"",""time""
""fullscreenenter"",""1"",""1024""
","""event"",""trial"",""time""
""fullscreenexit"",""1"",""1776""
","","","2536.5","[""shark""]","0","18","13747","6003","","","","","","","","","","","","","","","","","","",""
"pit-instructions","4","10982","0.0-2.0-1.0-1.0","battery-v0.2","","""event"",""trial"",""time""
""fullscreenenter"",""1"",""1024""
""fullscreenexit"",""1"",""1776""
","
","
","""event"",""trial"",""time""
""fullscreenenter"",""1"",""1024""
","""event"",""trial"",""time""
""fullscreenexit"",""1"",""1776""
","","[{""page_index"":0,""viewing_time"":1522.7000000001863}]","1523.1000000005588","","","","","","","","","","","","","","","","","","","","","","","",""
"pit-comprehension","5","13280","0.0-2.0-2.0-0.0","battery-v0.2","","""event"",""trial"",""time""
""fullscreenenter"",""1"",""1024""
""fullscreenexit"",""1"",""1776""
","
","
","""event"",""trial"",""time""
""fullscreenenter"",""1"",""1024""
","""event"",""trial"",""time""
""fullscreenexit"",""1"",""1776""
","","","2295.300000000745","[""tiger""]","0","18","13747","6003","","","","","","","","","","","","","","","","","","",""
"pit-instructions","6","14841","0.0-2.0-2.0-1.0","battery-v0.2","","""event"",""trial"",""time""
""fullscreenenter"",""1"",""1024""
""fullscreenexit"",""1"",""1776""
""blur"",""7"",""61454""
""focus"",""7"",""65937""
""blur"",""7"",""89382""
""focus"",""7"",""93426""
","""event"",""trial"",""time""
""blur"",""7"",""61454""
""blur"",""7"",""89382""
","""event"",""trial"",""time""
""focus"",""7"",""65937""
""focus"",""7"",""93426""
","""event"",""trial"",""time""
""fullscreenenter"",""1"",""1024""
","""event"",""trial"",""time""
""fullscreenexit"",""1"",""1776""
","","[{""page_index"":0,""viewing_time"":1558.5999999996275}]","1559","","","","","","","","","","","","","","","","","","","","","","","",""
"pit-instructions","7","107493","0.0-2.0-3.0","battery-v0.2","","""event"",""trial"",""time""
""fullscreenenter"",""1"",""1024""
""fullscreenexit"",""1"",""1776""
""blur"",""7"",""61454""
""focus"",""7"",""65937""
""blur"",""7"",""89382""
""focus"",""7"",""93426""
","""event"",""trial"",""time""
""blur"",""7"",""61454""
""blur"",""7"",""89382""
","""event"",""trial"",""time""
""focus"",""7"",""65937""
""focus"",""7"",""93426""
","""event"",""trial"",""time""
""fullscreenenter"",""1"",""1024""
","""event"",""trial"",""time""
""fullscreenexit"",""1"",""1776""
","","[{""page_index"":0,""viewing_time"":7925.699999999255},{""page_index"":1,""viewing_time"":5734.4000000003725},{""page_index"":2,""viewing_time"":6720.0999999996275},{""page_index"":3,""viewing_time"":5212.800000000745},{""page_index"":4,""viewing_time"":5179.199999999255},{""page_index"":5,""viewing_time"":5536.300000000745},{""page_index"":6,""viewing_time"":6524.299999999814},{""page_index"":7,""viewing_time"":8362.899999999441},{""page_index"":8,""viewing_time"":6080},{""page_index"":9,""viewing_time"":6731},{""page_index"":10,""viewing_time"":7049.700000000186},{""page_index"":11,""viewing_time"":9279.900000000373},{""page_index"":12,""viewing_time"":7763.399999999441},{""page_index"":13,""viewing_time"":4548.5}]","92648.5","","","","","","","","","","","","","","","","","","","","","","","",""
"pit-trial","8","110371","0.0-2.0-4.0-0.0","battery-v0.2","","""event"",""trial"",""time""
""fullscreenenter"",""1"",""1024""
""fullscreenexit"",""1"",""1776""
""blur"",""7"",""61454""
""focus"",""7"",""65937""
""blur"",""7"",""89382""
""focus"",""7"",""93426""
","""event"",""trial"",""time""
""blur"",""7"",""61454""
""blur"",""7"",""89382""
","""event"",""trial"",""time""
""focus"",""7"",""65937""
""focus"",""7"",""93426""
","""event"",""trial"",""time""
""fullscreenenter"",""1"",""1024""
","""event"",""trial"",""time""
""fullscreenexit"",""1"",""1776""
","","","12.299999999813735","","","18","13747","6003","&#9784;","elianto","#FFFFF080"," "," ","1","&#10004","[864.8999999994412]","1","0","0","","","","","","","",""
"pit-trial","9","115237","0.0-2.0-4.1-0.1","battery-v0.2","","""event"",""trial"",""time""
""fullscreenenter"",""1"",""1024""
""fullscreenexit"",""1"",""1776""
""blur"",""7"",""61454""
""focus"",""7"",""65937""
""blur"",""7"",""89382""
""focus"",""7"",""93426""
","""event"",""trial"",""time""
""blur"",""7"",""61454""
""blur"",""7"",""89382""
","""event"",""trial"",""time""
""focus"",""7"",""65937""
""focus"",""7"",""93426""
","""event"",""trial"",""time""
""fullscreenenter"",""1"",""1024""
","""event"",""trial"",""time""
""fullscreenexit"",""1"",""1776""
","","","-1","","","18","13747","6003","&#9784;","elianto","#FFFFF080"," ","-1","0","&#10060","[818,3015.699999999255]","2","0","0","","","","","","","",""
"pit-trial","10","119875","0.0-2.0-4.2-0.2","battery-v0.2","","""event"",""trial"",""time""
""fullscreenenter"",""1"",""1024""
""fullscreenexit"",""1"",""1776""
""blur"",""7"",""61454""
""focus"",""7"",""65937""
""blur"",""7"",""89382""
""focus"",""7"",""93426""
","""event"",""trial"",""time""
""blur"",""7"",""61454""
""blur"",""7"",""89382""
","""event"",""trial"",""time""
""focus"",""7"",""65937""
""focus"",""7"",""93426""
","""event"",""trial"",""time""
""fullscreenenter"",""1"",""1024""
","""event"",""trial"",""time""
""fullscreenexit"",""1"",""1776""
","","","1774.2999999998137","","","18","13747","6003","&#9784;","elianto","#FFFFF080"," "," ","1","&#10004","[825.4000000003725,2628.5999999996275]","2","0","0","","","","","","","",""
"pit-trial","11","123427","0.0-2.0-4.3-0.3","battery-v0.2","","""event"",""trial"",""time""
""fullscreenenter"",""1"",""1024""
""fullscreenexit"",""1"",""1776""
""blur"",""7"",""61454""
""focus"",""7"",""65937""
""blur"",""7"",""89382""
""focus"",""7"",""93426""
","""event"",""trial"",""time""
""blur"",""7"",""61454""
""blur"",""7"",""89382""
","""event"",""trial"",""time""
""focus"",""7"",""65937""
""focus"",""7"",""93426""
","""event"",""trial"",""time""
""fullscreenenter"",""1"",""1024""
","""event"",""trial"",""time""
""fullscreenexit"",""1"",""1776""
","","","693.6000000005588","","","18","13747","6003","&#9784;","elianto","#FFFFF080"," "," ","1","&#10004","[839.5999999996275,1544.7000000001863]","2","0","0","","","","","","","",""
"pit-trial","12","128288","0.0-2.0-4.4-0.4","battery-v0.2","","""event"",""trial"",""time""
""fullscreenenter"",""1"",""1024""
""fullscreenexit"",""1"",""1776""
""blur"",""7"",""61454""
""focus"",""7"",""65937""
""blur"",""7"",""89382""
""focus"",""7"",""93426""
","""event"",""trial"",""time""
""blur"",""7"",""61454""
""blur"",""7"",""89382""
","""event"",""trial"",""time""
""focus"",""7"",""65937""
""focus"",""7"",""93426""
","""event"",""trial"",""time""
""fullscreenenter"",""1"",""1024""
","""event"",""trial"",""time""
""fullscreenexit"",""1"",""1776""
","","","-1","","","18","13747","6003","&#9784;","elianto","#FFFFF080"," ","-1","0","&#10060","[825.8999999994412]","1","0","0","","","","","","","",""
"pit-trial","13","131390","0.0-2.0-4.5-0.5","battery-v0.2","","""event"",""trial"",""time""
""fullscreenenter"",""1"",""1024""
""fullscreenexit"",""1"",""1776""
""blur"",""7"",""61454""
""focus"",""7"",""65937""
""blur"",""7"",""89382""
""focus"",""7"",""93426""
","""event"",""trial"",""time""
""blur"",""7"",""61454""
""blur"",""7"",""89382""
","""event"",""trial"",""time""
""focus"",""7"",""65937""
""focus"",""7"",""93426""
","""event"",""trial"",""time""
""fullscreenenter"",""1"",""1024""
","""event"",""trial"",""time""
""fullscreenexit"",""1"",""1776""
","","","234.5","","","18","13747","6003","&#9784;","elianto","#FFFFF080"," "," ","1","&#10004","[1087.2999999998137]","1","0","0","","","","","","","",""
"pit-trial","14","134710","0.0-2.0-4.6-0.6","battery-v0.2","","""event"",""trial"",""time""
""fullscreenenter"",""1"",""1024""
""fullscreenexit"",""1"",""1776""
""blur"",""7"",""61454""
""focus"",""7"",""65937""
""blur"",""7"",""89382""
""focus"",""7"",""93426""
","""event"",""trial"",""time""
""blur"",""7"",""61454""
""blur"",""7"",""89382""
","""event"",""trial"",""time""
""focus"",""7"",""65937""
""focus"",""7"",""93426""
","""event"",""trial"",""time""
""fullscreenenter"",""1"",""1024""
","""event"",""trial"",""time""
""fullscreenexit"",""1"",""1776""
","","","451.20000000018626","","","18","13747","6003","&#9784;","elianto","#FFFFF080"," "," ","1","&#10004","[1301.9000000003725]","1","0","0","","","","","","","",""
"pit-instructions","15","149920","0.0-2.0-4.6-1.6-0.6","battery-v0.2","","""event"",""trial"",""time""
""fullscreenenter"",""1"",""1024""
""fullscreenexit"",""1"",""1776""
""blur"",""7"",""61454""
""focus"",""7"",""65937""
""blur"",""7"",""89382""
""focus"",""7"",""93426""
","""event"",""trial"",""time""
""blur"",""7"",""61454""
""blur"",""7"",""89382""
","""event"",""trial"",""time""
""focus"",""7"",""65937""
""focus"",""7"",""93426""
","""event"",""trial"",""time""
""fullscreenenter"",""1"",""1024""
","""event"",""trial"",""time""
""fullscreenexit"",""1"",""1776""
","","[{""page_index"":0,""viewing_time"":5475.9000000003725},{""page_index"":1,""viewing_time"":9731.399999999441}]","15207.599999999627","","","","","","","","","","","","","","","","","","","","","","","",""
"pit-trial","16","153219","0.0-2.0-4.7-0.7","battery-v0.2","","""event"",""trial"",""time""
""fullscreenenter"",""1"",""1024""
""fullscreenexit"",""1"",""1776""
""blur"",""7"",""61454""
""focus"",""7"",""65937""
""blur"",""7"",""89382""
""focus"",""7"",""93426""
","""event"",""trial"",""time""
""blur"",""7"",""61454""
""blur"",""7"",""89382""
","""event"",""trial"",""time""
""focus"",""7"",""65937""
""focus"",""7"",""93426""
","""event"",""trial"",""time""
""fullscreenenter"",""1"",""1024""
","""event"",""trial"",""time""
""fullscreenexit"",""1"",""1776""
","","","444.5","","","18","13747","6003","&#9784;","elianto","#FFFFF080"," "," ","1","&#10004","[694.6000000005588,1294.9000000003725]","2","0","0","","","","","","","",""
"pit-instructions","17","172689","0.0-2.0-5.0","battery-v0.2","","""event"",""trial"",""time""
""fullscreenenter"",""1"",""1024""
""fullscreenexit"",""1"",""1776""
""blur"",""7"",""61454""
""focus"",""7"",""65937""
""blur"",""7"",""89382""
""focus"",""7"",""93426""
","""event"",""trial"",""time""
""blur"",""7"",""61454""
""blur"",""7"",""89382""
","""event"",""trial"",""time""
""focus"",""7"",""65937""
""focus"",""7"",""93426""
","""event"",""trial"",""time""
""fullscreenenter"",""1"",""1024""
","""event"",""trial"",""time""
""fullscreenexit"",""1"",""1776""
","","[{""page_index"":0,""viewing_time"":4883.0999999996275},{""page_index"":1,""viewing_time"":5106.600000000559},{""page_index"":2,""viewing_time"":4313},{""page_index"":3,""viewing_time"":5163.899999999441}]","19466.89999999944","","","","","","","","","","","","","","","","","","","","","","","",""
"pit-trial","18","177553","0.0-2.0-6.0-0.0","battery-v0.2","","""event"",""trial"",""time""
""fullscreenenter"",""1"",""1024""
""fullscreenexit"",""1"",""1776""
""blur"",""7"",""61454""
""focus"",""7"",""65937""
""blur"",""7"",""89382""
""focus"",""7"",""93426""
","""event"",""trial"",""time""
""blur"",""7"",""61454""
""blur"",""7"",""89382""
","""event"",""trial"",""time""
""focus"",""7"",""65937""
""focus"",""7"",""93426""
","""event"",""trial"",""time""
""fullscreenenter"",""1"",""1024""
","""event"",""trial"",""time""
""fullscreenexit"",""1"",""1776""
","","","-1","","","18","13747","6003","&#9854;","elianto","#FFFFF080","-1","-1","1","&#10004","[]","0","0","1","","","","","","","",""
"pit-trial","19","182435","0.0-2.0-6.1-0.1","battery-v0.2","","""event"",""trial"",""time""
""fullscreenenter"",""1"",""1024""
""fullscreenexit"",""1"",""1776""
""blur"",""7"",""61454""
""focus"",""7"",""65937""
""blur"",""7"",""89382""
""focus"",""7"",""93426""
","""event"",""trial"",""time""
""blur"",""7"",""61454""
""blur"",""7"",""89382""
","""event"",""trial"",""time""
""focus"",""7"",""65937""
""focus"",""7"",""93426""
","""event"",""trial"",""time""
""fullscreenenter"",""1"",""1024""
","""event"",""trial"",""time""
""fullscreenexit"",""1"",""1776""
","","","-1","","","18","13747","6003","&#9854;","elianto","#FFFFF080","-1","-1","1","&#10004","[]","0","0","1","","","","","","","",""
"pit-trial","20","187294","0.0-2.0-6.2-0.2","battery-v0.2","","""event"",""trial"",""time""
""fullscreenenter"",""1"",""1024""
""fullscreenexit"",""1"",""1776""
""blur"",""7"",""61454""
""focus"",""7"",""65937""
""blur"",""7"",""89382""
""focus"",""7"",""93426""
""blur"",""21"",""189870""
""focus"",""21"",""190577""
","""event"",""trial"",""time""
""blur"",""7"",""61454""
""blur"",""7"",""89382""
""blur"",""21"",""189870""
","""event"",""trial"",""time""
""focus"",""7"",""65937""
""focus"",""7"",""93426""
""focus"",""21"",""190577""
","""event"",""trial"",""time""
""fullscreenenter"",""1"",""1024""
","""event"",""trial"",""time""
""fullscreenexit"",""1"",""1776""
","","","-1","","","18","13747","6003","&#9854;","elianto","#FFFFF080","-1","-1","1","&#10004","[]","0","0","1","","","","","","","",""
"pit-trial","21","192167","0.0-2.0-6.3-0.3","battery-v0.2","","""event"",""trial"",""time""
""fullscreenenter"",""1"",""1024""
""fullscreenexit"",""1"",""1776""
""blur"",""7"",""61454""
""focus"",""7"",""65937""
""blur"",""7"",""89382""
""focus"",""7"",""93426""
""blur"",""21"",""189870""
""focus"",""21"",""190577""
","""event"",""trial"",""time""
""blur"",""7"",""61454""
""blur"",""7"",""89382""
""blur"",""21"",""189870""
","""event"",""trial"",""time""
""focus"",""7"",""65937""
""focus"",""7"",""93426""
""focus"",""21"",""190577""
","""event"",""trial"",""time""
""fullscreenenter"",""1"",""1024""
","""event"",""trial"",""time""
""fullscreenexit"",""1"",""1776""
","","","-1","","","18","13747","6003","&#9854;","elianto","#FFFFF080","-1","-1","1","&#10004","[]","0","0","1","","","","","","","",""
"pit-trial","22","197038","0.0-2.0-6.4-0.4","battery-v0.2","","""event"",""trial"",""time""
""fullscreenenter"",""1"",""1024""
""fullscreenexit"",""1"",""1776""
""blur"",""7"",""61454""
""focus"",""7"",""65937""
""blur"",""7"",""89382""
""focus"",""7"",""93426""
""blur"",""21"",""189870""
""focus"",""21"",""190577""
""blur"",""23"",""315118""
""focus"",""23"",""315567""
","""event"",""trial"",""time""
""blur"",""7"",""61454""
""blur"",""7"",""89382""
""blur"",""21"",""189870""
""blur"",""23"",""315118""
","""event"",""trial"",""time""
""focus"",""7"",""65937""
""focus"",""7"",""93426""
""focus"",""21"",""190577""
""focus"",""23"",""315567""
","""event"",""trial"",""time""
""fullscreenenter"",""1"",""1024""
","""event"",""trial"",""time""
""fullscreenexit"",""1"",""1776""
","","","-1","","","18","13747","6003","&#9854;","elianto","#FFFFF080","-1","-1","1","&#10004","[]","0","0","1","","","","","","","",""
"pit-instructions","23","316605","0.0-2.0-7.0","battery-v0.2","","""event"",""trial"",""time""
""fullscreenenter"",""1"",""1024""
""fullscreenexit"",""1"",""1776""
""blur"",""7"",""61454""
""focus"",""7"",""65937""
""blur"",""7"",""89382""
""focus"",""7"",""93426""
""blur"",""21"",""189870""
""focus"",""21"",""190577""
""blur"",""23"",""315118""
""focus"",""23"",""315567""
","""event"",""trial"",""time""
""blur"",""7"",""61454""
""blur"",""7"",""89382""
""blur"",""21"",""189870""
""blur"",""23"",""315118""
","""event"",""trial"",""time""
""focus"",""7"",""65937""
""focus"",""7"",""93426""
""focus"",""21"",""190577""
""focus"",""23"",""315567""
","""event"",""trial"",""time""
""fullscreenenter"",""1"",""1024""
","""event"",""trial"",""time""
""fullscreenexit"",""1"",""1776""
","","[{""page_index"":0,""viewing_time"":5909.5},{""page_index"":1,""viewing_time"":7153.0999999996275},{""page_index"":2,""viewing_time"":5407},{""page_index"":3,""viewing_time"":7763.5},{""page_index"":4,""viewing_time"":7856.700000000186},{""page_index"":5,""viewing_time"":5548.399999999441},{""page_index"":6,""viewing_time"":4487.200000000186},{""page_index"":7,""viewing_time"":8431.900000000373},{""page_index"":8,""viewing_time"":7588.5},{""page_index"":9,""viewing_time"":5615.5999999996275},{""page_index"":10,""viewing_time"":7504.4000000003725},{""page_index"":11,""viewing_time"":4597},{""page_index"":12,""viewing_time"":6531.5999999996275},{""page_index"":13,""viewing_time"":8259.5},{""page_index"":14,""viewing_time"":6883.799999999814},{""page_index"":15,""viewing_time"":6079.700000000186},{""page_index"":16,""viewing_time"":7428.200000000186},{""page_index"":17,""viewing_time"":6515.9000000003725}]","119561.89999999944","","","","","","","","","","","","","","","","","","","","","","","",""
"pit-trial","24","319570","0.0-2.0-8.0-0.0","battery-v0.2","","""event"",""trial"",""time""
""fullscreenenter"",""1"",""1024""
""fullscreenexit"",""1"",""1776""
""blur"",""7"",""61454""
""focus"",""7"",""65937""
""blur"",""7"",""89382""
""focus"",""7"",""93426""
""blur"",""21"",""189870""
""focus"",""21"",""190577""
""blur"",""23"",""315118""
""focus"",""23"",""315567""
","""event"",""trial"",""time""
""blur"",""7"",""61454""
""blur"",""7"",""89382""
""blur"",""21"",""189870""
""blur"",""23"",""315118""
","""event"",""trial"",""time""
""focus"",""7"",""65937""
""focus"",""7"",""93426""
""focus"",""21"",""190577""
""focus"",""23"",""315567""
","""event"",""trial"",""time""
""fullscreenenter"",""1"",""1024""
","""event"",""trial"",""time""
""fullscreenexit"",""1"",""1776""
","","","97.70000000018626","","","18","13747","6003","&#9776;","elianto","#3366ff99"," "," ","1","+10","[948.4000000003725]","1","0","1","","","","","","","",""
"pit-trial","25","323689","0.0-2.0-8.0-1.0","battery-v0.2","","""event"",""trial"",""time""
""fullscreenenter"",""1"",""1024""
""fullscreenexit"",""1"",""1776""
""blur"",""7"",""61454""
""focus"",""7"",""65937""
""blur"",""7"",""89382""
""focus"",""7"",""93426""
""blur"",""21"",""189870""
""focus"",""21"",""190577""
""blur"",""23"",""315118""
""focus"",""23"",""315567""
","""event"",""trial"",""time""
""blur"",""7"",""61454""
""blur"",""7"",""89382""
""blur"",""21"",""189870""
""blur"",""23"",""315118""
","""event"",""trial"",""time""
""focus"",""7"",""65937""
""focus"",""7"",""93426""
""focus"",""21"",""190577""
""focus"",""23"",""315567""
","""event"",""trial"",""time""
""fullscreenenter"",""1"",""1024""
","""event"",""trial"",""time""
""fullscreenexit"",""1"",""1776""
","","","1245.3999999994412","","","18","13747","6003","&#9776;","elianto","#3366ff99"," "," ","1","+10","[789.9000000003725,2102.5999999996275]","2","0","1","","","","","","","",""
"pit-trial","26","326566","0.0-2.0-8.0-2.0","battery-v0.2","","""event"",""trial"",""time""
""fullscreenenter"",""1"",""1024""
""fullscreenexit"",""1"",""1776""
""blur"",""7"",""61454""
""focus"",""7"",""65937""
""blur"",""7"",""89382""
""focus"",""7"",""93426""
""blur"",""21"",""189870""
""focus"",""21"",""190577""
""blur"",""23"",""315118""
""focus"",""23"",""315567""
","""event"",""trial"",""time""
""blur"",""7"",""61454""
""blur"",""7"",""89382""
""blur"",""21"",""189870""
""blur"",""23"",""315118""
","""event"",""trial"",""time""
""focus"",""7"",""65937""
""focus"",""7"",""93426""
""focus"",""21"",""190577""
""focus"",""23"",""315567""
","""event"",""trial"",""time""
""fullscreenenter"",""1"",""1024""
","""event"",""trial"",""time""
""fullscreenexit"",""1"",""1776""
","","","15.799999999813735","","","18","13747","6003","&#9776;","elianto","#3366ff99"," "," ","1","+10","[866.0999999996275]","1","0","1","","","","","","","",""
"pit-trial","27","329496","0.0-2.0-8.0-3.0","battery-v0.2","","""event"",""trial"",""time""
""fullscreenenter"",""1"",""1024""
""fullscreenexit"",""1"",""1776""
""blur"",""7"",""61454""
""focus"",""7"",""65937""
""blur"",""7"",""89382""
""focus"",""7"",""93426""
""blur"",""21"",""189870""
""focus"",""21"",""190577""
""blur"",""23"",""315118""
""focus"",""23"",""315567""
","""event"",""trial"",""time""
""blur"",""7"",""61454""
""blur"",""7"",""89382""
""blur"",""21"",""189870""
""blur"",""23"",""315118""
","""event"",""trial"",""time""
""focus"",""7"",""65937""
""focus"",""7"",""93426""
""focus"",""21"",""190577""
""focus"",""23"",""315567""
","""event"",""trial"",""time""
""fullscreenenter"",""1"",""1024""
","""event"",""trial"",""time""
""fullscreenexit"",""1"",""1776""
","","","57","","","18","13747","6003","&#9776;","elianto","#3366ff99"," "," ","1","0","[913.5]","1","0","1","","","","","","","",""
"pit-trial","28","332405","0.0-2.0-8.0-4.0","battery-v0.2","","""event"",""trial"",""time""
""fullscreenenter"",""1"",""1024""
""fullscreenexit"",""1"",""1776""
""blur"",""7"",""61454""
""focus"",""7"",""65937""
""blur"",""7"",""89382""
""focus"",""7"",""93426""
""blur"",""21"",""189870""
""focus"",""21"",""190577""
""blur"",""23"",""315118""
""focus"",""23"",""315567""
","""event"",""trial"",""time""
""blur"",""7"",""61454""
""blur"",""7"",""89382""
""blur"",""21"",""189870""
""blur"",""23"",""315118""
","""event"",""trial"",""time""
""focus"",""7"",""65937""
""focus"",""7"",""93426""
""focus"",""21"",""190577""
""focus"",""23"",""315567""
","""event"",""trial"",""time""
""fullscreenenter"",""1"",""1024""
","""event"",""trial"",""time""
""fullscreenexit"",""1"",""1776""
","","","42.799999999813735","","","18","13747","6003","&#9776;","elianto","#3366ff99"," "," ","1","+10","[895.5]","1","0","1","","","","","","","",""
"pit-trial","29","335337","0.0-2.0-8.1-0.1","battery-v0.2","","""event"",""trial"",""time""
""fullscreenenter"",""1"",""1024""
""fullscreenexit"",""1"",""1776""
""blur"",""7"",""61454""
""focus"",""7"",""65937""
""blur"",""7"",""89382""
""focus"",""7"",""93426""
""blur"",""21"",""189870""
""focus"",""21"",""190577""
""blur"",""23"",""315118""
""focus"",""23"",""315567""
","""event"",""trial"",""time""
""blur"",""7"",""61454""
""blur"",""7"",""89382""
""blur"",""21"",""189870""
""blur"",""23"",""315118""
","""event"",""trial"",""time""
""focus"",""7"",""65937""
""focus"",""7"",""93426""
""focus"",""21"",""190577""
""focus"",""23"",""315567""
","""event"",""trial"",""time""
""fullscreenenter"",""1"",""1024""
","""event"",""trial"",""time""
""fullscreenexit"",""1"",""1776""
","","","69.69999999925494","","","18","13747","6003","&#9776;","elianto","#3366ff99"," "," ","1","+10","[922.2999999998137,2777.600000000559]","2","0","1","","","","","","","",""
"pit-trial","30","338216","0.0-2.0-8.1-1.1","battery-v0.2","","""event"",""trial"",""time""
""fullscreenenter"",""1"",""1024""
""fullscreenexit"",""1"",""1776""
""blur"",""7"",""61454""
""focus"",""7"",""65937""
""blur"",""7"",""89382""
""focus"",""7"",""93426""
""blur"",""21"",""189870""
""focus"",""21"",""190577""
""blur"",""23"",""315118""
""focus"",""23"",""315567""
","""event"",""trial"",""time""
""blur"",""7"",""61454""
""blur"",""7"",""89382""
""blur"",""21"",""189870""
""blur"",""23"",""315118""
","""event"",""trial"",""time""
""focus"",""7"",""65937""
""focus"",""7"",""93426""
""focus"",""21"",""190577""
""focus"",""23"",""315567""
","""event"",""trial"",""time""
""fullscreenenter"",""1"",""1024""
","""event"",""trial"",""time""
""fullscreenexit"",""1"",""1776""
","","","20.200000000186265","","","18","13747","6003","&#9776;","elianto","#3366ff99"," "," ","1","+10","[872.6000000005588]","1","0","1","","","","","","","",""
"pit-trial","31","341132","0.0-2.0-8.1-2.1","battery-v0.2","","""event"",""trial"",""time""
""fullscreenenter"",""1"",""1024""
""fullscreenexit"",""1"",""1776""
""blur"",""7"",""61454""
""focus"",""7"",""65937""
""blur"",""7"",""89382""
""focus"",""7"",""93426""
""blur"",""21"",""189870""
""focus"",""21"",""190577""
""blur"",""23"",""315118""
""focus"",""23"",""315567""
","""event"",""trial"",""time""
""blur"",""7"",""61454""
""blur"",""7"",""89382""
""blur"",""21"",""189870""
""blur"",""23"",""315118""
","""event"",""trial"",""time""
""focus"",""7"",""65937""
""focus"",""7"",""93426""
""focus"",""21"",""190577""
""focus"",""23"",""315567""
","""event"",""trial"",""time""
""fullscreenenter"",""1"",""1024""
","""event"",""trial"",""time""
""fullscreenexit"",""1"",""1776""
","","","52.59999999962747","","","18","13747","6003","&#9776;","elianto","#3366ff99"," "," ","1","+10","[911.2999999998137]","1","0","1","","","","","","","",""
"pit-trial","32","344025","0.0-2.0-8.1-3.1","battery-v0.2","","""event"",""trial"",""time""
""fullscreenenter"",""1"",""1024""
""fullscreenexit"",""1"",""1776""
""blur"",""7"",""61454""
""focus"",""7"",""65937""
""blur"",""7"",""89382""
""focus"",""7"",""93426""
""blur"",""21"",""189870""
""focus"",""21"",""190577""
""blur"",""23"",""315118""
""focus"",""23"",""315567""
","""event"",""trial"",""time""
""blur"",""7"",""61454""
""blur"",""7"",""89382""
""blur"",""21"",""189870""
""blur"",""23"",""315118""
","""event"",""trial"",""time""
""focus"",""7"",""65937""
""focus"",""7"",""93426""
""focus"",""21"",""190577""
""focus"",""23"",""315567""
","""event"",""trial"",""time""
""fullscreenenter"",""1"",""1024""
","""event"",""trial"",""time""
""fullscreenexit"",""1"",""1776""
","","","23.200000000186265","","","18","13747","6003","&#9776;","elianto","#3366ff99"," "," ","1","0","[877.3000000007451]","1","0","1","","","","","","","",""
"pit-trial","33","346929","0.0-2.0-8.1-4.1","battery-v0.2","","""event"",""trial"",""time""
""fullscreenenter"",""1"",""1024""
""fullscreenexit"",""1"",""1776""
""blur"",""7"",""61454""
""focus"",""7"",""65937""
""blur"",""7"",""89382""
""focus"",""7"",""93426""
""blur"",""21"",""189870""
""focus"",""21"",""190577""
""blur"",""23"",""315118""
""focus"",""23"",""315567""
","""event"",""trial"",""time""
""blur"",""7"",""61454""
""blur"",""7"",""89382""
""blur"",""21"",""189870""
""blur"",""23"",""315118""
","""event"",""trial"",""time""
""focus"",""7"",""65937""
""focus"",""7"",""93426""
""focus"",""21"",""190577""
""focus"",""23"",""315567""
","""event"",""trial"",""time""
""fullscreenenter"",""1"",""1024""
","""event"",""trial"",""time""
""fullscreenexit"",""1"",""1776""
","","","51.700000000186265","","","18","13747","6003","&#9776;","elianto","#3366ff99"," "," ","1","+10","[901.9000000003725,2644.2999999998137]","2","0","1","","","","","","","",""
"pit-trial","34","349825","0.0-2.0-8.2-0.2","battery-v0.2","","""event"",""trial"",""time""
""fullscreenenter"",""1"",""1024""
""fullscreenexit"",""1"",""1776""
""blur"",""7"",""61454""
""focus"",""7"",""65937""
""blur"",""7"",""89382""
""focus"",""7"",""93426""
""blur"",""21"",""189870""
""focus"",""21"",""190577""
""blur"",""23"",""315118""
""focus"",""23"",""315567""
","""event"",""trial"",""time""
""blur"",""7"",""61454""
""blur"",""7"",""89382""
""blur"",""21"",""189870""
""blur"",""23"",""315118""
","""event"",""trial"",""time""
""focus"",""7"",""65937""
""focus"",""7"",""93426""
""focus"",""21"",""190577""
""focus"",""23"",""315567""
","""event"",""trial"",""time""
""fullscreenenter"",""1"",""1024""
","""event"",""trial"",""time""
""fullscreenexit"",""1"",""1776""
","","","41.200000000186265","","","18","13747","6003","&#9776;","elianto","#3366ff99"," "," ","1","+10","[891.5]","1","0","1","","","","","","","",""
"pit-trial","35","352711","0.0-2.0-8.2-1.2","battery-v0.2","","""event"",""trial"",""time""
""fullscreenenter"",""1"",""1024""
""fullscreenexit"",""1"",""1776""
""blur"",""7"",""61454""
""focus"",""7"",""65937""
""blur"",""7"",""89382""
""focus"",""7"",""93426""
""blur"",""21"",""189870""
""focus"",""21"",""190577""
""blur"",""23"",""315118""
""focus"",""23"",""315567""
","""event"",""trial"",""time""
""blur"",""7"",""61454""
""blur"",""7"",""89382""
""blur"",""21"",""189870""
""blur"",""23"",""315118""
","""event"",""trial"",""time""
""focus"",""7"",""65937""
""focus"",""7"",""93426""
""focus"",""21"",""190577""
""focus"",""23"",""315567""
","""event"",""trial"",""time""
""fullscreenenter"",""1"",""1024""
","""event"",""trial"",""time""
""fullscreenexit"",""1"",""1776""
","","","31.399999999441206","","","18","13747","6003","&#9776;","elianto","#3366ff99"," "," ","1","+10","[882.2999999998137]","1","0","1","","","","","","","",""
"pit-trial","36","355603","0.0-2.0-8.2-2.2","battery-v0.2","","""event"",""trial"",""time""
""fullscreenenter"",""1"",""1024""
""fullscreenexit"",""1"",""1776""
""blur"",""7"",""61454""
""focus"",""7"",""65937""
""blur"",""7"",""89382""
""focus"",""7"",""93426""
""blur"",""21"",""189870""
""focus"",""21"",""190577""
""blur"",""23"",""315118""
""focus"",""23"",""315567""
","""event"",""trial"",""time""
""blur"",""7"",""61454""
""blur"",""7"",""89382""
""blur"",""21"",""189870""
""blur"",""23"",""315118""
","""event"",""trial"",""time""
""focus"",""7"",""65937""
""focus"",""7"",""93426""
""focus"",""21"",""190577""
""focus"",""23"",""315567""
","""event"",""trial"",""time""
""fullscreenenter"",""1"",""1024""
","""event"",""trial"",""time""
""fullscreenexit"",""1"",""1776""
","","","38.299999999813735","","","18","13747","6003","&#9776;","elianto","#3366ff99"," "," ","1","+10","[888.7999999998137]","1","0","1","","","","","","","",""
"pit-trial","37","358521","0.0-2.0-8.2-3.2","battery-v0.2","","""event"",""trial"",""time""
""fullscreenenter"",""1"",""1024""
""fullscreenexit"",""1"",""1776""
""blur"",""7"",""61454""
""focus"",""7"",""65937""
""blur"",""7"",""89382""
""focus"",""7"",""93426""
""blur"",""21"",""189870""
""focus"",""21"",""190577""
""blur"",""23"",""315118""
""focus"",""23"",""315567""
","""event"",""trial"",""time""
""blur"",""7"",""61454""
""blur"",""7"",""89382""
""blur"",""21"",""189870""
""blur"",""23"",""315118""
","""event"",""trial"",""time""
""focus"",""7"",""65937""
""focus"",""7"",""93426""
""focus"",""21"",""190577""
""focus"",""23"",""315567""
","""event"",""trial"",""time""
""fullscreenenter"",""1"",""1024""
","""event"",""trial"",""time""
""fullscreenexit"",""1"",""1776""
","","","64.5","","","18","13747","6003","&#9776;","elianto","#3366ff99"," "," ","1","0","[915.1999999992549]","1","0","1","","","","","","","",""
"pit-trial","38","361504","0.0-2.0-8.2-4.2","battery-v0.2","","""event"",""trial"",""time""
""fullscreenenter"",""1"",""1024""
""fullscreenexit"",""1"",""1776""
""blur"",""7"",""61454""
""focus"",""7"",""65937""
""blur"",""7"",""89382""
""focus"",""7"",""93426""
""blur"",""21"",""189870""
""focus"",""21"",""190577""
""blur"",""23"",""315118""
""focus"",""23"",""315567""
","""event"",""trial"",""time""
""blur"",""7"",""61454""
""blur"",""7"",""89382""
""blur"",""21"",""189870""
""blur"",""23"",""315118""
","""event"",""trial"",""time""
""focus"",""7"",""65937""
""focus"",""7"",""93426""
""focus"",""21"",""190577""
""focus"",""23"",""315567""
","""event"",""trial"",""time""
""fullscreenenter"",""1"",""1024""
","""event"",""trial"",""time""
""fullscreenexit"",""1"",""1776""
","","","128.79999999981374","","","18","13747","6003","&#9776;","elianto","#3366ff99"," "," ","1","+10","[979.5]","1","0","1","","","","","","","",""
"call-function","39","361506","0.0-2.0-9.0","battery-v0.2","","""event"",""trial"",""time""
""fullscreenenter"",""1"",""1024""
""fullscreenexit"",""1"",""1776""
""blur"",""7"",""61454""
""focus"",""7"",""65937""
""blur"",""7"",""89382""
""focus"",""7"",""93426""
""blur"",""21"",""189870""
""focus"",""21"",""190577""
""blur"",""23"",""315118""
""focus"",""23"",""315567""
""blur"",""40"",""370370""
""focus"",""40"",""371864""
","""event"",""trial"",""time""
""blur"",""7"",""61454""
""blur"",""7"",""89382""
""blur"",""21"",""189870""
""blur"",""23"",""315118""
""blur"",""40"",""370370""
","""event"",""trial"",""time""
""focus"",""7"",""65937""
""focus"",""7"",""93426""
""focus"",""21"",""190577""
""focus"",""23"",""315567""
""focus"",""40"",""371864""
","""event"",""trial"",""time""
""fullscreenenter"",""1"",""1024""
","""event"",""trial"",""time""
""fullscreenexit"",""1"",""1776""
","","","","","","","","","","","","","","","","","","","","","","","","","","",""
"pit-instructions","40","400029","0.0-2.0-10.0","battery-v0.2","","""event"",""trial"",""time""
""fullscreenenter"",""1"",""1024""
""fullscreenexit"",""1"",""1776""
""blur"",""7"",""61454""
""focus"",""7"",""65937""
""blur"",""7"",""89382""
""focus"",""7"",""93426""
""blur"",""21"",""189870""
""focus"",""21"",""190577""
""blur"",""23"",""315118""
""focus"",""23"",""315567""
""blur"",""40"",""370370""
""focus"",""40"",""371864""
","""event"",""trial"",""time""
""blur"",""7"",""61454""
""blur"",""7"",""89382""
""blur"",""21"",""189870""
""blur"",""23"",""315118""
""blur"",""40"",""370370""
","""event"",""trial"",""time""
""focus"",""7"",""65937""
""focus"",""7"",""93426""
""focus"",""21"",""190577""
""focus"",""23"",""315567""
""focus"",""40"",""371864""
","""event"",""trial"",""time""
""fullscreenenter"",""1"",""1024""
","""event"",""trial"",""time""
""fullscreenexit"",""1"",""1776""
","","[{""page_index"":0,""viewing_time"":5551.0999999996275},{""page_index"":1,""viewing_time"":6967.600000000559},{""page_index"":2,""viewing_time"":10184.200000000186},{""page_index"":3,""viewing_time"":8679.699999999255},{""page_index"":4,""viewing_time"":7139.9000000003725}]","38523","","","","","","","","","","","","","","","","","","","","","","","",""
"pit-trial","41","404901","0.0-2.0-11.0-0.0","battery-v0.2","","""event"",""trial"",""time""
""fullscreenenter"",""1"",""1024""
""fullscreenexit"",""1"",""1776""
""blur"",""7"",""61454""
""focus"",""7"",""65937""
""blur"",""7"",""89382""
""focus"",""7"",""93426""
""blur"",""21"",""189870""
""focus"",""21"",""190577""
""blur"",""23"",""315118""
""focus"",""23"",""315567""
""blur"",""40"",""370370""
""focus"",""40"",""371864""
","""event"",""trial"",""time""
""blur"",""7"",""61454""
""blur"",""7"",""89382""
""blur"",""21"",""189870""
""blur"",""23"",""315118""
""blur"",""40"",""370370""
","""event"",""trial"",""time""
""focus"",""7"",""65937""
""focus"",""7"",""93426""
""focus"",""21"",""190577""
""focus"",""23"",""315567""
""focus"",""40"",""371864""
","""event"",""trial"",""time""
""fullscreenenter"",""1"",""1024""
","""event"",""trial"",""time""
""fullscreenexit"",""1"",""1776""
","","","-1","","","18","13747","6003","&#9761;","elianto","#3366ff99","-1","-1","1","+10","[]","0","0","2","","","","","","","",""
"pit-trial","42","409768","0.0-2.0-11.0-1.0","battery-v0.2","","""event"",""trial"",""time""
""fullscreenenter"",""1"",""1024""
""fullscreenexit"",""1"",""1776""
""blur"",""7"",""61454""
""focus"",""7"",""65937""
""blur"",""7"",""89382""
""focus"",""7"",""93426""
""blur"",""21"",""189870""
""focus"",""21"",""190577""
""blur"",""23"",""315118""
""focus"",""23"",""315567""
""blur"",""40"",""370370""
""focus"",""40"",""371864""
","""event"",""trial"",""time""
""blur"",""7"",""61454""
""blur"",""7"",""89382""
""blur"",""21"",""189870""
""blur"",""23"",""315118""
""blur"",""40"",""370370""
","""event"",""trial"",""time""
""focus"",""7"",""65937""
""focus"",""7"",""93426""
""focus"",""21"",""190577""
""focus"",""23"",""315567""
""focus"",""40"",""371864""
","""event"",""trial"",""time""
""fullscreenenter"",""1"",""1024""
","""event"",""trial"",""time""
""fullscreenexit"",""1"",""1776""
","","","-1","","","18","13747","6003","&#9761;","elianto","#3366ff99","-1","-1","1","+10","[]","0","0","2","","","","","","","",""
"pit-trial","43","414647","0.0-2.0-11.0-2.0","battery-v0.2","","""event"",""trial"",""time""
""fullscreenenter"",""1"",""1024""
""fullscreenexit"",""1"",""1776""
""blur"",""7"",""61454""
""focus"",""7"",""65937""
""blur"",""7"",""89382""
""focus"",""7"",""93426""
""blur"",""21"",""189870""
""focus"",""21"",""190577""
""blur"",""23"",""315118""
""focus"",""23"",""315567""
""blur"",""40"",""370370""
""focus"",""40"",""371864""
","""event"",""trial"",""time""
""blur"",""7"",""61454""
""blur"",""7"",""89382""
""blur"",""21"",""189870""
""blur"",""23"",""315118""
""blur"",""40"",""370370""
","""event"",""trial"",""time""
""focus"",""7"",""65937""
""focus"",""7"",""93426""
""focus"",""21"",""190577""
""focus"",""23"",""315567""
""focus"",""40"",""371864""
","""event"",""trial"",""time""
""fullscreenenter"",""1"",""1024""
","""event"",""trial"",""time""
""fullscreenexit"",""1"",""1776""
","","","-1","","","18","13747","6003","&#9761;","elianto","#3366ff99","-1","-1","1","+10","[]","0","0","2","","","","","","","",""
"pit-trial","44","419506","0.0-2.0-11.0-3.0","battery-v0.2","","""event"",""trial"",""time""
""fullscreenenter"",""1"",""1024""
""fullscreenexit"",""1"",""1776""
""blur"",""7"",""61454""
""focus"",""7"",""65937""
""blur"",""7"",""89382""
""focus"",""7"",""93426""
""blur"",""21"",""189870""
""focus"",""21"",""190577""
""blur"",""23"",""315118""
""focus"",""23"",""315567""
""blur"",""40"",""370370""
""focus"",""40"",""371864""
","""event"",""trial"",""time""
""blur"",""7"",""61454""
""blur"",""7"",""89382""
""blur"",""21"",""189870""
""blur"",""23"",""315118""
""blur"",""40"",""370370""
","""event"",""trial"",""time""
""focus"",""7"",""65937""
""focus"",""7"",""93426""
""focus"",""21"",""190577""
""focus"",""23"",""315567""
""focus"",""40"",""371864""
","""event"",""trial"",""time""
""fullscreenenter"",""1"",""1024""
","""event"",""trial"",""time""
""fullscreenexit"",""1"",""1776""
","","","-1","","","18","13747","6003","&#9761;","elianto","#3366ff99","-1","-1","1","0","[]","0","0","2","","","","","","","",""
"pit-trial","45","424382","0.0-2.0-11.0-4.0","battery-v0.2","","""event"",""trial"",""time""
""fullscreenenter"",""1"",""1024""
""fullscreenexit"",""1"",""1776""
""blur"",""7"",""61454""
""focus"",""7"",""65937""
""blur"",""7"",""89382""
""focus"",""7"",""93426""
""blur"",""21"",""189870""
""focus"",""21"",""190577""
""blur"",""23"",""315118""
""focus"",""23"",""315567""
""blur"",""40"",""370370""
""focus"",""40"",""371864""
","""event"",""trial"",""time""
""blur"",""7"",""61454""
""blur"",""7"",""89382""
""blur"",""21"",""189870""
""blur"",""23"",""315118""
""blur"",""40"",""370370""
","""event"",""trial"",""time""
""focus"",""7"",""65937""
""focus"",""7"",""93426""
""focus"",""21"",""190577""
""focus"",""23"",""315567""
""focus"",""40"",""371864""
","""event"",""trial"",""time""
""fullscreenenter"",""1"",""1024""
","""event"",""trial"",""time""
""fullscreenexit"",""1"",""1776""
","","","-1","","","18","13747","6003","&#9761;","elianto","#3366ff99","-1","-1","1","+10","[]","0","0","2","","","","","","","",""
"pit-trial","46","429244","0.0-2.0-11.1-0.1","battery-v0.2","","""event"",""trial"",""time""
""fullscreenenter"",""1"",""1024""
""fullscreenexit"",""1"",""1776""
""blur"",""7"",""61454""
""focus"",""7"",""65937""
""blur"",""7"",""89382""
""focus"",""7"",""93426""
""blur"",""21"",""189870""
""focus"",""21"",""190577""
""blur"",""23"",""315118""
""focus"",""23"",""315567""
""blur"",""40"",""370370""
""focus"",""40"",""371864""
","""event"",""trial"",""time""
""blur"",""7"",""61454""
""blur"",""7"",""89382""
""blur"",""21"",""189870""
""blur"",""23"",""315118""
""blur"",""40"",""370370""
","""event"",""trial"",""time""
""focus"",""7"",""65937""
""focus"",""7"",""93426""
""focus"",""21"",""190577""
""focus"",""23"",""315567""
""focus"",""40"",""371864""
","""event"",""trial"",""time""
""fullscreenenter"",""1"",""1024""
","""event"",""trial"",""time""
""fullscreenexit"",""1"",""1776""
","","","-1","","","18","13747","6003","&#9761;","elianto","#3366ff99","-1","-1","1","+10","[]","0","0","2","","","","","","","",""
"pit-trial","47","434099","0.0-2.0-11.1-1.1","battery-v0.2","","""event"",""trial"",""time""
""fullscreenenter"",""1"",""1024""
""fullscreenexit"",""1"",""1776""
""blur"",""7"",""61454""
""focus"",""7"",""65937""
""blur"",""7"",""89382""
""focus"",""7"",""93426""
""blur"",""21"",""189870""
""focus"",""21"",""190577""
""blur"",""23"",""315118""
""focus"",""23"",""315567""
""blur"",""40"",""370370""
""focus"",""40"",""371864""
","""event"",""trial"",""time""
""blur"",""7"",""61454""
""blur"",""7"",""89382""
""blur"",""21"",""189870""
""blur"",""23"",""315118""
""blur"",""40"",""370370""
","""event"",""trial"",""time""
""focus"",""7"",""65937""
""focus"",""7"",""93426""
""focus"",""21"",""190577""
""focus"",""23"",""315567""
""focus"",""40"",""371864""
","""event"",""trial"",""time""
""fullscreenenter"",""1"",""1024""
","""event"",""trial"",""time""
""fullscreenexit"",""1"",""1776""
","","","-1","","","18","13747","6003","&#9761;","elianto","#3366ff99","-1","-1","1","+10","[]","0","0","2","","","","","","","",""
"pit-trial","48","438953","0.0-2.0-11.1-2.1","battery-v0.2","","""event"",""trial"",""time""
""fullscreenenter"",""1"",""1024""
""fullscreenexit"",""1"",""1776""
""blur"",""7"",""61454""
""focus"",""7"",""65937""
""blur"",""7"",""89382""
""focus"",""7"",""93426""
""blur"",""21"",""189870""
""focus"",""21"",""190577""
""blur"",""23"",""315118""
""focus"",""23"",""315567""
""blur"",""40"",""370370""
""focus"",""40"",""371864""
","""event"",""trial"",""time""
""blur"",""7"",""61454""
""blur"",""7"",""89382""
""blur"",""21"",""189870""
""blur"",""23"",""315118""
""blur"",""40"",""370370""
","""event"",""trial"",""time""
""focus"",""7"",""65937""
""focus"",""7"",""93426""
""focus"",""21"",""190577""
""focus"",""23"",""315567""
""focus"",""40"",""371864""
","""event"",""trial"",""time""
""fullscreenenter"",""1"",""1024""
","""event"",""trial"",""time""
""fullscreenexit"",""1"",""1776""
","","","-1","","","18","13747","6003","&#9761;","elianto","#3366ff99","-1","-1","1","+10","[]","0","0","2","","","","","","","",""
"pit-trial","49","443808","0.0-2.0-11.1-3.1","battery-v0.2","","""event"",""trial"",""time""
""fullscreenenter"",""1"",""1024""
""fullscreenexit"",""1"",""1776""
""blur"",""7"",""61454""
""focus"",""7"",""65937""
""blur"",""7"",""89382""
""focus"",""7"",""93426""
""blur"",""21"",""189870""
""focus"",""21"",""190577""
""blur"",""23"",""315118""
""focus"",""23"",""315567""
""blur"",""40"",""370370""
""focus"",""40"",""371864""
","""event"",""trial"",""time""
""blur"",""7"",""61454""
""blur"",""7"",""89382""
""blur"",""21"",""189870""
""blur"",""23"",""315118""
""blur"",""40"",""370370""
","""event"",""trial"",""time""
""focus"",""7"",""65937""
""focus"",""7"",""93426""
""focus"",""21"",""190577""
""focus"",""23"",""315567""
""focus"",""40"",""371864""
","""event"",""trial"",""time""
""fullscreenenter"",""1"",""1024""
","""event"",""trial"",""time""
""fullscreenexit"",""1"",""1776""
","","","-1","","","18","13747","6003","&#9761;","elianto","#3366ff99","-1","-1","1","0","[]","0","0","2","","","","","","","",""
"pit-trial","50","448661","0.0-2.0-11.1-4.1","battery-v0.2","","""event"",""trial"",""time""
""fullscreenenter"",""1"",""1024""
""fullscreenexit"",""1"",""1776""
""blur"",""7"",""61454""
""focus"",""7"",""65937""
""blur"",""7"",""89382""
""focus"",""7"",""93426""
""blur"",""21"",""189870""
""focus"",""21"",""190577""
""blur"",""23"",""315118""
""focus"",""23"",""315567""
""blur"",""40"",""370370""
""focus"",""40"",""371864""
","""event"",""trial"",""time""
""blur"",""7"",""61454""
""blur"",""7"",""89382""
""blur"",""21"",""189870""
""blur"",""23"",""315118""
""blur"",""40"",""370370""
","""event"",""trial"",""time""
""focus"",""7"",""65937""
""focus"",""7"",""93426""
""focus"",""21"",""190577""
""focus"",""23"",""315567""
""focus"",""40"",""371864""
","""event"",""trial"",""time""
""fullscreenenter"",""1"",""1024""
","""event"",""trial"",""time""
""fullscreenexit"",""1"",""1776""
","","","-1","","","18","13747","6003","&#9761;","elianto","#3366ff99","-1","-1","1","+10","[]","0","0","2","","","","","","","",""
"pit-trial","51","453515","0.0-2.0-11.2-0.2","battery-v0.2","","""event"",""trial"",""time""
""fullscreenenter"",""1"",""1024""
""fullscreenexit"",""1"",""1776""
""blur"",""7"",""61454""
""focus"",""7"",""65937""
""blur"",""7"",""89382""
""focus"",""7"",""93426""
""blur"",""21"",""189870""
""focus"",""21"",""190577""
""blur"",""23"",""315118""
""focus"",""23"",""315567""
""blur"",""40"",""370370""
""focus"",""40"",""371864""
","""event"",""trial"",""time""
""blur"",""7"",""61454""
""blur"",""7"",""89382""
""blur"",""21"",""189870""
""blur"",""23"",""315118""
""blur"",""40"",""370370""
","""event"",""trial"",""time""
""focus"",""7"",""65937""
""focus"",""7"",""93426""
""focus"",""21"",""190577""
""focus"",""23"",""315567""
""focus"",""40"",""371864""
","""event"",""trial"",""time""
""fullscreenenter"",""1"",""1024""
","""event"",""trial"",""time""
""fullscreenexit"",""1"",""1776""
","","","-1","","","18","13747","6003","&#9761;","elianto","#3366ff99","-1","-1","1","+10","[]","0","0","2","","","","","","","",""
"pit-trial","52","458368","0.0-2.0-11.2-1.2","battery-v0.2","","""event"",""trial"",""time""
""fullscreenenter"",""1"",""1024""
""fullscreenexit"",""1"",""1776""
""blur"",""7"",""61454""
""focus"",""7"",""65937""
""blur"",""7"",""89382""
""focus"",""7"",""93426""
""blur"",""21"",""189870""
""focus"",""21"",""190577""
""blur"",""23"",""315118""
""focus"",""23"",""315567""
""blur"",""40"",""370370""
""focus"",""40"",""371864""
","""event"",""trial"",""time""
""blur"",""7"",""61454""
""blur"",""7"",""89382""
""blur"",""21"",""189870""
""blur"",""23"",""315118""
""blur"",""40"",""370370""
","""event"",""trial"",""time""
""focus"",""7"",""65937""
""focus"",""7"",""93426""
""focus"",""21"",""190577""
""focus"",""23"",""315567""
""focus"",""40"",""371864""
","""event"",""trial"",""time""
""fullscreenenter"",""1"",""1024""
","""event"",""trial"",""time""
""fullscreenexit"",""1"",""1776""
","","","-1","","","18","13747","6003","&#9761;","elianto","#3366ff99","-1","-1","1","+10","[]","0","0","2","","","","","","","",""
"pit-trial","53","463223","0.0-2.0-11.2-2.2","battery-v0.2","","""event"",""trial"",""time""
""fullscreenenter"",""1"",""1024""
""fullscreenexit"",""1"",""1776""
""blur"",""7"",""61454""
""focus"",""7"",""65937""
""blur"",""7"",""89382""
""focus"",""7"",""93426""
""blur"",""21"",""189870""
""focus"",""21"",""190577""
""blur"",""23"",""315118""
""focus"",""23"",""315567""
""blur"",""40"",""370370""
""focus"",""40"",""371864""
","""event"",""trial"",""time""
""blur"",""7"",""61454""
""blur"",""7"",""89382""
""blur"",""21"",""189870""
""blur"",""23"",""315118""
""blur"",""40"",""370370""
","""event"",""trial"",""time""
""focus"",""7"",""65937""
""focus"",""7"",""93426""
""focus"",""21"",""190577""
""focus"",""23"",""315567""
""focus"",""40"",""371864""
","""event"",""trial"",""time""
""fullscreenenter"",""1"",""1024""
","""event"",""trial"",""time""
""fullscreenexit"",""1"",""1776""
","","","-1","","","18","13747","6003","&#9761;","elianto","#3366ff99","-1","-1","1","+10","[]","0","0","2","","","","","","","",""
"pit-trial","54","468077","0.0-2.0-11.2-3.2","battery-v0.2","","""event"",""trial"",""time""
""fullscreenenter"",""1"",""1024""
""fullscreenexit"",""1"",""1776""
""blur"",""7"",""61454""
""focus"",""7"",""65937""
""blur"",""7"",""89382""
""focus"",""7"",""93426""
""blur"",""21"",""189870""
""focus"",""21"",""190577""
""blur"",""23"",""315118""
""focus"",""23"",""315567""
""blur"",""40"",""370370""
""focus"",""40"",""371864""
","""event"",""trial"",""time""
""blur"",""7"",""61454""
""blur"",""7"",""89382""
""blur"",""21"",""189870""
""blur"",""23"",""315118""
""blur"",""40"",""370370""
","""event"",""trial"",""time""
""focus"",""7"",""65937""
""focus"",""7"",""93426""
""focus"",""21"",""190577""
""focus"",""23"",""315567""
""focus"",""40"",""371864""
","""event"",""trial"",""time""
""fullscreenenter"",""1"",""1024""
","""event"",""trial"",""time""
""fullscreenexit"",""1"",""1776""
","","","-1","","","18","13747","6003","&#9761;","elianto","#3366ff99","-1","-1","1","0","[]","0","0","2","","","","","","","",""
"pit-trial","55","472930","0.0-2.0-11.2-4.2","battery-v0.2","","""event"",""trial"",""time""
""fullscreenenter"",""1"",""1024""
""fullscreenexit"",""1"",""1776""
""blur"",""7"",""61454""
""focus"",""7"",""65937""
""blur"",""7"",""89382""
""focus"",""7"",""93426""
""blur"",""21"",""189870""
""focus"",""21"",""190577""
""blur"",""23"",""315118""
""focus"",""23"",""315567""
""blur"",""40"",""370370""
""focus"",""40"",""371864""
""blur"",""56"",""475301""
","""event"",""trial"",""time""
""blur"",""7"",""61454""
""blur"",""7"",""89382""
""blur"",""21"",""189870""
""blur"",""23"",""315118""
""blur"",""40"",""370370""
""blur"",""56"",""475301""
","""event"",""trial"",""time""
""focus"",""7"",""65937""
""focus"",""7"",""93426""
""focus"",""21"",""190577""
""focus"",""23"",""315567""
""focus"",""40"",""371864""
","""event"",""trial"",""time""
""fullscreenenter"",""1"",""1024""
","""event"",""trial"",""time""
""fullscreenexit"",""1"",""1776""
","","","-1","","","18","13747","6003","&#9761;","elianto","#3366ff99","-1","-1","1","+10","[]","0","0","2","","","","","","","",""
"pit-trial","56","479464","0.0-2.0-11.3-0.3","battery-v0.2","","""event"",""trial"",""time""
""fullscreenenter"",""1"",""1024""
""fullscreenexit"",""1"",""1776""
""blur"",""7"",""61454""
""focus"",""7"",""65937""
""blur"",""7"",""89382""
""focus"",""7"",""93426""
""blur"",""21"",""189870""
""focus"",""21"",""190577""
""blur"",""23"",""315118""
""focus"",""23"",""315567""
""blur"",""40"",""370370""
""focus"",""40"",""371864""
""blur"",""56"",""475301""
""focus"",""57"",""484358""
","""event"",""trial"",""time""
""blur"",""7"",""61454""
""blur"",""7"",""89382""
""blur"",""21"",""189870""
""blur"",""23"",""315118""
""blur"",""40"",""370370""
""blur"",""56"",""475301""
","""event"",""trial"",""time""
""focus"",""7"",""65937""
""focus"",""7"",""93426""
""focus"",""21"",""190577""
""focus"",""23"",""315567""
""focus"",""40"",""371864""
""focus"",""57"",""484358""
","""event"",""trial"",""time""
""fullscreenenter"",""1"",""1024""
","""event"",""trial"",""time""
""fullscreenexit"",""1"",""1776""
","","","-1","","","18","13747","6003","&#9761;","elianto","#3366ff99","-1","-1","1","+10","[]","0","0","2","","","","","","","",""
"pit-trial","57","484470","0.0-2.0-11.3-1.3","battery-v0.2","","""event"",""trial"",""time""
""fullscreenenter"",""1"",""1024""
""fullscreenexit"",""1"",""1776""
""blur"",""7"",""61454""
""focus"",""7"",""65937""
""blur"",""7"",""89382""
""focus"",""7"",""93426""
""blur"",""21"",""189870""
""focus"",""21"",""190577""
""blur"",""23"",""315118""
""focus"",""23"",""315567""
""blur"",""40"",""370370""
""focus"",""40"",""371864""
""blur"",""56"",""475301""
""focus"",""57"",""484358""
","""event"",""trial"",""time""
""blur"",""7"",""61454""
""blur"",""7"",""89382""
""blur"",""21"",""189870""
""blur"",""23"",""315118""
""blur"",""40"",""370370""
""blur"",""56"",""475301""
","""event"",""trial"",""time""
""focus"",""7"",""65937""
""focus"",""7"",""93426""
""focus"",""21"",""190577""
""focus"",""23"",""315567""
""focus"",""40"",""371864""
""focus"",""57"",""484358""
","""event"",""trial"",""time""
""fullscreenenter"",""1"",""1024""
","""event"",""trial"",""time""
""fullscreenexit"",""1"",""1776""
","","","-1","","","18","13747","6003","&#9761;","elianto","#3366ff99","-1","-1","1","+10","[]","0","0","2","","","","","","","",""
"pit-trial","58","489323","0.0-2.0-11.3-2.3","battery-v0.2","","""event"",""trial"",""time""
""fullscreenenter"",""1"",""1024""
""fullscreenexit"",""1"",""1776""
""blur"",""7"",""61454""
""focus"",""7"",""65937""
""blur"",""7"",""89382""
""focus"",""7"",""93426""
""blur"",""21"",""189870""
""focus"",""21"",""190577""
""blur"",""23"",""315118""
""focus"",""23"",""315567""
""blur"",""40"",""370370""
""focus"",""40"",""371864""
""blur"",""56"",""475301""
""focus"",""57"",""484358""
","""event"",""trial"",""time""
""blur"",""7"",""61454""
""blur"",""7"",""89382""
""blur"",""21"",""189870""
""blur"",""23"",""315118""
""blur"",""40"",""370370""
""blur"",""56"",""475301""
","""event"",""trial"",""time""
""focus"",""7"",""65937""
""focus"",""7"",""93426""
""focus"",""21"",""190577""
""focus"",""23"",""315567""
""focus"",""40"",""371864""
""focus"",""57"",""484358""
","""event"",""trial"",""time""
""fullscreenenter"",""1"",""1024""
","""event"",""trial"",""time""
""fullscreenexit"",""1"",""1776""
","","","-1","","","18","13747","6003","&#9761;","elianto","#3366ff99","-1","-1","1","+10","[]","0","0","2","","","","","","","",""
"pit-trial","59","494176","0.0-2.0-11.3-3.3","battery-v0.2","","""event"",""trial"",""time""
""fullscreenenter"",""1"",""1024""
""fullscreenexit"",""1"",""1776""
""blur"",""7"",""61454""
""focus"",""7"",""65937""
""blur"",""7"",""89382""
""focus"",""7"",""93426""
""blur"",""21"",""189870""
""focus"",""21"",""190577""
""blur"",""23"",""315118""
""focus"",""23"",""315567""
""blur"",""40"",""370370""
""focus"",""40"",""371864""
""blur"",""56"",""475301""
""focus"",""57"",""484358""
""blur"",""60"",""494232""
","""event"",""trial"",""time""
""blur"",""7"",""61454""
""blur"",""7"",""89382""
""blur"",""21"",""189870""
""blur"",""23"",""315118""
""blur"",""40"",""370370""
""blur"",""56"",""475301""
""blur"",""60"",""494232""
","""event"",""trial"",""time""
""focus"",""7"",""65937""
""focus"",""7"",""93426""
""focus"",""21"",""190577""
""focus"",""23"",""315567""
""focus"",""40"",""371864""
""focus"",""57"",""484358""
","""event"",""trial"",""time""
""fullscreenenter"",""1"",""1024""
","""event"",""trial"",""time""
""fullscreenexit"",""1"",""1776""
","","","-1","","","18","13747","6003","&#9761;","elianto","#3366ff99","-1","-1","1","0","[]","0","0","2","","","","","","","",""
"pit-trial","60","500460","0.0-2.0-11.3-4.3","battery-v0.2","","""event"",""trial"",""time""
""fullscreenenter"",""1"",""1024""
""fullscreenexit"",""1"",""1776""
""blur"",""7"",""61454""
""focus"",""7"",""65937""
""blur"",""7"",""89382""
""focus"",""7"",""93426""
""blur"",""21"",""189870""
""focus"",""21"",""190577""
""blur"",""23"",""315118""
""focus"",""23"",""315567""
""blur"",""40"",""370370""
""focus"",""40"",""371864""
""blur"",""56"",""475301""
""focus"",""57"",""484358""
""blur"",""60"",""494232""
","""event"",""trial"",""time""
""blur"",""7"",""61454""
""blur"",""7"",""89382""
""blur"",""21"",""189870""
""blur"",""23"",""315118""
""blur"",""40"",""370370""
""blur"",""56"",""475301""
""blur"",""60"",""494232""
","""event"",""trial"",""time""
""focus"",""7"",""65937""
""focus"",""7"",""93426""
""focus"",""21"",""190577""
""focus"",""23"",""315567""
""focus"",""40"",""371864""
""focus"",""57"",""484358""
","""event"",""trial"",""time""
""fullscreenenter"",""1"",""1024""
","""event"",""trial"",""time""
""fullscreenexit"",""1"",""1776""
","","","-1","","","18","13747","6003","&#9761;","elianto","#3366ff99","-1","-1","1","+10","[]","0","0","2","","","","","","","",""
"call-function","61","500461","0.0-2.0-12.0","battery-v0.2","","""event"",""trial"",""time""
""fullscreenenter"",""1"",""1024""
""fullscreenexit"",""1"",""1776""
""blur"",""7"",""61454""
""focus"",""7"",""65937""
""blur"",""7"",""89382""
""focus"",""7"",""93426""
""blur"",""21"",""189870""
""focus"",""21"",""190577""
""blur"",""23"",""315118""
""focus"",""23"",""315567""
""blur"",""40"",""370370""
""focus"",""40"",""371864""
""blur"",""56"",""475301""
""focus"",""57"",""484358""
""blur"",""60"",""494232""
""focus"",""62"",""505390""
","""event"",""trial"",""time""
""blur"",""7"",""61454""
""blur"",""7"",""89382""
""blur"",""21"",""189870""
""blur"",""23"",""315118""
""blur"",""40"",""370370""
""blur"",""56"",""475301""
""blur"",""60"",""494232""
","""event"",""trial"",""time""
""focus"",""7"",""65937""
""focus"",""7"",""93426""
""focus"",""21"",""190577""
""focus"",""23"",""315567""
""focus"",""40"",""371864""
""focus"",""57"",""484358""
""focus"",""62"",""505390""
","""event"",""trial"",""time""
""fullscreenenter"",""1"",""1024""
","""event"",""trial"",""time""
""fullscreenexit"",""1"",""1776""
","","","","","","","","","","","","","","","","","","","","","","","","","","",""
"pit-instructions","62","533333","0.0-2.0-13.0","battery-v0.2","","""event"",""trial"",""time""
""fullscreenenter"",""1"",""1024""
""fullscreenexit"",""1"",""1776""
""blur"",""7"",""61454""
""focus"",""7"",""65937""
""blur"",""7"",""89382""
""focus"",""7"",""93426""
""blur"",""21"",""189870""
""focus"",""21"",""190577""
""blur"",""23"",""315118""
""focus"",""23"",""315567""
""blur"",""40"",""370370""
""focus"",""40"",""371864""
""blur"",""56"",""475301""
""focus"",""57"",""484358""
""blur"",""60"",""494232""
""focus"",""62"",""505390""
","""event"",""trial"",""time""
""blur"",""7"",""61454""
""blur"",""7"",""89382""
""blur"",""21"",""189870""
""blur"",""23"",""315118""
""blur"",""40"",""370370""
""blur"",""56"",""475301""
""blur"",""60"",""494232""
","""event"",""trial"",""time""
""focus"",""7"",""65937""
""focus"",""7"",""93426""
""focus"",""21"",""190577""
""focus"",""23"",""315567""
""focus"",""40"",""371864""
""focus"",""57"",""484358""
""focus"",""62"",""505390""
","""event"",""trial"",""time""
""fullscreenenter"",""1"",""1024""
","""event"",""trial"",""time""
""fullscreenexit"",""1"",""1776""
","","[{""page_index"":0,""viewing_time"":6394.799999999814},{""page_index"":1,""viewing_time"":6771.4000000003725},{""page_index"":2,""viewing_time"":4188.4000000003725},{""page_index"":3,""viewing_time"":10831.699999999255},{""page_index"":4,""viewing_time"":4684.4000000003725}]","32871.10000000056","","","","","","","","","","","","","","","","","","","","","","","",""
"pit-trial","63","538208","0.0-2.0-14.0-0.0","battery-v0.2","","""event"",""trial"",""time""
""fullscreenenter"",""1"",""1024""
""fullscreenexit"",""1"",""1776""
""blur"",""7"",""61454""
""focus"",""7"",""65937""
""blur"",""7"",""89382""
""focus"",""7"",""93426""
""blur"",""21"",""189870""
""focus"",""21"",""190577""
""blur"",""23"",""315118""
""focus"",""23"",""315567""
""blur"",""40"",""370370""
""focus"",""40"",""371864""
""blur"",""56"",""475301""
""focus"",""57"",""484358""
""blur"",""60"",""494232""
""focus"",""62"",""505390""
","""event"",""trial"",""time""
""blur"",""7"",""61454""
""blur"",""7"",""89382""
""blur"",""21"",""189870""
""blur"",""23"",""315118""
""blur"",""40"",""370370""
""blur"",""56"",""475301""
""blur"",""60"",""494232""
","""event"",""trial"",""time""
""focus"",""7"",""65937""
""focus"",""7"",""93426""
""focus"",""21"",""190577""
""focus"",""23"",""315567""
""focus"",""40"",""371864""
""focus"",""57"",""484358""
""focus"",""62"",""505390""
","""event"",""trial"",""time""
""fullscreenenter"",""1"",""1024""
","""event"",""trial"",""time""
""fullscreenexit"",""1"",""1776""
","","","-1","","","18","13747","6003","&#9826;","elianto","#f73b6a7A","-1","-1","1","0","[]","0","0","3","","","","","","","",""
"pit-trial","64","543062","0.0-2.0-14.0-1.0","battery-v0.2","","""event"",""trial"",""time""
""fullscreenenter"",""1"",""1024""
""fullscreenexit"",""1"",""1776""
""blur"",""7"",""61454""
""focus"",""7"",""65937""
""blur"",""7"",""89382""
""focus"",""7"",""93426""
""blur"",""21"",""189870""
""focus"",""21"",""190577""
""blur"",""23"",""315118""
""focus"",""23"",""315567""
""blur"",""40"",""370370""
""focus"",""40"",""371864""
""blur"",""56"",""475301""
""focus"",""57"",""484358""
""blur"",""60"",""494232""
""focus"",""62"",""505390""
","""event"",""trial"",""time""
""blur"",""7"",""61454""
""blur"",""7"",""89382""
""blur"",""21"",""189870""
""blur"",""23"",""315118""
""blur"",""40"",""370370""
""blur"",""56"",""475301""
""blur"",""60"",""494232""
","""event"",""trial"",""time""
""focus"",""7"",""65937""
""focus"",""7"",""93426""
""focus"",""21"",""190577""
""focus"",""23"",""315567""
""focus"",""40"",""371864""
""focus"",""57"",""484358""
""focus"",""62"",""505390""
","""event"",""trial"",""time""
""fullscreenenter"",""1"",""1024""
","""event"",""trial"",""time""
""fullscreenexit"",""1"",""1776""
","","","-1","","","18","13747","6003","&#9826;","elianto","#f73b6a7A","-1","-1","1","0","[]","0","0","3","","","","","","","",""
"pit-trial","65","547929","0.0-2.0-14.0-2.0","battery-v0.2","","""event"",""trial"",""time""
""fullscreenenter"",""1"",""1024""
""fullscreenexit"",""1"",""1776""
""blur"",""7"",""61454""
""focus"",""7"",""65937""
""blur"",""7"",""89382""
""focus"",""7"",""93426""
""blur"",""21"",""189870""
""focus"",""21"",""190577""
""blur"",""23"",""315118""
""focus"",""23"",""315567""
""blur"",""40"",""370370""
""focus"",""40"",""371864""
""blur"",""56"",""475301""
""focus"",""57"",""484358""
""blur"",""60"",""494232""
""focus"",""62"",""505390""
","""event"",""trial"",""time""
""blur"",""7"",""61454""
""blur"",""7"",""89382""
""blur"",""21"",""189870""
""blur"",""23"",""315118""
""blur"",""40"",""370370""
""blur"",""56"",""475301""
""blur"",""60"",""494232""
","""event"",""trial"",""time""
""focus"",""7"",""65937""
""focus"",""7"",""93426""
""focus"",""21"",""190577""
""focus"",""23"",""315567""
""focus"",""40"",""371864""
""focus"",""57"",""484358""
""focus"",""62"",""505390""
","""event"",""trial"",""time""
""fullscreenenter"",""1"",""1024""
","""event"",""trial"",""time""
""fullscreenexit"",""1"",""1776""
","","","-1","","","18","13747","6003","&#9826;","elianto","#f73b6a7A","-1","-1","1","0","[]","0","0","3","","","","","","","",""
"pit-trial","66","552793","0.0-2.0-14.0-3.0","battery-v0.2","","""event"",""trial"",""time""
""fullscreenenter"",""1"",""1024""
""fullscreenexit"",""1"",""1776""
""blur"",""7"",""61454""
""focus"",""7"",""65937""
""blur"",""7"",""89382""
""focus"",""7"",""93426""
""blur"",""21"",""189870""
""focus"",""21"",""190577""
""blur"",""23"",""315118""
""focus"",""23"",""315567""
""blur"",""40"",""370370""
""focus"",""40"",""371864""
""blur"",""56"",""475301""
""focus"",""57"",""484358""
""blur"",""60"",""494232""
""focus"",""62"",""505390""
","""event"",""trial"",""time""
""blur"",""7"",""61454""
""blur"",""7"",""89382""
""blur"",""21"",""189870""
""blur"",""23"",""315118""
""blur"",""40"",""370370""
""blur"",""56"",""475301""
""blur"",""60"",""494232""
","""event"",""trial"",""time""
""focus"",""7"",""65937""
""focus"",""7"",""93426""
""focus"",""21"",""190577""
""focus"",""23"",""315567""
""focus"",""40"",""371864""
""focus"",""57"",""484358""
""focus"",""62"",""505390""
","""event"",""trial"",""time""
""fullscreenenter"",""1"",""1024""
","""event"",""trial"",""time""
""fullscreenexit"",""1"",""1776""
","","","-1","","","18","13747","6003","&#9826;","elianto","#f73b6a7A","-1","-1","1","-10","[]","0","0","3","","","","","","","",""
"pit-trial","67","557658","0.0-2.0-14.0-4.0","battery-v0.2","","""event"",""trial"",""time""
""fullscreenenter"",""1"",""1024""
""fullscreenexit"",""1"",""1776""
""blur"",""7"",""61454""
""focus"",""7"",""65937""
""blur"",""7"",""89382""
""focus"",""7"",""93426""
""blur"",""21"",""189870""
""focus"",""21"",""190577""
""blur"",""23"",""315118""
""focus"",""23"",""315567""
""blur"",""40"",""370370""
""focus"",""40"",""371864""
""blur"",""56"",""475301""
""focus"",""57"",""484358""
""blur"",""60"",""494232""
""focus"",""62"",""505390""
","""event"",""trial"",""time""
""blur"",""7"",""61454""
""blur"",""7"",""89382""
""blur"",""21"",""189870""
""blur"",""23"",""315118""
""blur"",""40"",""370370""
""blur"",""56"",""475301""
""blur"",""60"",""494232""
","""event"",""trial"",""time""
""focus"",""7"",""65937""
""focus"",""7"",""93426""
""focus"",""21"",""190577""
""focus"",""23"",""315567""
""focus"",""40"",""371864""
""focus"",""57"",""484358""
""focus"",""62"",""505390""
","""event"",""trial"",""time""
""fullscreenenter"",""1"",""1024""
","""event"",""trial"",""time""
""fullscreenexit"",""1"",""1776""
","","","-1","","","18","13747","6003","&#9826;","elianto","#f73b6a7A","-1","-1","1","0","[]","0","0","3","","","","","","","",""
"pit-trial","68","562524","0.0-2.0-14.1-0.1","battery-v0.2","","""event"",""trial"",""time""
""fullscreenenter"",""1"",""1024""
""fullscreenexit"",""1"",""1776""
""blur"",""7"",""61454""
""focus"",""7"",""65937""
""blur"",""7"",""89382""
""focus"",""7"",""93426""
""blur"",""21"",""189870""
""focus"",""21"",""190577""
""blur"",""23"",""315118""
""focus"",""23"",""315567""
""blur"",""40"",""370370""
""focus"",""40"",""371864""
""blur"",""56"",""475301""
""focus"",""57"",""484358""
""blur"",""60"",""494232""
""focus"",""62"",""505390""
""blur"",""69"",""565115""
","""event"",""trial"",""time""
""blur"",""7"",""61454""
""blur"",""7"",""89382""
""blur"",""21"",""189870""
""blur"",""23"",""315118""
""blur"",""40"",""370370""
""blur"",""56"",""475301""
""blur"",""60"",""494232""
""blur"",""69"",""565115""
","""event"",""trial"",""time""
""focus"",""7"",""65937""
""focus"",""7"",""93426""
""focus"",""21"",""190577""
""focus"",""23"",""315567""
""focus"",""40"",""371864""
""focus"",""57"",""484358""
""focus"",""62"",""505390""
","""event"",""trial"",""time""
""fullscreenenter"",""1"",""1024""
","""event"",""trial"",""time""
""fullscreenexit"",""1"",""1776""
","","","-1","","","18","13747","6003","&#9826;","elianto","#f73b6a7A","-1","-1","1","0","[]","0","0","3","","","","","","","",""
"pit-trial","69","568461","0.0-2.0-14.1-1.1","battery-v0.2","","""event"",""trial"",""time""
""fullscreenenter"",""1"",""1024""
""fullscreenexit"",""1"",""1776""
""blur"",""7"",""61454""
""focus"",""7"",""65937""
""blur"",""7"",""89382""
""focus"",""7"",""93426""
""blur"",""21"",""189870""
""focus"",""21"",""190577""
""blur"",""23"",""315118""
""focus"",""23"",""315567""
""blur"",""40"",""370370""
""focus"",""40"",""371864""
""blur"",""56"",""475301""
""focus"",""57"",""484358""
""blur"",""60"",""494232""
""focus"",""62"",""505390""
""blur"",""69"",""565115""
""focus"",""70"",""570114""
""blur"",""70"",""572000""
","""event"",""trial"",""time""
""blur"",""7"",""61454""
""blur"",""7"",""89382""
""blur"",""21"",""189870""
""blur"",""23"",""315118""
""blur"",""40"",""370370""
""blur"",""56"",""475301""
""blur"",""60"",""494232""
""blur"",""69"",""565115""
""blur"",""70"",""572000""
","""event"",""trial"",""time""
""focus"",""7"",""65937""
""focus"",""7"",""93426""
""focus"",""21"",""190577""
""focus"",""23"",""315567""
""focus"",""40"",""371864""
""focus"",""57"",""484358""
""focus"",""62"",""505390""
""focus"",""70"",""570114""
","""event"",""trial"",""time""
""fullscreenenter"",""1"",""1024""
","""event"",""trial"",""time""
""fullscreenexit"",""1"",""1776""
","","","-1","","","18","13747","6003","&#9826;","elianto","#f73b6a7A","-1","-1","1","0","[]","0","0","3","","","","","","","",""
"pit-trial","70","573461","0.0-2.0-14.1-2.1","battery-v0.2","","""event"",""trial"",""time""
""fullscreenenter"",""1"",""1024""
""fullscreenexit"",""1"",""1776""
""blur"",""7"",""61454""
""focus"",""7"",""65937""
""blur"",""7"",""89382""
""focus"",""7"",""93426""
""blur"",""21"",""189870""
""focus"",""21"",""190577""
""blur"",""23"",""315118""
""focus"",""23"",""315567""
""blur"",""40"",""370370""
""focus"",""40"",""371864""
""blur"",""56"",""475301""
""focus"",""57"",""484358""
""blur"",""60"",""494232""
""focus"",""62"",""505390""
""blur"",""69"",""565115""
""focus"",""70"",""570114""
""blur"",""70"",""572000""
""focus"",""71"",""577439""
","""event"",""trial"",""time""
""blur"",""7"",""61454""
""blur"",""7"",""89382""
""blur"",""21"",""189870""
""blur"",""23"",""315118""
""blur"",""40"",""370370""
""blur"",""56"",""475301""
""blur"",""60"",""494232""
""blur"",""69"",""565115""
""blur"",""70"",""572000""
","""event"",""trial"",""time""
""focus"",""7"",""65937""
""focus"",""7"",""93426""
""focus"",""21"",""190577""
""focus"",""23"",""315567""
""focus"",""40"",""371864""
""focus"",""57"",""484358""
""focus"",""62"",""505390""
""focus"",""70"",""570114""
""focus"",""71"",""577439""
","""event"",""trial"",""time""
""fullscreenenter"",""1"",""1024""
","""event"",""trial"",""time""
""fullscreenexit"",""1"",""1776""
","","","-1","","","18","13747","6003","&#9826;","elianto","#f73b6a7A","-1","-1","1","0","[]","0","0","3","","","","","","","",""
"pit-trial","71","578460","0.0-2.0-14.1-3.1","battery-v0.2","","""event"",""trial"",""time""
""fullscreenenter"",""1"",""1024""
""fullscreenexit"",""1"",""1776""
""blur"",""7"",""61454""
""focus"",""7"",""65937""
""blur"",""7"",""89382""
""focus"",""7"",""93426""
""blur"",""21"",""189870""
""focus"",""21"",""190577""
""blur"",""23"",""315118""
""focus"",""23"",""315567""
""blur"",""40"",""370370""
""focus"",""40"",""371864""
""blur"",""56"",""475301""
""focus"",""57"",""484358""
""blur"",""60"",""494232""
""focus"",""62"",""505390""
""blur"",""69"",""565115""
""focus"",""70"",""570114""
""blur"",""70"",""572000""
""focus"",""71"",""577439""
","""event"",""trial"",""time""
""blur"",""7"",""61454""
""blur"",""7"",""89382""
""blur"",""21"",""189870""
""blur"",""23"",""315118""
""blur"",""40"",""370370""
""blur"",""56"",""475301""
""blur"",""60"",""494232""
""blur"",""69"",""565115""
""blur"",""70"",""572000""
","""event"",""trial"",""time""
""focus"",""7"",""65937""
""focus"",""7"",""93426""
""focus"",""21"",""190577""
""focus"",""23"",""315567""
""focus"",""40"",""371864""
""focus"",""57"",""484358""
""focus"",""62"",""505390""
""focus"",""70"",""570114""
""focus"",""71"",""577439""
","""event"",""trial"",""time""
""fullscreenenter"",""1"",""1024""
","""event"",""trial"",""time""
""fullscreenexit"",""1"",""1776""
","","","-1","","","18","13747","6003","&#9826;","elianto","#f73b6a7A","-1","-1","1","-10","[]","0","0","3","","","","","","","",""
"pit-trial","72","583315","0.0-2.0-14.1-4.1","battery-v0.2","","""event"",""trial"",""time""
""fullscreenenter"",""1"",""1024""
""fullscreenexit"",""1"",""1776""
""blur"",""7"",""61454""
""focus"",""7"",""65937""
""blur"",""7"",""89382""
""focus"",""7"",""93426""
""blur"",""21"",""189870""
""focus"",""21"",""190577""
""blur"",""23"",""315118""
""focus"",""23"",""315567""
""blur"",""40"",""370370""
""focus"",""40"",""371864""
""blur"",""56"",""475301""
""focus"",""57"",""484358""
""blur"",""60"",""494232""
""focus"",""62"",""505390""
""blur"",""69"",""565115""
""focus"",""70"",""570114""
""blur"",""70"",""572000""
""focus"",""71"",""577439""
","""event"",""trial"",""time""
""blur"",""7"",""61454""
""blur"",""7"",""89382""
""blur"",""21"",""189870""
""blur"",""23"",""315118""
""blur"",""40"",""370370""
""blur"",""56"",""475301""
""blur"",""60"",""494232""
""blur"",""69"",""565115""
""blur"",""70"",""572000""
","""event"",""trial"",""time""
""focus"",""7"",""65937""
""focus"",""7"",""93426""
""focus"",""21"",""190577""
""focus"",""23"",""315567""
""focus"",""40"",""371864""
""focus"",""57"",""484358""
""focus"",""62"",""505390""
""focus"",""70"",""570114""
""focus"",""71"",""577439""
","""event"",""trial"",""time""
""fullscreenenter"",""1"",""1024""
","""event"",""trial"",""time""
""fullscreenexit"",""1"",""1776""
","","","-1","","","18","13747","6003","&#9826;","elianto","#f73b6a7A","-1","-1","1","0","[]","0","0","3","","","","","","","",""
"pit-trial","73","588172","0.0-2.0-14.2-0.2","battery-v0.2","","""event"",""trial"",""time""
""fullscreenenter"",""1"",""1024""
""fullscreenexit"",""1"",""1776""
""blur"",""7"",""61454""
""focus"",""7"",""65937""
""blur"",""7"",""89382""
""focus"",""7"",""93426""
""blur"",""21"",""189870""
""focus"",""21"",""190577""
""blur"",""23"",""315118""
""focus"",""23"",""315567""
""blur"",""40"",""370370""
""focus"",""40"",""371864""
""blur"",""56"",""475301""
""focus"",""57"",""484358""
""blur"",""60"",""494232""
""focus"",""62"",""505390""
""blur"",""69"",""565115""
""focus"",""70"",""570114""
""blur"",""70"",""572000""
""focus"",""71"",""577439""
","""event"",""trial"",""time""
""blur"",""7"",""61454""
""blur"",""7"",""89382""
""blur"",""21"",""189870""
""blur"",""23"",""315118""
""blur"",""40"",""370370""
""blur"",""56"",""475301""
""blur"",""60"",""494232""
""blur"",""69"",""565115""
""blur"",""70"",""572000""
","""event"",""trial"",""time""
""focus"",""7"",""65937""
""focus"",""7"",""93426""
""focus"",""21"",""190577""
""focus"",""23"",""315567""
""focus"",""40"",""371864""
""focus"",""57"",""484358""
""focus"",""62"",""505390""
""focus"",""70"",""570114""
""focus"",""71"",""577439""
","""event"",""trial"",""time""
""fullscreenenter"",""1"",""1024""
","""event"",""trial"",""time""
""fullscreenexit"",""1"",""1776""
","","","-1","","","18","13747","6003","&#9826;","elianto","#f73b6a7A","-1","-1","1","0","[]","0","0","3","","","","","","","",""
"pit-trial","74","593025","0.0-2.0-14.2-1.2","battery-v0.2","","""event"",""trial"",""time""
""fullscreenenter"",""1"",""1024""
""fullscreenexit"",""1"",""1776""
""blur"",""7"",""61454""
""focus"",""7"",""65937""
""blur"",""7"",""89382""
""focus"",""7"",""93426""
""blur"",""21"",""189870""
""focus"",""21"",""190577""
""blur"",""23"",""315118""
""focus"",""23"",""315567""
""blur"",""40"",""370370""
""focus"",""40"",""371864""
""blur"",""56"",""475301""
""focus"",""57"",""484358""
""blur"",""60"",""494232""
""focus"",""62"",""505390""
""blur"",""69"",""565115""
""focus"",""70"",""570114""
""blur"",""70"",""572000""
""focus"",""71"",""577439""
","""event"",""trial"",""time""
""blur"",""7"",""61454""
""blur"",""7"",""89382""
""blur"",""21"",""189870""
""blur"",""23"",""315118""
""blur"",""40"",""370370""
""blur"",""56"",""475301""
""blur"",""60"",""494232""
""blur"",""69"",""565115""
""blur"",""70"",""572000""
","""event"",""trial"",""time""
""focus"",""7"",""65937""
""focus"",""7"",""93426""
""focus"",""21"",""190577""
""focus"",""23"",""315567""
""focus"",""40"",""371864""
""focus"",""57"",""484358""
""focus"",""62"",""505390""
""focus"",""70"",""570114""
""focus"",""71"",""577439""
","""event"",""trial"",""time""
""fullscreenenter"",""1"",""1024""
","""event"",""trial"",""time""
""fullscreenexit"",""1"",""1776""
","","","-1","","","18","13747","6003","&#9826;","elianto","#f73b6a7A","-1","-1","1","0","[]","0","0","3","","","","","","","",""
"pit-trial","75","597880","0.0-2.0-14.2-2.2","battery-v0.2","","""event"",""trial"",""time""
""fullscreenenter"",""1"",""1024""
""fullscreenexit"",""1"",""1776""
""blur"",""7"",""61454""
""focus"",""7"",""65937""
""blur"",""7"",""89382""
""focus"",""7"",""93426""
""blur"",""21"",""189870""
""focus"",""21"",""190577""
""blur"",""23"",""315118""
""focus"",""23"",""315567""
""blur"",""40"",""370370""
""focus"",""40"",""371864""
""blur"",""56"",""475301""
""focus"",""57"",""484358""
""blur"",""60"",""494232""
""focus"",""62"",""505390""
""blur"",""69"",""565115""
""focus"",""70"",""570114""
""blur"",""70"",""572000""
""focus"",""71"",""577439""
","""event"",""trial"",""time""
""blur"",""7"",""61454""
""blur"",""7"",""89382""
""blur"",""21"",""189870""
""blur"",""23"",""315118""
""blur"",""40"",""370370""
""blur"",""56"",""475301""
""blur"",""60"",""494232""
""blur"",""69"",""565115""
""blur"",""70"",""572000""
","""event"",""trial"",""time""
""focus"",""7"",""65937""
""focus"",""7"",""93426""
""focus"",""21"",""190577""
""focus"",""23"",""315567""
""focus"",""40"",""371864""
""focus"",""57"",""484358""
""focus"",""62"",""505390""
""focus"",""70"",""570114""
""focus"",""71"",""577439""
","""event"",""trial"",""time""
""fullscreenenter"",""1"",""1024""
","""event"",""trial"",""time""
""fullscreenexit"",""1"",""1776""
","","","-1","","","18","13747","6003","&#9826;","elianto","#f73b6a7A","-1","-1","1","0","[]","0","0","3","","","","","","","",""
"pit-trial","76","602735","0.0-2.0-14.2-3.2","battery-v0.2","","""event"",""trial"",""time""
""fullscreenenter"",""1"",""1024""
""fullscreenexit"",""1"",""1776""
""blur"",""7"",""61454""
""focus"",""7"",""65937""
""blur"",""7"",""89382""
""focus"",""7"",""93426""
""blur"",""21"",""189870""
""focus"",""21"",""190577""
""blur"",""23"",""315118""
""focus"",""23"",""315567""
""blur"",""40"",""370370""
""focus"",""40"",""371864""
""blur"",""56"",""475301""
""focus"",""57"",""484358""
""blur"",""60"",""494232""
""focus"",""62"",""505390""
""blur"",""69"",""565115""
""focus"",""70"",""570114""
""blur"",""70"",""572000""
""focus"",""71"",""577439""
","""event"",""trial"",""time""
""blur"",""7"",""61454""
""blur"",""7"",""89382""
""blur"",""21"",""189870""
""blur"",""23"",""315118""
""blur"",""40"",""370370""
""blur"",""56"",""475301""
""blur"",""60"",""494232""
""blur"",""69"",""565115""
""blur"",""70"",""572000""
","""event"",""trial"",""time""
""focus"",""7"",""65937""
""focus"",""7"",""93426""
""focus"",""21"",""190577""
""focus"",""23"",""315567""
""focus"",""40"",""371864""
""focus"",""57"",""484358""
""focus"",""62"",""505390""
""focus"",""70"",""570114""
""focus"",""71"",""577439""
","""event"",""trial"",""time""
""fullscreenenter"",""1"",""1024""
","""event"",""trial"",""time""
""fullscreenexit"",""1"",""1776""
","","","-1","","","18","13747","6003","&#9826;","elianto","#f73b6a7A","-1","-1","1","-10","[]","0","0","3","","","","","","","",""
"pit-trial","77","607592","0.0-2.0-14.2-4.2","battery-v0.2","","""event"",""trial"",""time""
""fullscreenenter"",""1"",""1024""
""fullscreenexit"",""1"",""1776""
""blur"",""7"",""61454""
""focus"",""7"",""65937""
""blur"",""7"",""89382""
""focus"",""7"",""93426""
""blur"",""21"",""189870""
""focus"",""21"",""190577""
""blur"",""23"",""315118""
""focus"",""23"",""315567""
""blur"",""40"",""370370""
""focus"",""40"",""371864""
""blur"",""56"",""475301""
""focus"",""57"",""484358""
""blur"",""60"",""494232""
""focus"",""62"",""505390""
""blur"",""69"",""565115""
""focus"",""70"",""570114""
""blur"",""70"",""572000""
""focus"",""71"",""577439""
","""event"",""trial"",""time""
""blur"",""7"",""61454""
""blur"",""7"",""89382""
""blur"",""21"",""189870""
""blur"",""23"",""315118""
""blur"",""40"",""370370""
""blur"",""56"",""475301""
""blur"",""60"",""494232""
""blur"",""69"",""565115""
""blur"",""70"",""572000""
","""event"",""trial"",""time""
""focus"",""7"",""65937""
""focus"",""7"",""93426""
""focus"",""21"",""190577""
""focus"",""23"",""315567""
""focus"",""40"",""371864""
""focus"",""57"",""484358""
""focus"",""62"",""505390""
""focus"",""70"",""570114""
""focus"",""71"",""577439""
","""event"",""trial"",""time""
""fullscreenenter"",""1"",""1024""
","""event"",""trial"",""time""
""fullscreenexit"",""1"",""1776""
","","","-1","","","18","13747","6003","&#9826;","elianto","#f73b6a7A","-1","-1","1","0","[]","0","0","3","","","","","","","",""
"pit-trial","78","612447","0.0-2.0-14.3-0.3","battery-v0.2","","""event"",""trial"",""time""
""fullscreenenter"",""1"",""1024""
""fullscreenexit"",""1"",""1776""
""blur"",""7"",""61454""
""focus"",""7"",""65937""
""blur"",""7"",""89382""
""focus"",""7"",""93426""
""blur"",""21"",""189870""
""focus"",""21"",""190577""
""blur"",""23"",""315118""
""focus"",""23"",""315567""
""blur"",""40"",""370370""
""focus"",""40"",""371864""
""blur"",""56"",""475301""
""focus"",""57"",""484358""
""blur"",""60"",""494232""
""focus"",""62"",""505390""
""blur"",""69"",""565115""
""focus"",""70"",""570114""
""blur"",""70"",""572000""
""focus"",""71"",""577439""
","""event"",""trial"",""time""
""blur"",""7"",""61454""
""blur"",""7"",""89382""
""blur"",""21"",""189870""
""blur"",""23"",""315118""
""blur"",""40"",""370370""
""blur"",""56"",""475301""
""blur"",""60"",""494232""
""blur"",""69"",""565115""
""blur"",""70"",""572000""
","""event"",""trial"",""time""
""focus"",""7"",""65937""
""focus"",""7"",""93426""
""focus"",""21"",""190577""
""focus"",""23"",""315567""
""focus"",""40"",""371864""
""focus"",""57"",""484358""
""focus"",""62"",""505390""
""focus"",""70"",""570114""
""focus"",""71"",""577439""
","""event"",""trial"",""time""
""fullscreenenter"",""1"",""1024""
","""event"",""trial"",""time""
""fullscreenexit"",""1"",""1776""
","","","-1","","","18","13747","6003","&#9826;","elianto","#f73b6a7A","-1","-1","1","0","[]","0","0","3","","","","","","","",""
"pit-trial","79","617300","0.0-2.0-14.3-1.3","battery-v0.2","","""event"",""trial"",""time""
""fullscreenenter"",""1"",""1024""
""fullscreenexit"",""1"",""1776""
""blur"",""7"",""61454""
""focus"",""7"",""65937""
""blur"",""7"",""89382""
""focus"",""7"",""93426""
""blur"",""21"",""189870""
""focus"",""21"",""190577""
""blur"",""23"",""315118""
""focus"",""23"",""315567""
""blur"",""40"",""370370""
""focus"",""40"",""371864""
""blur"",""56"",""475301""
""focus"",""57"",""484358""
""blur"",""60"",""494232""
""focus"",""62"",""505390""
""blur"",""69"",""565115""
""focus"",""70"",""570114""
""blur"",""70"",""572000""
""focus"",""71"",""577439""
","""event"",""trial"",""time""
""blur"",""7"",""61454""
""blur"",""7"",""89382""
""blur"",""21"",""189870""
""blur"",""23"",""315118""
""blur"",""40"",""370370""
""blur"",""56"",""475301""
""blur"",""60"",""494232""
""blur"",""69"",""565115""
""blur"",""70"",""572000""
","""event"",""trial"",""time""
""focus"",""7"",""65937""
""focus"",""7"",""93426""
""focus"",""21"",""190577""
""focus"",""23"",""315567""
""focus"",""40"",""371864""
""focus"",""57"",""484358""
""focus"",""62"",""505390""
""focus"",""70"",""570114""
""focus"",""71"",""577439""
","""event"",""trial"",""time""
""fullscreenenter"",""1"",""1024""
","""event"",""trial"",""time""
""fullscreenexit"",""1"",""1776""
","","","-1","","","18","13747","6003","&#9826;","elianto","#f73b6a7A","-1","-1","1","0","[]","0","0","3","","","","","","","",""
"pit-trial","80","622155","0.0-2.0-14.3-2.3","battery-v0.2","","""event"",""trial"",""time""
""fullscreenenter"",""1"",""1024""
""fullscreenexit"",""1"",""1776""
""blur"",""7"",""61454""
""focus"",""7"",""65937""
""blur"",""7"",""89382""
""focus"",""7"",""93426""
""blur"",""21"",""189870""
""focus"",""21"",""190577""
""blur"",""23"",""315118""
""focus"",""23"",""315567""
""blur"",""40"",""370370""
""focus"",""40"",""371864""
""blur"",""56"",""475301""
""focus"",""57"",""484358""
""blur"",""60"",""494232""
""focus"",""62"",""505390""
""blur"",""69"",""565115""
""focus"",""70"",""570114""
""blur"",""70"",""572000""
""focus"",""71"",""577439""
","""event"",""trial"",""time""
""blur"",""7"",""61454""
""blur"",""7"",""89382""
""blur"",""21"",""189870""
""blur"",""23"",""315118""
""blur"",""40"",""370370""
""blur"",""56"",""475301""
""blur"",""60"",""494232""
""blur"",""69"",""565115""
""blur"",""70"",""572000""
","""event"",""trial"",""time""
""focus"",""7"",""65937""
""focus"",""7"",""93426""
""focus"",""21"",""190577""
""focus"",""23"",""315567""
""focus"",""40"",""371864""
""focus"",""57"",""484358""
""focus"",""62"",""505390""
""focus"",""70"",""570114""
""focus"",""71"",""577439""
","""event"",""trial"",""time""
""fullscreenenter"",""1"",""1024""
","""event"",""trial"",""time""
""fullscreenexit"",""1"",""1776""
","","","-1","","","18","13747","6003","&#9826;","elianto","#f73b6a7A","-1","-1","1","0","[]","0","0","3","","","","","","","",""
"pit-trial","81","627010","0.0-2.0-14.3-3.3","battery-v0.2","","""event"",""trial"",""time""
""fullscreenenter"",""1"",""1024""
""fullscreenexit"",""1"",""1776""
""blur"",""7"",""61454""
""focus"",""7"",""65937""
""blur"",""7"",""89382""
""focus"",""7"",""93426""
""blur"",""21"",""189870""
""focus"",""21"",""190577""
""blur"",""23"",""315118""
""focus"",""23"",""315567""
""blur"",""40"",""370370""
""focus"",""40"",""371864""
""blur"",""56"",""475301""
""focus"",""57"",""484358""
""blur"",""60"",""494232""
""focus"",""62"",""505390""
""blur"",""69"",""565115""
""focus"",""70"",""570114""
""blur"",""70"",""572000""
""focus"",""71"",""577439""
","""event"",""trial"",""time""
""blur"",""7"",""61454""
""blur"",""7"",""89382""
""blur"",""21"",""189870""
""blur"",""23"",""315118""
""blur"",""40"",""370370""
""blur"",""56"",""475301""
""blur"",""60"",""494232""
""blur"",""69"",""565115""
""blur"",""70"",""572000""
","""event"",""trial"",""time""
""focus"",""7"",""65937""
""focus"",""7"",""93426""
""focus"",""21"",""190577""
""focus"",""23"",""315567""
""focus"",""40"",""371864""
""focus"",""57"",""484358""
""focus"",""62"",""505390""
""focus"",""70"",""570114""
""focus"",""71"",""577439""
","""event"",""trial"",""time""
""fullscreenenter"",""1"",""1024""
","""event"",""trial"",""time""
""fullscreenexit"",""1"",""1776""
","","","-1","","","18","13747","6003","&#9826;","elianto","#f73b6a7A","-1","-1","1","-10","[]","0","0","3","","","","","","","",""
"pit-trial","82","631864","0.0-2.0-14.3-4.3","battery-v0.2","","""event"",""trial"",""time""
""fullscreenenter"",""1"",""1024""
""fullscreenexit"",""1"",""1776""
""blur"",""7"",""61454""
""focus"",""7"",""65937""
""blur"",""7"",""89382""
""focus"",""7"",""93426""
""blur"",""21"",""189870""
""focus"",""21"",""190577""
""blur"",""23"",""315118""
""focus"",""23"",""315567""
""blur"",""40"",""370370""
""focus"",""40"",""371864""
""blur"",""56"",""475301""
""focus"",""57"",""484358""
""blur"",""60"",""494232""
""focus"",""62"",""505390""
""blur"",""69"",""565115""
""focus"",""70"",""570114""
""blur"",""70"",""572000""
""focus"",""71"",""577439""
","""event"",""trial"",""time""
""blur"",""7"",""61454""
""blur"",""7"",""89382""
""blur"",""21"",""189870""
""blur"",""23"",""315118""
""blur"",""40"",""370370""
""blur"",""56"",""475301""
""blur"",""60"",""494232""
""blur"",""69"",""565115""
""blur"",""70"",""572000""
","""event"",""trial"",""time""
""focus"",""7"",""65937""
""focus"",""7"",""93426""
""focus"",""21"",""190577""
""focus"",""23"",""315567""
""focus"",""40"",""371864""
""focus"",""57"",""484358""
""focus"",""62"",""505390""
""focus"",""70"",""570114""
""focus"",""71"",""577439""
","""event"",""trial"",""time""
""fullscreenenter"",""1"",""1024""
","""event"",""trial"",""time""
""fullscreenexit"",""1"",""1776""
","","","-1","","","18","13747","6003","&#9826;","elianto","#f73b6a7A","-1","-1","1","0","[]","0","0","3","","","","","","","",""
"call-function","83","631866","0.0-2.0-15.0","battery-v0.2","","""event"",""trial"",""time""
""fullscreenenter"",""1"",""1024""
""fullscreenexit"",""1"",""1776""
""blur"",""7"",""61454""
""focus"",""7"",""65937""
""blur"",""7"",""89382""
""focus"",""7"",""93426""
""blur"",""21"",""189870""
""focus"",""21"",""190577""
""blur"",""23"",""315118""
""focus"",""23"",""315567""
""blur"",""40"",""370370""
""focus"",""40"",""371864""
""blur"",""56"",""475301""
""focus"",""57"",""484358""
""blur"",""60"",""494232""
""focus"",""62"",""505390""
""blur"",""69"",""565115""
""focus"",""70"",""570114""
""blur"",""70"",""572000""
""focus"",""71"",""577439""
","""event"",""trial"",""time""
""blur"",""7"",""61454""
""blur"",""7"",""89382""
""blur"",""21"",""189870""
""blur"",""23"",""315118""
""blur"",""40"",""370370""
""blur"",""56"",""475301""
""blur"",""60"",""494232""
""blur"",""69"",""565115""
""blur"",""70"",""572000""
","""event"",""trial"",""time""
""focus"",""7"",""65937""
""focus"",""7"",""93426""
""focus"",""21"",""190577""
""focus"",""23"",""315567""
""focus"",""40"",""371864""
""focus"",""57"",""484358""
""focus"",""62"",""505390""
""focus"",""70"",""570114""
""focus"",""71"",""577439""
","""event"",""trial"",""time""
""fullscreenenter"",""1"",""1024""
","""event"",""trial"",""time""
""fullscreenexit"",""1"",""1776""
","","","","","","","","","","","","","","","","","","","","","","","","","","",""
"pit-instructions","84","673944","0.0-2.0-16.0","battery-v0.2","","""event"",""trial"",""time""
""fullscreenenter"",""1"",""1024""
""fullscreenexit"",""1"",""1776""
""blur"",""7"",""61454""
""focus"",""7"",""65937""
""blur"",""7"",""89382""
""focus"",""7"",""93426""
""blur"",""21"",""189870""
""focus"",""21"",""190577""
""blur"",""23"",""315118""
""focus"",""23"",""315567""
""blur"",""40"",""370370""
""focus"",""40"",""371864""
""blur"",""56"",""475301""
""focus"",""57"",""484358""
""blur"",""60"",""494232""
""focus"",""62"",""505390""
""blur"",""69"",""565115""
""focus"",""70"",""570114""
""blur"",""70"",""572000""
""focus"",""71"",""577439""
","""event"",""trial"",""time""
""blur"",""7"",""61454""
""blur"",""7"",""89382""
""blur"",""21"",""189870""
""blur"",""23"",""315118""
""blur"",""40"",""370370""
""blur"",""56"",""475301""
""blur"",""60"",""494232""
""blur"",""69"",""565115""
""blur"",""70"",""572000""
","""event"",""trial"",""time""
""focus"",""7"",""65937""
""focus"",""7"",""93426""
""focus"",""21"",""190577""
""focus"",""23"",""315567""
""focus"",""40"",""371864""
""focus"",""57"",""484358""
""focus"",""62"",""505390""
""focus"",""70"",""570114""
""focus"",""71"",""577439""
","""event"",""trial"",""time""
""fullscreenenter"",""1"",""1024""
","""event"",""trial"",""time""
""fullscreenexit"",""1"",""1776""
","","[{""page_index"":0,""viewing_time"":24853.60000000056},{""page_index"":1,""viewing_time"":8263.599999999627},{""page_index"":2,""viewing_time"":4168.299999999814},{""page_index"":3,""viewing_time"":4792.200000000186}]","42078.200000000186","","","","","","","","","","","","","","","","","","","","","","","",""
"pit-trial","85","677585","0.0-2.0-17.0-0.0","battery-v0.2","","""event"",""trial"",""time""
""fullscreenenter"",""1"",""1024""
""fullscreenexit"",""1"",""1776""
""blur"",""7"",""61454""
""focus"",""7"",""65937""
""blur"",""7"",""89382""
""focus"",""7"",""93426""
""blur"",""21"",""189870""
""focus"",""21"",""190577""
""blur"",""23"",""315118""
""focus"",""23"",""315567""
""blur"",""40"",""370370""
""focus"",""40"",""371864""
""blur"",""56"",""475301""
""focus"",""57"",""484358""
""blur"",""60"",""494232""
""focus"",""62"",""505390""
""blur"",""69"",""565115""
""focus"",""70"",""570114""
""blur"",""70"",""572000""
""focus"",""71"",""577439""
","""event"",""trial"",""time""
""blur"",""7"",""61454""
""blur"",""7"",""89382""
""blur"",""21"",""189870""
""blur"",""23"",""315118""
""blur"",""40"",""370370""
""blur"",""56"",""475301""
""blur"",""60"",""494232""
""blur"",""69"",""565115""
""blur"",""70"",""572000""
","""event"",""trial"",""time""
""focus"",""7"",""65937""
""focus"",""7"",""93426""
""focus"",""21"",""190577""
""focus"",""23"",""315567""
""focus"",""40"",""371864""
""focus"",""57"",""484358""
""focus"",""62"",""505390""
""focus"",""70"",""570114""
""focus"",""71"",""577439""
","""event"",""trial"",""time""
""fullscreenenter"",""1"",""1024""
","""event"",""trial"",""time""
""fullscreenexit"",""1"",""1776""
","","","782.7000000001863","","","18","13747","6003","&#9789;","elianto","#f73b6a7A"," "," ","1","0","[1635.9000000003725]","1","0","4","","","","","","","",""
"pit-trial","86","680483","0.0-2.0-17.0-1.0","battery-v0.2","","""event"",""trial"",""time""
""fullscreenenter"",""1"",""1024""
""fullscreenexit"",""1"",""1776""
""blur"",""7"",""61454""
""focus"",""7"",""65937""
""blur"",""7"",""89382""
""focus"",""7"",""93426""
""blur"",""21"",""189870""
""focus"",""21"",""190577""
""blur"",""23"",""315118""
""focus"",""23"",""315567""
""blur"",""40"",""370370""
""focus"",""40"",""371864""
""blur"",""56"",""475301""
""focus"",""57"",""484358""
""blur"",""60"",""494232""
""focus"",""62"",""505390""
""blur"",""69"",""565115""
""focus"",""70"",""570114""
""blur"",""70"",""572000""
""focus"",""71"",""577439""
","""event"",""trial"",""time""
""blur"",""7"",""61454""
""blur"",""7"",""89382""
""blur"",""21"",""189870""
""blur"",""23"",""315118""
""blur"",""40"",""370370""
""blur"",""56"",""475301""
""blur"",""60"",""494232""
""blur"",""69"",""565115""
""blur"",""70"",""572000""
","""event"",""trial"",""time""
""focus"",""7"",""65937""
""focus"",""7"",""93426""
""focus"",""21"",""190577""
""focus"",""23"",""315567""
""focus"",""40"",""371864""
""focus"",""57"",""484358""
""focus"",""62"",""505390""
""focus"",""70"",""570114""
""focus"",""71"",""577439""
","""event"",""trial"",""time""
""fullscreenenter"",""1"",""1024""
","""event"",""trial"",""time""
""fullscreenexit"",""1"",""1776""
","","","31.299999999813735","","","18","13747","6003","&#9789;","elianto","#f73b6a7A"," "," ","1","0","[883.4000000003725]","1","0","4","","","","","","","",""
"pit-trial","87","683505","0.0-2.0-17.0-2.0","battery-v0.2","","""event"",""trial"",""time""
""fullscreenenter"",""1"",""1024""
""fullscreenexit"",""1"",""1776""
""blur"",""7"",""61454""
""focus"",""7"",""65937""
""blur"",""7"",""89382""
""focus"",""7"",""93426""
""blur"",""21"",""189870""
""focus"",""21"",""190577""
""blur"",""23"",""315118""
""focus"",""23"",""315567""
""blur"",""40"",""370370""
""focus"",""40"",""371864""
""blur"",""56"",""475301""
""focus"",""57"",""484358""
""blur"",""60"",""494232""
""focus"",""62"",""505390""
""blur"",""69"",""565115""
""focus"",""70"",""570114""
""blur"",""70"",""572000""
""focus"",""71"",""577439""
","""event"",""trial"",""time""
""blur"",""7"",""61454""
""blur"",""7"",""89382""
""blur"",""21"",""189870""
""blur"",""23"",""315118""
""blur"",""40"",""370370""
""blur"",""56"",""475301""
""blur"",""60"",""494232""
""blur"",""69"",""565115""
""blur"",""70"",""572000""
","""event"",""trial"",""time""
""focus"",""7"",""65937""
""focus"",""7"",""93426""
""focus"",""21"",""190577""
""focus"",""23"",""315567""
""focus"",""40"",""371864""
""focus"",""57"",""484358""
""focus"",""62"",""505390""
""focus"",""70"",""570114""
""focus"",""71"",""577439""
","""event"",""trial"",""time""
""fullscreenenter"",""1"",""1024""
","""event"",""trial"",""time""
""fullscreenexit"",""1"",""1776""
","","","155.29999999981374","","","18","13747","6003","&#9789;","elianto","#f73b6a7A"," "," ","1","0","[1005.7000000001863]","1","0","4","","","","","","","",""
"pit-trial","88","688373","0.0-2.0-17.0-3.0","battery-v0.2","","""event"",""trial"",""time""
""fullscreenenter"",""1"",""1024""
""fullscreenexit"",""1"",""1776""
""blur"",""7"",""61454""
""focus"",""7"",""65937""
""blur"",""7"",""89382""
""focus"",""7"",""93426""
""blur"",""21"",""189870""
""focus"",""21"",""190577""
""blur"",""23"",""315118""
""focus"",""23"",""315567""
""blur"",""40"",""370370""
""focus"",""40"",""371864""
""blur"",""56"",""475301""
""focus"",""57"",""484358""
""blur"",""60"",""494232""
""focus"",""62"",""505390""
""blur"",""69"",""565115""
""focus"",""70"",""570114""
""blur"",""70"",""572000""
""focus"",""71"",""577439""
","""event"",""trial"",""time""
""blur"",""7"",""61454""
""blur"",""7"",""89382""
""blur"",""21"",""189870""
""blur"",""23"",""315118""
""blur"",""40"",""370370""
""blur"",""56"",""475301""
""blur"",""60"",""494232""
""blur"",""69"",""565115""
""blur"",""70"",""572000""
","""event"",""trial"",""time""
""focus"",""7"",""65937""
""focus"",""7"",""93426""
""focus"",""21"",""190577""
""focus"",""23"",""315567""
""focus"",""40"",""371864""
""focus"",""57"",""484358""
""focus"",""62"",""505390""
""focus"",""70"",""570114""
""focus"",""71"",""577439""
","""event"",""trial"",""time""
""fullscreenenter"",""1"",""1024""
","""event"",""trial"",""time""
""fullscreenexit"",""1"",""1776""
","","","-1","","","18","13747","6003","&#9789;","elianto","#f73b6a7A"," ","-1","0","0","[797.5]","1","0","4","","","","","","","",""
"pit-trial","89","693240","0.0-2.0-17.0-4.0","battery-v0.2","","""event"",""trial"",""time""
""fullscreenenter"",""1"",""1024""
""fullscreenexit"",""1"",""1776""
""blur"",""7"",""61454""
""focus"",""7"",""65937""
""blur"",""7"",""89382""
""focus"",""7"",""93426""
""blur"",""21"",""189870""
""focus"",""21"",""190577""
""blur"",""23"",""315118""
""focus"",""23"",""315567""
""blur"",""40"",""370370""
""focus"",""40"",""371864""
""blur"",""56"",""475301""
""focus"",""57"",""484358""
""blur"",""60"",""494232""
""focus"",""62"",""505390""
""blur"",""69"",""565115""
""focus"",""70"",""570114""
""blur"",""70"",""572000""
""focus"",""71"",""577439""
","""event"",""trial"",""time""
""blur"",""7"",""61454""
""blur"",""7"",""89382""
""blur"",""21"",""189870""
""blur"",""23"",""315118""
""blur"",""40"",""370370""
""blur"",""56"",""475301""
""blur"",""60"",""494232""
""blur"",""69"",""565115""
""blur"",""70"",""572000""
","""event"",""trial"",""time""
""focus"",""7"",""65937""
""focus"",""7"",""93426""
""focus"",""21"",""190577""
""focus"",""23"",""315567""
""focus"",""40"",""371864""
""focus"",""57"",""484358""
""focus"",""62"",""505390""
""focus"",""70"",""570114""
""focus"",""71"",""577439""
","""event"",""trial"",""time""
""fullscreenenter"",""1"",""1024""
","""event"",""trial"",""time""
""fullscreenexit"",""1"",""1776""
","","","-1","","","18","13747","6003","&#9789;","elianto","#f73b6a7A"," ","-1","0","-10","[825.2999999998137]","1","0","4","","","","","","","",""
"pit-trial","90","696099","0.0-2.0-17.1-0.1","battery-v0.2","","""event"",""trial"",""time""
""fullscreenenter"",""1"",""1024""
""fullscreenexit"",""1"",""1776""
""blur"",""7"",""61454""
""focus"",""7"",""65937""
""blur"",""7"",""89382""
