"trial_type","trial_index","time_elapsed","internal_node_id","task_version","subject_id","interactions","blur_events","focus_events","fullscreenenter_events","fullscreenexit_events","success","view_history","rt","responses","num_errors","age","subject","participantId","rune","rune_set","hex","correct","choice","accuracy","outcome","keys","total_keys","block","practice","value","sub","trial","stimulus","robot","valence","action","sham"
"pavlovia","0","10","0.0-0.0","battery-v0.2","","""event"",""trial"",""time""
""focus"",""0"",""1""
""fullscreenenter"",""1"",""4426""
","
","""event"",""trial"",""time""
""focus"",""0"",""1""
","""event"",""trial"",""time""
""fullscreenenter"",""1"",""4426""
","
","","","","","","","","","","","","","","","","","","","","","","","","","","",""
"fullscreen","1","5174","0.0-1.0","battery-v0.2","","""event"",""trial"",""time""
""focus"",""0"",""1""
""fullscreenenter"",""1"",""4426""
","
","""event"",""trial"",""time""
""focus"",""0"",""1""
","""event"",""trial"",""time""
""fullscreenenter"",""1"",""4426""
","
","true","","","","","","","","","","","","","","","","","","","","","","","","","",""
"pit-instructions","2","8790","0.0-2.0-0.0","battery-v0.2","","""event"",""trial"",""time""
""focus"",""0"",""1""
""fullscreenenter"",""1"",""4426""
","
","""event"",""trial"",""time""
""focus"",""0"",""1""
","""event"",""trial"",""time""
""fullscreenenter"",""1"",""4426""
","
","","[{""page_index"":0,""viewing_time"":3611}]","3611","","","","","","","","","","","","","","","","","","","","","","","",""
"pit-comprehension","3","13259","0.0-2.0-1.0-0.0","battery-v0.2","","""event"",""trial"",""time""
""focus"",""0"",""1""
""fullscreenenter"",""1"",""4426""
","
","""event"",""trial"",""time""
""focus"",""0"",""1""
","""event"",""trial"",""time""
""fullscreenenter"",""1"",""4426""
","
","","","4463","[""shark""]","0","15","6063","1314","","","","","","","","","","","","","","","","","","",""
"pit-instructions","4","16635","0.0-2.0-1.0-1.0","battery-v0.2","","""event"",""trial"",""time""
""focus"",""0"",""1""
""fullscreenenter"",""1"",""4426""
","
","""event"",""trial"",""time""
""focus"",""0"",""1""
","""event"",""trial"",""time""
""fullscreenenter"",""1"",""4426""
","
","","[{""page_index"":0,""viewing_time"":3367}]","3368","","","","","","","","","","","","","","","","","","","","","","","",""
"pit-comprehension","5","19929","0.0-2.0-2.0-0.0","battery-v0.2","","""event"",""trial"",""time""
""focus"",""0"",""1""
""fullscreenenter"",""1"",""4426""
","
","""event"",""trial"",""time""
""focus"",""0"",""1""
","""event"",""trial"",""time""
""fullscreenenter"",""1"",""4426""
","
","","","3290","[""tiger""]","0","15","6063","1314","","","","","","","","","","","","","","","","","","",""
"pit-instructions","6","21096","0.0-2.0-2.0-1.0","battery-v0.2","","""event"",""trial"",""time""
""focus"",""0"",""1""
""fullscreenenter"",""1"",""4426""
","
","""event"",""trial"",""time""
""focus"",""0"",""1""
","""event"",""trial"",""time""
""fullscreenenter"",""1"",""4426""
","
","","[{""page_index"":0,""viewing_time"":1161}]","1161","","","","","","","","","","","","","","","","","","","","","","","",""
"pit-instructions","7","122523","0.0-2.0-3.0","battery-v0.2","","""event"",""trial"",""time""
""focus"",""0"",""1""
""fullscreenenter"",""1"",""4426""
","
","""event"",""trial"",""time""
""focus"",""0"",""1""
","""event"",""trial"",""time""
""fullscreenenter"",""1"",""4426""
","
","","[{""page_index"":0,""viewing_time"":8565},{""page_index"":1,""viewing_time"":6363},{""page_index"":2,""viewing_time"":6349},{""page_index"":3,""viewing_time"":5417},{""page_index"":4,""viewing_time"":6293},{""page_index"":5,""viewing_time"":5917},{""page_index"":6,""viewing_time"":7983},{""page_index"":7,""viewing_time"":7208},{""page_index"":8,""viewing_time"":7438},{""page_index"":9,""viewing_time"":9473},{""page_index"":10,""viewing_time"":8827},{""page_index"":11,""viewing_time"":7756},{""page_index"":12,""viewing_time"":7111},{""page_index"":13,""viewing_time"":6722}]","101423","","","","","","","","","","","","","","","","","","","","","","","",""
"pit-trial","8","126269","0.0-2.0-4.0-0.0","battery-v0.2","","""event"",""trial"",""time""
""focus"",""0"",""1""
""fullscreenenter"",""1"",""4426""
","
","""event"",""trial"",""time""
""focus"",""0"",""1""
","""event"",""trial"",""time""
""fullscreenenter"",""1"",""4426""
","
","","","878","","","15","6063","1314","&#9784;","elianto","#FFFFF080"," "," ","1","&#10004","[1733]","1","0","0","","","","","","","",""
"pit-trial","9","129933","0.0-2.0-4.1-0.1","battery-v0.2","","""event"",""trial"",""time""
""focus"",""0"",""1""
""fullscreenenter"",""1"",""4426""
","
","""event"",""trial"",""time""
""focus"",""0"",""1""
","""event"",""trial"",""time""
""fullscreenenter"",""1"",""4426""
","
","","","800","","","15","6063","1314","&#9784;","elianto","#FFFFF080"," "," ","1","&#10004","[1659]","1","0","0","","","","","","","",""
"pit-trial","10","133549","0.0-2.0-4.2-0.2","battery-v0.2","","""event"",""trial"",""time""
""focus"",""0"",""1""
""fullscreenenter"",""1"",""4426""
","
","""event"",""trial"",""time""
""focus"",""0"",""1""
","""event"",""trial"",""time""
""fullscreenenter"",""1"",""4426""
","
","","","747","","","15","6063","1314","&#9784;","elianto","#FFFFF080"," "," ","1","&#10004","[1603]","1","0","0","","","","","","","",""
"pit-trial","11","137084","0.0-2.0-4.3-0.3","battery-v0.2","","""event"",""trial"",""time""
""focus"",""0"",""1""
""fullscreenenter"",""1"",""4426""
","
","""event"",""trial"",""time""
""focus"",""0"",""1""
","""event"",""trial"",""time""
""fullscreenenter"",""1"",""4426""
","
","","","673","","","15","6063","1314","&#9784;","elianto","#FFFFF080"," "," ","1","&#10004","[1528]","1","0","0","","","","","","","",""
"pit-trial","12","140650","0.0-2.0-4.4-0.4","battery-v0.2","","""event"",""trial"",""time""
""focus"",""0"",""1""
""fullscreenenter"",""1"",""4426""
","
","""event"",""trial"",""time""
""focus"",""0"",""1""
","""event"",""trial"",""time""
""fullscreenenter"",""1"",""4426""
","
","","","702","","","15","6063","1314","&#9784;","elianto","#FFFFF080"," "," ","1","&#10004","[1555]","1","0","0","","","","","","","",""
"pit-instructions","13","162936","0.0-2.0-5.0","battery-v0.2","","""event"",""trial"",""time""
""focus"",""0"",""1""
""fullscreenenter"",""1"",""4426""
","
","""event"",""trial"",""time""
""focus"",""0"",""1""
","""event"",""trial"",""time""
""fullscreenenter"",""1"",""4426""
","
","","[{""page_index"":0,""viewing_time"":5190},{""page_index"":1,""viewing_time"":6451},{""page_index"":2,""viewing_time"":5144},{""page_index"":3,""viewing_time"":5494}]","22279","","","","","","","","","","","","","","","","","","","","","","","",""
"pit-trial","14","167810","0.0-2.0-6.0-0.0","battery-v0.2","","""event"",""trial"",""time""
""focus"",""0"",""1""
""fullscreenenter"",""1"",""4426""
","
","""event"",""trial"",""time""
""focus"",""0"",""1""
","""event"",""trial"",""time""
""fullscreenenter"",""1"",""4426""
","
","","","-1","","","15","6063","1314","&#9854;","elianto","#FFFFF080","-1","-1","1","&#10004","[]","0","0","1","","","","","","","",""
"pit-trial","15","172673","0.0-2.0-6.1-0.1","battery-v0.2","","""event"",""trial"",""time""
""focus"",""0"",""1""
""fullscreenenter"",""1"",""4426""
","
","""event"",""trial"",""time""
""focus"",""0"",""1""
","""event"",""trial"",""time""
""fullscreenenter"",""1"",""4426""
","
","","","-1","","","15","6063","1314","&#9854;","elianto","#FFFFF080","-1","-1","1","&#10004","[]","0","0","1","","","","","","","",""
"pit-trial","16","177544","0.0-2.0-6.2-0.2","battery-v0.2","","""event"",""trial"",""time""
""focus"",""0"",""1""
""fullscreenenter"",""1"",""4426""
","
","""event"",""trial"",""time""
""focus"",""0"",""1""
","""event"",""trial"",""time""
""fullscreenenter"",""1"",""4426""
","
","","","-1","","","15","6063","1314","&#9854;","elianto","#FFFFF080","-1","-1","1","&#10004","[]","0","0","1","","","","","","","",""
"pit-trial","17","182403","0.0-2.0-6.3-0.3","battery-v0.2","","""event"",""trial"",""time""
""focus"",""0"",""1""
""fullscreenenter"",""1"",""4426""
","
","""event"",""trial"",""time""
""focus"",""0"",""1""
","""event"",""trial"",""time""
""fullscreenenter"",""1"",""4426""
","
","","","-1","","","15","6063","1314","&#9854;","elianto","#FFFFF080","-1","-1","1","&#10004","[]","0","0","1","","","","","","","",""
"pit-trial","18","187276","0.0-2.0-6.4-0.4","battery-v0.2","","""event"",""trial"",""time""
""focus"",""0"",""1""
""fullscreenenter"",""1"",""4426""
","
","""event"",""trial"",""time""
""focus"",""0"",""1""
","""event"",""trial"",""time""
""fullscreenenter"",""1"",""4426""
","
","","","-1","","","15","6063","1314","&#9854;","elianto","#FFFFF080","-1","-1","1","&#10004","[]","0","0","1","","","","","","","",""
"pit-instructions","19","305302","0.0-2.0-7.0","battery-v0.2","","""event"",""trial"",""time""
""focus"",""0"",""1""
""fullscreenenter"",""1"",""4426""
","
","""event"",""trial"",""time""
""focus"",""0"",""1""
","""event"",""trial"",""time""
""fullscreenenter"",""1"",""4426""
","
","","[{""page_index"":0,""viewing_time"":5599},{""page_index"":1,""viewing_time"":6897},{""page_index"":2,""viewing_time"":5697},{""page_index"":3,""viewing_time"":6246},{""page_index"":4,""viewing_time"":5149},{""page_index"":5,""viewing_time"":5506},{""page_index"":6,""viewing_time"":4310},{""page_index"":7,""viewing_time"":8671},{""page_index"":8,""viewing_time"":7201},{""page_index"":9,""viewing_time"":6354},{""page_index"":10,""viewing_time"":6375},{""page_index"":11,""viewing_time"":5283},{""page_index"":12,""viewing_time"":7958},{""page_index"":13,""viewing_time"":7484},{""page_index"":14,""viewing_time"":8005},{""page_index"":15,""viewing_time"":6982},{""page_index"":16,""viewing_time"":6424},{""page_index"":17,""viewing_time"":7880}]","118022","","","","","","","","","","","","","","","","","","","","","","","",""
"pit-trial","20","308914","0.0-2.0-8.0-0.0","battery-v0.2","","""event"",""trial"",""time""
""focus"",""0"",""1""
""fullscreenenter"",""1"",""4426""
","
","""event"",""trial"",""time""
""focus"",""0"",""1""
","""event"",""trial"",""time""
""fullscreenenter"",""1"",""4426""
","
","","","753","","","15","6063","1314","&#9776;","elianto","#3366ff99"," "," ","1","+10","[1603]","1","0","1","","","","","","","",""
"pit-trial","21","312415","0.0-2.0-8.0-1.0","battery-v0.2","","""event"",""trial"",""time""
""focus"",""0"",""1""
""fullscreenenter"",""1"",""4426""
","
","""event"",""trial"",""time""
""focus"",""0"",""1""
","""event"",""trial"",""time""
""fullscreenenter"",""1"",""4426""
","
","","","629","","","15","6063","1314","&#9776;","elianto","#3366ff99"," "," ","1","+10","[1493]","1","0","1","","","","","","","",""
"pit-trial","22","315803","0.0-2.0-8.0-2.0","battery-v0.2","","""event"",""trial"",""time""
""focus"",""0"",""1""
""fullscreenenter"",""1"",""4426""
","
","""event"",""trial"",""time""
""focus"",""0"",""1""
","""event"",""trial"",""time""
""fullscreenenter"",""1"",""4426""
","
","","","534","","","15","6063","1314","&#9776;","elianto","#3366ff99"," "," ","1","+10","[1385]","1","0","1","","","","","","","",""
"pit-trial","23","319303","0.0-2.0-8.0-3.0","battery-v0.2","","""event"",""trial"",""time""
""focus"",""0"",""1""
""fullscreenenter"",""1"",""4426""
","
","""event"",""trial"",""time""
""focus"",""0"",""1""
","""event"",""trial"",""time""
""fullscreenenter"",""1"",""4426""
","
","","","630","","","15","6063","1314","&#9776;","elianto","#3366ff99"," "," ","1","0","[1484]","1","0","1","","","","","","","",""
"pit-trial","24","322720","0.0-2.0-8.0-4.0","battery-v0.2","","""event"",""trial"",""time""
""focus"",""0"",""1""
""fullscreenenter"",""1"",""4426""
","
","""event"",""trial"",""time""
""focus"",""0"",""1""
","""event"",""trial"",""time""
""fullscreenenter"",""1"",""4426""
","
","","","544","","","15","6063","1314","&#9776;","elianto","#3366ff99"," "," ","1","+10","[1402]","1","0","1","","","","","","","",""
"pit-trial","25","326222","0.0-2.0-8.1-0.1","battery-v0.2","","""event"",""trial"",""time""
""focus"",""0"",""1""
""fullscreenenter"",""1"",""4426""
","
","""event"",""trial"",""time""
""focus"",""0"",""1""
","""event"",""trial"",""time""
""fullscreenenter"",""1"",""4426""
","
","","","637","","","15","6063","1314","&#9776;","elianto","#3366ff99"," "," ","1","+10","[1491]","1","0","1","","","","","","","",""
"pit-trial","26","329603","0.0-2.0-8.1-1.1","battery-v0.2","","""event"",""trial"",""time""
""focus"",""0"",""1""
""fullscreenenter"",""1"",""4426""
","
","""event"",""trial"",""time""
""focus"",""0"",""1""
","""event"",""trial"",""time""
""fullscreenenter"",""1"",""4426""
","
","","","515","","","15","6063","1314","&#9776;","elianto","#3366ff99"," "," ","1","+10","[1377]","1","0","1","","","","","","","",""
"pit-trial","27","333017","0.0-2.0-8.1-2.1","battery-v0.2","","""event"",""trial"",""time""
""focus"",""0"",""1""
""fullscreenenter"",""1"",""4426""
","
","""event"",""trial"",""time""
""focus"",""0"",""1""
","""event"",""trial"",""time""
""fullscreenenter"",""1"",""4426""
","
","","","538","","","15","6063","1314","&#9776;","elianto","#3366ff99"," "," ","1","+10","[1399]","1","0","1","","","","","","","",""
"pit-trial","28","336555","0.0-2.0-8.1-3.1","battery-v0.2","","""event"",""trial"",""time""
""focus"",""0"",""1""
""fullscreenenter"",""1"",""4426""
","
","""event"",""trial"",""time""
""focus"",""0"",""1""
","""event"",""trial"",""time""
""fullscreenenter"",""1"",""4426""
","
","","","673","","","15","6063","1314","&#9776;","elianto","#3366ff99"," "," ","1","0","[1534]","1","0","1","","","","","","","",""
"pit-trial","29","340026","0.0-2.0-8.1-4.1","battery-v0.2","","""event"",""trial"",""time""
""focus"",""0"",""1""
""fullscreenenter"",""1"",""4426""
","
","""event"",""trial"",""time""
""focus"",""0"",""1""
","""event"",""trial"",""time""
""fullscreenenter"",""1"",""4426""
","
","","","609","","","15","6063","1314","&#9776;","elianto","#3366ff99"," "," ","1","+10","[1461]","1","0","1","","","","","","","",""
"pit-trial","30","343383","0.0-2.0-8.2-0.2","battery-v0.2","","""event"",""trial"",""time""
""focus"",""0"",""1""
""fullscreenenter"",""1"",""4426""
","
","""event"",""trial"",""time""
""focus"",""0"",""1""
","""event"",""trial"",""time""
""fullscreenenter"",""1"",""4426""
","
","","","489","","","15","6063","1314","&#9776;","elianto","#3366ff99"," "," ","1","+10","[1343]","1","0","1","","","","","","","",""
"pit-trial","31","346783","0.0-2.0-8.2-1.2","battery-v0.2","","""event"",""trial"",""time""
""focus"",""0"",""1""
""fullscreenenter"",""1"",""4426""
","
","""event"",""trial"",""time""
""focus"",""0"",""1""
","""event"",""trial"",""time""
""fullscreenenter"",""1"",""4426""
","
","","","530","","","15","6063","1314","&#9776;","elianto","#3366ff99"," "," ","1","+10","[1388]","1","0","1","","","","","","","",""
"pit-trial","32","350331","0.0-2.0-8.2-2.2","battery-v0.2","","""event"",""trial"",""time""
""focus"",""0"",""1""
""fullscreenenter"",""1"",""4426""
","
","""event"",""trial"",""time""
""focus"",""0"",""1""
","""event"",""trial"",""time""
""fullscreenenter"",""1"",""4426""
","
","","","680","","","15","6063","1314","&#9776;","elianto","#3366ff99"," "," ","1","+10","[1536]","1","0","1","","","","","","","",""
"pit-trial","33","353764","0.0-2.0-8.2-3.2","battery-v0.2","","""event"",""trial"",""time""
""focus"",""0"",""1""
""fullscreenenter"",""1"",""4426""
","
","""event"",""trial"",""time""
""focus"",""0"",""1""
","""event"",""trial"",""time""
""fullscreenenter"",""1"",""4426""
","
","","","570","","","15","6063","1314","&#9776;","elianto","#3366ff99"," "," ","1","0","[1422]","1","0","1","","","","","","","",""
"pit-trial","34","357579","0.0-2.0-8.2-4.2","battery-v0.2","","""event"",""trial"",""time""
""focus"",""0"",""1""
""fullscreenenter"",""1"",""4426""
","
","""event"",""trial"",""time""
""focus"",""0"",""1""
","""event"",""trial"",""time""
""fullscreenenter"",""1"",""4426""
","
","","","936","","","15","6063","1314","&#9776;","elianto","#3366ff99"," "," ","1","+10","[1796]","1","0","1","","","","","","","",""
"call-function","35","357581","0.0-2.0-9.0","battery-v0.2","","""event"",""trial"",""time""
""focus"",""0"",""1""
""fullscreenenter"",""1"",""4426""
","
","""event"",""trial"",""time""
""focus"",""0"",""1""
","""event"",""trial"",""time""
""fullscreenenter"",""1"",""4426""
","
","","","","","","","","","","","","","","","","","","","","","","","","","","",""
"pit-instructions","36","397660","0.0-2.0-10.0","battery-v0.2","","""event"",""trial"",""time""
""focus"",""0"",""1""
""fullscreenenter"",""1"",""4426""
","
","""event"",""trial"",""time""
""focus"",""0"",""1""
","""event"",""trial"",""time""
""fullscreenenter"",""1"",""4426""
","
","","[{""page_index"":0,""viewing_time"":5879},{""page_index"":1,""viewing_time"":7505},{""page_index"":2,""viewing_time"":9701},{""page_index"":3,""viewing_time"":9274},{""page_index"":4,""viewing_time"":7719}]","40078","","","","","","","","","","","","","","","","","","","","","","","",""
"pit-trial","37","402533","0.0-2.0-11.0-0.0","battery-v0.2","","""event"",""trial"",""time""
""focus"",""0"",""1""
""fullscreenenter"",""1"",""4426""
","
","""event"",""trial"",""time""
""focus"",""0"",""1""
","""event"",""trial"",""time""
""fullscreenenter"",""1"",""4426""
","
","","","-1","","","15","6063","1314","&#9761;","elianto","#3366ff99","-1","-1","1","+10","[]","0","0","2","","","","","","","",""
"pit-trial","38","407399","0.0-2.0-11.0-1.0","battery-v0.2","","""event"",""trial"",""time""
""focus"",""0"",""1""
""fullscreenenter"",""1"",""4426""
","
","""event"",""trial"",""time""
""focus"",""0"",""1""
","""event"",""trial"",""time""
""fullscreenenter"",""1"",""4426""
","
","","","-1","","","15","6063","1314","&#9761;","elianto","#3366ff99","-1","-1","1","+10","[]","0","0","2","","","","","","","",""
"pit-trial","39","412279","0.0-2.0-11.0-2.0","battery-v0.2","","""event"",""trial"",""time""
""focus"",""0"",""1""
""fullscreenenter"",""1"",""4426""
","
","""event"",""trial"",""time""
""focus"",""0"",""1""
","""event"",""trial"",""time""
""fullscreenenter"",""1"",""4426""
","
","","","-1","","","15","6063","1314","&#9761;","elianto","#3366ff99","-1","-1","1","+10","[]","0","0","2","","","","","","","",""
"pit-trial","40","417143","0.0-2.0-11.0-3.0","battery-v0.2","","""event"",""trial"",""time""
""focus"",""0"",""1""
""fullscreenenter"",""1"",""4426""
","
","""event"",""trial"",""time""
""focus"",""0"",""1""
","""event"",""trial"",""time""
""fullscreenenter"",""1"",""4426""
","
","","","-1","","","15","6063","1314","&#9761;","elianto","#3366ff99","-1","-1","1","0","[]","0","0","2","","","","","","","",""
"pit-trial","41","422008","0.0-2.0-11.0-4.0","battery-v0.2","","""event"",""trial"",""time""
""focus"",""0"",""1""
""fullscreenenter"",""1"",""4426""
","
","""event"",""trial"",""time""
""focus"",""0"",""1""
","""event"",""trial"",""time""
""fullscreenenter"",""1"",""4426""
","
","","","-1","","","15","6063","1314","&#9761;","elianto","#3366ff99","-1","-1","1","+10","[]","0","0","2","","","","","","","",""
"pit-trial","42","426868","0.0-2.0-11.1-0.1","battery-v0.2","","""event"",""trial"",""time""
""focus"",""0"",""1""
""fullscreenenter"",""1"",""4426""
","
","""event"",""trial"",""time""
""focus"",""0"",""1""
","""event"",""trial"",""time""
""fullscreenenter"",""1"",""4426""
","
","","","-1","","","15","6063","1314","&#9761;","elianto","#3366ff99","-1","-1","1","+10","[]","0","0","2","","","","","","","",""
"pit-trial","43","431730","0.0-2.0-11.1-1.1","battery-v0.2","","""event"",""trial"",""time""
""focus"",""0"",""1""
""fullscreenenter"",""1"",""4426""
","
","""event"",""trial"",""time""
""focus"",""0"",""1""
","""event"",""trial"",""time""
""fullscreenenter"",""1"",""4426""
","
","","","-1","","","15","6063","1314","&#9761;","elianto","#3366ff99","-1","-1","1","+10","[]","0","0","2","","","","","","","",""
"pit-trial","44","436599","0.0-2.0-11.1-2.1","battery-v0.2","","""event"",""trial"",""time""
""focus"",""0"",""1""
""fullscreenenter"",""1"",""4426""
","
","""event"",""trial"",""time""
""focus"",""0"",""1""
","""event"",""trial"",""time""
""fullscreenenter"",""1"",""4426""
","
","","","-1","","","15","6063","1314","&#9761;","elianto","#3366ff99","-1","-1","1","+10","[]","0","0","2","","","","","","","",""
"pit-trial","45","441469","0.0-2.0-11.1-3.1","battery-v0.2","","""event"",""trial"",""time""
""focus"",""0"",""1""
""fullscreenenter"",""1"",""4426""
","
","""event"",""trial"",""time""
""focus"",""0"",""1""
","""event"",""trial"",""time""
""fullscreenenter"",""1"",""4426""
","
","","","-1","","","15","6063","1314","&#9761;","elianto","#3366ff99","-1","-1","1","0","[]","0","0","2","","","","","","","",""
"pit-trial","46","446341","0.0-2.0-11.1-4.1","battery-v0.2","","""event"",""trial"",""time""
""focus"",""0"",""1""
""fullscreenenter"",""1"",""4426""
","
","""event"",""trial"",""time""
""focus"",""0"",""1""
","""event"",""trial"",""time""
""fullscreenenter"",""1"",""4426""
","
","","","-1","","","15","6063","1314","&#9761;","elianto","#3366ff99","-1","-1","1","+10","[]","0","0","2","","","","","","","",""
"pit-trial","47","451203","0.0-2.0-11.2-0.2","battery-v0.2","","""event"",""trial"",""time""
""focus"",""0"",""1""
""fullscreenenter"",""1"",""4426""
","
","""event"",""trial"",""time""
""focus"",""0"",""1""
","""event"",""trial"",""time""
""fullscreenenter"",""1"",""4426""
","
","","","-1","","","15","6063","1314","&#9761;","elianto","#3366ff99","-1","-1","1","+10","[]","0","0","2","","","","","","","",""
"pit-trial","48","456078","0.0-2.0-11.2-1.2","battery-v0.2","","""event"",""trial"",""time""
""focus"",""0"",""1""
""fullscreenenter"",""1"",""4426""
","
","""event"",""trial"",""time""
""focus"",""0"",""1""
","""event"",""trial"",""time""
""fullscreenenter"",""1"",""4426""
","
","","","-1","","","15","6063","1314","&#9761;","elianto","#3366ff99","-1","-1","1","+10","[]","0","0","2","","","","","","","",""
"pit-trial","49","460932","0.0-2.0-11.2-2.2","battery-v0.2","","""event"",""trial"",""time""
""focus"",""0"",""1""
""fullscreenenter"",""1"",""4426""
","
","""event"",""trial"",""time""
""focus"",""0"",""1""
","""event"",""trial"",""time""
""fullscreenenter"",""1"",""4426""
","
","","","-1","","","15","6063","1314","&#9761;","elianto","#3366ff99","-1","-1","1","+10","[]","0","0","2","","","","","","","",""
"pit-trial","50","465808","0.0-2.0-11.2-3.2","battery-v0.2","","""event"",""trial"",""time""
""focus"",""0"",""1""
""fullscreenenter"",""1"",""4426""
","
","""event"",""trial"",""time""
""focus"",""0"",""1""
","""event"",""trial"",""time""
""fullscreenenter"",""1"",""4426""
","
","","","-1","","","15","6063","1314","&#9761;","elianto","#3366ff99","-1","-1","1","0","[]","0","0","2","","","","","","","",""
"pit-trial","51","470677","0.0-2.0-11.2-4.2","battery-v0.2","","""event"",""trial"",""time""
""focus"",""0"",""1""
""fullscreenenter"",""1"",""4426""
","
","""event"",""trial"",""time""
""focus"",""0"",""1""
","""event"",""trial"",""time""
""fullscreenenter"",""1"",""4426""
","
","","","-1","","","15","6063","1314","&#9761;","elianto","#3366ff99","-1","-1","1","+10","[]","0","0","2","","","","","","","",""
"pit-trial","52","475543","0.0-2.0-11.3-0.3","battery-v0.2","","""event"",""trial"",""time""
""focus"",""0"",""1""
""fullscreenenter"",""1"",""4426""
","
","""event"",""trial"",""time""
""focus"",""0"",""1""
","""event"",""trial"",""time""
""fullscreenenter"",""1"",""4426""
","
","","","-1","","","15","6063","1314","&#9761;","elianto","#3366ff99","-1","-1","1","+10","[]","0","0","2","","","","","","","",""
"pit-trial","53","480414","0.0-2.0-11.3-1.3","battery-v0.2","","""event"",""trial"",""time""
""focus"",""0"",""1""
""fullscreenenter"",""1"",""4426""
","
","""event"",""trial"",""time""
""focus"",""0"",""1""
","""event"",""trial"",""time""
""fullscreenenter"",""1"",""4426""
","
","","","-1","","","15","6063","1314","&#9761;","elianto","#3366ff99","-1","-1","1","+10","[]","0","0","2","","","","","","","",""
"pit-trial","54","485285","0.0-2.0-11.3-2.3","battery-v0.2","","""event"",""trial"",""time""
""focus"",""0"",""1""
""fullscreenenter"",""1"",""4426""
","
","""event"",""trial"",""time""
""focus"",""0"",""1""
","""event"",""trial"",""time""
""fullscreenenter"",""1"",""4426""
","
","","","-1","","","15","6063","1314","&#9761;","elianto","#3366ff99","-1","-1","1","+10","[]","0","0","2","","","","","","","",""
"pit-trial","55","490149","0.0-2.0-11.3-3.3","battery-v0.2","","""event"",""trial"",""time""
""focus"",""0"",""1""
""fullscreenenter"",""1"",""4426""
","
","""event"",""trial"",""time""
""focus"",""0"",""1""
","""event"",""trial"",""time""
""fullscreenenter"",""1"",""4426""
","
","","","-1","","","15","6063","1314","&#9761;","elianto","#3366ff99","-1","-1","1","0","[]","0","0","2","","","","","","","",""
"pit-trial","56","495017","0.0-2.0-11.3-4.3","battery-v0.2","","""event"",""trial"",""time""
""focus"",""0"",""1""
""fullscreenenter"",""1"",""4426""
","
","""event"",""trial"",""time""
""focus"",""0"",""1""
","""event"",""trial"",""time""
""fullscreenenter"",""1"",""4426""
","
","","","-1","","","15","6063","1314","&#9761;","elianto","#3366ff99","-1","-1","1","+10","[]","0","0","2","","","","","","","",""
"call-function","57","495020","0.0-2.0-12.0","battery-v0.2","","""event"",""trial"",""time""
""focus"",""0"",""1""
""fullscreenenter"",""1"",""4426""
","
","""event"",""trial"",""time""
""focus"",""0"",""1""
","""event"",""trial"",""time""
""fullscreenenter"",""1"",""4426""
","
","","","","","","","","","","","","","","","","","","","","","","","","","","",""
"pit-instructions","58","527556","0.0-2.0-13.0","battery-v0.2","","""event"",""trial"",""time""
""focus"",""0"",""1""
""fullscreenenter"",""1"",""4426""
","
","""event"",""trial"",""time""
""focus"",""0"",""1""
","""event"",""trial"",""time""
""fullscreenenter"",""1"",""4426""
","
","","[{""page_index"":0,""viewing_time"":4743},{""page_index"":1,""viewing_time"":7770},{""page_index"":2,""viewing_time"":3598},{""page_index"":3,""viewing_time"":11069},{""page_index"":4,""viewing_time"":5355}]","32535","","","","","","","","","","","","","","","","","","","","","","","",""
"pit-trial","59","530908","0.0-2.0-14.0-0.0","battery-v0.2","","""event"",""trial"",""time""
""focus"",""0"",""1""
""fullscreenenter"",""1"",""4426""
","
","""event"",""trial"",""time""
""focus"",""0"",""1""
","""event"",""trial"",""time""
""fullscreenenter"",""1"",""4426""
","
","","","483","","","15","6063","1314","&#9826;","elianto","#f73b6a7A","-1"," ","0","-10","[1343]","1","0","3","","","","","","","",""
"pit-trial","60","534358","0.0-2.0-14.0-1.0","battery-v0.2","","""event"",""trial"",""time""
""focus"",""0"",""1""
""fullscreenenter"",""1"",""4426""
","
","""event"",""trial"",""time""
""focus"",""0"",""1""
","""event"",""trial"",""time""
""fullscreenenter"",""1"",""4426""
","
","","","588","","","15","6063","1314","&#9826;","elianto","#f73b6a7A","-1"," ","0","-10","[1442]","1","0","3","","","","","","","",""
"pit-trial","61","539224","0.0-2.0-14.0-2.0","battery-v0.2","","""event"",""trial"",""time""
""focus"",""0"",""1""
""fullscreenenter"",""1"",""4426""
","
","""event"",""trial"",""time""
""focus"",""0"",""1""
","""event"",""trial"",""time""
""fullscreenenter"",""1"",""4426""
","
","","","-1","","","15","6063","1314","&#9826;","elianto","#f73b6a7A","-1","-1","1","0","[]","0","0","3","","","","","","","",""
"pit-trial","62","544089","0.0-2.0-14.0-3.0","battery-v0.2","","""event"",""trial"",""time""
""focus"",""0"",""1""
""fullscreenenter"",""1"",""4426""
","
","""event"",""trial"",""time""
""focus"",""0"",""1""
","""event"",""trial"",""time""
""fullscreenenter"",""1"",""4426""
","
","","","-1","","","15","6063","1314","&#9826;","elianto","#f73b6a7A","-1","-1","1","-10","[]","0","0","3","","","","","","","",""
"pit-trial","63","548971","0.0-2.0-14.0-4.0","battery-v0.2","","""event"",""trial"",""time""
""focus"",""0"",""1""
""fullscreenenter"",""1"",""4426""
","
","""event"",""trial"",""time""
""focus"",""0"",""1""
","""event"",""trial"",""time""
""fullscreenenter"",""1"",""4426""
","
","","","-1","","","15","6063","1314","&#9826;","elianto","#f73b6a7A","-1","-1","1","0","[]","0","0","3","","","","","","","",""
"pit-trial","64","553847","0.0-2.0-14.1-0.1","battery-v0.2","","""event"",""trial"",""time""
""focus"",""0"",""1""
""fullscreenenter"",""1"",""4426""
","
","""event"",""trial"",""time""
""focus"",""0"",""1""
","""event"",""trial"",""time""
""fullscreenenter"",""1"",""4426""
","
","","","-1","","","15","6063","1314","&#9826;","elianto","#f73b6a7A","-1","-1","1","0","[]","0","0","3","","","","","","","",""
"pit-trial","65","558719","0.0-2.0-14.1-1.1","battery-v0.2","","""event"",""trial"",""time""
""focus"",""0"",""1""
""fullscreenenter"",""1"",""4426""
","
","""event"",""trial"",""time""
""focus"",""0"",""1""
","""event"",""trial"",""time""
""fullscreenenter"",""1"",""4426""
","
","","","-1","","","15","6063","1314","&#9826;","elianto","#f73b6a7A","-1","-1","1","0","[]","0","0","3","","","","","","","",""
"pit-trial","66","563579","0.0-2.0-14.1-2.1","battery-v0.2","","""event"",""trial"",""time""
""focus"",""0"",""1""
""fullscreenenter"",""1"",""4426""
","
","""event"",""trial"",""time""
""focus"",""0"",""1""
","""event"",""trial"",""time""
""fullscreenenter"",""1"",""4426""
","
","","","-1","","","15","6063","1314","&#9826;","elianto","#f73b6a7A","-1","-1","1","0","[]","0","0","3","","","","","","","",""
"pit-trial","67","568454","0.0-2.0-14.1-3.1","battery-v0.2","","""event"",""trial"",""time""
""focus"",""0"",""1""
""fullscreenenter"",""1"",""4426""
","
","""event"",""trial"",""time""
""focus"",""0"",""1""
","""event"",""trial"",""time""
""fullscreenenter"",""1"",""4426""
","
","","","-1","","","15","6063","1314","&#9826;","elianto","#f73b6a7A","-1","-1","1","-10","[]","0","0","3","","","","","","","",""
"pit-trial","68","573335","0.0-2.0-14.1-4.1","battery-v0.2","","""event"",""trial"",""time""
""focus"",""0"",""1""
""fullscreenenter"",""1"",""4426""
","
","""event"",""trial"",""time""
""focus"",""0"",""1""
","""event"",""trial"",""time""
""fullscreenenter"",""1"",""4426""
","
","","","-1","","","15","6063","1314","&#9826;","elianto","#f73b6a7A","-1","-1","1","0","[]","0","0","3","","","","","","","",""
"pit-trial","69","578213","0.0-2.0-14.2-0.2","battery-v0.2","","""event"",""trial"",""time""
""focus"",""0"",""1""
""fullscreenenter"",""1"",""4426""
","
","""event"",""trial"",""time""
""focus"",""0"",""1""
","""event"",""trial"",""time""
""fullscreenenter"",""1"",""4426""
","
","","","-1","","","15","6063","1314","&#9826;","elianto","#f73b6a7A","-1","-1","1","0","[]","0","0","3","","","","","","","",""
"pit-trial","70","583085","0.0-2.0-14.2-1.2","battery-v0.2","","""event"",""trial"",""time""
""focus"",""0"",""1""
""fullscreenenter"",""1"",""4426""
","
","""event"",""trial"",""time""
""focus"",""0"",""1""
","""event"",""trial"",""time""
""fullscreenenter"",""1"",""4426""
","
","","","-1","","","15","6063","1314","&#9826;","elianto","#f73b6a7A","-1","-1","1","0","[]","0","0","3","","","","","","","",""
"pit-trial","71","587949","0.0-2.0-14.2-2.2","battery-v0.2","","""event"",""trial"",""time""
""focus"",""0"",""1""
""fullscreenenter"",""1"",""4426""
","
","""event"",""trial"",""time""
""focus"",""0"",""1""
","""event"",""trial"",""time""
""fullscreenenter"",""1"",""4426""
","
","","","-1","","","15","6063","1314","&#9826;","elianto","#f73b6a7A","-1","-1","1","0","[]","0","0","3","","","","","","","",""
"pit-trial","72","592809","0.0-2.0-14.2-3.2","battery-v0.2","","""event"",""trial"",""time""
""focus"",""0"",""1""
""fullscreenenter"",""1"",""4426""
","
","""event"",""trial"",""time""
""focus"",""0"",""1""
","""event"",""trial"",""time""
""fullscreenenter"",""1"",""4426""
","
","","","-1","","","15","6063","1314","&#9826;","elianto","#f73b6a7A","-1","-1","1","-10","[]","0","0","3","","","","","","","",""
"pit-trial","73","597678","0.0-2.0-14.2-4.2","battery-v0.2","","""event"",""trial"",""time""
""focus"",""0"",""1""
""fullscreenenter"",""1"",""4426""
","
","""event"",""trial"",""time""
""focus"",""0"",""1""
","""event"",""trial"",""time""
""fullscreenenter"",""1"",""4426""
","
","","","-1","","","15","6063","1314","&#9826;","elianto","#f73b6a7A","-1","-1","1","0","[]","0","0","3","","","","","","","",""
"pit-trial","74","602537","0.0-2.0-14.3-0.3","battery-v0.2","","""event"",""trial"",""time""
""focus"",""0"",""1""
""fullscreenenter"",""1"",""4426""
","
","""event"",""trial"",""time""
""focus"",""0"",""1""
","""event"",""trial"",""time""
""fullscreenenter"",""1"",""4426""
","
","","","-1","","","15","6063","1314","&#9826;","elianto","#f73b6a7A","-1","-1","1","0","[]","0","0","3","","","","","","","",""
"pit-trial","75","607402","0.0-2.0-14.3-1.3","battery-v0.2","","""event"",""trial"",""time""
""focus"",""0"",""1""
""fullscreenenter"",""1"",""4426""
","
","""event"",""trial"",""time""
""focus"",""0"",""1""
","""event"",""trial"",""time""
""fullscreenenter"",""1"",""4426""
","
","","","-1","","","15","6063","1314","&#9826;","elianto","#f73b6a7A","-1","-1","1","0","[]","0","0","3","","","","","","","",""
"pit-trial","76","612275","0.0-2.0-14.3-2.3","battery-v0.2","","""event"",""trial"",""time""
""focus"",""0"",""1""
""fullscreenenter"",""1"",""4426""
","
","""event"",""trial"",""time""
""focus"",""0"",""1""
","""event"",""trial"",""time""
""fullscreenenter"",""1"",""4426""
","
","","","-1","","","15","6063","1314","&#9826;","elianto","#f73b6a7A","-1","-1","1","0","[]","0","0","3","","","","","","","",""
"pit-trial","77","617143","0.0-2.0-14.3-3.3","battery-v0.2","","""event"",""trial"",""time""
""focus"",""0"",""1""
""fullscreenenter"",""1"",""4426""
","
","""event"",""trial"",""time""
""focus"",""0"",""1""
","""event"",""trial"",""time""
""fullscreenenter"",""1"",""4426""
","
","","","-1","","","15","6063","1314","&#9826;","elianto","#f73b6a7A","-1","-1","1","-10","[]","0","0","3","","","","","","","",""
"pit-trial","78","622011","0.0-2.0-14.3-4.3","battery-v0.2","","""event"",""trial"",""time""
""focus"",""0"",""1""
""fullscreenenter"",""1"",""4426""
","
","""event"",""trial"",""time""
""focus"",""0"",""1""
","""event"",""trial"",""time""
""fullscreenenter"",""1"",""4426""
","
","","","-1","","","15","6063","1314","&#9826;","elianto","#f73b6a7A","-1","-1","1","0","[]","0","0","3","","","","","","","",""
"call-function","79","622012","0.0-2.0-15.0","battery-v0.2","","""event"",""trial"",""time""
""focus"",""0"",""1""
""fullscreenenter"",""1"",""4426""
","
","""event"",""trial"",""time""
""focus"",""0"",""1""
","""event"",""trial"",""time""
""fullscreenenter"",""1"",""4426""
","
","","","","","","","","","","","","","","","","","","","","","","","","","","",""
"pit-instructions","80","652036","0.0-2.0-16.0","battery-v0.2","","""event"",""trial"",""time""
""focus"",""0"",""1""
""fullscreenenter"",""1"",""4426""
","
","""event"",""trial"",""time""
""focus"",""0"",""1""
","""event"",""trial"",""time""
""fullscreenenter"",""1"",""4426""
","
","","[{""page_index"":0,""viewing_time"":9184},{""page_index"":1,""viewing_time"":9749},{""page_index"":2,""viewing_time"":5609},{""page_index"":3,""viewing_time"":5481}]","30023","","","","","","","","","","","","","","","","","","","","","","","",""
"pit-trial","81","655378","0.0-2.0-17.0-0.0","battery-v0.2","","""event"",""trial"",""time""
""focus"",""0"",""1""
""fullscreenenter"",""1"",""4426""
","
","""event"",""trial"",""time""
""focus"",""0"",""1""
","""event"",""trial"",""time""
""fullscreenenter"",""1"",""4426""
","
","","","474","","","15","6063","1314","&#9789;","elianto","#f73b6a7A"," "," ","1","0","[1333]","1","0","4","","","","","","","",""
"pit-trial","82","659047","0.0-2.0-17.0-1.0","battery-v0.2","","""event"",""trial"",""time""
""focus"",""0"",""1""
""fullscreenenter"",""1"",""4426""
","
","""event"",""trial"",""time""
""focus"",""0"",""1""
","""event"",""trial"",""time""
""fullscreenenter"",""1"",""4426""
","
","","","796","","","15","6063","1314","&#9789;","elianto","#f73b6a7A"," "," ","1","0","[1653]","1","0","4","","","","","","","",""
"pit-trial","83","662852","0.0-2.0-17.0-2.0","battery-v0.2","","""event"",""trial"",""time""
""focus"",""0"",""1""
""fullscreenenter"",""1"",""4426""
","
","""event"",""trial"",""time""
""focus"",""0"",""1""
","""event"",""trial"",""time""
""fullscreenenter"",""1"",""4426""
","
","","","930","","","15","6063","1314","&#9789;","elianto","#f73b6a7A"," "," ","1","0","[1792]","1","0","4","","","","","","","",""
"pit-trial","84","666052","0.0-2.0-17.0-3.0","battery-v0.2","","""event"",""trial"",""time""
""focus"",""0"",""1""
""fullscreenenter"",""1"",""4426""
","
","""event"",""trial"",""time""
""focus"",""0"",""1""
","""event"",""trial"",""time""
""fullscreenenter"",""1"",""4426""
","
","","","342","","","15","6063","1314","&#9789;","elianto","#f73b6a7A"," "," ","1","-10","[344,1196]","2","0","4","","","","","","","",""
"pit-trial","85","669643","0.0-2.0-17.0-4.0","battery-v0.2","","""event"",""trial"",""time""
""focus"",""0"",""1""
""fullscreenenter"",""1"",""4426""
","
","""event"",""trial"",""time""
""focus"",""0"",""1""
","""event"",""trial"",""time""
""fullscreenenter"",""1"",""4426""
","
","","","714","","","15","6063","1314","&#9789;","elianto","#f73b6a7A"," "," ","1","0","[1577]","1","0","4","","","","","","","",""
"pit-trial","86","673112","0.0-2.0-17.1-0.1","battery-v0.2","","""event"",""trial"",""time""
""focus"",""0"",""1""
""fullscreenenter"",""1"",""4426""
","
","""event"",""trial"",""time""
""focus"",""0"",""1""
","""event"",""trial"",""time""
""fullscreenenter"",""1"",""4426""
","
","","","596","","","15","6063","1314","&#9789;","elianto","#f73b6a7A"," "," ","1","0","[1459]","1","0","4","","","","","","","",""
"pit-trial","87","676549","0.0-2.0-17.1-1.1","battery-v0.2","","""event"",""trial"",""time""
""focus"",""0"",""1""
""fullscreenenter"",""1"",""4426""
","
","""event"",""trial"",""time""
""focus"",""0"",""1""
","""event"",""trial"",""time""
""fullscreenenter"",""1"",""4426""
","
","","","570","","","15","6063","1314","&#9789;","elianto","#f73b6a7A"," "," ","1","0","[1428]","1","0","4","","","","","","","",""
"pit-trial","88","680030","0.0-2.0-17.1-2.1","battery-v0.2","","""event"",""trial"",""time""
""focus"",""0"",""1""
""fullscreenenter"",""1"",""4426""
","
","""event"",""trial"",""time""
""focus"",""0"",""1""
","""event"",""trial"",""time""
""fullscreenenter"",""1"",""4426""
","
","","","622","","","15","6063","1314","&#9789;","elianto","#f73b6a7A"," "," ","1","0","[1474]","1","0","4","","","","","","","",""
"pit-trial","89","683632","0.0-2.0-17.1-3.1","battery-v0.2","","""event"",""trial"",""time""
""focus"",""0"",""1""
""fullscreenenter"",""1"",""4426""
","
","""event"",""trial"",""time""
""focus"",""0"",""1""
","""event"",""trial"",""time""
""fullscreenenter"",""1"",""4426""
","
","","","736","","","15","6063","1314","&#9789;","elianto","#f73b6a7A"," "," ","1","-10","[1593]","1","0","4","","","","","","","",""
"pit-trial","90","687088","0.0-2.0-17.1-4.1","battery-v0.2","","""event"",""trial"",""time""
""focus"",""0"",""1""
""fullscreenenter"",""1"",""4426""
","
","""event"",""trial"",""time""
""focus"",""0"",""1""
","""event"",""trial"",""time""
""fullscreenenter"",""1"",""4426""
","
","","","581","","","15","6063","1314","&#9789;","elianto","#f73b6a7A"," "," ","1","0","[1445]","1","0","4","","","","","","","",""
"pit-trial","91","690489","0.0-2.0-17.2-0.2","battery-v0.2","","""event"",""trial"",""time""
""focus"",""0"",""1""
""fullscreenenter"",""1"",""4426""
","
","""event"",""trial"",""time""
""focus"",""0"",""1""
","""event"",""trial"",""time""
""fullscreenenter"",""1"",""4426""
","
","","","537","","","15","6063","1314","&#9789;","elianto","#f73b6a7A"," "," ","1","0","[1394]","1","0","4","","","","","","","",""
"pit-trial","92","693908","0.0-2.0-17.2-1.2","battery-v0.2","","""event"",""trial"",""time""
""focus"",""0"",""1""
""fullscreenenter"",""1"",""4426""
","
","""event"",""trial"",""time""
""focus"",""0"",""1""
","""event"",""trial"",""time""
""fullscreenenter"",""1"",""4426""
","
","","","556","","","15","6063","1314","&#9789;","elianto","#f73b6a7A"," "," ","1","0","[1416]","1","0","4","","","","","","","",""
"pit-trial","93","697553","0.0-2.0-17.2-2.2","battery-v0.2","","""event"",""trial"",""time""
""focus"",""0"",""1""
""fullscreenenter"",""1"",""4426""
","
","""event"",""trial"",""time""
""focus"",""0"",""1""
","""event"",""trial"",""time""
""fullscreenenter"",""1"",""4426""
","
","","","781","","","15","6063","1314","&#9789;","elianto","#f73b6a7A"," "," ","1","0","[1642]","1","0","4","","","","","","","",""
"pit-trial","94","701138","0.0-2.0-17.2-3.2","battery-v0.2","","""event"",""trial"",""time""
""focus"",""0"",""1""
""fullscreenenter"",""1"",""4426""
","
","""event"",""trial"",""time""
""focus"",""0"",""1""
","""event"",""trial"",""time""
""fullscreenenter"",""1"",""4426""
","
","","","715","","","15","6063","1314","&#9789;","elianto","#f73b6a7A"," "," ","1","-10","[1575]","1","0","4","","","","","","","",""
"pit-trial","95","704575","0.0-2.0-17.2-4.2","battery-v0.2","","""event"",""trial"",""time""
""focus"",""0"",""1""
""fullscreenenter"",""1"",""4426""
","
","""event"",""trial"",""time""
""focus"",""0"",""1""
","""event"",""trial"",""time""
""fullscreenenter"",""1"",""4426""
","
","","","571","","","15","6063","1314","&#9789;","elianto","#f73b6a7A"," "," ","1","0","[1429]","1","0","4","","","","","","","",""
"pit-trial","96","707936","0.0-2.0-17.3-0.3","battery-v0.2","","""event"",""trial"",""time""
""focus"",""0"",""1""
""fullscreenenter"",""1"",""4426""
","
","""event"",""trial"",""time""
""focus"",""0"",""1""
","""event"",""trial"",""time""
""fullscreenenter"",""1"",""4426""
","
","","","501","","","15","6063","1314","&#9789;","elianto","#f73b6a7A"," "," ","1","0","[1355]","1","0","4","","","","","","","",""
"pit-trial","97","711528","0.0-2.0-17.3-1.3","battery-v0.2","","""event"",""trial"",""time""
""focus"",""0"",""1""
""fullscreenenter"",""1"",""4426""
","
","""event"",""trial"",""time""
""focus"",""0"",""1""
","""event"",""trial"",""time""
""fullscreenenter"",""1"",""4426""
","
","","","720","","","15","6063","1314","&#9789;","elianto","#f73b6a7A"," "," ","1","0","[1578]","1","0","4","","","","","","","",""
"pit-trial","98","714999","0.0-2.0-17.3-2.3","battery-v0.2","","""event"",""trial"",""time""
""focus"",""0"",""1""
""fullscreenenter"",""1"",""4426""
","
","""event"",""trial"",""time""
""focus"",""0"",""1""
","""event"",""trial"",""time""
""fullscreenenter"",""1"",""4426""
","
","","","611","","","15","6063","1314","&#9789;","elianto","#f73b6a7A"," "," ","1","0","[1466]","1","0","4","","","","","","","",""
"pit-trial","99","718433","0.0-2.0-17.3-3.3","battery-v0.2","","""event"",""trial"",""time""
""focus"",""0"",""1""
""fullscreenenter"",""1"",""4426""
","
","""event"",""trial"",""time""
""focus"",""0"",""1""
","""event"",""trial"",""time""
""fullscreenenter"",""1"",""4426""
","
","","","561","","","15","6063","1314","&#9789;","elianto","#f73b6a7A"," "," ","1","-10","[1417]","1","0","4","","","","","","","",""
"pit-trial","100","722192","0.0-2.0-17.3-4.3","battery-v0.2","","""event"",""trial"",""time""
""focus"",""0"",""1""
""fullscreenenter"",""1"",""4426""
","
","""event"",""trial"",""time""
""focus"",""0"",""1""
","""event"",""trial"",""time""
""fullscreenenter"",""1"",""4426""
","
","","","898","","","15","6063","1314","&#9789;","elianto","#f73b6a7A"," "," ","1","0","[1758]","1","0","4","","","","","","","",""
"call-function","101","722194","0.0-2.0-18.0","battery-v0.2","","""event"",""trial"",""time""
""focus"",""0"",""1""
""fullscreenenter"",""1"",""4426""
","
","""event"",""trial"",""time""
""focus"",""0"",""1""
","""event"",""trial"",""time""
""fullscreenenter"",""1"",""4426""
","
","","","","","","","","","","","","","","","","","","","","","","","","","","",""
"pit-instructions","102","777918","0.0-2.0-19.0","battery-v0.2","","""event"",""trial"",""time""
""focus"",""0"",""1""
""fullscreenenter"",""1"",""4426""
","
","""event"",""trial"",""time""
""focus"",""0"",""1""
","""event"",""trial"",""time""
""fullscreenenter"",""1"",""4426""
","
","","[{""page_index"":0,""viewing_time"":8486},{""page_index"":1,""viewing_time"":4051},{""page_index"":2,""viewing_time"":8034},{""page_index"":3,""viewing_time"":7094},{""page_index"":4,""viewing_time"":7156},{""page_index"":5,""viewing_time"":8025},{""page_index"":6,""viewing_time"":4856},{""page_index"":7,""viewing_time"":4331},{""page_index"":8,""viewing_time"":3689}]","55722","","","","","","","","","","","","","","","","","","","","","","","",""
"pit-comprehension","103","782462","0.0-2.0-20.0-0.0","battery-v0.2","","""event"",""trial"",""time""
""focus"",""0"",""1""
""fullscreenenter"",""1"",""4426""
","
","""event"",""trial"",""time""
""focus"",""0"",""1""
","""event"",""trial"",""time""
""fullscreenenter"",""1"",""4426""
","
","","","4538","[""SPACE""]","0","15","6063","1314","","","","","","","","","","","","","","","","","","",""
"pit-instructions","104","788593","0.0-2.0-20.0-1.0","battery-v0.2","","""event"",""trial"",""time""
""focus"",""0"",""1""
""fullscreenenter"",""1"",""4426""
","
","""event"",""trial"",""time""
""focus"",""0"",""1""
","""event"",""trial"",""time""
""fullscreenenter"",""1"",""4426""
","
","","[{""page_index"":0,""viewing_time"":6076}]","6078","","","","","","","","","","","","","","","","","","","","","","","",""
"pit-comprehension","105","794216","0.0-2.0-21.0-0.0","battery-v0.2","","""event"",""trial"",""time""
""focus"",""0"",""1""
""fullscreenenter"",""1"",""4426""
","
","""event"",""trial"",""time""
""focus"",""0"",""1""
","""event"",""trial"",""time""
""fullscreenenter"",""1"",""4426""
","
","","","5617","[""10""]","0","15","6063","1314","","","","","","","","","","","","","","","","","","",""
"pit-instructions","106","795895","0.0-2.0-21.0-1.0","battery-v0.2","","""event"",""trial"",""time""
""focus"",""0"",""1""
""fullscreenenter"",""1"",""4426""
","
","""event"",""trial"",""time""
""focus"",""0"",""1""
","""event"",""trial"",""time""
""fullscreenenter"",""1"",""4426""
","
","","[{""page_index"":0,""viewing_time"":1645}]","1645","","","","","","","","","","","","","","","","","","","","","","","",""
"pit-comprehension","107","802124","0.0-2.0-22.0-0.0","battery-v0.2","","""event"",""trial"",""time""
""focus"",""0"",""1""
""fullscreenenter"",""1"",""4426""
","
","""event"",""trial"",""time""
""focus"",""0"",""1""
","""event"",""trial"",""time""
""fullscreenenter"",""1"",""4426""
","
","","","6225","[""0""]","0","15","6063","1314","","","","","","","","","","","","","","","","","","",""
"pit-instructions","108","804075","0.0-2.0-22.0-1.0","battery-v0.2","","""event"",""trial"",""time""
""focus"",""0"",""1""
""fullscreenenter"",""1"",""4426""
","
","""event"",""trial"",""time""
""focus"",""0"",""1""
","""event"",""trial"",""time""
""fullscreenenter"",""1"",""4426""
","
","","[{""page_index"":0,""viewing_time"":1913}]","1913","","","","","","","","","","","","","","","","","","","","","","","",""
"pit-comprehension","109","813494","0.0-2.0-23.0-0.0","battery-v0.2","","""event"",""trial"",""time""
""focus"",""0"",""1""
""fullscreenenter"",""1"",""4426""
","
","""event"",""trial"",""time""
""focus"",""0"",""1""
","""event"",""trial"",""time""
""fullscreenenter"",""1"",""4426""
","
","","","9418","[""True""]","0","15","6063","1314","","","","","","","","","","","","","","","","","","",""
"pit-instructions","110","815022","0.0-2.0-23.0-1.0","battery-v0.2","","""event"",""trial"",""time""
""focus"",""0"",""1""
""fullscreenenter"",""1"",""4426""
","
","""event"",""trial"",""time""
""focus"",""0"",""1""
","""event"",""trial"",""time""
""fullscreenenter"",""1"",""4426""
","
","","[{""page_index"":0,""viewing_time"":1490}]","1490","","","","","","","","","","","","","","","","","","","","","","","",""
"pit-comprehension","111","822477","0.0-2.0-24.0-0.0","battery-v0.2","","""event"",""trial"",""time""
""focus"",""0"",""1""
""fullscreenenter"",""1"",""4426""
","
","""event"",""trial"",""time""
""focus"",""0"",""1""
","""event"",""trial"",""time""
""fullscreenenter"",""1"",""4426""
","
","","","7452","[""True""]","0","15","6063","1314","","","","","","","","","","","","","","","","","","",""
"pit-instructions","112","825198","0.0-2.0-24.0-1.0","battery-v0.2","","""event"",""trial"",""time""
""focus"",""0"",""1""
""fullscreenenter"",""1"",""4426""
","
","""event"",""trial"",""time""
""focus"",""0"",""1""
","""event"",""trial"",""time""
""fullscreenenter"",""1"",""4426""
","
","","[{""page_index"":0,""viewing_time"":2685}]","2685","","","","","","","","","","","","","","","","","","","","","","","",""
"pit-comprehension","113","831632","0.0-2.0-25.0-0.0","battery-v0.2","","""event"",""trial"",""time""
""focus"",""0"",""1""
""fullscreenenter"",""1"",""4426""
","
","""event"",""trial"",""time""
""focus"",""0"",""1""
","""event"",""trial"",""time""
""fullscreenenter"",""1"",""4426""
","
","","","6430","[""True""]","0","15","6063","1314","","","","","","","","","","","","","","","","","","",""
"pit-instructions","114","833254","0.0-2.0-25.0-1.0","battery-v0.2","","""event"",""trial"",""time""
""focus"",""0"",""1""
""fullscreenenter"",""1"",""4426""
","
","""event"",""trial"",""time""
""focus"",""0"",""1""
","""event"",""trial"",""time""
""fullscreenenter"",""1"",""4426""
","
","","[{""page_index"":0,""viewing_time"":1585}]","1585","","","","","","","","","","","","","","","","","","","","","","","",""
"pit-comprehension","115","838388","0.0-2.0-26.0-0.0","battery-v0.2","","""event"",""trial"",""time""
""focus"",""0"",""1""
""fullscreenenter"",""1"",""4426""
","
","""event"",""trial"",""time""
""focus"",""0"",""1""
","""event"",""trial"",""time""
""fullscreenenter"",""1"",""4426""
","
","","","5129","[""False""]","0","15","6063","1314","","","","","","","","","","","","","","","","","","",""
"pit-instructions","116","839591","0.0-2.0-26.0-1.0","battery-v0.2","","""event"",""trial"",""time""
""focus"",""0"",""1""
""fullscreenenter"",""1"",""4426""
","
","""event"",""trial"",""time""
""focus"",""0"",""1""
","""event"",""trial"",""time""
""fullscreenenter"",""1"",""4426""
","
","","[{""page_index"":0,""viewing_time"":1163}]","1163","","","","","","","","","","","","","","","","","","","","","","","",""
"pit-instructions","117","854643","0.0-3.0","battery-v0.2","","""event"",""trial"",""time""
""focus"",""0"",""1""
""fullscreenenter"",""1"",""4426""
","
","""event"",""trial"",""time""
""focus"",""0"",""1""
","""event"",""trial"",""time""
""fullscreenenter"",""1"",""4426""
","
","","[{""page_index"":0,""viewing_time"":3504},{""page_index"":1,""viewing_time"":5348},{""page_index"":2,""viewing_time"":6197}]","15049","","","","","","","","","","","","","","","","","","","","","","","",""
"pit-trial","118","858504","0.0-4.0","battery-v0.2","","""event"",""trial"",""time""
""focus"",""0"",""1""
""fullscreenenter"",""1"",""4426""
","
","""event"",""trial"",""time""
""focus"",""0"",""1""
","""event"",""trial"",""time""
""fullscreenenter"",""1"",""4426""
","
","","","989","","","15","6063","1314","&#9730;","elianto","#3366ff99"," "," ","1","+10","[1842]","1","1","","","6063","1","1","1","win","go","0"
"pit-trial","119","863366","0.0-5.0","battery-v0.2","","""event"",""trial"",""time""
""focus"",""0"",""1""
""fullscreenenter"",""1"",""4426""
","
","""event"",""trial"",""time""
""focus"",""0"",""1""
","""event"",""trial"",""time""
""fullscreenenter"",""1"",""4426""
","
","","","-1","","","15","6063","1314","&#9733;","elianto","#3366ff99","-1","-1","1","0","[]","0","1","","","6063","2","2","2","win","no-go","1"
"pit-trial","120","867648","0.0-6.0","battery-v0.2","","""event"",""trial"",""time""
""focus"",""0"",""1""
""fullscreenenter"",""1"",""4426""
","
","""event"",""trial"",""time""
""focus"",""0"",""1""
","""event"",""trial"",""time""
""fullscreenenter"",""1"",""4426""
","
","","","1407","","","15","6063","1314","&#9752;","elianto","#f73b6a7A"," "," ","1","0","[2271]","1","1","","","6063","3","3","3","lose","go","0"
"pit-trial","121","872094","0.0-7.0","battery-v0.2","","""event"",""trial"",""time""
""focus"",""0"",""1""
""fullscreenenter"",""1"",""4426""
","
","""event"",""trial"",""time""
""focus"",""0"",""1""
","""event"",""trial"",""time""
""fullscreenenter"",""1"",""4426""
","
","","","1588","","","15","6063","1314","&#9728;","elianto","#f73b6a7A","-1"," ","0","-10","[2439]","1","1","","","6063","4","0","4","lose","no-go","0"
"pit-trial","122","876179","0.0-8.0","battery-v0.2","","""event"",""trial"",""time""
""focus"",""0"",""1""
""fullscreenenter"",""1"",""4426""
","
","""event"",""trial"",""time""
""focus"",""0"",""1""
","""event"",""trial"",""time""
""fullscreenenter"",""1"",""4426""
","
","","","1228","","","15","6063","1314","&#9733;","elianto","#3366ff99","-1"," ","0","0","[2079]","1","1","","","6063","5","2","2","win","no-go","0"
"pit-trial","123","881043","0.0-9.0","battery-v0.2","","""event"",""trial"",""time""
""focus"",""0"",""1""
""fullscreenenter"",""1"",""4426""
","
","""event"",""trial"",""time""
""focus"",""0"",""1""
","""event"",""trial"",""time""
""fullscreenenter"",""1"",""4426""
","
","","","-1","","","15","6063","1314","&#9728;","elianto","#f73b6a7A","-1","-1","1","-10","[]","0","1","","","6063","6","0","4","lose","no-go","1"
"pit-trial","124","884781","0.0-10.0","battery-v0.2","","""event"",""trial"",""time""
""focus"",""0"",""1""
""fullscreenenter"",""1"",""4426""
","
","""event"",""trial"",""time""
""focus"",""0"",""1""
","""event"",""trial"",""time""
""fullscreenenter"",""1"",""4426""
","
","","","882","","","15","6063","1314","&#9730;","elianto","#3366ff99"," "," ","1","+10","[1733]","1","1","","","6063","7","1","1","win","go","0"
"pit-trial","125","888355","0.0-11.0","battery-v0.2","","""event"",""trial"",""time""
""focus"",""0"",""1""
""fullscreenenter"",""1"",""4426""
","
","""event"",""trial"",""time""
""focus"",""0"",""1""
","""event"",""trial"",""time""
""fullscreenenter"",""1"",""4426""
","
","","","706","","","15","6063","1314","&#9752;","elianto","#f73b6a7A"," "," ","1","0","[1567]","1","1","","","6063","8","3","3","lose","go","0"
"pit-trial","126","893229","0.0-12.0","battery-v0.2","","""event"",""trial"",""time""
""focus"",""0"",""1""
""fullscreenenter"",""1"",""4426""
","
","""event"",""trial"",""time""
""focus"",""0"",""1""
","""event"",""trial"",""time""
""fullscreenenter"",""1"",""4426""
","
","","","-1","","","15","6063","1314","&#9733;","elianto","#3366ff99","-1","-1","1","0","[]","0","1","","","6063","9","2","2","win","no-go","1"
"pit-trial","127","898105","0.0-13.0","battery-v0.2","","""event"",""trial"",""time""
""focus"",""0"",""1""
""fullscreenenter"",""1"",""4426""
","
","""event"",""trial"",""time""
""focus"",""0"",""1""
","""event"",""trial"",""time""
""fullscreenenter"",""1"",""4426""
","
","","","-1","","","15","6063","1314","&#9728;","elianto","#f73b6a7A","-1","-1","1","-10","[]","0","1","","","6063","10","0","4","lose","no-go","1"
"pit-trial","128","901768","0.0-14.0","battery-v0.2","","""event"",""trial"",""time""
""focus"",""0"",""1""
""fullscreenenter"",""1"",""4426""
","
","""event"",""trial"",""time""
""focus"",""0"",""1""
","""event"",""trial"",""time""
""fullscreenenter"",""1"",""4426""
","
","","","793","","","15","6063","1314","&#9752;","elianto","#f73b6a7A"," "," ","1","0","[1656]","1","1","","","6063","11","3","3","lose","go","0"
"pit-trial","129","905316","0.0-15.0","battery-v0.2","","""event"",""trial"",""time""
""focus"",""0"",""1""
""fullscreenenter"",""1"",""4426""
","
","""event"",""trial"",""time""
""focus"",""0"",""1""
","""event"",""trial"",""time""
""fullscreenenter"",""1"",""4426""
","
","","","682","","","15","6063","1314","&#9730;","elianto","#3366ff99"," "," ","1","+10","[1537]","1","1","","","6063","12","1","1","win","go","0"
"pit-trial","130","909028","0.0-16.0","battery-v0.2","","""event"",""trial"",""time""
""focus"",""0"",""1""
""fullscreenenter"",""1"",""4426""
","
","""event"",""trial"",""time""
""focus"",""0"",""1""
","""event"",""trial"",""time""
""fullscreenenter"",""1"",""4426""
","
","","","848","","","15","6063","1314","&#9752;","elianto","#f73b6a7A"," "," ","1","-10","[1699]","1","1","","","6063","13","3","3","lose","go","1"
"pit-trial","131","912647","0.0-17.0","battery-v0.2","","""event"",""trial"",""time""
""focus"",""0"",""1""
""fullscreenenter"",""1"",""4426""
","
","""event"",""trial"",""time""
""focus"",""0"",""1""
","""event"",""trial"",""time""
""fullscreenenter"",""1"",""4426""
","
","","","763","","","15","6063","1314","&#9730;","elianto","#3366ff99"," "," ","1","+10","[1614]","1","1","","","6063","14","1","1","win","go","0"
"pit-trial","132","916217","0.0-18.0","battery-v0.2","","""event"",""trial"",""time""
""focus"",""0"",""1""
""fullscreenenter"",""1"",""4426""
","
","""event"",""trial"",""time""
""focus"",""0"",""1""
","""event"",""trial"",""time""
""fullscreenenter"",""1"",""4426""
","
","","","704","","","15","6063","1314","&#9733;","elianto","#3366ff99","-1"," ","0","0","[1565]","1","1","","","6063","15","2","2","win","no-go","0"
"pit-trial","133","920004","0.0-19.0","battery-v0.2","","""event"",""trial"",""time""
""focus"",""0"",""1""
""fullscreenenter"",""1"",""4426""
","
","""event"",""trial"",""time""
""focus"",""0"",""1""
","""event"",""trial"",""time""
""fullscreenenter"",""1"",""4426""
","
","","","911","","","15","6063","1314","&#9728;","elianto","#f73b6a7A","-1"," ","0","-10","[1774]","1","1","","","6063","16","0","4","lose","no-go","0"
"pit-trial","134","923967","0.0-20.0","battery-v0.2","","""event"",""trial"",""time""
""focus"",""0"",""1""
""fullscreenenter"",""1"",""4426""
","
","""event"",""trial"",""time""
""focus"",""0"",""1""
","""event"",""trial"",""time""
""fullscreenenter"",""1"",""4426""
","
","","","1098","","","15","6063","1314","&#9733;","elianto","#3366ff99","-1"," ","0","0","[1956]","1","1","","","6063","17","2","2","win","no-go","0"
"pit-trial","135","927622","0.0-21.0","battery-v0.2","","""event"",""trial"",""time""
""focus"",""0"",""1""
""fullscreenenter"",""1"",""4426""
","
","""event"",""trial"",""time""
""focus"",""0"",""1""
","""event"",""trial"",""time""
""fullscreenenter"",""1"",""4426""
","
","","","791","","","15","6063","1314","&#9752;","elianto","#f73b6a7A"," "," ","1","0","[1643]","1","1","","","6063","18","3","3","lose","go","0"
"pit-trial","136","932498","0.0-22.0","battery-v0.2","","""event"",""trial"",""time""
""focus"",""0"",""1""
""fullscreenenter"",""1"",""4426""
","
","""event"",""trial"",""time""
""focus"",""0"",""1""
","""event"",""trial"",""time""
""fullscreenenter"",""1"",""4426""
","
","","","-1","","","15","6063","1314","&#9728;","elianto","#f73b6a7A","-1","-1","1","0","[]","0","1","","","6063","19","0","4","lose","no-go","0"
"pit-trial","137","936177","0.0-23.0","battery-v0.2","","""event"",""trial"",""time""
""focus"",""0"",""1""
""fullscreenenter"",""1"",""4426""
","
","""event"",""trial"",""time""
""focus"",""0"",""1""
","""event"",""trial"",""time""
""fullscreenenter"",""1"",""4426""
","
","","","809","","","15","6063","1314","&#9730;","elianto","#3366ff99"," "," ","1","+10","[1666]","1","1","","","6063","20","1","1","win","go","0"
"pit-instructions","138","950180","0.0-24.0","battery-v0.2","","""event"",""trial"",""time""
""focus"",""0"",""1""
""fullscreenenter"",""1"",""4426""
","
","""event"",""trial"",""time""
""focus"",""0"",""1""
","""event"",""trial"",""time""
""fullscreenenter"",""1"",""4426""
","
","","[{""page_index"":0,""viewing_time"":6709},{""page_index"":1,""viewing_time"":7291}]","14000","","","","","","","","","","","","","","","","","","","","","","","",""
"pit-trial","139","953836","0.0-25.0","battery-v0.2","","""event"",""trial"",""time""
""focus"",""0"",""1""
""fullscreenenter"",""1"",""4426""
","
","""event"",""trial"",""time""
""focus"",""0"",""1""
","""event"",""trial"",""time""
""fullscreenenter"",""1"",""4426""
","
","","","793","","","15","6063","1314","g","elianto","#f73b6a7A"," "," ","1","-10","[1651]","1","2","","","6063","21","3","3","lose","go","1"
"pit-trial","140","957518","0.0-26.0","battery-v0.2","","""event"",""trial"",""time""
""focus"",""0"",""1""
""fullscreenenter"",""1"",""4426""
","
","""event"",""trial"",""time""
""focus"",""0"",""1""
","""event"",""trial"",""time""
""fullscreenenter"",""1"",""4426""
","
","","","826","","","15","6063","1314","l","elianto","#3366ff99"," "," ","1","+10","[1676]","1","2","","","6063","22","1","1","win","go","0"
"pit-trial","141","961157","0.0-27.0","battery-v0.2","","""event"",""trial"",""time""
""focus"",""0"",""1""
""fullscreenenter"",""1"",""4426""
","
","""event"",""trial"",""time""
""focus"",""0"",""1""
","""event"",""trial"",""time""
""fullscreenenter"",""1"",""4426""
","
","","","777","","","15","6063","1314","u","elianto","#f73b6a7A","-1"," ","0","-10","[1636]","1","2","","","6063","23","0","4","lose","no-go","0"
"pit-trial","142","964827","0.0-28.0","battery-v0.2","","""event"",""trial"",""time""
""focus"",""0"",""1""
""fullscreenenter"",""1"",""4426""
","
","""event"",""trial"",""time""
""focus"",""0"",""1""
","""event"",""trial"",""time""
""fullscreenenter"",""1"",""4426""
","
","","","806","","","15","6063","1314","a","elianto","#f73b6a7A","-1"," ","0","-10","[1659]","1","2","","","6063","24","2","4","lose","no-go","0"
"pit-trial","143","969682","0.0-29.0","battery-v0.2","","""event"",""trial"",""time""
""focus"",""0"",""1""
""fullscreenenter"",""1"",""4426""
","
","""event"",""trial"",""time""
""focus"",""0"",""1""
","""event"",""trial"",""time""
""fullscreenenter"",""1"",""4426""
","
","","","-1","","","15","6063","1314","u","elianto","#f73b6a7A","-1","-1","1","0","[]","0","2","","","6063","25","0","4","lose","no-go","0"
"pit-trial","144","973185","0.0-30.0","battery-v0.2","","""event"",""trial"",""time""
""focus"",""0"",""1""
""fullscreenenter"",""1"",""4426""
","
","""event"",""trial"",""time""
""focus"",""0"",""1""
","""event"",""trial"",""time""
""fullscreenenter"",""1"",""4426""
","
","","","634","","","15","6063","1314","l","elianto","#3366ff99"," "," ","1","+10","[1490]","1","2","","","6063","26","1","1","win","go","0"
"pit-trial","145","978053","0.0-31.0","battery-v0.2","","""event"",""trial"",""time""
""focus"",""0"",""1""
""fullscreenenter"",""1"",""4426""
","
","""event"",""trial"",""time""
""focus"",""0"",""1""
","""event"",""trial"",""time""
""fullscreenenter"",""1"",""4426""
","
","","","-1","","","15","6063","1314","a","elianto","#f73b6a7A","-1","-1","1","0","[]","0","2","","","6063","27","2","4","lose","no-go","0"
"pit-trial","146","982919","0.0-32.0","battery-v0.2","","""event"",""trial"",""time""
""focus"",""0"",""1""
""fullscreenenter"",""1"",""4426""
","
","""event"",""trial"",""time""
""focus"",""0"",""1""
","""event"",""trial"",""time""
""fullscreenenter"",""1"",""4426""
","
","","","-1","","","15","6063","1314","g","elianto","#f73b6a7A"," ","-1","0","-10","[]","0","2","","","6063","28","3","3","lose","go","0"
"pit-trial","147","987792","0.0-33.0","battery-v0.2","","""event"",""trial"",""time""
""focus"",""0"",""1""
""fullscreenenter"",""1"",""4426""
","
","""event"",""trial"",""time""
""focus"",""0"",""1""
","""event"",""trial"",""time""
""fullscreenenter"",""1"",""4426""
","
","","","-1","","","15","6063","1314","g","elianto","#f73b6a7A"," ","-1","0","-10","[]","0","2","","","6063","29","3","3","lose","go","0"
"pit-trial","148","991171","0.0-34.0","battery-v0.2","","""event"",""trial"",""time""
""focus"",""0"",""1""
""fullscreenenter"",""1"",""4426""
","
","""event"",""trial"",""time""
""focus"",""0"",""1""
","""event"",""trial"",""time""
""fullscreenenter"",""1"",""4426""
","
","","","513","","","15","6063","1314","l","elianto","#3366ff99"," "," ","1","+10","[1365]","1","2","","","6063","30","1","1","win","go","0"
"pit-trial","149","996045","0.0-35.0","battery-v0.2","","""event"",""trial"",""time""
""focus"",""0"",""1""
""fullscreenenter"",""1"",""4426""
","
","""event"",""trial"",""time""
""focus"",""0"",""1""
","""event"",""trial"",""time""
""fullscreenenter"",""1"",""4426""
","
","","","-1","","","15","6063","1314","a","elianto","#f73b6a7A","-1","-1","1","0","[]","0","2","","","6063","31","2","4","lose","no-go","0"
"pit-trial","150","1000918","0.0-36.0","battery-v0.2","","""event"",""trial"",""time""
""focus"",""0"",""1""
""fullscreenenter"",""1"",""4426""
","
","""event"",""trial"",""time""
""focus"",""0"",""1""
","""event"",""trial"",""time""
""fullscreenenter"",""1"",""4426""
","
","","","-1","","","15","6063","1314","u","elianto","#f73b6a7A","-1","-1","1","0","[]","0","2","","","6063","32","0","4","lose","no-go","0"
"pit-trial","151","1005779","0.0-37.0","battery-v0.2","","""event"",""trial"",""time""
""focus"",""0"",""1""
""fullscreenenter"",""1"",""4426""
","
","""event"",""trial"",""time""
""focus"",""0"",""1""
","""event"",""trial"",""time""
""fullscreenenter"",""1"",""4426""
","
","","","-1","","","15","6063","1314","u","elianto","#f73b6a7A","-1","-1","1","0","[]","0","2","","","6063","33","0","4","lose","no-go","0"
"pit-trial","152","1010638","0.0-38.0","battery-v0.2","","""event"",""trial"",""time""
""focus"",""0"",""1""
""fullscreenenter"",""1"",""4426""
","
","""event"",""trial"",""time""
""focus"",""0"",""1""
","""event"",""trial"",""time""
""fullscreenenter"",""1"",""4426""
","
","","","-1","","","15","6063","1314","a","elianto","#f73b6a7A","-1","-1","1","0","[]","0","2","","","6063","34","2","4","lose","no-go","0"
"pit-trial","153","1014252","0.0-39.0","battery-v0.2","","""event"",""trial"",""time""
""focus"",""0"",""1""
""fullscreenenter"",""1"",""4426""
","
","""event"",""trial"",""time""
""focus"",""0"",""1""
","""event"",""trial"",""time""
""fullscreenenter"",""1"",""4426""
","
","","","753","","","15","6063","1314","g","elianto","#f73b6a7A"," "," ","1","0","[1605]","1","2","","","6063","35","3","3","lose","go","0"
"pit-trial","154","1017748","0.0-40.0","battery-v0.2","","""event"",""trial"",""time""
""focus"",""0"",""1""
""fullscreenenter"",""1"",""4426""
","
","""event"",""trial"",""time""
""focus"",""0"",""1""
","""event"",""trial"",""time""
""fullscreenenter"",""1"",""4426""
","
","","","636","","","15","6063","1314","l","elianto","#3366ff99"," "," ","1","0","[1488]","1","2","","","6063","36","1","1","win","go","1"
"pit-trial","155","1021281","0.0-41.0","battery-v0.2","","""event"",""trial"",""time""
""focus"",""0"",""1""
""fullscreenenter"",""1"",""4426""
","
","""event"",""trial"",""time""
""focus"",""0"",""1""
","""event"",""trial"",""time""
""fullscreenenter"",""1"",""4426""
","
","","","669","","","15","6063","1314","l","elianto","#3366ff99"," "," ","1","+10","[1526]","1","2","","","6063","37","1","1","win","go","0"
"pit-trial","156","1026142","0.0-42.0","battery-v0.2","","""event"",""trial"",""time""
""focus"",""0"",""1""
""fullscreenenter"",""1"",""4426""
","
","""event"",""trial"",""time""
""focus"",""0"",""1""
","""event"",""trial"",""time""
""fullscreenenter"",""1"",""4426""
","
","","","-1","","","15","6063","1314","u","elianto","#f73b6a7A","-1","-1","1","0","[]","0","2","","","6063","38","0","4","lose","no-go","0"
"pit-trial","157","1031001","0.0-43.0","battery-v0.2","","""event"",""trial"",""time""
""focus"",""0"",""1""
""fullscreenenter"",""1"",""4426""
","
","""event"",""trial"",""time""
""focus"",""0"",""1""
","""event"",""trial"",""time""
""fullscreenenter"",""1"",""4426""
","
","","","-1","","","15","6063","1314","a","elianto","#f73b6a7A","-1","-1","1","0","[]","0","2","","","6063","39","2","4","lose","no-go","0"
"pit-trial","158","1034578","0.0-44.0","battery-v0.2","","""event"",""trial"",""time""
""focus"",""0"",""1""
""fullscreenenter"",""1"",""4426""
","
","""event"",""trial"",""time""
""focus"",""0"",""1""
","""event"",""trial"",""time""
""fullscreenenter"",""1"",""4426""
","
","","","720","","","15","6063","1314","g","elianto","#f73b6a7A"," "," ","1","0","[1573]","1","2","","","6063","40","3","3","lose","go","0"
"pit-trial","159","1038162","0.0-45.0","battery-v0.2","","""event"",""trial"",""time""
""focus"",""0"",""1""
""fullscreenenter"",""1"",""4426""
","
","""event"",""trial"",""time""
""focus"",""0"",""1""
","""event"",""trial"",""time""
""fullscreenenter"",""1"",""4426""
","
","","","717","","","15","6063","1314","g","elianto","#f73b6a7A"," "," ","1","0","[1580]","1","2","","","6063","41","3","3","lose","go","0"
"pit-trial","160","1043028","0.0-46.0","battery-v0.2","","""event"",""trial"",""time""
""focus"",""0"",""1""
""fullscreenenter"",""1"",""4426""
","
","""event"",""trial"",""time""
""focus"",""0"",""1""
","""event"",""trial"",""time""
""fullscreenenter"",""1"",""4426""
","
","","","-1","","","15","6063","1314","a","elianto","#f73b6a7A","-1","-1","1","-10","[]","0","2","","","6063","42","2","4","lose","no-go","1"
"pit-trial","161","1046546","0.0-47.0","battery-v0.2","","""event"",""trial"",""time""
""focus"",""0"",""1""
""fullscreenenter"",""1"",""4426""
","
","""event"",""trial"",""time""
""focus"",""0"",""1""
","""event"",""trial"",""time""
""fullscreenenter"",""1"",""4426""
","
","","","653","","","15","6063","1314","l","elianto","#3366ff99"," "," ","1","0","[1506]","1","2","","","6063","43","1","1","win","go","1"
"pit-trial","162","1051404","0.0-48.0","battery-v0.2","","""event"",""trial"",""time""
""focus"",""0"",""1""
""fullscreenenter"",""1"",""4426""
","
","""event"",""trial"",""time""
""focus"",""0"",""1""
","""event"",""trial"",""time""
""fullscreenenter"",""1"",""4426""
","
","","","-1","","","15","6063","1314","u","elianto","#f73b6a7A","-1","-1","1","-10","[]","0","2","","","6063","44","0","4","lose","no-go","1"
"pit-trial","163","1056268","0.0-49.0","battery-v0.2","","""event"",""trial"",""time""
""focus"",""0"",""1""
""fullscreenenter"",""1"",""4426""
","
","""event"",""trial"",""time""
""focus"",""0"",""1""
","""event"",""trial"",""time""
""fullscreenenter"",""1"",""4426""
","
","","","-1","","","15","6063","1314","a","elianto","#f73b6a7A","-1","-1","1","0","[]","0","2","","","6063","45","2","4","lose","no-go","0"
"pit-trial","164","1060412","0.0-50.0","battery-v0.2","","""event"",""trial"",""time""
""focus"",""0"",""1""
""fullscreenenter"",""1"",""4426""
","
","""event"",""trial"",""time""
""focus"",""0"",""1""
","""event"",""trial"",""time""
""fullscreenenter"",""1"",""4426""
","
","","","1277","","","15","6063","1314","p","elianto","#3366ff99","-1"," ","0","0","[2127]","1","2","","","6063","46","4","2","win","no-go","0"
"pit-trial","165","1065284","0.0-51.0","battery-v0.2","","""event"",""trial"",""time""
""focus"",""0"",""1""
""fullscreenenter"",""1"",""4426""
","
","""event"",""trial"",""time""
""focus"",""0"",""1""
","""event"",""trial"",""time""
""fullscreenenter"",""1"",""4426""
","
","","","-1","","","15","6063","1314","u","elianto","#f73b6a7A","-1","-1","1","0","[]","0","2","","","6063","47","0","4","lose","no-go","0"
"pit-trial","166","1069132","0.0-52.0","battery-v0.2","","""event"",""trial"",""time""
""focus"",""0"",""1""
""fullscreenenter"",""1"",""4426""
","
","""event"",""trial"",""time""
""focus"",""0"",""1""
","""event"",""trial"",""time""
""fullscreenenter"",""1"",""4426""
","
","","","972","","","15","6063","1314","g","elianto","#f73b6a7A"," "," ","1","0","[1835]","1","2","","","6063","48","3","3","lose","go","0"
"pit-trial","167","1074012","0.0-53.0","battery-v0.2","","""event"",""trial"",""time""
""focus"",""0"",""1""
""fullscreenenter"",""1"",""4426""
","
","""event"",""trial"",""time""
""focus"",""0"",""1""
","""event"",""trial"",""time""
""fullscreenenter"",""1"",""4426""
","
","","","-1","","","15","6063","1314","u","elianto","#f73b6a7A","-1","-1","1","0","[]","0","2","","","6063","49","0","4","lose","no-go","0"
"pit-trial","168","1077665","0.0-54.0","battery-v0.2","","""event"",""trial"",""time""
""focus"",""0"",""1""
""fullscreenenter"",""1"",""4426""
","
","""event"",""trial"",""time""
""focus"",""0"",""1""
","""event"",""trial"",""time""
""fullscreenenter"",""1"",""4426""
","
","","","770","","","15","6063","1314","g","elianto","#f73b6a7A"," "," ","1","0","[1635]","1","2","","","6063","50","3","3","lose","go","0"
"pit-trial","169","1081381","0.0-55.0","battery-v0.2","","""event"",""trial"",""time""
""focus"",""0"",""1""
""fullscreenenter"",""1"",""4426""
","
","""event"",""trial"",""time""
""focus"",""0"",""1""
","""event"",""trial"",""time""
""fullscreenenter"",""1"",""4426""
","
","","","846","","","15","6063","1314","p","elianto","#3366ff99","-1"," ","0","0","[1702]","1","2","","","6063","51","4","2","win","no-go","0"
"pit-trial","170","1084924","0.0-56.0","battery-v0.2","","""event"",""trial"",""time""
""focus"",""0"",""1""
""fullscreenenter"",""1"",""4426""
","
","""event"",""trial"",""time""
""focus"",""0"",""1""
","""event"",""trial"",""time""
""fullscreenenter"",""1"",""4426""
","
","","","675","","","15","6063","1314","l","elianto","#3366ff99"," "," ","1","0","[1536]","1","2","","","6063","52","1","1","win","go","1"
"pit-trial","171","1089792","0.0-57.0","battery-v0.2","","""event"",""trial"",""time""
""focus"",""0"",""1""
""fullscreenenter"",""1"",""4426""
","
","""event"",""trial"",""time""
""focus"",""0"",""1""
","""event"",""trial"",""time""
""fullscreenenter"",""1"",""4426""
","
","","","-1","","","15","6063","1314","u","elianto","#f73b6a7A","-1","-1","1","0","[]","0","2","","","6063","53","0","4","lose","no-go","0"
"pit-trial","172","1094651","0.0-58.0","battery-v0.2","","""event"",""trial"",""time""
""focus"",""0"",""1""
""fullscreenenter"",""1"",""4426""
","
","""event"",""trial"",""time""
""focus"",""0"",""1""
","""event"",""trial"",""time""
""fullscreenenter"",""1"",""4426""
","
","","","-1","","","15","6063","1314","p","elianto","#3366ff99","-1","-1","1","+10","[]","0","2","","","6063","54","4","2","win","no-go","0"
"pit-trial","173","1099508","0.0-59.0","battery-v0.2","","""event"",""trial"",""time""
""focus"",""0"",""1""
""fullscreenenter"",""1"",""4426""
","
","""event"",""trial"",""time""
""focus"",""0"",""1""
","""event"",""trial"",""time""
""fullscreenenter"",""1"",""4426""
","
","","","-1","","","15","6063","1314","a","elianto","#f73b6a7A","-1","-1","1","-10","[]","0","2","","","6063","55","2","4","lose","no-go","1"
"pit-trial","174","1103081","0.0-60.0","battery-v0.2","","""event"",""trial"",""time""
""focus"",""0"",""1""
""fullscreenenter"",""1"",""4426""
","
","""event"",""trial"",""time""
""focus"",""0"",""1""
","""event"",""trial"",""time""
""fullscreenenter"",""1"",""4426""
","
","","","711","","","15","6063","1314","l","elianto","#3366ff99"," "," ","1","+10","[1565]","1","2","","","6063","56","1","1","win","go","0"
"pit-trial","175","1106676","0.0-61.0","battery-v0.2","","""event"",""trial"",""time""
""focus"",""0"",""1""
""fullscreenenter"",""1"",""4426""
","
","""event"",""trial"",""time""
""focus"",""0"",""1""
","""event"",""trial"",""time""
""fullscreenenter"",""1"",""4426""
","
","","","716","","","15","6063","1314","l","elianto","#3366ff99"," "," ","1","+10","[1577]","1","2","","","6063","57","1","1","win","go","0"
"pit-trial","176","1111541","0.0-62.0","battery-v0.2","","""event"",""trial"",""time""
""focus"",""0"",""1""
""fullscreenenter"",""1"",""4426""
","
","""event"",""trial"",""time""
""focus"",""0"",""1""
","""event"",""trial"",""time""
""fullscreenenter"",""1"",""4426""
","
","","","-1","","","15","6063","1314","u","elianto","#f73b6a7A","-1","-1","1","0","[]","0","2","","","6063","58","0","4","lose","no-go","0"
"pit-trial","177","1116405","0.0-63.0","battery-v0.2","","""event"",""trial"",""time""
""focus"",""0"",""1""
""fullscreenenter"",""1"",""4426""
","
","""event"",""trial"",""time""
""focus"",""0"",""1""
","""event"",""trial"",""time""
""fullscreenenter"",""1"",""4426""
","
","","","-1","","","15","6063","1314","p","elianto","#3366ff99","-1","-1","1","+10","[]","0","2","","","6063","59","4","2","win","no-go","0"
"pit-trial","178","1120288","0.0-64.0","battery-v0.2","","""event"",""trial"",""time""
""focus"",""0"",""1""
""fullscreenenter"",""1"",""4426""
","
","""event"",""trial"",""time""
""focus"",""0"",""1""
","""event"",""trial"",""time""
""fullscreenenter"",""1"",""4426""
","
","","","1012","","","15","6063","1314","g","elianto","#f73b6a7A"," "," ","1","0","[1875]","1","2","","","6063","60","3","3","lose","go","0"
"pit-trial","179","1125158","0.0-65.0","battery-v0.2","","""event"",""trial"",""time""
""focus"",""0"",""1""
""fullscreenenter"",""1"",""4426""
","
","""event"",""trial"",""time""
""focus"",""0"",""1""
","""event"",""trial"",""time""
""fullscreenenter"",""1"",""4426""
","
","","","-1","","","15","6063","1314","p","elianto","#3366ff99","-1","-1","1","+10","[]","0","2","","","6063","61","4","2","win","no-go","0"
"pit-trial","180","1130034","0.0-66.0","battery-v0.2","","""event"",""trial"",""time""
""focus"",""0"",""1""
""fullscreenenter"",""1"",""4426""
","
","""event"",""trial"",""time""
""focus"",""0"",""1""
","""event"",""trial"",""time""
""fullscreenenter"",""1"",""4426""
","
","","","-1","","","15","6063","1314","a","elianto","#f73b6a7A","-1","-1","1","-10","[]","0","2","","","6063","62","2","4","lose","no-go","1"
"pit-trial","181","1133874","0.0-67.0","battery-v0.2","","""event"",""trial"",""time""
""focus"",""0"",""1""
""fullscreenenter"",""1"",""4426""
","
","""event"",""trial"",""time""
""focus"",""0"",""1""
","""event"",""trial"",""time""
""fullscreenenter"",""1"",""4426""
","
","","","975","","","15","6063","1314","g","elianto","#f73b6a7A"," "," ","1","0","[1825]","1","2","","","6063","63","3","3","lose","go","0"
"pit-trial","182","1137511","0.0-68.0","battery-v0.2","","""event"",""trial"",""time""
""focus"",""0"",""1""
""fullscreenenter"",""1"",""4426""
","
","""event"",""trial"",""time""
""focus"",""0"",""1""
","""event"",""trial"",""time""
""fullscreenenter"",""1"",""4426""
","
","","","775","","","15","6063","1314","l","elianto","#3366ff99"," "," ","1","+10","[1629]","1","2","","","6063","64","1","1","win","go","0"
"pit-trial","183","1141174","0.0-69.0","battery-v0.2","","""event"",""trial"",""time""
""focus"",""0"",""1""
""fullscreenenter"",""1"",""4426""
","
","""event"",""trial"",""time""
""focus"",""0"",""1""
","""event"",""trial"",""time""
""fullscreenenter"",""1"",""4426""
","
","","","802","","","15","6063","1314","l","elianto","#3366ff99"," "," ","1","+10","[1659]","1","2","","","6063","65","1","1","win","go","0"
"pit-trial","184","1144832","0.0-70.0","battery-v0.2","","""event"",""trial"",""time""
""focus"",""0"",""1""
""fullscreenenter"",""1"",""4426""
","
","""event"",""trial"",""time""
""focus"",""0"",""1""
","""event"",""trial"",""time""
""fullscreenenter"",""1"",""4426""
","
","","","789","","","15","6063","1314","a","elianto","#f73b6a7A","-1"," ","0","-10","[1645]","1","2","","","6063","66","2","4","lose","no-go","0"
"pit-trial","185","1149713","0.0-71.0","battery-v0.2","","""event"",""trial"",""time""
""focus"",""0"",""1""
""fullscreenenter"",""1"",""4426""
","
","""event"",""trial"",""time""
""focus"",""0"",""1""
","""event"",""trial"",""time""
""fullscreenenter"",""1"",""4426""
","
","","","-1","","","15","6063","1314","p","elianto","#3366ff99","-1","-1","1","0","[]","0","2","","","6063","67","4","2","win","no-go","1"
"pit-trial","186","1153712","0.0-72.0","battery-v0.2","","""event"",""trial"",""time""
""focus"",""0"",""1""
""fullscreenenter"",""1"",""4426""
","
","""event"",""trial"",""time""
""focus"",""0"",""1""
","""event"",""trial"",""time""
""fullscreenenter"",""1"",""4426""
","
","","","1134","","","15","6063","1314","g","elianto","#f73b6a7A"," "," ","1","0","[1992]","1","2","","","6063","68","3","3","lose","go","0"
"pit-trial","187","1158578","0.0-73.0","battery-v0.2","","""event"",""trial"",""time""
""focus"",""0"",""1""
""fullscreenenter"",""1"",""4426""
","
","""event"",""trial"",""time""
""focus"",""0"",""1""
","""event"",""trial"",""time""
""fullscreenenter"",""1"",""4426""
","
","","","-1","","","15","6063","1314","p","elianto","#3366ff99","-1","-1","1","+10","[]","0","2","","","6063","69","4","2","win","no-go","0"
"pit-trial","188","1162532","0.0-74.0","battery-v0.2","","""event"",""trial"",""time""
""focus"",""0"",""1""
""fullscreenenter"",""1"",""4426""
","
","""event"",""trial"",""time""
""focus"",""0"",""1""
","""event"",""trial"",""time""
""fullscreenenter"",""1"",""4426""
","
","","","1081","","","15","6063","1314","g","elianto","#f73b6a7A"," "," ","1","0","[1943]","1","2","","","6063","70","3","3","lose","go","0"
"pit-trial","189","1166644","0.0-75.0","battery-v0.2","","""event"",""trial"",""time""
""focus"",""0"",""1""
""fullscreenenter"",""1"",""4426""
","
","""event"",""trial"",""time""
""focus"",""0"",""1""
","""event"",""trial"",""time""
""fullscreenenter"",""1"",""4426""
","
","","","1252","","","15","6063","1314","s","elianto","#3366ff99"," "," ","1","+10","[2108]","1","2","","","6063","71","5","1","win","go","0"
"pit-trial","190","1170271","0.0-76.0","battery-v0.2","","""event"",""trial"",""time""
""focus"",""0"",""1""
""fullscreenenter"",""1"",""4426""
","
","""event"",""trial"",""time""
""focus"",""0"",""1""
","""event"",""trial"",""time""
""fullscreenenter"",""1"",""4426""
","
","","","757","","","15","6063","1314","l","elianto","#3366ff99"," "," ","1","+10","[1617]","1","2","","","6063","72","1","1","win","go","0"
"pit-trial","191","1174237","0.0-77.0","battery-v0.2","","""event"",""trial"",""time""
""focus"",""0"",""1""
""fullscreenenter"",""1"",""4426""
","
","""event"",""trial"",""time""
""focus"",""0"",""1""
","""event"",""trial"",""time""
""fullscreenenter"",""1"",""4426""
","
","","","1102","","","15","6063","1314","g","elianto","#f73b6a7A"," "," ","1","0","[1960]","1","2","","","6063","73","3","3","lose","go","0"
"pit-trial","192","1177778","0.0-78.0","battery-v0.2","","""event"",""trial"",""time""
""focus"",""0"",""1""
""fullscreenenter"",""1"",""4426""
","
","""event"",""trial"",""time""
""focus"",""0"",""1""
","""event"",""trial"",""time""
""fullscreenenter"",""1"",""4426""
","
","","","674","","","15","6063","1314","l","elianto","#3366ff99"," "," ","1","+10","[1532]","1","2","","","6063","74","1","1","win","go","0"
"pit-trial","193","1182643","0.0-79.0","battery-v0.2","","""event"",""trial"",""time""
""focus"",""0"",""1""
""fullscreenenter"",""1"",""4426""
","
","""event"",""trial"",""time""
""focus"",""0"",""1""
","""event"",""trial"",""time""
""fullscreenenter"",""1"",""4426""
","
","","","-1","","","15","6063","1314","p","elianto","#3366ff99","-1","-1","1","+10","[]","0","2","","","6063","75","4","2","win","no-go","0"
"pit-trial","194","1186688","0.0-80.0","battery-v0.2","","""event"",""trial"",""time""
""focus"",""0"",""1""
""fullscreenenter"",""1"",""4426""
","
","""event"",""trial"",""time""
""focus"",""0"",""1""
","""event"",""trial"",""time""
""fullscreenenter"",""1"",""4426""
","
","","","1178","","","15","6063","1314","s","elianto","#3366ff99"," "," ","1","+10","[2032]","1","2","","","6063","76","5","1","win","go","0"
"pit-trial","195","1190174","0.0-81.0","battery-v0.2","","""event"",""trial"",""time""
""focus"",""0"",""1""
""fullscreenenter"",""1"",""4426""
","
","""event"",""trial"",""time""
""focus"",""0"",""1""
","""event"",""trial"",""time""
""fullscreenenter"",""1"",""4426""
","
","","","607","","","15","6063","1314","s","elianto","#3366ff99"," "," ","1","0","[1476]","1","2","","","6063","77","5","1","win","go","1"
"pit-trial","196","1193972","0.0-82.0","battery-v0.2","","""event"",""trial"",""time""
""focus"",""0"",""1""
""fullscreenenter"",""1"",""4426""
","
","""event"",""trial"",""time""
""focus"",""0"",""1""
","""event"",""trial"",""time""
""fullscreenenter"",""1"",""4426""
","
","","","929","","","15","6063","1314","g","elianto","#f73b6a7A"," "," ","1","0","[1792]","1","2","","","6063","78","3","3","lose","go","0"
"pit-trial","197","1198832","0.0-83.0","battery-v0.2","","""event"",""trial"",""time""
""focus"",""0"",""1""
""fullscreenenter"",""1"",""4426""
","
","""event"",""trial"",""time""
""focus"",""0"",""1""
","""event"",""trial"",""time""
""fullscreenenter"",""1"",""4426""
","
","","","-1","","","15","6063","1314","p","elianto","#3366ff99","-1","-1","1","+10","[]","0","2","","","6063","79","4","2","win","no-go","0"
"pit-trial","198","1202722","0.0-84.0","battery-v0.2","","""event"",""trial"",""time""
""focus"",""0"",""1""
""fullscreenenter"",""1"",""4426""
","
","""event"",""trial"",""time""
""focus"",""0"",""1""
","""event"",""trial"",""time""
""fullscreenenter"",""1"",""4426""
","
","","","1013","","","15","6063","1314","w","elianto","#f73b6a7A","-1"," ","0","-10","[1874]","1","2","","","6063","80","6","4","lose","no-go","0"
"pit-trial","199","1207588","0.0-85.0","battery-v0.2","","""event"",""trial"",""time""
""focus"",""0"",""1""
""fullscreenenter"",""1"",""4426""
","
","""event"",""trial"",""time""
""focus"",""0"",""1""
","""event"",""trial"",""time""
""fullscreenenter"",""1"",""4426""
","
","","","-1","","","15","6063","1314","p","elianto","#3366ff99","-1","-1","1","0","[]","0","2","","","6063","81","4","2","win","no-go","1"
"pit-trial","200","1211578","0.0-86.0","battery-v0.2","","""event"",""trial"",""time""
""focus"",""0"",""1""
""fullscreenenter"",""1"",""4426""
","
","""event"",""trial"",""time""
""focus"",""0"",""1""
","""event"",""trial"",""time""
""fullscreenenter"",""1"",""4426""
","
","","","1112","","","15","6063","1314","s","elianto","#3366ff99"," "," ","1","+10","[1975]","1","2","","","6063","82","5","1","win","go","0"
"pit-trial","201","1215533","0.0-87.0","battery-v0.2","","""event"",""trial"",""time""
""focus"",""0"",""1""
""fullscreenenter"",""1"",""4426""
","
","""event"",""trial"",""time""
""focus"",""0"",""1""
","""event"",""trial"",""time""
""fullscreenenter"",""1"",""4426""
","
","","","1082","","","15","6063","1314","e","elianto","#f73b6a7A"," "," ","1","0","[1943]","1","2","","","6063","83","7","3","lose","go","0"
"pit-trial","202","1220397","0.0-88.0","battery-v0.2","","""event"",""trial"",""time""
""focus"",""0"",""1""
""fullscreenenter"",""1"",""4426""
","
","""event"",""trial"",""time""
""focus"",""0"",""1""
","""event"",""trial"",""time""
""fullscreenenter"",""1"",""4426""
","
","","","-1","","","15","6063","1314","w","elianto","#f73b6a7A","-1","-1","1","0","[]","0","2","","","6063","84","6","4","lose","no-go","0"
"pit-trial","203","1225274","0.0-89.0","battery-v0.2","","""event"",""trial"",""time""
""focus"",""0"",""1""
""fullscreenenter"",""1"",""4426""
","
","""event"",""trial"",""time""
""focus"",""0"",""1""
","""event"",""trial"",""time""
""fullscreenenter"",""1"",""4426""
","
","","","-1","","","15","6063","1314","w","elianto","#f73b6a7A","-1","-1","1","0","[]","0","2","","","6063","85","6","4","lose","no-go","0"
"pit-trial","204","1229231","0.0-90.0","battery-v0.2","","""event"",""trial"",""time""
""focus"",""0"",""1""
""fullscreenenter"",""1"",""4426""
","
","""event"",""trial"",""time""
""focus"",""0"",""1""
","""event"",""trial"",""time""
""fullscreenenter"",""1"",""4426""
","
","","","1092","","","15","6063","1314","e","elianto","#f73b6a7A"," "," ","1","0","[1948]","1","2","","","6063","86","7","3","lose","go","0"
"pit-trial","205","1234092","0.0-91.0","battery-v0.2","","""event"",""trial"",""time""
""focus"",""0"",""1""
""fullscreenenter"",""1"",""4426""
","
","""event"",""trial"",""time""
""focus"",""0"",""1""
","""event"",""trial"",""time""
""fullscreenenter"",""1"",""4426""
","
","","","-1","","","15","6063","1314","p","elianto","#3366ff99","-1","-1","1","0","[]","0","2","","","6063","87","4","2","win","no-go","1"
"pit-trial","206","1237969","0.0-92.0","battery-v0.2","","""event"",""trial"",""time""
""focus"",""0"",""1""
""fullscreenenter"",""1"",""4426""
","
","""event"",""trial"",""time""
""focus"",""0"",""1""
","""event"",""trial"",""time""
""fullscreenenter"",""1"",""4426""
","
","","","1004","","","15","6063","1314","s","elianto","#3366ff99"," "," ","1","+10","[1861]","1","2","","","6063","88","5","1","win","go","0"
"pit-trial","207","1242825","0.0-93.0","battery-v0.2","","""event"",""trial"",""time""
""focus"",""0"",""1""
""fullscreenenter"",""1"",""4426""
","
","""event"",""trial"",""time""
""focus"",""0"",""1""
","""event"",""trial"",""time""
""fullscreenenter"",""1"",""4426""
","
","","","-1","","","15","6063","1314","e","elianto","#f73b6a7A"," ","-1","0","-10","[]","0","2","","","6063","89","7","3","lose","go","0"
"pit-trial","208","1247680","0.0-94.0","battery-v0.2","","""event"",""trial"",""time""
""focus"",""0"",""1""
""fullscreenenter"",""1"",""4426""
","
","""event"",""trial"",""time""
""focus"",""0"",""1""
","""event"",""trial"",""time""
""fullscreenenter"",""1"",""4426""
","
","","","-1","","","15","6063","1314","p","elianto","#3366ff99","-1","-1","1","+10","[]","0","2","","","6063","90","4","2","win","no-go","0"
"pit-trial","209","1251471","0.0-95.0","battery-v0.2","","""event"",""trial"",""time""
""focus"",""0"",""1""
""fullscreenenter"",""1"",""4426""
","
","""event"",""trial"",""time""
""focus"",""0"",""1""
","""event"",""trial"",""time""
""fullscreenenter"",""1"",""4426""
","
","","","933","","","15","6063","1314","s","elianto","#3366ff99"," "," ","1","+10","[1788]","1","2","","","6063","91","5","1","win","go","0"
"pit-trial","210","1256347","0.0-96.0","battery-v0.2","","""event"",""trial"",""time""
""focus"",""0"",""1""
""fullscreenenter"",""1"",""4426""
","
","""event"",""trial"",""time""
""focus"",""0"",""1""
","""event"",""trial"",""time""
""fullscreenenter"",""1"",""4426""
","
","","","-1","","","15","6063","1314","w","elianto","#f73b6a7A","-1","-1","1","0","[]","0","2","","","6063","92","6","4","lose","no-go","0"
"pit-trial","211","1260111","0.0-97.0","battery-v0.2","","""event"",""trial"",""time""
""focus"",""0"",""1""
""fullscreenenter"",""1"",""4426""
","
","""event"",""trial"",""time""
""focus"",""0"",""1""
","""event"",""trial"",""time""
""fullscreenenter"",""1"",""4426""
","
","","","905","","","15","6063","1314","d","elianto","#3366ff99","-1"," ","0","0","[1757]","1","2","","","6063","93","8","2","win","no-go","0"
"pit-trial","212","1264977","0.0-98.0","battery-v0.2","","""event"",""trial"",""time""
""focus"",""0"",""1""
""fullscreenenter"",""1"",""4426""
","
","""event"",""trial"",""time""
""focus"",""0"",""1""
","""event"",""trial"",""time""
""fullscreenenter"",""1"",""4426""
","
","","","-1","","","15","6063","1314","e","elianto","#f73b6a7A"," ","-1","0","-10","[]","0","2","","","6063","94","7","3","lose","go","0"
"pit-trial","213","1269850","0.0-99.0","battery-v0.2","","""event"",""trial"",""time""
""focus"",""0"",""1""
""fullscreenenter"",""1"",""4426""
","
","""event"",""trial"",""time""
""focus"",""0"",""1""
","""event"",""trial"",""time""
""fullscreenenter"",""1"",""4426""
","
","","","-1","","","15","6063","1314","w","elianto","#f73b6a7A","-1","-1","1","-10","[]","0","2","","","6063","95","6","4","lose","no-go","1"
"pit-trial","214","1273672","0.0-100.0","battery-v0.2","","""event"",""trial"",""time""
""focus"",""0"",""1""
""fullscreenenter"",""1"",""4426""
","
","""event"",""trial"",""time""
""focus"",""0"",""1""
","""event"",""trial"",""time""
""fullscreenenter"",""1"",""4426""
","
","","","954","","","15","6063","1314","s","elianto","#3366ff99"," "," ","1","+10","[1810]","1","2","","","6063","96","5","1","win","go","0"
"pit-trial","215","1278532","0.0-101.0","battery-v0.2","","""event"",""trial"",""time""
""focus"",""0"",""1""
""fullscreenenter"",""1"",""4426""
","
","""event"",""trial"",""time""
""focus"",""0"",""1""
","""event"",""trial"",""time""
""fullscreenenter"",""1"",""4426""
","
","","","-1","","","15","6063","1314","w","elianto","#f73b6a7A","-1","-1","1","0","[]","0","2","","","6063","97","6","4","lose","no-go","0"
"pit-trial","216","1282410","0.0-102.0","battery-v0.2","","""event"",""trial"",""time""
""focus"",""0"",""1""
""fullscreenenter"",""1"",""4426""
","
","""event"",""trial"",""time""
""focus"",""0"",""1""
","""event"",""trial"",""time""
""fullscreenenter"",""1"",""4426""
","
","","","1009","","","15","6063","1314","e","elianto","#f73b6a7A"," "," ","1","0","[1871]","1","2","","","6063","98","7","3","lose","go","0"
"pit-trial","217","1286172","0.0-103.0","battery-v0.2","","""event"",""trial"",""time""
""focus"",""0"",""1""
""fullscreenenter"",""1"",""4426""
","
","""event"",""trial"",""time""
""focus"",""0"",""1""
","""event"",""trial"",""time""
""fullscreenenter"",""1"",""4426""
","
","","","892","","","15","6063","1314","d","elianto","#3366ff99","-1"," ","0","0","[1752]","1","2","","","6063","99","8","2","win","no-go","0"
"pit-trial","218","1289817","0.0-104.0","battery-v0.2","","""event"",""trial"",""time""
""focus"",""0"",""1""
""fullscreenenter"",""1"",""4426""
","
","""event"",""trial"",""time""
""focus"",""0"",""1""
","""event"",""trial"",""time""
""fullscreenenter"",""1"",""4426""
","
","","","773","","","15","6063","1314","s","elianto","#3366ff99"," "," ","1","+10","[1635]","1","2","","","6063","100","5","1","win","go","0"
"pit-trial","219","1294298","0.0-105.0","battery-v0.2","","""event"",""trial"",""time""
""focus"",""0"",""1""
""fullscreenenter"",""1"",""4426""
","
","""event"",""trial"",""time""
""focus"",""0"",""1""
","""event"",""trial"",""time""
""fullscreenenter"",""1"",""4426""
","
","","","1622","","","15","6063","1314","d","elianto","#3366ff99","-1"," ","0","0","[2478]","1","2","","","6063","101","8","2","win","no-go","0"
"pit-trial","220","1297843","0.0-106.0","battery-v0.2","","""event"",""trial"",""time""
""focus"",""0"",""1""
""fullscreenenter"",""1"",""4426""
","
","""event"",""trial"",""time""
""focus"",""0"",""1""
","""event"",""trial"",""time""
""fullscreenenter"",""1"",""4426""
","
","","","677","","","15","6063","1314","s","elianto","#3366ff99"," "," ","1","+10","[1538]","1","2","","","6063","102","5","1","win","go","0"
"pit-trial","221","1301587","0.0-107.0","battery-v0.2","","""event"",""trial"",""time""
""focus"",""0"",""1""
""fullscreenenter"",""1"",""4426""
","
","""event"",""trial"",""time""
""focus"",""0"",""1""
","""event"",""trial"",""time""
""fullscreenenter"",""1"",""4426""
","
","","","877","","","15","6063","1314","j","elianto","#3366ff99","-1"," ","0","0","[1733]","1","2","","","6063","103","9","2","win","no-go","0"
"pit-trial","222","1306446","0.0-108.0","battery-v0.2","","""event"",""trial"",""time""
""focus"",""0"",""1""
""fullscreenenter"",""1"",""4426""
","
","""event"",""trial"",""time""
""focus"",""0"",""1""
","""event"",""trial"",""time""
""fullscreenenter"",""1"",""4426""
","
","","","-1","","","15","6063","1314","w","elianto","#f73b6a7A","-1","-1","1","0","[]","0","2","","","6063","104","6","4","lose","no-go","0"
"pit-trial","223","1311319","0.0-109.0","battery-v0.2","","""event"",""trial"",""time""
""focus"",""0"",""1""
""fullscreenenter"",""1"",""4426""
","
","""event"",""trial"",""time""
""focus"",""0"",""1""
","""event"",""trial"",""time""
""fullscreenenter"",""1"",""4426""
","
","","","-1","","","15","6063","1314","j","elianto","#3366ff99","-1","-1","1","+10","[]","0","2","","","6063","105","9","2","win","no-go","0"
"pit-trial","224","1315038","0.0-110.0","battery-v0.2","","""event"",""trial"",""time""
""focus"",""0"",""1""
""fullscreenenter"",""1"",""4426""
","
","""event"",""trial"",""time""
""focus"",""0"",""1""
","""event"",""trial"",""time""
""fullscreenenter"",""1"",""4426""
","
","","","846","","","15","6063","1314","s","elianto","#3366ff99"," "," ","1","+10","[1706]","1","2","","","6063","106","5","1","win","go","0"
"pit-trial","225","1319908","0.0-111.0","battery-v0.2","","""event"",""trial"",""time""
""focus"",""0"",""1""
""fullscreenenter"",""1"",""4426""
","
","""event"",""trial"",""time""
""focus"",""0"",""1""
","""event"",""trial"",""time""
""fullscreenenter"",""1"",""4426""
","
","","","-1","","","15","6063","1314","d","elianto","#3366ff99","-1","-1","1","+10","[]","0","2","","","6063","107","8","2","win","no-go","0"
"pit-trial","226","1324774","0.0-112.0","battery-v0.2","","""event"",""trial"",""time""
""focus"",""0"",""1""
""fullscreenenter"",""1"",""4426""
","
","""event"",""trial"",""time""
""focus"",""0"",""1""
","""event"",""trial"",""time""
""fullscreenenter"",""1"",""4426""
","
","","","-1","","","15","6063","1314","w","elianto","#f73b6a7A","-1","-1","1","-10","[]","0","2","","","6063","108","6","4","lose","no-go","1"
"pit-trial","227","1328735","0.0-113.0","battery-v0.2","","""event"",""trial"",""time""
""focus"",""0"",""1""
""fullscreenenter"",""1"",""4426""
","
","""event"",""trial"",""time""
""focus"",""0"",""1""
","""event"",""trial"",""time""
""fullscreenenter"",""1"",""4426""
","
","","","1093","","","15","6063","1314","s","elianto","#3366ff99"," "," ","1","+10","[1944]","1","2","","","6063","109","5","1","win","go","0"
"pit-trial","228","1333508","0.0-114.0","battery-v0.2","","""event"",""trial"",""time""
""focus"",""0"",""1""
""fullscreenenter"",""1"",""4426""
","
","""event"",""trial"",""time""
""focus"",""0"",""1""
","""event"",""trial"",""time""
""fullscreenenter"",""1"",""4426""
","
","","","1901","","","15","6063","1314","d","elianto","#3366ff99","-1"," ","0","0","[2753]","1","2","","","6063","110","8","2","win","no-go","0"
"pit-trial","229","1338379","0.0-115.0","battery-v0.2","","""event"",""trial"",""time""
""focus"",""0"",""1""
""fullscreenenter"",""1"",""4426""
","
","""event"",""trial"",""time""
""focus"",""0"",""1""
","""event"",""trial"",""time""
""fullscreenenter"",""1"",""4426""
","
","","","-1","","","15","6063","1314","w","elianto","#f73b6a7A","-1","-1","1","0","[]","0","2","","","6063","111","6","4","lose","no-go","0"
"pit-trial","230","1342727","0.0-116.0","battery-v0.2","","""event"",""trial"",""time""
""focus"",""0"",""1""
""fullscreenenter"",""1"",""4426""
","
","""event"",""trial"",""time""
""focus"",""0"",""1""
","""event"",""trial"",""time""
""fullscreenenter"",""1"",""4426""
","
","","","1477","","","15","6063","1314","j","elianto","#3366ff99","-1"," ","0","+10","[2343]","1","2","","","6063","112","9","2","win","no-go","1"
