"trial_type","trial_index","time_elapsed","internal_node_id","task_version","subject_id","interactions","blur_events","focus_events","fullscreenenter_events","fullscreenexit_events","success","view_history","rt","responses","num_errors","age","subject","participantId","rune","rune_set","hex","correct","choice","accuracy","outcome","keys","total_keys","block","practice","value","sub","trial","stimulus","robot","valence","action","sham"
"pavlovia","0","6","0.0-0.0","battery-v0.2","","""event"",""trial"",""time""
""fullscreenenter"",""1"",""3799""
","
","
","""event"",""trial"",""time""
""fullscreenenter"",""1"",""3799""
","
","","","","","","","","","","","","","","","","","","","","","","","","","","",""
"fullscreen","1","4747","0.0-1.0","battery-v0.2","","""event"",""trial"",""time""
""fullscreenenter"",""1"",""3799""
","
","
","""event"",""trial"",""time""
""fullscreenenter"",""1"",""3799""
","
","true","","","","","","","","","","","","","","","","","","","","","","","","","",""
"pit-instructions","2","8915","0.0-2.0-0.0","battery-v0.2","","""event"",""trial"",""time""
""fullscreenenter"",""1"",""3799""
","
","
","""event"",""trial"",""time""
""fullscreenenter"",""1"",""3799""
","
","","[{""page_index"":0,""viewing_time"":4164.999999999999}]","4164.999999999999","","","","","","","","","","","","","","","","","","","","","","","",""
"pit-comprehension","3","12118","0.0-2.0-1.0-0.0","battery-v0.2","","""event"",""trial"",""time""
""fullscreenenter"",""1"",""3799""
","
","
","""event"",""trial"",""time""
""fullscreenenter"",""1"",""3799""
","
","","","3137","[""shark""]","0","23","3522","863","","","","","","","","","","","","","","","","","","",""
"pit-instructions","4","13562","0.0-2.0-1.0-1.0","battery-v0.2","","""event"",""trial"",""time""
""fullscreenenter"",""1"",""3799""
","
","
","""event"",""trial"",""time""
""fullscreenenter"",""1"",""3799""
","
","","[{""page_index"":0,""viewing_time"":1437}]","1438.0000000000018","","","","","","","","","","","","","","","","","","","","","","","",""
"pit-comprehension","5","15915","0.0-2.0-2.0-0.0","battery-v0.2","","""event"",""trial"",""time""
""fullscreenenter"",""1"",""3799""
","
","
","""event"",""trial"",""time""
""fullscreenenter"",""1"",""3799""
","
","","","2346","[""tiger""]","0","23","3522","863","","","","","","","","","","","","","","","","","","",""
"pit-instructions","6","17212","0.0-2.0-2.0-1.0","battery-v0.2","","""event"",""trial"",""time""
""fullscreenenter"",""1"",""3799""
","
","
","""event"",""trial"",""time""
""fullscreenenter"",""1"",""3799""
","
","","[{""page_index"":0,""viewing_time"":1292}]","1292","","","","","","","","","","","","","","","","","","","","","","","",""
"pit-instructions","7","116495","0.0-2.0-3.0","battery-v0.2","","""event"",""trial"",""time""
""fullscreenenter"",""1"",""3799""
","
","
","""event"",""trial"",""time""
""fullscreenenter"",""1"",""3799""
","
","","[{""page_index"":0,""viewing_time"":9109},{""page_index"":1,""viewing_time"":6534},{""page_index"":2,""viewing_time"":7284},{""page_index"":3,""viewing_time"":5684},{""page_index"":4,""viewing_time"":5833},{""page_index"":5,""viewing_time"":5783},{""page_index"":6,""viewing_time"":7217},{""page_index"":7,""viewing_time"":6301},{""page_index"":8,""viewing_time"":6533},{""page_index"":9,""viewing_time"":8716},{""page_index"":10,""viewing_time"":8085},{""page_index"":11,""viewing_time"":9366},{""page_index"":12,""viewing_time"":7684},{""page_index"":13,""viewing_time"":5150}]","99280","","","","","","","","","","","","","","","","","","","","","","","",""
"pit-trial","8","119893","0.0-2.0-4.0-0.0","battery-v0.2","","""event"",""trial"",""time""
""fullscreenenter"",""1"",""3799""
","
","
","""event"",""trial"",""time""
""fullscreenenter"",""1"",""3799""
","
","","","538","","","23","3522","863","&#9784;","elianto","#FFFFF080"," "," ","1","&#10004","[1390]","1","0","0","","","","","","","",""
"pit-trial","9","123517","0.0-2.0-4.1-0.1","battery-v0.2","","""event"",""trial"",""time""
""fullscreenenter"",""1"",""3799""
","
","
","""event"",""trial"",""time""
""fullscreenenter"",""1"",""3799""
","
","","","765","","","23","3522","863","&#9784;","elianto","#FFFFF080"," "," ","1","&#10004","[1615.9999999999854]","1","0","0","","","","","","","",""
"pit-trial","10","127148","0.0-2.0-4.2-0.2","battery-v0.2","","""event"",""trial"",""time""
""fullscreenenter"",""1"",""3799""
","
","
","""event"",""trial"",""time""
""fullscreenenter"",""1"",""3799""
","
","","","770","","","23","3522","863","&#9784;","elianto","#FFFFF080"," "," ","1","&#10004","[1621]","1","0","0","","","","","","","",""
"pit-trial","11","130758","0.0-2.0-4.3-0.3","battery-v0.2","","""event"",""trial"",""time""
""fullscreenenter"",""1"",""3799""
","
","
","""event"",""trial"",""time""
""fullscreenenter"",""1"",""3799""
","
","","","748.9999999999854","","","23","3522","863","&#9784;","elianto","#FFFFF080"," "," ","1","&#10004","[1598.9999999999854]","1","0","0","","","","","","","",""
"pit-trial","12","134354","0.0-2.0-4.4-0.4","battery-v0.2","","""event"",""trial"",""time""
""fullscreenenter"",""1"",""3799""
","
","
","""event"",""trial"",""time""
""fullscreenenter"",""1"",""3799""
","
","","","737","","","23","3522","863","&#9784;","elianto","#FFFFF080"," "," ","1","&#10004","[1588]","1","0","0","","","","","","","",""
"pit-instructions","13","156228","0.0-2.0-5.0","battery-v0.2","","""event"",""trial"",""time""
""fullscreenenter"",""1"",""3799""
","
","
","""event"",""trial"",""time""
""fullscreenenter"",""1"",""3799""
","
","","[{""page_index"":0,""viewing_time"":5215},{""page_index"":1,""viewing_time"":6017},{""page_index"":2,""viewing_time"":4900},{""page_index"":3,""viewing_time"":5734.000000000029}]","21867","","","","","","","","","","","","","","","","","","","","","","","",""
"pit-trial","14","161086","0.0-2.0-6.0-0.0","battery-v0.2","","""event"",""trial"",""time""
""fullscreenenter"",""1"",""3799""
","
","
","""event"",""trial"",""time""
""fullscreenenter"",""1"",""3799""
","
","","","-1","","","23","3522","863","&#9854;","elianto","#FFFFF080","-1","-1","1","&#10004","[]","0","0","1","","","","","","","",""
"pit-trial","15","165945","0.0-2.0-6.1-0.1","battery-v0.2","","""event"",""trial"",""time""
""fullscreenenter"",""1"",""3799""
","
","
","""event"",""trial"",""time""
""fullscreenenter"",""1"",""3799""
","
","","","-1","","","23","3522","863","&#9854;","elianto","#FFFFF080","-1","-1","1","&#10004","[]","0","0","1","","","","","","","",""
"pit-trial","16","170804","0.0-2.0-6.2-0.2","battery-v0.2","","""event"",""trial"",""time""
""fullscreenenter"",""1"",""3799""
","
","
","""event"",""trial"",""time""
""fullscreenenter"",""1"",""3799""
","
","","","-1","","","23","3522","863","&#9854;","elianto","#FFFFF080","-1","-1","1","&#10004","[]","0","0","1","","","","","","","",""
"pit-trial","17","175665","0.0-2.0-6.3-0.3","battery-v0.2","","""event"",""trial"",""time""
""fullscreenenter"",""1"",""3799""
","
","
","""event"",""trial"",""time""
""fullscreenenter"",""1"",""3799""
","
","","","-1","","","23","3522","863","&#9854;","elianto","#FFFFF080","-1","-1","1","&#10004","[]","0","0","1","","","","","","","",""
"pit-trial","18","180524","0.0-2.0-6.4-0.4","battery-v0.2","","""event"",""trial"",""time""
""fullscreenenter"",""1"",""3799""
""fullscreenexit"",""19"",""266699""
""blur"",""19"",""267769""
""focus"",""19"",""283513""
""blur"",""19"",""283585""
""focus"",""19"",""352764""
""focus"",""19"",""352766""
""blur"",""19"",""354232""
""focus"",""19"",""391379""
","""event"",""trial"",""time""
""blur"",""19"",""267769""
""blur"",""19"",""283585""
""blur"",""19"",""354232""
","""event"",""trial"",""time""
""focus"",""19"",""283513""
""focus"",""19"",""352764""
""focus"",""19"",""352766""
""focus"",""19"",""391379""
","""event"",""trial"",""time""
""fullscreenenter"",""1"",""3799""
","""event"",""trial"",""time""
""fullscreenexit"",""19"",""266699""
","","","-1","","","23","3522","863","&#9854;","elianto","#FFFFF080","-1","-1","1","&#10004","[]","0","0","1","","","","","","","",""
"pit-instructions","19","419961","0.0-2.0-7.0","battery-v0.2","","""event"",""trial"",""time""
""fullscreenenter"",""1"",""3799""
""fullscreenexit"",""19"",""266699""
""blur"",""19"",""267769""
""focus"",""19"",""283513""
""blur"",""19"",""283585""
""focus"",""19"",""352764""
""focus"",""19"",""352766""
""blur"",""19"",""354232""
""focus"",""19"",""391379""
","""event"",""trial"",""time""
""blur"",""19"",""267769""
""blur"",""19"",""283585""
""blur"",""19"",""354232""
","""event"",""trial"",""time""
""focus"",""19"",""283513""
""focus"",""19"",""352764""
""focus"",""19"",""352766""
""focus"",""19"",""391379""
","""event"",""trial"",""time""
""fullscreenenter"",""1"",""3799""
","""event"",""trial"",""time""
""fullscreenexit"",""19"",""266699""
","","[{""page_index"":0,""viewing_time"":6462.000000000029},{""page_index"":1,""viewing_time"":6566.999999999971},{""page_index"":2,""viewing_time"":5817},{""page_index"":3,""viewing_time"":6151},{""page_index"":4,""viewing_time"":5285},{""page_index"":5,""viewing_time"":5166},{""page_index"":6,""viewing_time"":4415},{""page_index"":7,""viewing_time"":7634},{""page_index"":8,""viewing_time"":6450},{""page_index"":9,""viewing_time"":5634.000000000029},{""page_index"":10,""viewing_time"":6036.999999999971},{""page_index"":11,""viewing_time"":4313},{""page_index"":12,""viewing_time"":6401.000000000029},{""page_index"":13,""viewing_time"":136235.99999999997},{""page_index"":14,""viewing_time"":6684.000000000058},{""page_index"":15,""viewing_time"":6082},{""page_index"":16,""viewing_time"":6950.999999999942},{""page_index"":17,""viewing_time"":7150}]","239436","","","","","","","","","","","","","","","","","","","","","","","",""
"pit-trial","20","423379","0.0-2.0-8.0-0.0","battery-v0.2","","""event"",""trial"",""time""
""fullscreenenter"",""1"",""3799""
""fullscreenexit"",""19"",""266699""
""blur"",""19"",""267769""
""focus"",""19"",""283513""
""blur"",""19"",""283585""
""focus"",""19"",""352764""
""focus"",""19"",""352766""
""blur"",""19"",""354232""
""focus"",""19"",""391379""
","""event"",""trial"",""time""
""blur"",""19"",""267769""
""blur"",""19"",""283585""
""blur"",""19"",""354232""
","""event"",""trial"",""time""
""focus"",""19"",""283513""
""focus"",""19"",""352764""
""focus"",""19"",""352766""
""focus"",""19"",""391379""
","""event"",""trial"",""time""
""fullscreenenter"",""1"",""3799""
","""event"",""trial"",""time""
""fullscreenexit"",""19"",""266699""
","","","560","","","23","3522","863","&#9776;","elianto","#3366ff99"," "," ","1","+10","[1411]","1","0","1","","","","","","","",""
"pit-trial","21","427222","0.0-2.0-8.0-1.0","battery-v0.2","","""event"",""trial"",""time""
""fullscreenenter"",""1"",""3799""
""fullscreenexit"",""19"",""266699""
""blur"",""19"",""267769""
""focus"",""19"",""283513""
""blur"",""19"",""283585""
""focus"",""19"",""352764""
""focus"",""19"",""352766""
""blur"",""19"",""354232""
""focus"",""19"",""391379""
","""event"",""trial"",""time""
""blur"",""19"",""267769""
""blur"",""19"",""283585""
""blur"",""19"",""354232""
","""event"",""trial"",""time""
""focus"",""19"",""283513""
""focus"",""19"",""352764""
""focus"",""19"",""352766""
""focus"",""19"",""391379""
","""event"",""trial"",""time""
""fullscreenenter"",""1"",""3799""
","""event"",""trial"",""time""
""fullscreenexit"",""19"",""266699""
","","","985","","","23","3522","863","&#9776;","elianto","#3366ff99"," "," ","1","+10","[1835]","1","0","1","","","","","","","",""
"pit-trial","22","431348","0.0-2.0-8.0-2.0","battery-v0.2","","""event"",""trial"",""time""
""fullscreenenter"",""1"",""3799""
""fullscreenexit"",""19"",""266699""
""blur"",""19"",""267769""
""focus"",""19"",""283513""
""blur"",""19"",""283585""
""focus"",""19"",""352764""
""focus"",""19"",""352766""
""blur"",""19"",""354232""
""focus"",""19"",""391379""
","""event"",""trial"",""time""
""blur"",""19"",""267769""
""blur"",""19"",""283585""
""blur"",""19"",""354232""
","""event"",""trial"",""time""
""focus"",""19"",""283513""
""focus"",""19"",""352764""
""focus"",""19"",""352766""
""focus"",""19"",""391379""
","""event"",""trial"",""time""
""fullscreenenter"",""1"",""3799""
","""event"",""trial"",""time""
""fullscreenexit"",""19"",""266699""
","","","1267","","","23","3522","863","&#9776;","elianto","#3366ff99"," "," ","1","+10","[2116.999999999942]","1","0","1","","","","","","","",""
"pit-trial","23","434946","0.0-2.0-8.0-3.0","battery-v0.2","","""event"",""trial"",""time""
""fullscreenenter"",""1"",""3799""
""fullscreenexit"",""19"",""266699""
""blur"",""19"",""267769""
""focus"",""19"",""283513""
""blur"",""19"",""283585""
""focus"",""19"",""352764""
""focus"",""19"",""352766""
""blur"",""19"",""354232""
""focus"",""19"",""391379""
","""event"",""trial"",""time""
""blur"",""19"",""267769""
""blur"",""19"",""283585""
""blur"",""19"",""354232""
","""event"",""trial"",""time""
""focus"",""19"",""283513""
""focus"",""19"",""352764""
""focus"",""19"",""352766""
""focus"",""19"",""391379""
","""event"",""trial"",""time""
""fullscreenenter"",""1"",""3799""
","""event"",""trial"",""time""
""fullscreenexit"",""19"",""266699""
","","","739","","","23","3522","863","&#9776;","elianto","#3366ff99"," "," ","1","0","[1590.9999999999418]","1","0","1","","","","","","","",""
"pit-trial","24","438295","0.0-2.0-8.0-4.0","battery-v0.2","","""event"",""trial"",""time""
""fullscreenenter"",""1"",""3799""
""fullscreenexit"",""19"",""266699""
""blur"",""19"",""267769""
""focus"",""19"",""283513""
""blur"",""19"",""283585""
""focus"",""19"",""352764""
""focus"",""19"",""352766""
""blur"",""19"",""354232""
""focus"",""19"",""391379""
","""event"",""trial"",""time""
""blur"",""19"",""267769""
""blur"",""19"",""283585""
""blur"",""19"",""354232""
","""event"",""trial"",""time""
""focus"",""19"",""283513""
""focus"",""19"",""352764""
""focus"",""19"",""352766""
""focus"",""19"",""391379""
","""event"",""trial"",""time""
""fullscreenenter"",""1"",""3799""
","""event"",""trial"",""time""
""fullscreenexit"",""19"",""266699""
","","","490.0000000000582","","","23","3522","863","&#9776;","elianto","#3366ff99"," "," ","1","+10","[1341.0000000000582]","1","0","1","","","","","","","",""
"call-function","25","438299","0.0-2.0-9.0","battery-v0.2","","""event"",""trial"",""time""
""fullscreenenter"",""1"",""3799""
""fullscreenexit"",""19"",""266699""
""blur"",""19"",""267769""
""focus"",""19"",""283513""
""blur"",""19"",""283585""
""focus"",""19"",""352764""
""focus"",""19"",""352766""
""blur"",""19"",""354232""
""focus"",""19"",""391379""
""blur"",""26"",""480887""
""focus"",""26"",""589236""
""focus"",""26"",""589237""
""blur"",""26"",""590686""
""focus"",""26"",""592882""
""focus"",""26"",""592883""
","""event"",""trial"",""time""
""blur"",""19"",""267769""
""blur"",""19"",""283585""
""blur"",""19"",""354232""
""blur"",""26"",""480887""
""blur"",""26"",""590686""
","""event"",""trial"",""time""
""focus"",""19"",""283513""
""focus"",""19"",""352764""
""focus"",""19"",""352766""
""focus"",""19"",""391379""
""focus"",""26"",""589236""
""focus"",""26"",""589237""
""focus"",""26"",""592882""
""focus"",""26"",""592883""
","""event"",""trial"",""time""
""fullscreenenter"",""1"",""3799""
","""event"",""trial"",""time""
""fullscreenexit"",""19"",""266699""
","","","","","","","","","","","","","","","","","","","","","","","","","","",""
"pit-instructions","26","598027","0.0-2.0-10.0","battery-v0.2","","""event"",""trial"",""time""
""fullscreenenter"",""1"",""3799""
""fullscreenexit"",""19"",""266699""
""blur"",""19"",""267769""
""focus"",""19"",""283513""
""blur"",""19"",""283585""
""focus"",""19"",""352764""
""focus"",""19"",""352766""
""blur"",""19"",""354232""
""focus"",""19"",""391379""
""blur"",""26"",""480887""
""focus"",""26"",""589236""
""focus"",""26"",""589237""
""blur"",""26"",""590686""
""focus"",""26"",""592882""
""focus"",""26"",""592883""
","""event"",""trial"",""time""
""blur"",""19"",""267769""
""blur"",""19"",""283585""
""blur"",""19"",""354232""
""blur"",""26"",""480887""
""blur"",""26"",""590686""
","""event"",""trial"",""time""
""focus"",""19"",""283513""
""focus"",""19"",""352764""
""focus"",""19"",""352766""
""focus"",""19"",""391379""
""focus"",""26"",""589236""
""focus"",""26"",""589237""
""focus"",""26"",""592882""
""focus"",""26"",""592883""
","""event"",""trial"",""time""
""fullscreenenter"",""1"",""3799""
","""event"",""trial"",""time""
""fullscreenexit"",""19"",""266699""
","","[{""page_index"":0,""viewing_time"":5791},{""page_index"":1,""viewing_time"":7551},{""page_index"":2,""viewing_time"":9050},{""page_index"":3,""viewing_time"":9250},{""page_index"":4,""viewing_time"":128088}]","159731","","","","","","","","","","","","","","","","","","","","","","","",""
"pit-trial","27","601552","0.0-2.0-11.0-0.0","battery-v0.2","","""event"",""trial"",""time""
""fullscreenenter"",""1"",""3799""
""fullscreenexit"",""19"",""266699""
""blur"",""19"",""267769""
""focus"",""19"",""283513""
""blur"",""19"",""283585""
""focus"",""19"",""352764""
""focus"",""19"",""352766""
""blur"",""19"",""354232""
""focus"",""19"",""391379""
""blur"",""26"",""480887""
""focus"",""26"",""589236""
""focus"",""26"",""589237""
""blur"",""26"",""590686""
""focus"",""26"",""592882""
""focus"",""26"",""592883""
","""event"",""trial"",""time""
""blur"",""19"",""267769""
""blur"",""19"",""283585""
""blur"",""19"",""354232""
""blur"",""26"",""480887""
""blur"",""26"",""590686""
","""event"",""trial"",""time""
""focus"",""19"",""283513""
""focus"",""19"",""352764""
""focus"",""19"",""352766""
""focus"",""19"",""391379""
""focus"",""26"",""589236""
""focus"",""26"",""589237""
""focus"",""26"",""592882""
""focus"",""26"",""592883""
","""event"",""trial"",""time""
""fullscreenenter"",""1"",""3799""
","""event"",""trial"",""time""
""fullscreenexit"",""19"",""266699""
","","","670","","","23","3522","863","&#9761;","elianto","#3366ff99","-1"," ","0","0","[1520]","1","0","2","","","","","","","",""
"pit-trial","28","604889","0.0-2.0-11.0-1.0","battery-v0.2","","""event"",""trial"",""time""
""fullscreenenter"",""1"",""3799""
""fullscreenexit"",""19"",""266699""
""blur"",""19"",""267769""
""focus"",""19"",""283513""
""blur"",""19"",""283585""
""focus"",""19"",""352764""
""focus"",""19"",""352766""
""blur"",""19"",""354232""
""focus"",""19"",""391379""
""blur"",""26"",""480887""
""focus"",""26"",""589236""
""focus"",""26"",""589237""
""blur"",""26"",""590686""
""focus"",""26"",""592882""
""focus"",""26"",""592883""
","""event"",""trial"",""time""
""blur"",""19"",""267769""
""blur"",""19"",""283585""
""blur"",""19"",""354232""
""blur"",""26"",""480887""
""blur"",""26"",""590686""
","""event"",""trial"",""time""
""focus"",""19"",""283513""
""focus"",""19"",""352764""
""focus"",""19"",""352766""
""focus"",""19"",""391379""
""focus"",""26"",""589236""
""focus"",""26"",""589237""
""focus"",""26"",""592882""
""focus"",""26"",""592883""
","""event"",""trial"",""time""
""fullscreenenter"",""1"",""3799""
","""event"",""trial"",""time""
""fullscreenexit"",""19"",""266699""
","","","481","","","23","3522","863","&#9761;","elianto","#3366ff99","-1"," ","0","0","[1331]","1","0","2","","","","","","","",""
"pit-trial","29","608264","0.0-2.0-11.0-2.0","battery-v0.2","","""event"",""trial"",""time""
""fullscreenenter"",""1"",""3799""
""fullscreenexit"",""19"",""266699""
""blur"",""19"",""267769""
""focus"",""19"",""283513""
""blur"",""19"",""283585""
""focus"",""19"",""352764""
""focus"",""19"",""352766""
""blur"",""19"",""354232""
""focus"",""19"",""391379""
""blur"",""26"",""480887""
""focus"",""26"",""589236""
""focus"",""26"",""589237""
""blur"",""26"",""590686""
""focus"",""26"",""592882""
""focus"",""26"",""592883""
","""event"",""trial"",""time""
""blur"",""19"",""267769""
""blur"",""19"",""283585""
""blur"",""19"",""354232""
""blur"",""26"",""480887""
""blur"",""26"",""590686""
","""event"",""trial"",""time""
""focus"",""19"",""283513""
""focus"",""19"",""352764""
""focus"",""19"",""352766""
""focus"",""19"",""391379""
""focus"",""26"",""589236""
""focus"",""26"",""589237""
""focus"",""26"",""592882""
""focus"",""26"",""592883""
","""event"",""trial"",""time""
""fullscreenenter"",""1"",""3799""
","""event"",""trial"",""time""
""fullscreenexit"",""19"",""266699""
","","","516.9999999998836","","","23","3522","863","&#9761;","elianto","#3366ff99","-1"," ","0","0","[1367.9999999998836]","1","0","2","","","","","","","",""
"pit-trial","30","611635","0.0-2.0-11.0-3.0","battery-v0.2","","""event"",""trial"",""time""
""fullscreenenter"",""1"",""3799""
""fullscreenexit"",""19"",""266699""
""blur"",""19"",""267769""
""focus"",""19"",""283513""
""blur"",""19"",""283585""
""focus"",""19"",""352764""
""focus"",""19"",""352766""
""blur"",""19"",""354232""
""focus"",""19"",""391379""
""blur"",""26"",""480887""
""focus"",""26"",""589236""
""focus"",""26"",""589237""
""blur"",""26"",""590686""
""focus"",""26"",""592882""
""focus"",""26"",""592883""
","""event"",""trial"",""time""
""blur"",""19"",""267769""
""blur"",""19"",""283585""
""blur"",""19"",""354232""
""blur"",""26"",""480887""
""blur"",""26"",""590686""
","""event"",""trial"",""time""
""focus"",""19"",""283513""
""focus"",""19"",""352764""
""focus"",""19"",""352766""
""focus"",""19"",""391379""
""focus"",""26"",""589236""
""focus"",""26"",""589237""
""focus"",""26"",""592882""
""focus"",""26"",""592883""
","""event"",""trial"",""time""
""fullscreenenter"",""1"",""3799""
","""event"",""trial"",""time""
""fullscreenexit"",""19"",""266699""
","","","514","","","23","3522","863","&#9761;","elianto","#3366ff99","-1"," ","0","+10","[1365]","1","0","2","","","","","","","",""
"pit-trial","31","615102","0.0-2.0-11.0-4.0","battery-v0.2","","""event"",""trial"",""time""
""fullscreenenter"",""1"",""3799""
""fullscreenexit"",""19"",""266699""
""blur"",""19"",""267769""
""focus"",""19"",""283513""
""blur"",""19"",""283585""
""focus"",""19"",""352764""
""focus"",""19"",""352766""
""blur"",""19"",""354232""
""focus"",""19"",""391379""
""blur"",""26"",""480887""
""focus"",""26"",""589236""
""focus"",""26"",""589237""
""blur"",""26"",""590686""
""focus"",""26"",""592882""
""focus"",""26"",""592883""
","""event"",""trial"",""time""
""blur"",""19"",""267769""
""blur"",""19"",""283585""
""blur"",""19"",""354232""
""blur"",""26"",""480887""
""blur"",""26"",""590686""
","""event"",""trial"",""time""
""focus"",""19"",""283513""
""focus"",""19"",""352764""
""focus"",""19"",""352766""
""focus"",""19"",""391379""
""focus"",""26"",""589236""
""focus"",""26"",""589237""
""focus"",""26"",""592882""
""focus"",""26"",""592883""
","""event"",""trial"",""time""
""fullscreenenter"",""1"",""3799""
","""event"",""trial"",""time""
""fullscreenexit"",""19"",""266699""
","","","611","","","23","3522","863","&#9761;","elianto","#3366ff99","-1"," ","0","0","[1459.9999999998836]","1","0","2","","","","","","","",""
"pit-trial","32","619963","0.0-2.0-11.1-0.1","battery-v0.2","","""event"",""trial"",""time""
""fullscreenenter"",""1"",""3799""
""fullscreenexit"",""19"",""266699""
""blur"",""19"",""267769""
""focus"",""19"",""283513""
""blur"",""19"",""283585""
""focus"",""19"",""352764""
""focus"",""19"",""352766""
""blur"",""19"",""354232""
""focus"",""19"",""391379""
""blur"",""26"",""480887""
""focus"",""26"",""589236""
""focus"",""26"",""589237""
""blur"",""26"",""590686""
""focus"",""26"",""592882""
""focus"",""26"",""592883""
","""event"",""trial"",""time""
""blur"",""19"",""267769""
""blur"",""19"",""283585""
""blur"",""19"",""354232""
""blur"",""26"",""480887""
""blur"",""26"",""590686""
","""event"",""trial"",""time""
""focus"",""19"",""283513""
""focus"",""19"",""352764""
""focus"",""19"",""352766""
""focus"",""19"",""391379""
""focus"",""26"",""589236""
""focus"",""26"",""589237""
""focus"",""26"",""592882""
""focus"",""26"",""592883""
","""event"",""trial"",""time""
""fullscreenenter"",""1"",""3799""
","""event"",""trial"",""time""
""fullscreenexit"",""19"",""266699""
","","","-1","","","23","3522","863","&#9761;","elianto","#3366ff99","-1","-1","1","+10","[]","0","0","2","","","","","","","",""
"pit-trial","33","623511","0.0-2.0-11.1-1.1","battery-v0.2","","""event"",""trial"",""time""
""fullscreenenter"",""1"",""3799""
""fullscreenexit"",""19"",""266699""
""blur"",""19"",""267769""
""focus"",""19"",""283513""
""blur"",""19"",""283585""
""focus"",""19"",""352764""
""focus"",""19"",""352766""
""blur"",""19"",""354232""
""focus"",""19"",""391379""
""blur"",""26"",""480887""
""focus"",""26"",""589236""
""focus"",""26"",""589237""
""blur"",""26"",""590686""
""focus"",""26"",""592882""
""focus"",""26"",""592883""
","""event"",""trial"",""time""
""blur"",""19"",""267769""
""blur"",""19"",""283585""
""blur"",""19"",""354232""
""blur"",""26"",""480887""
""blur"",""26"",""590686""
","""event"",""trial"",""time""
""focus"",""19"",""283513""
""focus"",""19"",""352764""
""focus"",""19"",""352766""
""focus"",""19"",""391379""
""focus"",""26"",""589236""
""focus"",""26"",""589237""
""focus"",""26"",""592882""
""focus"",""26"",""592883""
","""event"",""trial"",""time""
""fullscreenenter"",""1"",""3799""
","""event"",""trial"",""time""
""fullscreenexit"",""19"",""266699""
","","","692","","","23","3522","863","&#9761;","elianto","#3366ff99","-1"," ","0","0","[1542.0000000001164]","1","0","2","","","","","","","",""
"pit-trial","34","626855","0.0-2.0-11.1-2.1","battery-v0.2","","""event"",""trial"",""time""
""fullscreenenter"",""1"",""3799""
""fullscreenexit"",""19"",""266699""
""blur"",""19"",""267769""
""focus"",""19"",""283513""
""blur"",""19"",""283585""
""focus"",""19"",""352764""
""focus"",""19"",""352766""
""blur"",""19"",""354232""
""focus"",""19"",""391379""
""blur"",""26"",""480887""
""focus"",""26"",""589236""
""focus"",""26"",""589237""
""blur"",""26"",""590686""
""focus"",""26"",""592882""
""focus"",""26"",""592883""
","""event"",""trial"",""time""
""blur"",""19"",""267769""
""blur"",""19"",""283585""
""blur"",""19"",""354232""
""blur"",""26"",""480887""
""blur"",""26"",""590686""
","""event"",""trial"",""time""
""focus"",""19"",""283513""
""focus"",""19"",""352764""
""focus"",""19"",""352766""
""focus"",""19"",""391379""
""focus"",""26"",""589236""
""focus"",""26"",""589237""
""focus"",""26"",""592882""
""focus"",""26"",""592883""
","""event"",""trial"",""time""
""fullscreenenter"",""1"",""3799""
","""event"",""trial"",""time""
""fullscreenexit"",""19"",""266699""
","","","486","","","23","3522","863","&#9761;","elianto","#3366ff99","-1"," ","0","0","[1337]","1","0","2","","","","","","","",""
"pit-trial","35","631714","0.0-2.0-11.1-3.1","battery-v0.2","","""event"",""trial"",""time""
""fullscreenenter"",""1"",""3799""
""fullscreenexit"",""19"",""266699""
""blur"",""19"",""267769""
""focus"",""19"",""283513""
""blur"",""19"",""283585""
""focus"",""19"",""352764""
""focus"",""19"",""352766""
""blur"",""19"",""354232""
""focus"",""19"",""391379""
""blur"",""26"",""480887""
""focus"",""26"",""589236""
""focus"",""26"",""589237""
""blur"",""26"",""590686""
""focus"",""26"",""592882""
""focus"",""26"",""592883""
","""event"",""trial"",""time""
""blur"",""19"",""267769""
""blur"",""19"",""283585""
""blur"",""19"",""354232""
""blur"",""26"",""480887""
""blur"",""26"",""590686""
","""event"",""trial"",""time""
""focus"",""19"",""283513""
""focus"",""19"",""352764""
""focus"",""19"",""352766""
""focus"",""19"",""391379""
""focus"",""26"",""589236""
""focus"",""26"",""589237""
""focus"",""26"",""592882""
""focus"",""26"",""592883""
","""event"",""trial"",""time""
""fullscreenenter"",""1"",""3799""
","""event"",""trial"",""time""
""fullscreenexit"",""19"",""266699""
","","","-1","","","23","3522","863","&#9761;","elianto","#3366ff99","-1","-1","1","0","[]","0","0","2","","","","","","","",""
"pit-trial","36","636571","0.0-2.0-11.1-4.1","battery-v0.2","","""event"",""trial"",""time""
""fullscreenenter"",""1"",""3799""
""fullscreenexit"",""19"",""266699""
""blur"",""19"",""267769""
""focus"",""19"",""283513""
""blur"",""19"",""283585""
""focus"",""19"",""352764""
""focus"",""19"",""352766""
""blur"",""19"",""354232""
""focus"",""19"",""391379""
""blur"",""26"",""480887""
""focus"",""26"",""589236""
""focus"",""26"",""589237""
""blur"",""26"",""590686""
""focus"",""26"",""592882""
""focus"",""26"",""592883""
","""event"",""trial"",""time""
""blur"",""19"",""267769""
""blur"",""19"",""283585""
""blur"",""19"",""354232""
""blur"",""26"",""480887""
""blur"",""26"",""590686""
","""event"",""trial"",""time""
""focus"",""19"",""283513""
""focus"",""19"",""352764""
""focus"",""19"",""352766""
""focus"",""19"",""391379""
""focus"",""26"",""589236""
""focus"",""26"",""589237""
""focus"",""26"",""592882""
""focus"",""26"",""592883""
","""event"",""trial"",""time""
""fullscreenenter"",""1"",""3799""
","""event"",""trial"",""time""
""fullscreenexit"",""19"",""266699""
","","","-1","","","23","3522","863","&#9761;","elianto","#3366ff99","-1","-1","1","+10","[]","0","0","2","","","","","","","",""
"pit-trial","37","641428","0.0-2.0-11.2-0.2","battery-v0.2","","""event"",""trial"",""time""
""fullscreenenter"",""1"",""3799""
""fullscreenexit"",""19"",""266699""
""blur"",""19"",""267769""
""focus"",""19"",""283513""
""blur"",""19"",""283585""
""focus"",""19"",""352764""
""focus"",""19"",""352766""
""blur"",""19"",""354232""
""focus"",""19"",""391379""
""blur"",""26"",""480887""
""focus"",""26"",""589236""
""focus"",""26"",""589237""
""blur"",""26"",""590686""
""focus"",""26"",""592882""
""focus"",""26"",""592883""
","""event"",""trial"",""time""
""blur"",""19"",""267769""
""blur"",""19"",""283585""
""blur"",""19"",""354232""
""blur"",""26"",""480887""
""blur"",""26"",""590686""
","""event"",""trial"",""time""
""focus"",""19"",""283513""
""focus"",""19"",""352764""
""focus"",""19"",""352766""
""focus"",""19"",""391379""
""focus"",""26"",""589236""
""focus"",""26"",""589237""
""focus"",""26"",""592882""
""focus"",""26"",""592883""
","""event"",""trial"",""time""
""fullscreenenter"",""1"",""3799""
","""event"",""trial"",""time""
""fullscreenexit"",""19"",""266699""
","","","-1","","","23","3522","863","&#9761;","elianto","#3366ff99","-1","-1","1","+10","[]","0","0","2","","","","","","","",""
"pit-trial","38","646286","0.0-2.0-11.2-1.2","battery-v0.2","","""event"",""trial"",""time""
""fullscreenenter"",""1"",""3799""
""fullscreenexit"",""19"",""266699""
""blur"",""19"",""267769""
""focus"",""19"",""283513""
""blur"",""19"",""283585""
""focus"",""19"",""352764""
""focus"",""19"",""352766""
""blur"",""19"",""354232""
""focus"",""19"",""391379""
""blur"",""26"",""480887""
""focus"",""26"",""589236""
""focus"",""26"",""589237""
""blur"",""26"",""590686""
""focus"",""26"",""592882""
""focus"",""26"",""592883""
","""event"",""trial"",""time""
""blur"",""19"",""267769""
""blur"",""19"",""283585""
""blur"",""19"",""354232""
""blur"",""26"",""480887""
""blur"",""26"",""590686""
","""event"",""trial"",""time""
""focus"",""19"",""283513""
""focus"",""19"",""352764""
""focus"",""19"",""352766""
""focus"",""19"",""391379""
""focus"",""26"",""589236""
""focus"",""26"",""589237""
""focus"",""26"",""592882""
""focus"",""26"",""592883""
","""event"",""trial"",""time""
""fullscreenenter"",""1"",""3799""
","""event"",""trial"",""time""
""fullscreenexit"",""19"",""266699""
","","","-1","","","23","3522","863","&#9761;","elianto","#3366ff99","-1","-1","1","+10","[]","0","0","2","","","","","","","",""
"pit-trial","39","651144","0.0-2.0-11.2-2.2","battery-v0.2","","""event"",""trial"",""time""
""fullscreenenter"",""1"",""3799""
""fullscreenexit"",""19"",""266699""
""blur"",""19"",""267769""
""focus"",""19"",""283513""
""blur"",""19"",""283585""
""focus"",""19"",""352764""
""focus"",""19"",""352766""
""blur"",""19"",""354232""
""focus"",""19"",""391379""
""blur"",""26"",""480887""
""focus"",""26"",""589236""
""focus"",""26"",""589237""
""blur"",""26"",""590686""
""focus"",""26"",""592882""
""focus"",""26"",""592883""
","""event"",""trial"",""time""
""blur"",""19"",""267769""
""blur"",""19"",""283585""
""blur"",""19"",""354232""
""blur"",""26"",""480887""
""blur"",""26"",""590686""
","""event"",""trial"",""time""
""focus"",""19"",""283513""
""focus"",""19"",""352764""
""focus"",""19"",""352766""
""focus"",""19"",""391379""
""focus"",""26"",""589236""
""focus"",""26"",""589237""
""focus"",""26"",""592882""
""focus"",""26"",""592883""
","""event"",""trial"",""time""
""fullscreenenter"",""1"",""3799""
","""event"",""trial"",""time""
""fullscreenexit"",""19"",""266699""
","","","-1","","","23","3522","863","&#9761;","elianto","#3366ff99","-1","-1","1","+10","[]","0","0","2","","","","","","","",""
"pit-trial","40","656002","0.0-2.0-11.2-3.2","battery-v0.2","","""event"",""trial"",""time""
""fullscreenenter"",""1"",""3799""
""fullscreenexit"",""19"",""266699""
""blur"",""19"",""267769""
""focus"",""19"",""283513""
""blur"",""19"",""283585""
""focus"",""19"",""352764""
""focus"",""19"",""352766""
""blur"",""19"",""354232""
""focus"",""19"",""391379""
""blur"",""26"",""480887""
""focus"",""26"",""589236""
""focus"",""26"",""589237""
""blur"",""26"",""590686""
""focus"",""26"",""592882""
""focus"",""26"",""592883""
","""event"",""trial"",""time""
""blur"",""19"",""267769""
""blur"",""19"",""283585""
""blur"",""19"",""354232""
""blur"",""26"",""480887""
""blur"",""26"",""590686""
","""event"",""trial"",""time""
""focus"",""19"",""283513""
""focus"",""19"",""352764""
""focus"",""19"",""352766""
""focus"",""19"",""391379""
""focus"",""26"",""589236""
""focus"",""26"",""589237""
""focus"",""26"",""592882""
""focus"",""26"",""592883""
","""event"",""trial"",""time""
""fullscreenenter"",""1"",""3799""
","""event"",""trial"",""time""
""fullscreenexit"",""19"",""266699""
","","","-1","","","23","3522","863","&#9761;","elianto","#3366ff99","-1","-1","1","0","[]","0","0","2","","","","","","","",""
"pit-trial","41","660864","0.0-2.0-11.2-4.2","battery-v0.2","","""event"",""trial"",""time""
""fullscreenenter"",""1"",""3799""
""fullscreenexit"",""19"",""266699""
""blur"",""19"",""267769""
""focus"",""19"",""283513""
""blur"",""19"",""283585""
""focus"",""19"",""352764""
""focus"",""19"",""352766""
""blur"",""19"",""354232""
""focus"",""19"",""391379""
""blur"",""26"",""480887""
""focus"",""26"",""589236""
""focus"",""26"",""589237""
""blur"",""26"",""590686""
""focus"",""26"",""592882""
""focus"",""26"",""592883""
","""event"",""trial"",""time""
""blur"",""19"",""267769""
""blur"",""19"",""283585""
""blur"",""19"",""354232""
""blur"",""26"",""480887""
""blur"",""26"",""590686""
","""event"",""trial"",""time""
""focus"",""19"",""283513""
""focus"",""19"",""352764""
""focus"",""19"",""352766""
""focus"",""19"",""391379""
""focus"",""26"",""589236""
""focus"",""26"",""589237""
""focus"",""26"",""592882""
""focus"",""26"",""592883""
","""event"",""trial"",""time""
""fullscreenenter"",""1"",""3799""
","""event"",""trial"",""time""
""fullscreenexit"",""19"",""266699""
","","","-1","","","23","3522","863","&#9761;","elianto","#3366ff99","-1","-1","1","+10","[]","0","0","2","","","","","","","",""
"call-function","42","660869","0.0-2.0-12.0","battery-v0.2","","""event"",""trial"",""time""
""fullscreenenter"",""1"",""3799""
""fullscreenexit"",""19"",""266699""
""blur"",""19"",""267769""
""focus"",""19"",""283513""
""blur"",""19"",""283585""
""focus"",""19"",""352764""
""focus"",""19"",""352766""
""blur"",""19"",""354232""
""focus"",""19"",""391379""
""blur"",""26"",""480887""
""focus"",""26"",""589236""
""focus"",""26"",""589237""
""blur"",""26"",""590686""
""focus"",""26"",""592882""
""focus"",""26"",""592883""
","""event"",""trial"",""time""
""blur"",""19"",""267769""
""blur"",""19"",""283585""
""blur"",""19"",""354232""
""blur"",""26"",""480887""
""blur"",""26"",""590686""
","""event"",""trial"",""time""
""focus"",""19"",""283513""
""focus"",""19"",""352764""
""focus"",""19"",""352766""
""focus"",""19"",""391379""
""focus"",""26"",""589236""
""focus"",""26"",""589237""
""focus"",""26"",""592882""
""focus"",""26"",""592883""
","""event"",""trial"",""time""
""fullscreenenter"",""1"",""3799""
","""event"",""trial"",""time""
""fullscreenexit"",""19"",""266699""
","","","","","","","","","","","","","","","","","","","","","","","","","","",""
"pit-instructions","43","694558","0.0-2.0-13.0","battery-v0.2","","""event"",""trial"",""time""
""fullscreenenter"",""1"",""3799""
""fullscreenexit"",""19"",""266699""
""blur"",""19"",""267769""
""focus"",""19"",""283513""
""blur"",""19"",""283585""
""focus"",""19"",""352764""
""focus"",""19"",""352766""
""blur"",""19"",""354232""
""focus"",""19"",""391379""
""blur"",""26"",""480887""
""focus"",""26"",""589236""
""focus"",""26"",""589237""
""blur"",""26"",""590686""
""focus"",""26"",""592882""
""focus"",""26"",""592883""
","""event"",""trial"",""time""
""blur"",""19"",""267769""
""blur"",""19"",""283585""
""blur"",""19"",""354232""
""blur"",""26"",""480887""
""blur"",""26"",""590686""
","""event"",""trial"",""time""
""focus"",""19"",""283513""
""focus"",""19"",""352764""
""focus"",""19"",""352766""
""focus"",""19"",""391379""
""focus"",""26"",""589236""
""focus"",""26"",""589237""
""focus"",""26"",""592882""
""focus"",""26"",""592883""
","""event"",""trial"",""time""
""fullscreenenter"",""1"",""3799""
","""event"",""trial"",""time""
""fullscreenexit"",""19"",""266699""
","","[{""page_index"":0,""viewing_time"":5053},{""page_index"":1,""viewing_time"":9533},{""page_index"":2,""viewing_time"":3851},{""page_index"":3,""viewing_time"":10584},{""page_index"":4,""viewing_time"":4666}]","33688","","","","","","","","","","","","","","","","","","","","","","","",""
"pit-trial","44","697981","0.0-2.0-14.0-0.0","battery-v0.2","","""event"",""trial"",""time""
""fullscreenenter"",""1"",""3799""
""fullscreenexit"",""19"",""266699""
""blur"",""19"",""267769""
""focus"",""19"",""283513""
""blur"",""19"",""283585""
""focus"",""19"",""352764""
""focus"",""19"",""352766""
""blur"",""19"",""354232""
""focus"",""19"",""391379""
""blur"",""26"",""480887""
""focus"",""26"",""589236""
""focus"",""26"",""589237""
""blur"",""26"",""590686""
""focus"",""26"",""592882""
""focus"",""26"",""592883""
","""event"",""trial"",""time""
""blur"",""19"",""267769""
""blur"",""19"",""283585""
""blur"",""19"",""354232""
""blur"",""26"",""480887""
""blur"",""26"",""590686""
","""event"",""trial"",""time""
""focus"",""19"",""283513""
""focus"",""19"",""352764""
""focus"",""19"",""352766""
""focus"",""19"",""391379""
""focus"",""26"",""589236""
""focus"",""26"",""589237""
""focus"",""26"",""592882""
""focus"",""26"",""592883""
","""event"",""trial"",""time""
""fullscreenenter"",""1"",""3799""
","""event"",""trial"",""time""
""fullscreenexit"",""19"",""266699""
","","","564","","","23","3522","863","&#9826;","elianto","#f73b6a7A","-1"," ","0","-10","[1415]","1","0","3","","","","","","","",""
"pit-trial","45","701303","0.0-2.0-14.0-1.0","battery-v0.2","","""event"",""trial"",""time""
""fullscreenenter"",""1"",""3799""
""fullscreenexit"",""19"",""266699""
""blur"",""19"",""267769""
""focus"",""19"",""283513""
""blur"",""19"",""283585""
""focus"",""19"",""352764""
""focus"",""19"",""352766""
""blur"",""19"",""354232""
""focus"",""19"",""391379""
""blur"",""26"",""480887""
""focus"",""26"",""589236""
""focus"",""26"",""589237""
""blur"",""26"",""590686""
""focus"",""26"",""592882""
""focus"",""26"",""592883""
","""event"",""trial"",""time""
""blur"",""19"",""267769""
""blur"",""19"",""283585""
""blur"",""19"",""354232""
""blur"",""26"",""480887""
""blur"",""26"",""590686""
","""event"",""trial"",""time""
""focus"",""19"",""283513""
""focus"",""19"",""352764""
""focus"",""19"",""352766""
""focus"",""19"",""391379""
""focus"",""26"",""589236""
""focus"",""26"",""589237""
""focus"",""26"",""592882""
""focus"",""26"",""592883""
","""event"",""trial"",""time""
""fullscreenenter"",""1"",""3799""
","""event"",""trial"",""time""
""fullscreenexit"",""19"",""266699""
","","","464","","","23","3522","863","&#9826;","elianto","#f73b6a7A","-1"," ","0","-10","[1314]","1","0","3","","","","","","","",""
"pit-trial","46","704659","0.0-2.0-14.0-2.0","battery-v0.2","","""event"",""trial"",""time""
""fullscreenenter"",""1"",""3799""
""fullscreenexit"",""19"",""266699""
""blur"",""19"",""267769""
""focus"",""19"",""283513""
""blur"",""19"",""283585""
""focus"",""19"",""352764""
""focus"",""19"",""352766""
""blur"",""19"",""354232""
""focus"",""19"",""391379""
""blur"",""26"",""480887""
""focus"",""26"",""589236""
""focus"",""26"",""589237""
""blur"",""26"",""590686""
""focus"",""26"",""592882""
""focus"",""26"",""592883""
","""event"",""trial"",""time""
""blur"",""19"",""267769""
""blur"",""19"",""283585""
""blur"",""19"",""354232""
""blur"",""26"",""480887""
""blur"",""26"",""590686""
","""event"",""trial"",""time""
""focus"",""19"",""283513""
""focus"",""19"",""352764""
""focus"",""19"",""352766""
""focus"",""19"",""391379""
""focus"",""26"",""589236""
""focus"",""26"",""589237""
""focus"",""26"",""592882""
""focus"",""26"",""592883""
","""event"",""trial"",""time""
""fullscreenenter"",""1"",""3799""
","""event"",""trial"",""time""
""fullscreenexit"",""19"",""266699""
","","","498","","","23","3522","863","&#9826;","elianto","#f73b6a7A","-1"," ","0","-10","[1348]","1","0","3","","","","","","","",""
"pit-trial","47","709518","0.0-2.0-14.0-3.0","battery-v0.2","","""event"",""trial"",""time""
""fullscreenenter"",""1"",""3799""
""fullscreenexit"",""19"",""266699""
""blur"",""19"",""267769""
""focus"",""19"",""283513""
""blur"",""19"",""283585""
""focus"",""19"",""352764""
""focus"",""19"",""352766""
""blur"",""19"",""354232""
""focus"",""19"",""391379""
""blur"",""26"",""480887""
""focus"",""26"",""589236""
""focus"",""26"",""589237""
""blur"",""26"",""590686""
""focus"",""26"",""592882""
""focus"",""26"",""592883""
","""event"",""trial"",""time""
""blur"",""19"",""267769""
""blur"",""19"",""283585""
""blur"",""19"",""354232""
""blur"",""26"",""480887""
""blur"",""26"",""590686""
","""event"",""trial"",""time""
""focus"",""19"",""283513""
""focus"",""19"",""352764""
""focus"",""19"",""352766""
""focus"",""19"",""391379""
""focus"",""26"",""589236""
""focus"",""26"",""589237""
""focus"",""26"",""592882""
""focus"",""26"",""592883""
","""event"",""trial"",""time""
""fullscreenenter"",""1"",""3799""
","""event"",""trial"",""time""
""fullscreenexit"",""19"",""266699""
","","","-1","","","23","3522","863","&#9826;","elianto","#f73b6a7A","-1","-1","1","-10","[]","0","0","3","","","","","","","",""
"pit-trial","48","714375","0.0-2.0-14.0-4.0","battery-v0.2","","""event"",""trial"",""time""
""fullscreenenter"",""1"",""3799""
""fullscreenexit"",""19"",""266699""
""blur"",""19"",""267769""
""focus"",""19"",""283513""
""blur"",""19"",""283585""
""focus"",""19"",""352764""
""focus"",""19"",""352766""
""blur"",""19"",""354232""
""focus"",""19"",""391379""
""blur"",""26"",""480887""
""focus"",""26"",""589236""
""focus"",""26"",""589237""
""blur"",""26"",""590686""
""focus"",""26"",""592882""
""focus"",""26"",""592883""
","""event"",""trial"",""time""
""blur"",""19"",""267769""
""blur"",""19"",""283585""
""blur"",""19"",""354232""
""blur"",""26"",""480887""
""blur"",""26"",""590686""
","""event"",""trial"",""time""
""focus"",""19"",""283513""
""focus"",""19"",""352764""
""focus"",""19"",""352766""
""focus"",""19"",""391379""
""focus"",""26"",""589236""
""focus"",""26"",""589237""
""focus"",""26"",""592882""
""focus"",""26"",""592883""
","""event"",""trial"",""time""
""fullscreenenter"",""1"",""3799""
","""event"",""trial"",""time""
""fullscreenexit"",""19"",""266699""
","","","-1","","","23","3522","863","&#9826;","elianto","#f73b6a7A","-1","-1","1","0","[]","0","0","3","","","","","","","",""
"pit-trial","49","719234","0.0-2.0-14.1-0.1","battery-v0.2","","""event"",""trial"",""time""
""fullscreenenter"",""1"",""3799""
""fullscreenexit"",""19"",""266699""
""blur"",""19"",""267769""
""focus"",""19"",""283513""
""blur"",""19"",""283585""
""focus"",""19"",""352764""
""focus"",""19"",""352766""
""blur"",""19"",""354232""
""focus"",""19"",""391379""
""blur"",""26"",""480887""
""focus"",""26"",""589236""
""focus"",""26"",""589237""
""blur"",""26"",""590686""
""focus"",""26"",""592882""
""focus"",""26"",""592883""
","""event"",""trial"",""time""
""blur"",""19"",""267769""
""blur"",""19"",""283585""
""blur"",""19"",""354232""
""blur"",""26"",""480887""
""blur"",""26"",""590686""
","""event"",""trial"",""time""
""focus"",""19"",""283513""
""focus"",""19"",""352764""
""focus"",""19"",""352766""
""focus"",""19"",""391379""
""focus"",""26"",""589236""
""focus"",""26"",""589237""
""focus"",""26"",""592882""
""focus"",""26"",""592883""
","""event"",""trial"",""time""
""fullscreenenter"",""1"",""3799""
","""event"",""trial"",""time""
""fullscreenexit"",""19"",""266699""
","","","-1","","","23","3522","863","&#9826;","elianto","#f73b6a7A","-1","-1","1","0","[]","0","0","3","","","","","","","",""
"pit-trial","50","724092","0.0-2.0-14.1-1.1","battery-v0.2","","""event"",""trial"",""time""
""fullscreenenter"",""1"",""3799""
""fullscreenexit"",""19"",""266699""
""blur"",""19"",""267769""
""focus"",""19"",""283513""
""blur"",""19"",""283585""
""focus"",""19"",""352764""
""focus"",""19"",""352766""
""blur"",""19"",""354232""
""focus"",""19"",""391379""
""blur"",""26"",""480887""
""focus"",""26"",""589236""
""focus"",""26"",""589237""
""blur"",""26"",""590686""
""focus"",""26"",""592882""
""focus"",""26"",""592883""
","""event"",""trial"",""time""
""blur"",""19"",""267769""
""blur"",""19"",""283585""
""blur"",""19"",""354232""
""blur"",""26"",""480887""
""blur"",""26"",""590686""
","""event"",""trial"",""time""
""focus"",""19"",""283513""
""focus"",""19"",""352764""
""focus"",""19"",""352766""
""focus"",""19"",""391379""
""focus"",""26"",""589236""
""focus"",""26"",""589237""
""focus"",""26"",""592882""
""focus"",""26"",""592883""
","""event"",""trial"",""time""
""fullscreenenter"",""1"",""3799""
","""event"",""trial"",""time""
""fullscreenexit"",""19"",""266699""
","","","-1","","","23","3522","863","&#9826;","elianto","#f73b6a7A","-1","-1","1","0","[]","0","0","3","","","","","","","",""
"pit-trial","51","728950","0.0-2.0-14.1-2.1","battery-v0.2","","""event"",""trial"",""time""
""fullscreenenter"",""1"",""3799""
""fullscreenexit"",""19"",""266699""
""blur"",""19"",""267769""
""focus"",""19"",""283513""
""blur"",""19"",""283585""
""focus"",""19"",""352764""
""focus"",""19"",""352766""
""blur"",""19"",""354232""
""focus"",""19"",""391379""
""blur"",""26"",""480887""
""focus"",""26"",""589236""
""focus"",""26"",""589237""
""blur"",""26"",""590686""
""focus"",""26"",""592882""
""focus"",""26"",""592883""
","""event"",""trial"",""time""
""blur"",""19"",""267769""
""blur"",""19"",""283585""
""blur"",""19"",""354232""
""blur"",""26"",""480887""
""blur"",""26"",""590686""
","""event"",""trial"",""time""
""focus"",""19"",""283513""
""focus"",""19"",""352764""
""focus"",""19"",""352766""
""focus"",""19"",""391379""
""focus"",""26"",""589236""
""focus"",""26"",""589237""
""focus"",""26"",""592882""
""focus"",""26"",""592883""
","""event"",""trial"",""time""
""fullscreenenter"",""1"",""3799""
","""event"",""trial"",""time""
""fullscreenexit"",""19"",""266699""
","","","-1","","","23","3522","863","&#9826;","elianto","#f73b6a7A","-1","-1","1","0","[]","0","0","3","","","","","","","",""
"pit-trial","52","733808","0.0-2.0-14.1-3.1","battery-v0.2","","""event"",""trial"",""time""
""fullscreenenter"",""1"",""3799""
""fullscreenexit"",""19"",""266699""
""blur"",""19"",""267769""
""focus"",""19"",""283513""
""blur"",""19"",""283585""
""focus"",""19"",""352764""
""focus"",""19"",""352766""
""blur"",""19"",""354232""
""focus"",""19"",""391379""
""blur"",""26"",""480887""
""focus"",""26"",""589236""
""focus"",""26"",""589237""
""blur"",""26"",""590686""
""focus"",""26"",""592882""
""focus"",""26"",""592883""
","""event"",""trial"",""time""
""blur"",""19"",""267769""
""blur"",""19"",""283585""
""blur"",""19"",""354232""
""blur"",""26"",""480887""
""blur"",""26"",""590686""
","""event"",""trial"",""time""
""focus"",""19"",""283513""
""focus"",""19"",""352764""
""focus"",""19"",""352766""
""focus"",""19"",""391379""
""focus"",""26"",""589236""
""focus"",""26"",""589237""
""focus"",""26"",""592882""
""focus"",""26"",""592883""
","""event"",""trial"",""time""
""fullscreenenter"",""1"",""3799""
","""event"",""trial"",""time""
""fullscreenexit"",""19"",""266699""
","","","-1","","","23","3522","863","&#9826;","elianto","#f73b6a7A","-1","-1","1","-10","[]","0","0","3","","","","","","","",""
"pit-trial","53","738667","0.0-2.0-14.1-4.1","battery-v0.2","","""event"",""trial"",""time""
""fullscreenenter"",""1"",""3799""
""fullscreenexit"",""19"",""266699""
""blur"",""19"",""267769""
""focus"",""19"",""283513""
""blur"",""19"",""283585""
""focus"",""19"",""352764""
""focus"",""19"",""352766""
""blur"",""19"",""354232""
""focus"",""19"",""391379""
""blur"",""26"",""480887""
""focus"",""26"",""589236""
""focus"",""26"",""589237""
""blur"",""26"",""590686""
""focus"",""26"",""592882""
""focus"",""26"",""592883""
","""event"",""trial"",""time""
""blur"",""19"",""267769""
""blur"",""19"",""283585""
""blur"",""19"",""354232""
""blur"",""26"",""480887""
""blur"",""26"",""590686""
","""event"",""trial"",""time""
""focus"",""19"",""283513""
""focus"",""19"",""352764""
""focus"",""19"",""352766""
""focus"",""19"",""391379""
""focus"",""26"",""589236""
""focus"",""26"",""589237""
""focus"",""26"",""592882""
""focus"",""26"",""592883""
","""event"",""trial"",""time""
""fullscreenenter"",""1"",""3799""
","""event"",""trial"",""time""
""fullscreenexit"",""19"",""266699""
","","","-1","","","23","3522","863","&#9826;","elianto","#f73b6a7A","-1","-1","1","0","[]","0","0","3","","","","","","","",""
"call-function","54","738671","0.0-2.0-15.0","battery-v0.2","","""event"",""trial"",""time""
""fullscreenenter"",""1"",""3799""
""fullscreenexit"",""19"",""266699""
""blur"",""19"",""267769""
""focus"",""19"",""283513""
""blur"",""19"",""283585""
""focus"",""19"",""352764""
""focus"",""19"",""352766""
""blur"",""19"",""354232""
""focus"",""19"",""391379""
""blur"",""26"",""480887""
""focus"",""26"",""589236""
""focus"",""26"",""589237""
""blur"",""26"",""590686""
""focus"",""26"",""592882""
""focus"",""26"",""592883""
","""event"",""trial"",""time""
""blur"",""19"",""267769""
""blur"",""19"",""283585""
""blur"",""19"",""354232""
""blur"",""26"",""480887""
""blur"",""26"",""590686""
","""event"",""trial"",""time""
""focus"",""19"",""283513""
""focus"",""19"",""352764""
""focus"",""19"",""352766""
""focus"",""19"",""391379""
""focus"",""26"",""589236""
""focus"",""26"",""589237""
""focus"",""26"",""592882""
""focus"",""26"",""592883""
","""event"",""trial"",""time""
""fullscreenenter"",""1"",""3799""
","""event"",""trial"",""time""
""fullscreenexit"",""19"",""266699""
","","","","","","","","","","","","","","","","","","","","","","","","","","",""
"pit-instructions","55","764890","0.0-2.0-16.0","battery-v0.2","","""event"",""trial"",""time""
""fullscreenenter"",""1"",""3799""
""fullscreenexit"",""19"",""266699""
""blur"",""19"",""267769""
""focus"",""19"",""283513""
""blur"",""19"",""283585""
""focus"",""19"",""352764""
""focus"",""19"",""352766""
""blur"",""19"",""354232""
""focus"",""19"",""391379""
""blur"",""26"",""480887""
""focus"",""26"",""589236""
""focus"",""26"",""589237""
""blur"",""26"",""590686""
""focus"",""26"",""592882""
""focus"",""26"",""592883""
","""event"",""trial"",""time""
""blur"",""19"",""267769""
""blur"",""19"",""283585""
""blur"",""19"",""354232""
""blur"",""26"",""480887""
""blur"",""26"",""590686""
","""event"",""trial"",""time""
""focus"",""19"",""283513""
""focus"",""19"",""352764""
""focus"",""19"",""352766""
""focus"",""19"",""391379""
""focus"",""26"",""589236""
""focus"",""26"",""589237""
""focus"",""26"",""592882""
""focus"",""26"",""592883""
","""event"",""trial"",""time""
""fullscreenenter"",""1"",""3799""
","""event"",""trial"",""time""
""fullscreenexit"",""19"",""266699""
","","[{""page_index"":0,""viewing_time"":6967.000000000116},{""page_index"":1,""viewing_time"":9883.999999999884},{""page_index"":2,""viewing_time"":4516},{""page_index"":3,""viewing_time"":4850.000000000116}]","26218","","","","","","","","","","","","","","","","","","","","","","","",""
"pit-trial","56","768714","0.0-2.0-17.0-0.0","battery-v0.2","","""event"",""trial"",""time""
""fullscreenenter"",""1"",""3799""
""fullscreenexit"",""19"",""266699""
""blur"",""19"",""267769""
""focus"",""19"",""283513""
""blur"",""19"",""283585""
""focus"",""19"",""352764""
""focus"",""19"",""352766""
""blur"",""19"",""354232""
""focus"",""19"",""391379""
""blur"",""26"",""480887""
""focus"",""26"",""589236""
""focus"",""26"",""589237""
""blur"",""26"",""590686""
""focus"",""26"",""592882""
""focus"",""26"",""592883""
","""event"",""trial"",""time""
""blur"",""19"",""267769""
""blur"",""19"",""283585""
""blur"",""19"",""354232""
""blur"",""26"",""480887""
""blur"",""26"",""590686""
","""event"",""trial"",""time""
""focus"",""19"",""283513""
""focus"",""19"",""352764""
""focus"",""19"",""352766""
""focus"",""19"",""391379""
""focus"",""26"",""589236""
""focus"",""26"",""589237""
""focus"",""26"",""592882""
""focus"",""26"",""592883""
","""event"",""trial"",""time""
""fullscreenenter"",""1"",""3799""
","""event"",""trial"",""time""
""fullscreenexit"",""19"",""266699""
","","","966","","","23","3522","863","&#9789;","elianto","#f73b6a7A"," "," ","1","0","[1817]","1","0","4","","","","","","","",""
"pit-trial","57","772063","0.0-2.0-17.0-1.0","battery-v0.2","","""event"",""trial"",""time""
""fullscreenenter"",""1"",""3799""
""fullscreenexit"",""19"",""266699""
""blur"",""19"",""267769""
""focus"",""19"",""283513""
""blur"",""19"",""283585""
""focus"",""19"",""352764""
""focus"",""19"",""352766""
""blur"",""19"",""354232""
""focus"",""19"",""391379""
""blur"",""26"",""480887""
""focus"",""26"",""589236""
""focus"",""26"",""589237""
""blur"",""26"",""590686""
""focus"",""26"",""592882""
""focus"",""26"",""592883""
","""event"",""trial"",""time""
""blur"",""19"",""267769""
""blur"",""19"",""283585""
""blur"",""19"",""354232""
""blur"",""26"",""480887""
""blur"",""26"",""590686""
","""event"",""trial"",""time""
""focus"",""19"",""283513""
""focus"",""19"",""352764""
""focus"",""19"",""352766""
""focus"",""19"",""391379""
""focus"",""26"",""589236""
""focus"",""26"",""589237""
""focus"",""26"",""592882""
""focus"",""26"",""592883""
","""event"",""trial"",""time""
""fullscreenenter"",""1"",""3799""
","""event"",""trial"",""time""
""fullscreenexit"",""19"",""266699""
","","","492","","","23","3522","863","&#9789;","elianto","#f73b6a7A"," "," ","1","0","[1343]","1","0","4","","","","","","","",""
"pit-trial","58","775421","0.0-2.0-17.0-2.0","battery-v0.2","","""event"",""trial"",""time""
""fullscreenenter"",""1"",""3799""
""fullscreenexit"",""19"",""266699""
""blur"",""19"",""267769""
""focus"",""19"",""283513""
""blur"",""19"",""283585""
""focus"",""19"",""352764""
""focus"",""19"",""352766""
""blur"",""19"",""354232""
""focus"",""19"",""391379""
""blur"",""26"",""480887""
""focus"",""26"",""589236""
""focus"",""26"",""589237""
""blur"",""26"",""590686""
""focus"",""26"",""592882""
""focus"",""26"",""592883""
","""event"",""trial"",""time""
""blur"",""19"",""267769""
""blur"",""19"",""283585""
""blur"",""19"",""354232""
""blur"",""26"",""480887""
""blur"",""26"",""590686""
","""event"",""trial"",""time""
""focus"",""19"",""283513""
""focus"",""19"",""352764""
""focus"",""19"",""352766""
""focus"",""19"",""391379""
""focus"",""26"",""589236""
""focus"",""26"",""589237""
""focus"",""26"",""592882""
""focus"",""26"",""592883""
","""event"",""trial"",""time""
""fullscreenenter"",""1"",""3799""
","""event"",""trial"",""time""
""fullscreenexit"",""19"",""266699""
","","","498","","","23","3522","863","&#9789;","elianto","#f73b6a7A"," "," ","1","0","[1350]","1","0","4","","","","","","","",""
"pit-trial","59","778808","0.0-2.0-17.0-3.0","battery-v0.2","","""event"",""trial"",""time""
""fullscreenenter"",""1"",""3799""
""fullscreenexit"",""19"",""266699""
""blur"",""19"",""267769""
""focus"",""19"",""283513""
""blur"",""19"",""283585""
""focus"",""19"",""352764""
""focus"",""19"",""352766""
""blur"",""19"",""354232""
""focus"",""19"",""391379""
""blur"",""26"",""480887""
""focus"",""26"",""589236""
""focus"",""26"",""589237""
""blur"",""26"",""590686""
""focus"",""26"",""592882""
""focus"",""26"",""592883""
","""event"",""trial"",""time""
""blur"",""19"",""267769""
""blur"",""19"",""283585""
""blur"",""19"",""354232""
""blur"",""26"",""480887""
""blur"",""26"",""590686""
","""event"",""trial"",""time""
""focus"",""19"",""283513""
""focus"",""19"",""352764""
""focus"",""19"",""352766""
""focus"",""19"",""391379""
""focus"",""26"",""589236""
""focus"",""26"",""589237""
""focus"",""26"",""592882""
""focus"",""26"",""592883""
","""event"",""trial"",""time""
""fullscreenenter"",""1"",""3799""
","""event"",""trial"",""time""
""fullscreenexit"",""19"",""266699""
","","","527.9999999998836","","","23","3522","863","&#9789;","elianto","#f73b6a7A"," "," ","1","-10","[1378.9999999998836]","1","0","4","","","","","","","",""
"pit-trial","60","782075","0.0-2.0-17.0-4.0","battery-v0.2","","""event"",""trial"",""time""
""fullscreenenter"",""1"",""3799""
""fullscreenexit"",""19"",""266699""
""blur"",""19"",""267769""
""focus"",""19"",""283513""
""blur"",""19"",""283585""
""focus"",""19"",""352764""
""focus"",""19"",""352766""
""blur"",""19"",""354232""
""focus"",""19"",""391379""
""blur"",""26"",""480887""
""focus"",""26"",""589236""
""focus"",""26"",""589237""
""blur"",""26"",""590686""
""focus"",""26"",""592882""
""focus"",""26"",""592883""
","""event"",""trial"",""time""
""blur"",""19"",""267769""
""blur"",""19"",""283585""
""blur"",""19"",""354232""
""blur"",""26"",""480887""
""blur"",""26"",""590686""
","""event"",""trial"",""time""
""focus"",""19"",""283513""
""focus"",""19"",""352764""
""focus"",""19"",""352766""
""focus"",""19"",""391379""
""focus"",""26"",""589236""
""focus"",""26"",""589237""
""focus"",""26"",""592882""
""focus"",""26"",""592883""
","""event"",""trial"",""time""
""fullscreenenter"",""1"",""3799""
","""event"",""trial"",""time""
""fullscreenexit"",""19"",""266699""
","","","410","","","23","3522","863","&#9789;","elianto","#f73b6a7A"," "," ","1","0","[1261]","1","0","4","","","","","","","",""
"call-function","61","782080","0.0-2.0-18.0","battery-v0.2","","""event"",""trial"",""time""
""fullscreenenter"",""1"",""3799""
""fullscreenexit"",""19"",""266699""
""blur"",""19"",""267769""
""focus"",""19"",""283513""
""blur"",""19"",""283585""
""focus"",""19"",""352764""
""focus"",""19"",""352766""
""blur"",""19"",""354232""
""focus"",""19"",""391379""
""blur"",""26"",""480887""
""focus"",""26"",""589236""
""focus"",""26"",""589237""
""blur"",""26"",""590686""
""focus"",""26"",""592882""
""focus"",""26"",""592883""
","""event"",""trial"",""time""
""blur"",""19"",""267769""
""blur"",""19"",""283585""
""blur"",""19"",""354232""
""blur"",""26"",""480887""
""blur"",""26"",""590686""
","""event"",""trial"",""time""
""focus"",""19"",""283513""
""focus"",""19"",""352764""
""focus"",""19"",""352766""
""focus"",""19"",""391379""
""focus"",""26"",""589236""
""focus"",""26"",""589237""
""focus"",""26"",""592882""
""focus"",""26"",""592883""
","""event"",""trial"",""time""
""fullscreenenter"",""1"",""3799""
","""event"",""trial"",""time""
""fullscreenexit"",""19"",""266699""
","","","","","","","","","","","","","","","","","","","","","","","","","","",""
"pit-instructions","62","851472","0.0-2.0-19.0","battery-v0.2","","""event"",""trial"",""time""
""fullscreenenter"",""1"",""3799""
""fullscreenexit"",""19"",""266699""
""blur"",""19"",""267769""
""focus"",""19"",""283513""
""blur"",""19"",""283585""
""focus"",""19"",""352764""
""focus"",""19"",""352766""
""blur"",""19"",""354232""
""focus"",""19"",""391379""
""blur"",""26"",""480887""
""focus"",""26"",""589236""
""focus"",""26"",""589237""
""blur"",""26"",""590686""
""focus"",""26"",""592882""
""focus"",""26"",""592883""
","""event"",""trial"",""time""
""blur"",""19"",""267769""
""blur"",""19"",""283585""
""blur"",""19"",""354232""
""blur"",""26"",""480887""
""blur"",""26"",""590686""
","""event"",""trial"",""time""
""focus"",""19"",""283513""
""focus"",""19"",""352764""
""focus"",""19"",""352766""
""focus"",""19"",""391379""
""focus"",""26"",""589236""
""focus"",""26"",""589237""
""focus"",""26"",""592882""
""focus"",""26"",""592883""
","""event"",""trial"",""time""
""fullscreenenter"",""1"",""3799""
","""event"",""trial"",""time""
""fullscreenexit"",""19"",""266699""
","","[{""page_index"":0,""viewing_time"":7458.999999999884},{""page_index"":1,""viewing_time"":5583},{""page_index"":2,""viewing_time"":13334},{""page_index"":3,""viewing_time"":7167.000000000116},{""page_index"":4,""viewing_time"":8383.999999999884},{""page_index"":5,""viewing_time"":8784},{""page_index"":6,""viewing_time"":8249},{""page_index"":7,""viewing_time"":5900},{""page_index"":8,""viewing_time"":4533}]","69394","","","","","","","","","","","","","","","","","","","","","","","",""
"pit-comprehension","63","856409","0.0-2.0-20.0-0.0","battery-v0.2","","""event"",""trial"",""time""
""fullscreenenter"",""1"",""3799""
""fullscreenexit"",""19"",""266699""
""blur"",""19"",""267769""
""focus"",""19"",""283513""
""blur"",""19"",""283585""
""focus"",""19"",""352764""
""focus"",""19"",""352766""
""blur"",""19"",""354232""
""focus"",""19"",""391379""
""blur"",""26"",""480887""
""focus"",""26"",""589236""
""focus"",""26"",""589237""
""blur"",""26"",""590686""
""focus"",""26"",""592882""
""focus"",""26"",""592883""
","""event"",""trial"",""time""
""blur"",""19"",""267769""
""blur"",""19"",""283585""
""blur"",""19"",""354232""
""blur"",""26"",""480887""
""blur"",""26"",""590686""
","""event"",""trial"",""time""
""focus"",""19"",""283513""
""focus"",""19"",""352764""
""focus"",""19"",""352766""
""focus"",""19"",""391379""
""focus"",""26"",""589236""
""focus"",""26"",""589237""
""focus"",""26"",""592882""
""focus"",""26"",""592883""
","""event"",""trial"",""time""
""fullscreenenter"",""1"",""3799""
","""event"",""trial"",""time""
""fullscreenexit"",""19"",""266699""
","","","4933","[""SPACE""]","0","23","3522","863","","","","","","","","","","","","","","","","","","",""
"pit-instructions","64","859373","0.0-2.0-20.0-1.0","battery-v0.2","","""event"",""trial"",""time""
""fullscreenenter"",""1"",""3799""
""fullscreenexit"",""19"",""266699""
""blur"",""19"",""267769""
""focus"",""19"",""283513""
""blur"",""19"",""283585""
""focus"",""19"",""352764""
""focus"",""19"",""352766""
""blur"",""19"",""354232""
""focus"",""19"",""391379""
""blur"",""26"",""480887""
""focus"",""26"",""589236""
""focus"",""26"",""589237""
""blur"",""26"",""590686""
""focus"",""26"",""592882""
""focus"",""26"",""592883""
","""event"",""trial"",""time""
""blur"",""19"",""267769""
""blur"",""19"",""283585""
""blur"",""19"",""354232""
""blur"",""26"",""480887""
""blur"",""26"",""590686""
","""event"",""trial"",""time""
""focus"",""19"",""283513""
""focus"",""19"",""352764""
""focus"",""19"",""352766""
""focus"",""19"",""391379""
""focus"",""26"",""589236""
""focus"",""26"",""589237""
""focus"",""26"",""592882""
""focus"",""26"",""592883""
","""event"",""trial"",""time""
""fullscreenenter"",""1"",""3799""
","""event"",""trial"",""time""
""fullscreenexit"",""19"",""266699""
","","[{""page_index"":0,""viewing_time"":2933}]","2934","","","","","","","","","","","","","","","","","","","","","","","",""
"pit-comprehension","65","865275","0.0-2.0-21.0-0.0","battery-v0.2","","""event"",""trial"",""time""
""fullscreenenter"",""1"",""3799""
""fullscreenexit"",""19"",""266699""
""blur"",""19"",""267769""
""focus"",""19"",""283513""
""blur"",""19"",""283585""
""focus"",""19"",""352764""
""focus"",""19"",""352766""
""blur"",""19"",""354232""
""focus"",""19"",""391379""
""blur"",""26"",""480887""
""focus"",""26"",""589236""
""focus"",""26"",""589237""
""blur"",""26"",""590686""
""focus"",""26"",""592882""
""focus"",""26"",""592883""
","""event"",""trial"",""time""
""blur"",""19"",""267769""
""blur"",""19"",""283585""
""blur"",""19"",""354232""
""blur"",""26"",""480887""
""blur"",""26"",""590686""
","""event"",""trial"",""time""
""focus"",""19"",""283513""
""focus"",""19"",""352764""
""focus"",""19"",""352766""
""focus"",""19"",""391379""
""focus"",""26"",""589236""
""focus"",""26"",""589237""
""focus"",""26"",""592882""
""focus"",""26"",""592883""
","""event"",""trial"",""time""
""fullscreenenter"",""1"",""3799""
","""event"",""trial"",""time""
""fullscreenexit"",""19"",""266699""
","","","5897.000000000116","[""10""]","0","23","3522","863","","","","","","","","","","","","","","","","","","",""
"pit-instructions","66","868622","0.0-2.0-21.0-1.0","battery-v0.2","","""event"",""trial"",""time""
""fullscreenenter"",""1"",""3799""
""fullscreenexit"",""19"",""266699""
""blur"",""19"",""267769""
""focus"",""19"",""283513""
""blur"",""19"",""283585""
""focus"",""19"",""352764""
""focus"",""19"",""352766""
""blur"",""19"",""354232""
""focus"",""19"",""391379""
""blur"",""26"",""480887""
""focus"",""26"",""589236""
""focus"",""26"",""589237""
""blur"",""26"",""590686""
""focus"",""26"",""592882""
""focus"",""26"",""592883""
","""event"",""trial"",""time""
""blur"",""19"",""267769""
""blur"",""19"",""283585""
""blur"",""19"",""354232""
""blur"",""26"",""480887""
""blur"",""26"",""590686""
","""event"",""trial"",""time""
""focus"",""19"",""283513""
""focus"",""19"",""352764""
""focus"",""19"",""352766""
""focus"",""19"",""391379""
""focus"",""26"",""589236""
""focus"",""26"",""589237""
""focus"",""26"",""592882""
""focus"",""26"",""592883""
","""event"",""trial"",""time""
""fullscreenenter"",""1"",""3799""
","""event"",""trial"",""time""
""fullscreenexit"",""19"",""266699""
","","[{""page_index"":0,""viewing_time"":3317.9999999998836}]","3318.9999999998836","","","","","","","","","","","","","","","","","","","","","","","",""
"pit-comprehension","67","875560","0.0-2.0-22.0-0.0","battery-v0.2","","""event"",""trial"",""time""
""fullscreenenter"",""1"",""3799""
""fullscreenexit"",""19"",""266699""
""blur"",""19"",""267769""
""focus"",""19"",""283513""
""blur"",""19"",""283585""
""focus"",""19"",""352764""
""focus"",""19"",""352766""
""blur"",""19"",""354232""
""focus"",""19"",""391379""
""blur"",""26"",""480887""
""focus"",""26"",""589236""
""focus"",""26"",""589237""
""blur"",""26"",""590686""
""focus"",""26"",""592882""
""focus"",""26"",""592883""
","""event"",""trial"",""time""
""blur"",""19"",""267769""
""blur"",""19"",""283585""
""blur"",""19"",""354232""
""blur"",""26"",""480887""
""blur"",""26"",""590686""
","""event"",""trial"",""time""
""focus"",""19"",""283513""
""focus"",""19"",""352764""
""focus"",""19"",""352766""
""focus"",""19"",""391379""
""focus"",""26"",""589236""
""focus"",""26"",""589237""
""focus"",""26"",""592882""
""focus"",""26"",""592883""
","""event"",""trial"",""time""
""fullscreenenter"",""1"",""3799""
","""event"",""trial"",""time""
""fullscreenexit"",""19"",""266699""
","","","6931.000000000116","[""0""]","0","23","3522","863","","","","","","","","","","","","","","","","","","",""
"pit-instructions","68","878376","0.0-2.0-22.0-1.0","battery-v0.2","","""event"",""trial"",""time""
""fullscreenenter"",""1"",""3799""
""fullscreenexit"",""19"",""266699""
""blur"",""19"",""267769""
""focus"",""19"",""283513""
""blur"",""19"",""283585""
""focus"",""19"",""352764""
""focus"",""19"",""352766""
""blur"",""19"",""354232""
""focus"",""19"",""391379""
""blur"",""26"",""480887""
""focus"",""26"",""589236""
""focus"",""26"",""589237""
""blur"",""26"",""590686""
""focus"",""26"",""592882""
""focus"",""26"",""592883""
","""event"",""trial"",""time""
""blur"",""19"",""267769""
""blur"",""19"",""283585""
""blur"",""19"",""354232""
""blur"",""26"",""480887""
""blur"",""26"",""590686""
","""event"",""trial"",""time""
""focus"",""19"",""283513""
""focus"",""19"",""352764""
""focus"",""19"",""352766""
""focus"",""19"",""391379""
""focus"",""26"",""589236""
""focus"",""26"",""589237""
""focus"",""26"",""592882""
""focus"",""26"",""592883""
","""event"",""trial"",""time""
""fullscreenenter"",""1"",""3799""
","""event"",""trial"",""time""
""fullscreenexit"",""19"",""266699""
","","[{""page_index"":0,""viewing_time"":2784}]","2787","","","","","","","","","","","","","","","","","","","","","","","",""
"pit-comprehension","69","888859","0.0-2.0-23.0-0.0","battery-v0.2","","""event"",""trial"",""time""
""fullscreenenter"",""1"",""3799""
""fullscreenexit"",""19"",""266699""
""blur"",""19"",""267769""
""focus"",""19"",""283513""
""blur"",""19"",""283585""
""focus"",""19"",""352764""
""focus"",""19"",""352766""
""blur"",""19"",""354232""
""focus"",""19"",""391379""
""blur"",""26"",""480887""
""focus"",""26"",""589236""
""focus"",""26"",""589237""
""blur"",""26"",""590686""
""focus"",""26"",""592882""
""focus"",""26"",""592883""
","""event"",""trial"",""time""
""blur"",""19"",""267769""
""blur"",""19"",""283585""
""blur"",""19"",""354232""
""blur"",""26"",""480887""
""blur"",""26"",""590686""
","""event"",""trial"",""time""
""focus"",""19"",""283513""
""focus"",""19"",""352764""
""focus"",""19"",""352766""
""focus"",""19"",""391379""
""focus"",""26"",""589236""
""focus"",""26"",""589237""
""focus"",""26"",""592882""
""focus"",""26"",""592883""
","""event"",""trial"",""time""
""fullscreenenter"",""1"",""3799""
","""event"",""trial"",""time""
""fullscreenexit"",""19"",""266699""
","","","10479","[""True""]","0","23","3522","863","","","","","","","","","","","","","","","","","","",""
"pit-instructions","70","890773","0.0-2.0-23.0-1.0","battery-v0.2","","""event"",""trial"",""time""
""fullscreenenter"",""1"",""3799""
""fullscreenexit"",""19"",""266699""
""blur"",""19"",""267769""
""focus"",""19"",""283513""
""blur"",""19"",""283585""
""focus"",""19"",""352764""
""focus"",""19"",""352766""
""blur"",""19"",""354232""
""focus"",""19"",""391379""
""blur"",""26"",""480887""
""focus"",""26"",""589236""
""focus"",""26"",""589237""
""blur"",""26"",""590686""
""focus"",""26"",""592882""
""focus"",""26"",""592883""
","""event"",""trial"",""time""
""blur"",""19"",""267769""
""blur"",""19"",""283585""
""blur"",""19"",""354232""
""blur"",""26"",""480887""
""blur"",""26"",""590686""
","""event"",""trial"",""time""
""focus"",""19"",""283513""
""focus"",""19"",""352764""
""focus"",""19"",""352766""
""focus"",""19"",""391379""
""focus"",""26"",""589236""
""focus"",""26"",""589237""
""focus"",""26"",""592882""
""focus"",""26"",""592883""
","""event"",""trial"",""time""
""fullscreenenter"",""1"",""3799""
","""event"",""trial"",""time""
""fullscreenexit"",""19"",""266699""
","","[{""page_index"":0,""viewing_time"":1883}]","1883","","","","","","","","","","","","","","","","","","","","","","","",""
"pit-comprehension","71","898625","0.0-2.0-24.0-0.0","battery-v0.2","","""event"",""trial"",""time""
""fullscreenenter"",""1"",""3799""
""fullscreenexit"",""19"",""266699""
""blur"",""19"",""267769""
""focus"",""19"",""283513""
""blur"",""19"",""283585""
""focus"",""19"",""352764""
""focus"",""19"",""352766""
""blur"",""19"",""354232""
""focus"",""19"",""391379""
""blur"",""26"",""480887""
""focus"",""26"",""589236""
""focus"",""26"",""589237""
""blur"",""26"",""590686""
""focus"",""26"",""592882""
""focus"",""26"",""592883""
","""event"",""trial"",""time""
""blur"",""19"",""267769""
""blur"",""19"",""283585""
""blur"",""19"",""354232""
""blur"",""26"",""480887""
""blur"",""26"",""590686""
","""event"",""trial"",""time""
""focus"",""19"",""283513""
""focus"",""19"",""352764""
""focus"",""19"",""352766""
""focus"",""19"",""391379""
""focus"",""26"",""589236""
""focus"",""26"",""589237""
""focus"",""26"",""592882""
""focus"",""26"",""592883""
","""event"",""trial"",""time""
""fullscreenenter"",""1"",""3799""
","""event"",""trial"",""time""
""fullscreenexit"",""19"",""266699""
","","","7844","[""True""]","0","23","3522","863","","","","","","","","","","","","","","","","","","",""
"pit-instructions","72","900639","0.0-2.0-24.0-1.0","battery-v0.2","","""event"",""trial"",""time""
""fullscreenenter"",""1"",""3799""
""fullscreenexit"",""19"",""266699""
""blur"",""19"",""267769""
""focus"",""19"",""283513""
""blur"",""19"",""283585""
""focus"",""19"",""352764""
""focus"",""19"",""352766""
""blur"",""19"",""354232""
""focus"",""19"",""391379""
""blur"",""26"",""480887""
""focus"",""26"",""589236""
""focus"",""26"",""589237""
""blur"",""26"",""590686""
""focus"",""26"",""592882""
""focus"",""26"",""592883""
","""event"",""trial"",""time""
""blur"",""19"",""267769""
""blur"",""19"",""283585""
""blur"",""19"",""354232""
""blur"",""26"",""480887""
""blur"",""26"",""590686""
","""event"",""trial"",""time""
""focus"",""19"",""283513""
""focus"",""19"",""352764""
""focus"",""19"",""352766""
""focus"",""19"",""391379""
""focus"",""26"",""589236""
""focus"",""26"",""589237""
""focus"",""26"",""592882""
""focus"",""26"",""592883""
","""event"",""trial"",""time""
""fullscreenenter"",""1"",""3799""
","""event"",""trial"",""time""
""fullscreenexit"",""19"",""266699""
","","[{""page_index"":0,""viewing_time"":1984}]","1984","","","","","","","","","","","","","","","","","","","","","","","",""
"pit-comprehension","73","907841","0.0-2.0-25.0-0.0","battery-v0.2","","""event"",""trial"",""time""
""fullscreenenter"",""1"",""3799""
""fullscreenexit"",""19"",""266699""
""blur"",""19"",""267769""
""focus"",""19"",""283513""
""blur"",""19"",""283585""
""focus"",""19"",""352764""
""focus"",""19"",""352766""
""blur"",""19"",""354232""
""focus"",""19"",""391379""
""blur"",""26"",""480887""
""focus"",""26"",""589236""
""focus"",""26"",""589237""
""blur"",""26"",""590686""
""focus"",""26"",""592882""
""focus"",""26"",""592883""
","""event"",""trial"",""time""
""blur"",""19"",""267769""
""blur"",""19"",""283585""
""blur"",""19"",""354232""
""blur"",""26"",""480887""
""blur"",""26"",""590686""
","""event"",""trial"",""time""
""focus"",""19"",""283513""
""focus"",""19"",""352764""
""focus"",""19"",""352766""
""focus"",""19"",""391379""
""focus"",""26"",""589236""
""focus"",""26"",""589237""
""focus"",""26"",""592882""
""focus"",""26"",""592883""
","""event"",""trial"",""time""
""fullscreenenter"",""1"",""3799""
","""event"",""trial"",""time""
""fullscreenexit"",""19"",""266699""
","","","7194","[""True""]","0","23","3522","863","","","","","","","","","","","","","","","","","","",""
"pit-instructions","74","910973","0.0-2.0-25.0-1.0","battery-v0.2","","""event"",""trial"",""time""
""fullscreenenter"",""1"",""3799""
""fullscreenexit"",""19"",""266699""
""blur"",""19"",""267769""
""focus"",""19"",""283513""
""blur"",""19"",""283585""
""focus"",""19"",""352764""
""focus"",""19"",""352766""
""blur"",""19"",""354232""
""focus"",""19"",""391379""
""blur"",""26"",""480887""
""focus"",""26"",""589236""
""focus"",""26"",""589237""
""blur"",""26"",""590686""
""focus"",""26"",""592882""
""focus"",""26"",""592883""
","""event"",""trial"",""time""
""blur"",""19"",""267769""
""blur"",""19"",""283585""
""blur"",""19"",""354232""
""blur"",""26"",""480887""
""blur"",""26"",""590686""
","""event"",""trial"",""time""
""focus"",""19"",""283513""
""focus"",""19"",""352764""
""focus"",""19"",""352766""
""focus"",""19"",""391379""
""focus"",""26"",""589236""
""focus"",""26"",""589237""
""focus"",""26"",""592882""
""focus"",""26"",""592883""
","""event"",""trial"",""time""
""fullscreenenter"",""1"",""3799""
","""event"",""trial"",""time""
""fullscreenexit"",""19"",""266699""
","","[{""page_index"":0,""viewing_time"":3097.9999999998836}]","3098.9999999998836","","","","","","","","","","","","","","","","","","","","","","","",""
"pit-comprehension","75","916324","0.0-2.0-26.0-0.0","battery-v0.2","","""event"",""trial"",""time""
""fullscreenenter"",""1"",""3799""
""fullscreenexit"",""19"",""266699""
""blur"",""19"",""267769""
""focus"",""19"",""283513""
""blur"",""19"",""283585""
""focus"",""19"",""352764""
""focus"",""19"",""352766""
""blur"",""19"",""354232""
""focus"",""19"",""391379""
""blur"",""26"",""480887""
""focus"",""26"",""589236""
""focus"",""26"",""589237""
""blur"",""26"",""590686""
""focus"",""26"",""592882""
""focus"",""26"",""592883""
","""event"",""trial"",""time""
""blur"",""19"",""267769""
""blur"",""19"",""283585""
""blur"",""19"",""354232""
""blur"",""26"",""480887""
""blur"",""26"",""590686""
","""event"",""trial"",""time""
""focus"",""19"",""283513""
""focus"",""19"",""352764""
""focus"",""19"",""352766""
""focus"",""19"",""391379""
""focus"",""26"",""589236""
""focus"",""26"",""589237""
""focus"",""26"",""592882""
""focus"",""26"",""592883""
","""event"",""trial"",""time""
""fullscreenenter"",""1"",""3799""
","""event"",""trial"",""time""
""fullscreenexit"",""19"",""266699""
","","","5342.999999999884","[""False""]","0","23","3522","863","","","","","","","","","","","","","","","","","","",""
"pit-instructions","76","918472","0.0-2.0-26.0-1.0","battery-v0.2","","""event"",""trial"",""time""
""fullscreenenter"",""1"",""3799""
""fullscreenexit"",""19"",""266699""
""blur"",""19"",""267769""
""focus"",""19"",""283513""
""blur"",""19"",""283585""
""focus"",""19"",""352764""
""focus"",""19"",""352766""
""blur"",""19"",""354232""
""focus"",""19"",""391379""
""blur"",""26"",""480887""
""focus"",""26"",""589236""
""focus"",""26"",""589237""
""blur"",""26"",""590686""
""focus"",""26"",""592882""
""focus"",""26"",""592883""
","""event"",""trial"",""time""
""blur"",""19"",""267769""
""blur"",""19"",""283585""
""blur"",""19"",""354232""
""blur"",""26"",""480887""
""blur"",""26"",""590686""
","""event"",""trial"",""time""
""focus"",""19"",""283513""
""focus"",""19"",""352764""
""focus"",""19"",""352766""
""focus"",""19"",""391379""
""focus"",""26"",""589236""
""focus"",""26"",""589237""
""focus"",""26"",""592882""
""focus"",""26"",""592883""
","""event"",""trial"",""time""
""fullscreenenter"",""1"",""3799""
","""event"",""trial"",""time""
""fullscreenexit"",""19"",""266699""
","","[{""page_index"":0,""viewing_time"":2121}]","2121","","","","","","","","","","","","","","","","","","","","","","","",""
"pit-instructions","77","935922","0.0-3.0","battery-v0.2","","""event"",""trial"",""time""
""fullscreenenter"",""1"",""3799""
""fullscreenexit"",""19"",""266699""
""blur"",""19"",""267769""
""focus"",""19"",""283513""
""blur"",""19"",""283585""
""focus"",""19"",""352764""
""focus"",""19"",""352766""
""blur"",""19"",""354232""
""focus"",""19"",""391379""
""blur"",""26"",""480887""
""focus"",""26"",""589236""
""focus"",""26"",""589237""
""blur"",""26"",""590686""
""focus"",""26"",""592882""
""focus"",""26"",""592883""
","""event"",""trial"",""time""
""blur"",""19"",""267769""
""blur"",""19"",""283585""
""blur"",""19"",""354232""
""blur"",""26"",""480887""
""blur"",""26"",""590686""
","""event"",""trial"",""time""
""focus"",""19"",""283513""
""focus"",""19"",""352764""
""focus"",""19"",""352766""
""focus"",""19"",""391379""
""focus"",""26"",""589236""
""focus"",""26"",""589237""
""focus"",""26"",""592882""
""focus"",""26"",""592883""
","""event"",""trial"",""time""
""fullscreenenter"",""1"",""3799""
","""event"",""trial"",""time""
""fullscreenexit"",""19"",""266699""
","","[{""page_index"":0,""viewing_time"":4093},{""page_index"":1,""viewing_time"":5983},{""page_index"":2,""viewing_time"":7367.000000000116}]","17444","","","","","","","","","","","","","","","","","","","","","","","",""
"pit-trial","78","939406","0.0-4.0","battery-v0.2","","""event"",""trial"",""time""
""fullscreenenter"",""1"",""3799""
""fullscreenexit"",""19"",""266699""
""blur"",""19"",""267769""
""focus"",""19"",""283513""
""blur"",""19"",""283585""
""focus"",""19"",""352764""
""focus"",""19"",""352766""
""blur"",""19"",""354232""
""focus"",""19"",""391379""
""blur"",""26"",""480887""
""focus"",""26"",""589236""
""focus"",""26"",""589237""
""blur"",""26"",""590686""
""focus"",""26"",""592882""
""focus"",""26"",""592883""
","""event"",""trial"",""time""
""blur"",""19"",""267769""
""blur"",""19"",""283585""
""blur"",""19"",""354232""
""blur"",""26"",""480887""
""blur"",""26"",""590686""
","""event"",""trial"",""time""
""focus"",""19"",""283513""
""focus"",""19"",""352764""
""focus"",""19"",""352766""
""focus"",""19"",""391379""
""focus"",""26"",""589236""
""focus"",""26"",""589237""
""focus"",""26"",""592882""
""focus"",""26"",""592883""
","""event"",""trial"",""time""
""fullscreenenter"",""1"",""3799""
","""event"",""trial"",""time""
""fullscreenexit"",""19"",""266699""
","","","624","","","23","3522","863","&#9733;","elianto","#3366ff99","-1"," ","0","+10","[1475]","1","1","","","3522","1","2","2","win","no-go","1"
"pit-trial","79","943107","0.0-5.0","battery-v0.2","","""event"",""trial"",""time""
""fullscreenenter"",""1"",""3799""
""fullscreenexit"",""19"",""266699""
""blur"",""19"",""267769""
""focus"",""19"",""283513""
""blur"",""19"",""283585""
""focus"",""19"",""352764""
""focus"",""19"",""352766""
""blur"",""19"",""354232""
""focus"",""19"",""391379""
""blur"",""26"",""480887""
""focus"",""26"",""589236""
""focus"",""26"",""589237""
""blur"",""26"",""590686""
""focus"",""26"",""592882""
""focus"",""26"",""592883""
","""event"",""trial"",""time""
""blur"",""19"",""267769""
""blur"",""19"",""283585""
""blur"",""19"",""354232""
""blur"",""26"",""480887""
""blur"",""26"",""590686""
","""event"",""trial"",""time""
""focus"",""19"",""283513""
""focus"",""19"",""352764""
""focus"",""19"",""352766""
""focus"",""19"",""391379""
""focus"",""26"",""589236""
""focus"",""26"",""589237""
""focus"",""26"",""592882""
""focus"",""26"",""592883""
","""event"",""trial"",""time""
""fullscreenenter"",""1"",""3799""
","""event"",""trial"",""time""
""fullscreenexit"",""19"",""266699""
","","","842","","","23","3522","863","&#9730;","elianto","#3366ff99"," "," ","1","+10","[1694]","1","1","","","3522","2","1","1","win","go","0"
"pit-trial","80","947178","0.0-6.0","battery-v0.2","","""event"",""trial"",""time""
""fullscreenenter"",""1"",""3799""
""fullscreenexit"",""19"",""266699""
""blur"",""19"",""267769""
""focus"",""19"",""283513""
""blur"",""19"",""283585""
""focus"",""19"",""352764""
""focus"",""19"",""352766""
""blur"",""19"",""354232""
""focus"",""19"",""391379""
""blur"",""26"",""480887""
""focus"",""26"",""589236""
""focus"",""26"",""589237""
""blur"",""26"",""590686""
""focus"",""26"",""592882""
""focus"",""26"",""592883""
","""event"",""trial"",""time""
""blur"",""19"",""267769""
""blur"",""19"",""283585""
""blur"",""19"",""354232""
""blur"",""26"",""480887""
""blur"",""26"",""590686""
","""event"",""trial"",""time""
""focus"",""19"",""283513""
""focus"",""19"",""352764""
""focus"",""19"",""352766""
""focus"",""19"",""391379""
""focus"",""26"",""589236""
""focus"",""26"",""589237""
""focus"",""26"",""592882""
""focus"",""26"",""592883""
","""event"",""trial"",""time""
""fullscreenenter"",""1"",""3799""
","""event"",""trial"",""time""
""fullscreenexit"",""19"",""266699""
","","","1212.0000000001164","","","23","3522","863","&#9728;","elianto","#f73b6a7A","-1"," ","0","-10","[2064.0000000001164]","1","1","","","3522","3","0","4","lose","no-go","0"
"pit-trial","81","950729","0.0-7.0","battery-v0.2","","""event"",""trial"",""time""
""fullscreenenter"",""1"",""3799""
""fullscreenexit"",""19"",""266699""
""blur"",""19"",""267769""
""focus"",""19"",""283513""
""blur"",""19"",""283585""
""focus"",""19"",""352764""
""focus"",""19"",""352766""
""blur"",""19"",""354232""
""focus"",""19"",""391379""
""blur"",""26"",""480887""
""focus"",""26"",""589236""
""focus"",""26"",""589237""
""blur"",""26"",""590686""
""focus"",""26"",""592882""
""focus"",""26"",""592883""
","""event"",""trial"",""time""
""blur"",""19"",""267769""
""blur"",""19"",""283585""
""blur"",""19"",""354232""
""blur"",""26"",""480887""
""blur"",""26"",""590686""
","""event"",""trial"",""time""
""focus"",""19"",""283513""
""focus"",""19"",""352764""
""focus"",""19"",""352766""
""focus"",""19"",""391379""
""focus"",""26"",""589236""
""focus"",""26"",""589237""
""focus"",""26"",""592882""
""focus"",""26"",""592883""
","""event"",""trial"",""time""
""fullscreenenter"",""1"",""3799""
","""event"",""trial"",""time""
""fullscreenexit"",""19"",""266699""
","","","692","","","23","3522","863","&#9752;","elianto","#f73b6a7A"," "," ","1","-10","[1542]","1","1","","","3522","4","3","3","lose","go","1"
"pit-trial","82","954076","0.0-8.0","battery-v0.2","","""event"",""trial"",""time""
""fullscreenenter"",""1"",""3799""
""fullscreenexit"",""19"",""266699""
""blur"",""19"",""267769""
""focus"",""19"",""283513""
""blur"",""19"",""283585""
""focus"",""19"",""352764""
""focus"",""19"",""352766""
""blur"",""19"",""354232""
""focus"",""19"",""391379""
""blur"",""26"",""480887""
""focus"",""26"",""589236""
""focus"",""26"",""589237""
""blur"",""26"",""590686""
""focus"",""26"",""592882""
""focus"",""26"",""592883""
","""event"",""trial"",""time""
""blur"",""19"",""267769""
""blur"",""19"",""283585""
""blur"",""19"",""354232""
""blur"",""26"",""480887""
""blur"",""26"",""590686""
","""event"",""trial"",""time""
""focus"",""19"",""283513""
""focus"",""19"",""352764""
""focus"",""19"",""352766""
""focus"",""19"",""391379""
""focus"",""26"",""589236""
""focus"",""26"",""589237""
""focus"",""26"",""592882""
""focus"",""26"",""592883""
","""event"",""trial"",""time""
""fullscreenenter"",""1"",""3799""
","""event"",""trial"",""time""
""fullscreenexit"",""19"",""266699""
","","","487","","","23","3522","863","&#9733;","elianto","#3366ff99","-1"," ","0","0","[1339]","1","1","","","3522","5","2","2","win","no-go","0"
"pit-trial","83","957394","0.0-9.0","battery-v0.2","","""event"",""trial"",""time""
""fullscreenenter"",""1"",""3799""
""fullscreenexit"",""19"",""266699""
""blur"",""19"",""267769""
""focus"",""19"",""283513""
""blur"",""19"",""283585""
""focus"",""19"",""352764""
""focus"",""19"",""352766""
""blur"",""19"",""354232""
""focus"",""19"",""391379""
""blur"",""26"",""480887""
""focus"",""26"",""589236""
""focus"",""26"",""589237""
""blur"",""26"",""590686""
""focus"",""26"",""592882""
""focus"",""26"",""592883""
","""event"",""trial"",""time""
""blur"",""19"",""267769""
""blur"",""19"",""283585""
""blur"",""19"",""354232""
""blur"",""26"",""480887""
""blur"",""26"",""590686""
","""event"",""trial"",""time""
""focus"",""19"",""283513""
""focus"",""19"",""352764""
""focus"",""19"",""352766""
""focus"",""19"",""391379""
""focus"",""26"",""589236""
""focus"",""26"",""589237""
""focus"",""26"",""592882""
""focus"",""26"",""592883""
","""event"",""trial"",""time""
""fullscreenenter"",""1"",""3799""
","""event"",""trial"",""time""
""fullscreenexit"",""19"",""266699""
","","","458.0000000001164","","","23","3522","863","&#9730;","elianto","#3366ff99"," "," ","1","0","[1309.0000000001164]","1","1","","","3522","6","1","1","win","go","1"
"pit-trial","84","961012","0.0-10.0","battery-v0.2","","""event"",""trial"",""time""
""fullscreenenter"",""1"",""3799""
""fullscreenexit"",""19"",""266699""
""blur"",""19"",""267769""
""focus"",""19"",""283513""
""blur"",""19"",""283585""
""focus"",""19"",""352764""
""focus"",""19"",""352766""
""blur"",""19"",""354232""
""focus"",""19"",""391379""
""blur"",""26"",""480887""
""focus"",""26"",""589236""
""focus"",""26"",""589237""
""blur"",""26"",""590686""
""focus"",""26"",""592882""
""focus"",""26"",""592883""
","""event"",""trial"",""time""
""blur"",""19"",""267769""
""blur"",""19"",""283585""
""blur"",""19"",""354232""
""blur"",""26"",""480887""
""blur"",""26"",""590686""
","""event"",""trial"",""time""
""focus"",""19"",""283513""
""focus"",""19"",""352764""
""focus"",""19"",""352766""
""focus"",""19"",""391379""
""focus"",""26"",""589236""
""focus"",""26"",""589237""
""focus"",""26"",""592882""
""focus"",""26"",""592883""
","""event"",""trial"",""time""
""fullscreenenter"",""1"",""3799""
","""event"",""trial"",""time""
""fullscreenexit"",""19"",""266699""
","","","759","","","23","3522","863","&#9728;","elianto","#f73b6a7A","-1"," ","0","-10","[1610]","1","1","","","3522","7","0","4","lose","no-go","0"
"pit-trial","85","964375","0.0-11.0","battery-v0.2","","""event"",""trial"",""time""
""fullscreenenter"",""1"",""3799""
""fullscreenexit"",""19"",""266699""
""blur"",""19"",""267769""
""focus"",""19"",""283513""
""blur"",""19"",""283585""
""focus"",""19"",""352764""
""focus"",""19"",""352766""
""blur"",""19"",""354232""
""focus"",""19"",""391379""
""blur"",""26"",""480887""
""focus"",""26"",""589236""
""focus"",""26"",""589237""
""blur"",""26"",""590686""
""focus"",""26"",""592882""
""focus"",""26"",""592883""
","""event"",""trial"",""time""
""blur"",""19"",""267769""
""blur"",""19"",""283585""
""blur"",""19"",""354232""
""blur"",""26"",""480887""
""blur"",""26"",""590686""
","""event"",""trial"",""time""
""focus"",""19"",""283513""
""focus"",""19"",""352764""
""focus"",""19"",""352766""
""focus"",""19"",""391379""
""focus"",""26"",""589236""
""focus"",""26"",""589237""
""focus"",""26"",""592882""
""focus"",""26"",""592883""
","""event"",""trial"",""time""
""fullscreenenter"",""1"",""3799""
","""event"",""trial"",""time""
""fullscreenexit"",""19"",""266699""
","","","503","","","23","3522","863","&#9752;","elianto","#f73b6a7A"," "," ","1","-10","[1354]","1","1","","","3522","8","3","3","lose","go","1"
"pit-trial","86","967689","0.0-12.0","battery-v0.2","","""event"",""trial"",""time""
""fullscreenenter"",""1"",""3799""
""fullscreenexit"",""19"",""266699""
""blur"",""19"",""267769""
""focus"",""19"",""283513""
""blur"",""19"",""283585""
""focus"",""19"",""352764""
""focus"",""19"",""352766""
""blur"",""19"",""354232""
""focus"",""19"",""391379""
""blur"",""26"",""480887""
""focus"",""26"",""589236""
""focus"",""26"",""589237""
""blur"",""26"",""590686""
""focus"",""26"",""592882""
""focus"",""26"",""592883""
","""event"",""trial"",""time""
""blur"",""19"",""267769""
""blur"",""19"",""283585""
""blur"",""19"",""354232""
""blur"",""26"",""480887""
""blur"",""26"",""590686""
","""event"",""trial"",""time""
""focus"",""19"",""283513""
""focus"",""19"",""352764""
""focus"",""19"",""352766""
""focus"",""19"",""391379""
""focus"",""26"",""589236""
""focus"",""26"",""589237""
""focus"",""26"",""592882""
""focus"",""26"",""592883""
","""event"",""trial"",""time""
""fullscreenenter"",""1"",""3799""
","""event"",""trial"",""time""
""fullscreenexit"",""19"",""266699""
","","","455","","","23","3522","863","&#9730;","elianto","#3366ff99"," "," ","1","+10","[1303.9999999998836]","1","1","","","3522","9","1","1","win","go","0"
"pit-trial","87","972549","0.0-13.0","battery-v0.2","","""event"",""trial"",""time""
""fullscreenenter"",""1"",""3799""
""fullscreenexit"",""19"",""266699""
""blur"",""19"",""267769""
""focus"",""19"",""283513""
""blur"",""19"",""283585""
""focus"",""19"",""352764""
""focus"",""19"",""352766""
""blur"",""19"",""354232""
""focus"",""19"",""391379""
""blur"",""26"",""480887""
""focus"",""26"",""589236""
""focus"",""26"",""589237""
""blur"",""26"",""590686""
""focus"",""26"",""592882""
""focus"",""26"",""592883""
","""event"",""trial"",""time""
""blur"",""19"",""267769""
""blur"",""19"",""283585""
""blur"",""19"",""354232""
""blur"",""26"",""480887""
""blur"",""26"",""590686""
","""event"",""trial"",""time""
""focus"",""19"",""283513""
""focus"",""19"",""352764""
""focus"",""19"",""352766""
""focus"",""19"",""391379""
""focus"",""26"",""589236""
""focus"",""26"",""589237""
""focus"",""26"",""592882""
""focus"",""26"",""592883""
","""event"",""trial"",""time""
""fullscreenenter"",""1"",""3799""
","""event"",""trial"",""time""
""fullscreenexit"",""19"",""266699""
","","","-1","","","23","3522","863","&#9752;","elianto","#f73b6a7A"," ","-1","0","-10","[]","0","1","","","3522","10","3","3","lose","go","0"
"pit-trial","88","975908","0.0-14.0","battery-v0.2","","""event"",""trial"",""time""
""fullscreenenter"",""1"",""3799""
""fullscreenexit"",""19"",""266699""
""blur"",""19"",""267769""
""focus"",""19"",""283513""
""blur"",""19"",""283585""
""focus"",""19"",""352764""
""focus"",""19"",""352766""
""blur"",""19"",""354232""
""focus"",""19"",""391379""
""blur"",""26"",""480887""
""focus"",""26"",""589236""
""focus"",""26"",""589237""
""blur"",""26"",""590686""
""focus"",""26"",""592882""
""focus"",""26"",""592883""
","""event"",""trial"",""time""
""blur"",""19"",""267769""
""blur"",""19"",""283585""
""blur"",""19"",""354232""
""blur"",""26"",""480887""
""blur"",""26"",""590686""
","""event"",""trial"",""time""
""focus"",""19"",""283513""
""focus"",""19"",""352764""
""focus"",""19"",""352766""
""focus"",""19"",""391379""
""focus"",""26"",""589236""
""focus"",""26"",""589237""
""focus"",""26"",""592882""
""focus"",""26"",""592883""
","""event"",""trial"",""time""
""fullscreenenter"",""1"",""3799""
","""event"",""trial"",""time""
""fullscreenexit"",""19"",""266699""
","","","499.0000000001164","","","23","3522","863","&#9733;","elianto","#3366ff99","-1"," ","0","0","[1349]","1","1","","","3522","11","2","2","win","no-go","0"
"pit-trial","89","980769","0.0-15.0","battery-v0.2","","""event"",""trial"",""time""
""fullscreenenter"",""1"",""3799""
""fullscreenexit"",""19"",""266699""
""blur"",""19"",""267769""
""focus"",""19"",""283513""
""blur"",""19"",""283585""
""focus"",""19"",""352764""
""focus"",""19"",""352766""
""blur"",""19"",""354232""
""focus"",""19"",""391379""
""blur"",""26"",""480887""
""focus"",""26"",""589236""
""focus"",""26"",""589237""
""blur"",""26"",""590686""
""focus"",""26"",""592882""
""focus"",""26"",""592883""
","""event"",""trial"",""time""
""blur"",""19"",""267769""
""blur"",""19"",""283585""
""blur"",""19"",""354232""
""blur"",""26"",""480887""
""blur"",""26"",""590686""
","""event"",""trial"",""time""
""focus"",""19"",""283513""
""focus"",""19"",""352764""
""focus"",""19"",""352766""
""focus"",""19"",""391379""
""focus"",""26"",""589236""
""focus"",""26"",""589237""
""focus"",""26"",""592882""
""focus"",""26"",""592883""
","""event"",""trial"",""time""
""fullscreenenter"",""1"",""3799""
","""event"",""trial"",""time""
""fullscreenexit"",""19"",""266699""
","","","-1","","","23","3522","863","&#9728;","elianto","#f73b6a7A","-1","-1","1","0","[]","0","1","","","3522","12","0","4","lose","no-go","0"
"pit-trial","90","985629","0.0-16.0","battery-v0.2","","""event"",""trial"",""time""
""fullscreenenter"",""1"",""3799""
""fullscreenexit"",""19"",""266699""
""blur"",""19"",""267769""
""focus"",""19"",""283513""
""blur"",""19"",""283585""
""focus"",""19"",""352764""
""focus"",""19"",""352766""
""blur"",""19"",""354232""
""focus"",""19"",""391379""
""blur"",""26"",""480887""
""focus"",""26"",""589236""
""focus"",""26"",""589237""
""blur"",""26"",""590686""
""focus"",""26"",""592882""
""focus"",""26"",""592883""
","""event"",""trial"",""time""
""blur"",""19"",""267769""
""blur"",""19"",""283585""
""blur"",""19"",""354232""
""blur"",""26"",""480887""
""blur"",""26"",""590686""
","""event"",""trial"",""time""
""focus"",""19"",""283513""
""focus"",""19"",""352764""
""focus"",""19"",""352766""
""focus"",""19"",""391379""
""focus"",""26"",""589236""
""focus"",""26"",""589237""
""focus"",""26"",""592882""
""focus"",""26"",""592883""
","""event"",""trial"",""time""
""fullscreenenter"",""1"",""3799""
","""event"",""trial"",""time""
""fullscreenexit"",""19"",""266699""
","","","-1","","","23","3522","863","&#9752;","elianto","#f73b6a7A"," ","-1","0","-10","[]","0","1","","","3522","13","3","3","lose","go","0"
"pit-trial","91","990489","0.0-17.0","battery-v0.2","","""event"",""trial"",""time""
""fullscreenenter"",""1"",""3799""
""fullscreenexit"",""19"",""266699""
""blur"",""19"",""267769""
""focus"",""19"",""283513""
""blur"",""19"",""283585""
""focus"",""19"",""352764""
""focus"",""19"",""352766""
""blur"",""19"",""354232""
""focus"",""19"",""391379""
""blur"",""26"",""480887""
""focus"",""26"",""589236""
""focus"",""26"",""589237""
""blur"",""26"",""590686""
""focus"",""26"",""592882""
""focus"",""26"",""592883""
","""event"",""trial"",""time""
""blur"",""19"",""267769""
""blur"",""19"",""283585""
""blur"",""19"",""354232""
""blur"",""26"",""480887""
""blur"",""26"",""590686""
","""event"",""trial"",""time""
""focus"",""19"",""283513""
""focus"",""19"",""352764""
""focus"",""19"",""352766""
""focus"",""19"",""391379""
""focus"",""26"",""589236""
""focus"",""26"",""589237""
""focus"",""26"",""592882""
""focus"",""26"",""592883""
","""event"",""trial"",""time""
""fullscreenenter"",""1"",""3799""
","""event"",""trial"",""time""
""fullscreenexit"",""19"",""266699""
","","","-1","","","23","3522","863","&#9728;","elianto","#f73b6a7A","-1","-1","1","0","[]","0","1","","","3522","14","0","4","lose","no-go","0"
"pit-trial","92","993870","0.0-18.0","battery-v0.2","","""event"",""trial"",""time""
""fullscreenenter"",""1"",""3799""
""fullscreenexit"",""19"",""266699""
""blur"",""19"",""267769""
""focus"",""19"",""283513""
""blur"",""19"",""283585""
""focus"",""19"",""352764""
""focus"",""19"",""352766""
""blur"",""19"",""354232""
""focus"",""19"",""391379""
""blur"",""26"",""480887""
""focus"",""26"",""589236""
""focus"",""26"",""589237""
""blur"",""26"",""590686""
""focus"",""26"",""592882""
""focus"",""26"",""592883""
","""event"",""trial"",""time""
""blur"",""19"",""267769""
""blur"",""19"",""283585""
""blur"",""19"",""354232""
""blur"",""26"",""480887""
