"trial_type","trial_index","time_elapsed","internal_node_id","task_version","subject_id","interactions","blur_events","focus_events","fullscreenenter_events","fullscreenexit_events","success","view_history","rt","responses","num_errors","age","subject","participantId","rune","rune_set","hex","correct","choice","accuracy","outcome","keys","total_keys","block","practice","value","sub","trial","stimulus","robot","valence","action","sham"
"pavlovia","0","30","0.0-0.0","battery-v0.2","","""event"",""trial"",""time""
""fullscreenenter"",""1"",""5538""
","
","
","""event"",""trial"",""time""
""fullscreenenter"",""1"",""5538""
","
","","","","","","","","","","","","","","","","","","","","","","","","","","",""
"fullscreen","1","6262","0.0-1.0","battery-v0.2","","""event"",""trial"",""time""
""fullscreenenter"",""1"",""5538""
","
","
","""event"",""trial"",""time""
""fullscreenenter"",""1"",""5538""
","
","true","","","","","","","","","","","","","","","","","","","","","","","","","",""
"pit-instructions","2","12300","0.0-2.0-0.0","battery-v0.2","","""event"",""trial"",""time""
""fullscreenenter"",""1"",""5538""
","
","
","""event"",""trial"",""time""
""fullscreenenter"",""1"",""5538""
","
","","[{""page_index"":0,""viewing_time"":6025.399999976158}]","6026.600000023842","","","","","","","","","","","","","","","","","","","","","","","",""
"pit-comprehension","3","20572","0.0-2.0-1.0-0.0","battery-v0.2","","""event"",""trial"",""time""
""fullscreenenter"",""1"",""5538""
","
","
","""event"",""trial"",""time""
""fullscreenenter"",""1"",""5538""
","
","","","8262.5","[""shark""]","0","12","6359","3632","","","","","","","","","","","","","","","","","","",""
"pit-instructions","4","24718","0.0-2.0-1.0-1.0","battery-v0.2","","""event"",""trial"",""time""
""fullscreenenter"",""1"",""5538""
","
","
","""event"",""trial"",""time""
""fullscreenenter"",""1"",""5538""
","
","","[{""page_index"":0,""viewing_time"":4100.5}]","4101.5","","","","","","","","","","","","","","","","","","","","","","","",""
"pit-comprehension","5","28471","0.0-2.0-2.0-0.0","battery-v0.2","","""event"",""trial"",""time""
""fullscreenenter"",""1"",""5538""
","
","
","""event"",""trial"",""time""
""fullscreenenter"",""1"",""5538""
","
","","","3744.300000011921","[""tiger""]","0","12","6359","3632","","","","","","","","","","","","","","","","","","",""
"pit-instructions","6","29168","0.0-2.0-2.0-1.0","battery-v0.2","","""event"",""trial"",""time""
""fullscreenenter"",""1"",""5538""
","
","
","""event"",""trial"",""time""
""fullscreenenter"",""1"",""5538""
","
","","[{""page_index"":0,""viewing_time"":686.3000000119209}]","687.1000000238419","","","","","","","","","","","","","","","","","","","","","","","",""
"pit-instructions","7","129813","0.0-2.0-3.0","battery-v0.2","","""event"",""trial"",""time""
""fullscreenenter"",""1"",""5538""
","
","
","""event"",""trial"",""time""
""fullscreenenter"",""1"",""5538""
","
","","[{""page_index"":0,""viewing_time"":10148.199999988079},{""page_index"":1,""viewing_time"":6940.199999988079},{""page_index"":2,""viewing_time"":6938.700000047684},{""page_index"":3,""viewing_time"":5750.399999976158},{""page_index"":4,""viewing_time"":5987.800000011921},{""page_index"":5,""viewing_time"":5939.099999964237},{""page_index"":6,""viewing_time"":7975.800000011921},{""page_index"":7,""viewing_time"":6812.100000023842},{""page_index"":8,""viewing_time"":6175.300000011921},{""page_index"":9,""viewing_time"":9495.299999952316},{""page_index"":10,""viewing_time"":7669.300000011921},{""page_index"":11,""viewing_time"":7283.400000035763},{""page_index"":12,""viewing_time"":8417.5},{""page_index"":13,""viewing_time"":5104}]","100638","","","","","","","","","","","","","","","","","","","","","","","",""
"pit-trial","8","133506","0.0-2.0-4.0-0.0","battery-v0.2","","""event"",""trial"",""time""
""fullscreenenter"",""1"",""5538""
","
","
","""event"",""trial"",""time""
""fullscreenenter"",""1"",""5538""
","
","","","824.8999999761581","","","12","6359","3632","&#9784;","elianto","#FFFFF080"," "," ","1","&#10004","[1675.300000011921]","1","0","0","","","","","","","",""
"pit-trial","9","137048","0.0-2.0-4.1-0.1","battery-v0.2","","""event"",""trial"",""time""
""fullscreenenter"",""1"",""5538""
","
","
","""event"",""trial"",""time""
""fullscreenenter"",""1"",""5538""
","
","","","678.5999999642372","","","12","6359","3632","&#9784;","elianto","#FFFFF080"," "," ","1","&#10004","[1534.300000011921]","1","0","0","","","","","","","",""
"pit-trial","10","140558","0.0-2.0-4.2-0.2","battery-v0.2","","""event"",""trial"",""time""
""fullscreenenter"",""1"",""5538""
","
","
","""event"",""trial"",""time""
""fullscreenenter"",""1"",""5538""
","
","","","643","","","12","6359","3632","&#9784;","elianto","#FFFFF080"," "," ","1","&#10004","[1496.9000000357628]","1","0","0","","","","","","","",""
"pit-trial","11","144055","0.0-2.0-4.3-0.3","battery-v0.2","","""event"",""trial"",""time""
""fullscreenenter"",""1"",""5538""
","
","
","""event"",""trial"",""time""
""fullscreenenter"",""1"",""5538""
","
","","","627.8999999761581","","","12","6359","3632","&#9784;","elianto","#FFFFF080"," "," ","1","&#10004","[1482.4000000357628]","1","0","0","","","","","","","",""
"pit-trial","12","147587","0.0-2.0-4.4-0.4","battery-v0.2","","""event"",""trial"",""time""
""fullscreenenter"",""1"",""5538""
","
","
","""event"",""trial"",""time""
""fullscreenenter"",""1"",""5538""
","
","","","664.5","","","12","6359","3632","&#9784;","elianto","#FFFFF080"," "," ","1","&#10004","[1517.3999999761581]","1","0","0","","","","","","","",""
"pit-instructions","13","169366","0.0-2.0-5.0","battery-v0.2","","""event"",""trial"",""time""
""fullscreenenter"",""1"",""5538""
","
","
","""event"",""trial"",""time""
""fullscreenenter"",""1"",""5538""
","
","","[{""page_index"":0,""viewing_time"":5403.899999976158},{""page_index"":1,""viewing_time"":6441.899999976158},{""page_index"":2,""viewing_time"":4838.100000023842},{""page_index"":3,""viewing_time"":5088.199999988079}]","21772.799999952316","","","","","","","","","","","","","","","","","","","","","","","",""
"pit-trial","14","174239","0.0-2.0-6.0-0.0","battery-v0.2","","""event"",""trial"",""time""
""fullscreenenter"",""1"",""5538""
","
","
","""event"",""trial"",""time""
""fullscreenenter"",""1"",""5538""
","
","","","-1","","","12","6359","3632","&#9854;","elianto","#FFFFF080","-1","-1","1","&#10004","[]","0","0","1","","","","","","","",""
"pit-trial","15","179101","0.0-2.0-6.1-0.1","battery-v0.2","","""event"",""trial"",""time""
""fullscreenenter"",""1"",""5538""
","
","
","""event"",""trial"",""time""
""fullscreenenter"",""1"",""5538""
","
","","","-1","","","12","6359","3632","&#9854;","elianto","#FFFFF080","-1","-1","1","&#10004","[]","0","0","1","","","","","","","",""
"pit-trial","16","183967","0.0-2.0-6.2-0.2","battery-v0.2","","""event"",""trial"",""time""
""fullscreenenter"",""1"",""5538""
","
","
","""event"",""trial"",""time""
""fullscreenenter"",""1"",""5538""
","
","","","-1","","","12","6359","3632","&#9854;","elianto","#FFFFF080","-1","-1","1","&#10004","[]","0","0","1","","","","","","","",""
"pit-trial","17","188836","0.0-2.0-6.3-0.3","battery-v0.2","","""event"",""trial"",""time""
""fullscreenenter"",""1"",""5538""
","
","
","""event"",""trial"",""time""
""fullscreenenter"",""1"",""5538""
","
","","","-1","","","12","6359","3632","&#9854;","elianto","#FFFFF080","-1","-1","1","&#10004","[]","0","0","1","","","","","","","",""
"pit-trial","18","193708","0.0-2.0-6.4-0.4","battery-v0.2","","""event"",""trial"",""time""
""fullscreenenter"",""1"",""5538""
","
","
","""event"",""trial"",""time""
""fullscreenenter"",""1"",""5538""
","
","","","-1","","","12","6359","3632","&#9854;","elianto","#FFFFF080","-1","-1","1","&#10004","[]","0","0","1","","","","","","","",""
"pit-instructions","19","315590","0.0-2.0-7.0","battery-v0.2","","""event"",""trial"",""time""
""fullscreenenter"",""1"",""5538""
","
","
","""event"",""trial"",""time""
""fullscreenenter"",""1"",""5538""
","
","","[{""page_index"":0,""viewing_time"":5176.400000035763},{""page_index"":1,""viewing_time"":8087.299999952316},{""page_index"":2,""viewing_time"":6133},{""page_index"":3,""viewing_time"":8006.800000011921},{""page_index"":4,""viewing_time"":5482.600000023842},{""page_index"":5,""viewing_time"":5797.599999964237},{""page_index"":6,""viewing_time"":4939.400000035763},{""page_index"":7,""viewing_time"":8955},{""page_index"":8,""viewing_time"":7628.5},{""page_index"":9,""viewing_time"":6961.699999988079},{""page_index"":10,""viewing_time"":6744.199999988079},{""page_index"":11,""viewing_time"":4232.5},{""page_index"":12,""viewing_time"":8275.199999988079},{""page_index"":13,""viewing_time"":7367.100000023842},{""page_index"":14,""viewing_time"":7824.600000023842},{""page_index"":15,""viewing_time"":7650.099999964237},{""page_index"":16,""viewing_time"":6574.300000011921},{""page_index"":17,""viewing_time"":6040}]","121877","","","","","","","","","","","","","","","","","","","","","","","",""
"pit-trial","20","319021","0.0-2.0-8.0-0.0","battery-v0.2","","""event"",""trial"",""time""
""fullscreenenter"",""1"",""5538""
","
","
","""event"",""trial"",""time""
""fullscreenenter"",""1"",""5538""
","
","","","569.8000000119209","","","12","6359","3632","&#9776;","elianto","#3366ff99"," "," ","1","+10","[1425.699999988079]","1","0","1","","","","","","","",""
"pit-trial","21","322421","0.0-2.0-8.0-1.0","battery-v0.2","","""event"",""trial"",""time""
""fullscreenenter"",""1"",""5538""
","
","
","""event"",""trial"",""time""
""fullscreenenter"",""1"",""5538""
","
","","","542.3000000119209","","","12","6359","3632","&#9776;","elianto","#3366ff99"," "," ","1","+10","[1395.3999999761581]","1","0","1","","","","","","","",""
"pit-trial","22","325742","0.0-2.0-8.0-2.0","battery-v0.2","","""event"",""trial"",""time""
""fullscreenenter"",""1"",""5538""
","
","
","""event"",""trial"",""time""
""fullscreenenter"",""1"",""5538""
","
","","","462.4000000357628","","","12","6359","3632","&#9776;","elianto","#3366ff99"," "," ","1","+10","[1313.5]","1","0","1","","","","","","","",""
"pit-trial","23","329052","0.0-2.0-8.0-3.0","battery-v0.2","","""event"",""trial"",""time""
""fullscreenenter"",""1"",""5538""
","
","
","""event"",""trial"",""time""
""fullscreenenter"",""1"",""5538""
","
","","","451.69999998807907","","","12","6359","3632","&#9776;","elianto","#3366ff99"," "," ","1","0","[1305.2999999523163]","1","0","1","","","","","","","",""
"pit-trial","24","332362","0.0-2.0-8.0-4.0","battery-v0.2","","""event"",""trial"",""time""
""fullscreenenter"",""1"",""5538""
","
","
","""event"",""trial"",""time""
""fullscreenenter"",""1"",""5538""
","
","","","440.5999999642372","","","12","6359","3632","&#9776;","elianto","#3366ff99"," "," ","1","+10","[1291.800000011921]","1","0","1","","","","","","","",""
"pit-trial","25","335706","0.0-2.0-8.1-0.1","battery-v0.2","","""event"",""trial"",""time""
""fullscreenenter"",""1"",""5538""
","
","
","""event"",""trial"",""time""
""fullscreenenter"",""1"",""5538""
","
","","","473.4000000357628","","","12","6359","3632","&#9776;","elianto","#3366ff99"," "," ","1","+10","[1335]","1","0","1","","","","","","","",""
"pit-trial","26","339054","0.0-2.0-8.1-1.1","battery-v0.2","","""event"",""trial"",""time""
""fullscreenenter"",""1"",""5538""
","
","
","""event"",""trial"",""time""
""fullscreenenter"",""1"",""5538""
","
","","","480.4000000357628","","","12","6359","3632","&#9776;","elianto","#3366ff99"," "," ","1","+10","[1333.699999988079]","1","0","1","","","","","","","",""
"pit-trial","27","342096","0.0-2.0-8.1-2.1","battery-v0.2","","""event"",""trial"",""time""
""fullscreenenter"",""1"",""5538""
","
","
","""event"",""trial"",""time""
""fullscreenenter"",""1"",""5538""
","
","","","179.0999999642372","","","12","6359","3632","&#9776;","elianto","#3366ff99"," "," ","1","+10","[1034.5]","1","0","1","","","","","","","",""
"pit-trial","28","345229","0.0-2.0-8.1-3.1","battery-v0.2","","""event"",""trial"",""time""
""fullscreenenter"",""1"",""5538""
","
","
","""event"",""trial"",""time""
""fullscreenenter"",""1"",""5538""
","
","","","275.2999999523163","","","12","6359","3632","&#9776;","elianto","#3366ff99"," "," ","1","0","[1127.7999999523163]","1","0","1","","","","","","","",""
"pit-trial","29","348223","0.0-2.0-8.1-4.1","battery-v0.2","","""event"",""trial"",""time""
""fullscreenenter"",""1"",""5538""
","
","
","""event"",""trial"",""time""
""fullscreenenter"",""1"",""5538""
","
","","","135.60000002384186","","","12","6359","3632","&#9776;","elianto","#3366ff99"," "," ","1","+10","[989.5999999642372]","1","0","1","","","","","","","",""
"pit-trial","30","351581","0.0-2.0-8.2-0.2","battery-v0.2","","""event"",""trial"",""time""
""fullscreenenter"",""1"",""5538""
","
","
","""event"",""trial"",""time""
""fullscreenenter"",""1"",""5538""
","
","","","502.0999999642372","","","12","6359","3632","&#9776;","elianto","#3366ff99"," "," ","1","+10","[33.40000003576279,1353]","2","0","1","","","","","","","",""
"pit-trial","31","354797","0.0-2.0-8.2-1.2","battery-v0.2","","""event"",""trial"",""time""
""fullscreenenter"",""1"",""5538""
","
","
","""event"",""trial"",""time""
""fullscreenenter"",""1"",""5538""
","
","","","357.39999997615814","","","12","6359","3632","&#9776;","elianto","#3366ff99"," "," ","1","+10","[1210.3999999761581,2291.7999999523163]","2","0","1","","","","","","","",""
"pit-trial","32","358157","0.0-2.0-8.2-2.2","battery-v0.2","","""event"",""trial"",""time""
""fullscreenenter"",""1"",""5538""
","
","
","""event"",""trial"",""time""
""fullscreenenter"",""1"",""5538""
","
","","","502.5","","","12","6359","3632","&#9776;","elianto","#3366ff99"," "," ","1","+10","[1356]","1","0","1","","","","","","","",""
"pit-trial","33","361413","0.0-2.0-8.2-3.2","battery-v0.2","","""event"",""trial"",""time""
""fullscreenenter"",""1"",""5538""
","
","
","""event"",""trial"",""time""
""fullscreenenter"",""1"",""5538""
","
","","","401","","","12","6359","3632","&#9776;","elianto","#3366ff99"," "," ","1","0","[1251.800000011921]","1","0","1","","","","","","","",""
"pit-trial","34","364709","0.0-2.0-8.2-4.2","battery-v0.2","","""event"",""trial"",""time""
""fullscreenenter"",""1"",""5538""
","
","
","""event"",""trial"",""time""
""fullscreenenter"",""1"",""5538""
","
","","","439.4000000357628","","","12","6359","3632","&#9776;","elianto","#3366ff99"," "," ","1","+10","[1293.0999999642372]","1","0","1","","","","","","","",""
"call-function","35","364714","0.0-2.0-9.0","battery-v0.2","","""event"",""trial"",""time""
""fullscreenenter"",""1"",""5538""
","
","
","""event"",""trial"",""time""
""fullscreenenter"",""1"",""5538""
","
","","","","","","","","","","","","","","","","","","","","","","","","","","",""
"pit-instructions","36","415843","0.0-2.0-10.0","battery-v0.2","","""event"",""trial"",""time""
""fullscreenenter"",""1"",""5538""
","
","
","""event"",""trial"",""time""
""fullscreenenter"",""1"",""5538""
","
","","[{""page_index"":0,""viewing_time"":6374.899999976158},{""page_index"":1,""viewing_time"":7376.100000023842},{""page_index"":2,""viewing_time"":9811.699999988079},{""page_index"":3,""viewing_time"":19652.899999976158},{""page_index"":4,""viewing_time"":7911.100000023842}]","51127.5","","","","","","","","","","","","","","","","","","","","","","","",""
"pit-trial","37","419809","0.0-2.0-11.0-0.0","battery-v0.2","","""event"",""trial"",""time""
""fullscreenenter"",""1"",""5538""
","
","
","""event"",""trial"",""time""
""fullscreenenter"",""1"",""5538""
","
","","","1107.199999988079","","","12","6359","3632","&#9761;","elianto","#3366ff99","-1"," ","0","0","[1958.9000000357628,3720.2000000476837]","2","0","2","","","","","","","",""
"pit-trial","38","424665","0.0-2.0-11.0-1.0","battery-v0.2","","""event"",""trial"",""time""
""fullscreenenter"",""1"",""5538""
","
","
","""event"",""trial"",""time""
""fullscreenenter"",""1"",""5538""
","
","","","-1","","","12","6359","3632","&#9761;","elianto","#3366ff99","-1","-1","1","+10","[]","0","0","2","","","","","","","",""
"pit-trial","39","429524","0.0-2.0-11.0-2.0","battery-v0.2","","""event"",""trial"",""time""
""fullscreenenter"",""1"",""5538""
","
","
","""event"",""trial"",""time""
""fullscreenenter"",""1"",""5538""
","
","","","-1","","","12","6359","3632","&#9761;","elianto","#3366ff99","-1","-1","1","+10","[]","0","0","2","","","","","","","",""
"pit-trial","40","434390","0.0-2.0-11.0-3.0","battery-v0.2","","""event"",""trial"",""time""
""fullscreenenter"",""1"",""5538""
","
","
","""event"",""trial"",""time""
""fullscreenenter"",""1"",""5538""
","
","","","-1","","","12","6359","3632","&#9761;","elianto","#3366ff99","-1","-1","1","0","[]","0","0","2","","","","","","","",""
"pit-trial","41","439250","0.0-2.0-11.0-4.0","battery-v0.2","","""event"",""trial"",""time""
""fullscreenenter"",""1"",""5538""
","
","
","""event"",""trial"",""time""
""fullscreenenter"",""1"",""5538""
","
","","","-1","","","12","6359","3632","&#9761;","elianto","#3366ff99","-1","-1","1","+10","[]","0","0","2","","","","","","","",""
"pit-trial","42","444109","0.0-2.0-11.1-0.1","battery-v0.2","","""event"",""trial"",""time""
""fullscreenenter"",""1"",""5538""
","
","
","""event"",""trial"",""time""
""fullscreenenter"",""1"",""5538""
","
","","","-1","","","12","6359","3632","&#9761;","elianto","#3366ff99","-1","-1","1","+10","[]","0","0","2","","","","","","","",""
"pit-trial","43","448966","0.0-2.0-11.1-1.1","battery-v0.2","","""event"",""trial"",""time""
""fullscreenenter"",""1"",""5538""
","
","
","""event"",""trial"",""time""
""fullscreenenter"",""1"",""5538""
","
","","","-1","","","12","6359","3632","&#9761;","elianto","#3366ff99","-1","-1","1","+10","[]","0","0","2","","","","","","","",""
"pit-trial","44","453821","0.0-2.0-11.1-2.1","battery-v0.2","","""event"",""trial"",""time""
""fullscreenenter"",""1"",""5538""
","
","
","""event"",""trial"",""time""
""fullscreenenter"",""1"",""5538""
","
","","","-1","","","12","6359","3632","&#9761;","elianto","#3366ff99","-1","-1","1","+10","[]","0","0","2","","","","","","","",""
"pit-trial","45","458676","0.0-2.0-11.1-3.1","battery-v0.2","","""event"",""trial"",""time""
""fullscreenenter"",""1"",""5538""
","
","
","""event"",""trial"",""time""
""fullscreenenter"",""1"",""5538""
","
","","","-1","","","12","6359","3632","&#9761;","elianto","#3366ff99","-1","-1","1","0","[]","0","0","2","","","","","","","",""
"pit-trial","46","463530","0.0-2.0-11.1-4.1","battery-v0.2","","""event"",""trial"",""time""
""fullscreenenter"",""1"",""5538""
","
","
","""event"",""trial"",""time""
""fullscreenenter"",""1"",""5538""
","
","","","-1","","","12","6359","3632","&#9761;","elianto","#3366ff99","-1","-1","1","+10","[]","0","0","2","","","","","","","",""
"pit-trial","47","468385","0.0-2.0-11.2-0.2","battery-v0.2","","""event"",""trial"",""time""
""fullscreenenter"",""1"",""5538""
","
","
","""event"",""trial"",""time""
""fullscreenenter"",""1"",""5538""
","
","","","-1","","","12","6359","3632","&#9761;","elianto","#3366ff99","-1","-1","1","+10","[]","0","0","2","","","","","","","",""
"pit-trial","48","473239","0.0-2.0-11.2-1.2","battery-v0.2","","""event"",""trial"",""time""
""fullscreenenter"",""1"",""5538""
","
","
","""event"",""trial"",""time""
""fullscreenenter"",""1"",""5538""
","
","","","-1","","","12","6359","3632","&#9761;","elianto","#3366ff99","-1","-1","1","+10","[]","0","0","2","","","","","","","",""
"pit-trial","49","477977","0.0-2.0-11.2-2.2","battery-v0.2","","""event"",""trial"",""time""
""fullscreenenter"",""1"",""5538""
","
","
","""event"",""trial"",""time""
""fullscreenenter"",""1"",""5538""
","
","","","1879.4000000357628","","","12","6359","3632","&#9761;","elianto","#3366ff99","-1"," ","0","0","[2732.7000000476837]","1","0","2","","","","","","","",""
"pit-trial","50","482831","0.0-2.0-11.2-3.2","battery-v0.2","","""event"",""trial"",""time""
""fullscreenenter"",""1"",""5538""
","
","
","""event"",""trial"",""time""
""fullscreenenter"",""1"",""5538""
","
","","","-1","","","12","6359","3632","&#9761;","elianto","#3366ff99","-1","-1","1","0","[]","0","0","2","","","","","","","",""
"pit-trial","51","487687","0.0-2.0-11.2-4.2","battery-v0.2","","""event"",""trial"",""time""
""fullscreenenter"",""1"",""5538""
","
","
","""event"",""trial"",""time""
""fullscreenenter"",""1"",""5538""
","
","","","-1","","","12","6359","3632","&#9761;","elianto","#3366ff99","-1","-1","1","+10","[]","0","0","2","","","","","","","",""
"pit-trial","52","492544","0.0-2.0-11.3-0.3","battery-v0.2","","""event"",""trial"",""time""
""fullscreenenter"",""1"",""5538""
","
","
","""event"",""trial"",""time""
""fullscreenenter"",""1"",""5538""
","
","","","-1","","","12","6359","3632","&#9761;","elianto","#3366ff99","-1","-1","1","+10","[]","0","0","2","","","","","","","",""
"pit-trial","53","497400","0.0-2.0-11.3-1.3","battery-v0.2","","""event"",""trial"",""time""
""fullscreenenter"",""1"",""5538""
","
","
","""event"",""trial"",""time""
""fullscreenenter"",""1"",""5538""
","
","","","-1","","","12","6359","3632","&#9761;","elianto","#3366ff99","-1","-1","1","+10","[]","0","0","2","","","","","","","",""
"pit-trial","54","502256","0.0-2.0-11.3-2.3","battery-v0.2","","""event"",""trial"",""time""
""fullscreenenter"",""1"",""5538""
","
","
","""event"",""trial"",""time""
""fullscreenenter"",""1"",""5538""
","
","","","-1","","","12","6359","3632","&#9761;","elianto","#3366ff99","-1","-1","1","+10","[]","0","0","2","","","","","","","",""
"pit-trial","55","507112","0.0-2.0-11.3-3.3","battery-v0.2","","""event"",""trial"",""time""
""fullscreenenter"",""1"",""5538""
","
","
","""event"",""trial"",""time""
""fullscreenenter"",""1"",""5538""
","
","","","-1","","","12","6359","3632","&#9761;","elianto","#3366ff99","-1","-1","1","0","[]","0","0","2","","","","","","","",""
"pit-trial","56","511967","0.0-2.0-11.3-4.3","battery-v0.2","","""event"",""trial"",""time""
""fullscreenenter"",""1"",""5538""
","
","
","""event"",""trial"",""time""
""fullscreenenter"",""1"",""5538""
","
","","","-1","","","12","6359","3632","&#9761;","elianto","#3366ff99","-1","-1","1","+10","[]","0","0","2","","","","","","","",""
"call-function","57","511970","0.0-2.0-12.0","battery-v0.2","","""event"",""trial"",""time""
""fullscreenenter"",""1"",""5538""
","
","
","""event"",""trial"",""time""
""fullscreenenter"",""1"",""5538""
","
","","","","","","","","","","","","","","","","","","","","","","","","","","",""
"pit-instructions","58","547339","0.0-2.0-13.0","battery-v0.2","","""event"",""trial"",""time""
""fullscreenenter"",""1"",""5538""
","
","
","""event"",""trial"",""time""
""fullscreenenter"",""1"",""5538""
","
","","[{""page_index"":0,""viewing_time"":7315.600000023842},{""page_index"":1,""viewing_time"":7210.600000023842},{""page_index"":2,""viewing_time"":5203.699999988079},{""page_index"":3,""viewing_time"":11212.399999976158},{""page_index"":4,""viewing_time"":4424.800000011921}]","35368.10000002384","","","","","","","","","","","","","","","","","","","","","","","",""
"pit-trial","59","550589","0.0-2.0-14.0-0.0","battery-v0.2","","""event"",""trial"",""time""
""fullscreenenter"",""1"",""5538""
","
","
","""event"",""trial"",""time""
""fullscreenenter"",""1"",""5538""
","
","","","387.4000000357628","","","12","6359","3632","&#9826;","elianto","#f73b6a7A","-1"," ","0","-10","[1242.800000011921]","1","0","3","","","","","","","",""
"pit-trial","60","555456","0.0-2.0-14.0-1.0","battery-v0.2","","""event"",""trial"",""time""
""fullscreenenter"",""1"",""5538""
","
","
","""event"",""trial"",""time""
""fullscreenenter"",""1"",""5538""
","
","","","-1","","","12","6359","3632","&#9826;","elianto","#f73b6a7A","-1","-1","1","0","[]","0","0","3","","","","","","","",""
"pit-trial","61","560329","0.0-2.0-14.0-2.0","battery-v0.2","","""event"",""trial"",""time""
""fullscreenenter"",""1"",""5538""
","
","
","""event"",""trial"",""time""
""fullscreenenter"",""1"",""5538""
","
","","","-1","","","12","6359","3632","&#9826;","elianto","#f73b6a7A","-1","-1","1","0","[]","0","0","3","","","","","","","",""
"pit-trial","62","565198","0.0-2.0-14.0-3.0","battery-v0.2","","""event"",""trial"",""time""
""fullscreenenter"",""1"",""5538""
","
","
","""event"",""trial"",""time""
""fullscreenenter"",""1"",""5538""
","
","","","-1","","","12","6359","3632","&#9826;","elianto","#f73b6a7A","-1","-1","1","-10","[]","0","0","3","","","","","","","",""
"pit-trial","63","570062","0.0-2.0-14.0-4.0","battery-v0.2","","""event"",""trial"",""time""
""fullscreenenter"",""1"",""5538""
","
","
","""event"",""trial"",""time""
""fullscreenenter"",""1"",""5538""
","
","","","-1","","","12","6359","3632","&#9826;","elianto","#f73b6a7A","-1","-1","1","0","[]","0","0","3","","","","","","","",""
"pit-trial","64","574926","0.0-2.0-14.1-0.1","battery-v0.2","","""event"",""trial"",""time""
""fullscreenenter"",""1"",""5538""
","
","
","""event"",""trial"",""time""
""fullscreenenter"",""1"",""5538""
","
","","","-1","","","12","6359","3632","&#9826;","elianto","#f73b6a7A","-1","-1","1","0","[]","0","0","3","","","","","","","",""
"pit-trial","65","579781","0.0-2.0-14.1-1.1","battery-v0.2","","""event"",""trial"",""time""
""fullscreenenter"",""1"",""5538""
","
","
","""event"",""trial"",""time""
""fullscreenenter"",""1"",""5538""
","
","","","-1","","","12","6359","3632","&#9826;","elianto","#f73b6a7A","-1","-1","1","0","[]","0","0","3","","","","","","","",""
"pit-trial","66","584637","0.0-2.0-14.1-2.1","battery-v0.2","","""event"",""trial"",""time""
""fullscreenenter"",""1"",""5538""
","
","
","""event"",""trial"",""time""
""fullscreenenter"",""1"",""5538""
","
","","","-1","","","12","6359","3632","&#9826;","elianto","#f73b6a7A","-1","-1","1","0","[]","0","0","3","","","","","","","",""
"pit-trial","67","589493","0.0-2.0-14.1-3.1","battery-v0.2","","""event"",""trial"",""time""
""fullscreenenter"",""1"",""5538""
","
","
","""event"",""trial"",""time""
""fullscreenenter"",""1"",""5538""
","
","","","-1","","","12","6359","3632","&#9826;","elianto","#f73b6a7A","-1","-1","1","-10","[]","0","0","3","","","","","","","",""
"pit-trial","68","594347","0.0-2.0-14.1-4.1","battery-v0.2","","""event"",""trial"",""time""
""fullscreenenter"",""1"",""5538""
","
","
","""event"",""trial"",""time""
""fullscreenenter"",""1"",""5538""
","
","","","-1","","","12","6359","3632","&#9826;","elianto","#f73b6a7A","-1","-1","1","0","[]","0","0","3","","","","","","","",""
"pit-trial","69","599205","0.0-2.0-14.2-0.2","battery-v0.2","","""event"",""trial"",""time""
""fullscreenenter"",""1"",""5538""
","
","
","""event"",""trial"",""time""
""fullscreenenter"",""1"",""5538""
","
","","","-1","","","12","6359","3632","&#9826;","elianto","#f73b6a7A","-1","-1","1","0","[]","0","0","3","","","","","","","",""
"pit-trial","70","604060","0.0-2.0-14.2-1.2","battery-v0.2","","""event"",""trial"",""time""
""fullscreenenter"",""1"",""5538""
","
","
","""event"",""trial"",""time""
""fullscreenenter"",""1"",""5538""
","
","","","-1","","","12","6359","3632","&#9826;","elianto","#f73b6a7A","-1","-1","1","0","[]","0","0","3","","","","","","","",""
"pit-trial","71","608915","0.0-2.0-14.2-2.2","battery-v0.2","","""event"",""trial"",""time""
""fullscreenenter"",""1"",""5538""
","
","
","""event"",""trial"",""time""
""fullscreenenter"",""1"",""5538""
","
","","","-1","","","12","6359","3632","&#9826;","elianto","#f73b6a7A","-1","-1","1","0","[]","0","0","3","","","","","","","",""
"pit-trial","72","613770","0.0-2.0-14.2-3.2","battery-v0.2","","""event"",""trial"",""time""
""fullscreenenter"",""1"",""5538""
","
","
","""event"",""trial"",""time""
""fullscreenenter"",""1"",""5538""
","
","","","-1","","","12","6359","3632","&#9826;","elianto","#f73b6a7A","-1","-1","1","-10","[]","0","0","3","","","","","","","",""
"pit-trial","73","618624","0.0-2.0-14.2-4.2","battery-v0.2","","""event"",""trial"",""time""
""fullscreenenter"",""1"",""5538""
","
","
","""event"",""trial"",""time""
""fullscreenenter"",""1"",""5538""
","
","","","-1","","","12","6359","3632","&#9826;","elianto","#f73b6a7A","-1","-1","1","0","[]","0","0","3","","","","","","","",""
"pit-trial","74","623481","0.0-2.0-14.3-0.3","battery-v0.2","","""event"",""trial"",""time""
""fullscreenenter"",""1"",""5538""
","
","
","""event"",""trial"",""time""
""fullscreenenter"",""1"",""5538""
","
","","","-1","","","12","6359","3632","&#9826;","elianto","#f73b6a7A","-1","-1","1","0","[]","0","0","3","","","","","","","",""
"pit-trial","75","628335","0.0-2.0-14.3-1.3","battery-v0.2","","""event"",""trial"",""time""
""fullscreenenter"",""1"",""5538""
","
","
","""event"",""trial"",""time""
""fullscreenenter"",""1"",""5538""
","
","","","-1","","","12","6359","3632","&#9826;","elianto","#f73b6a7A","-1","-1","1","0","[]","0","0","3","","","","","","","",""
"pit-trial","76","633190","0.0-2.0-14.3-2.3","battery-v0.2","","""event"",""trial"",""time""
""fullscreenenter"",""1"",""5538""
","
","
","""event"",""trial"",""time""
""fullscreenenter"",""1"",""5538""
","
","","","-1","","","12","6359","3632","&#9826;","elianto","#f73b6a7A","-1","-1","1","0","[]","0","0","3","","","","","","","",""
"pit-trial","77","638045","0.0-2.0-14.3-3.3","battery-v0.2","","""event"",""trial"",""time""
""fullscreenenter"",""1"",""5538""
","
","
","""event"",""trial"",""time""
""fullscreenenter"",""1"",""5538""
","
","","","-1","","","12","6359","3632","&#9826;","elianto","#f73b6a7A","-1","-1","1","-10","[]","0","0","3","","","","","","","",""
"pit-trial","78","642899","0.0-2.0-14.3-4.3","battery-v0.2","","""event"",""trial"",""time""
""fullscreenenter"",""1"",""5538""
","
","
","""event"",""trial"",""time""
""fullscreenenter"",""1"",""5538""
","
","","","-1","","","12","6359","3632","&#9826;","elianto","#f73b6a7A","-1","-1","1","0","[]","0","0","3","","","","","","","",""
"call-function","79","642903","0.0-2.0-15.0","battery-v0.2","","""event"",""trial"",""time""
""fullscreenenter"",""1"",""5538""
","
","
","""event"",""trial"",""time""
""fullscreenenter"",""1"",""5538""
","
","","","","","","","","","","","","","","","","","","","","","","","","","","",""
"pit-instructions","80","670897","0.0-2.0-16.0","battery-v0.2","","""event"",""trial"",""time""
""fullscreenenter"",""1"",""5538""
","
","
","""event"",""trial"",""time""
""fullscreenenter"",""1"",""5538""
","
","","[{""page_index"":0,""viewing_time"":6883.400000035763},{""page_index"":1,""viewing_time"":8822.199999988079},{""page_index"":2,""viewing_time"":5015.300000011921},{""page_index"":3,""viewing_time"":7271}]","27992.600000023842","","","","","","","","","","","","","","","","","","","","","","","",""
"pit-trial","81","674188","0.0-2.0-17.0-0.0","battery-v0.2","","""event"",""trial"",""time""
""fullscreenenter"",""1"",""5538""
","
","
","""event"",""trial"",""time""
""fullscreenenter"",""1"",""5538""
","
","","","423.5","","","12","6359","3632","&#9789;","elianto","#f73b6a7A"," "," ","1","0","[1274]","1","0","4","","","","","","","",""
"pit-trial","82","677141","0.0-2.0-17.0-1.0","battery-v0.2","","""event"",""trial"",""time""
""fullscreenenter"",""1"",""5538""
","
","
","""event"",""trial"",""time""
""fullscreenenter"",""1"",""5538""
","
","","","93.30000001192093","","","12","6359","3632","&#9789;","elianto","#f73b6a7A"," "," ","1","0","[944.1999999880791]","1","0","4","","","","","","","",""
"pit-trial","83","680763","0.0-2.0-17.0-2.0","battery-v0.2","","""event"",""trial"",""time""
""fullscreenenter"",""1"",""5538""
","
","
","""event"",""trial"",""time""
""fullscreenenter"",""1"",""5538""
","
","","","762.1999999880791","","","12","6359","3632","&#9789;","elianto","#f73b6a7A"," "," ","1","0","[814.8000000119209,1613.8999999761581]","2","0","4","","","","","","","",""
"pit-trial","84","684957","0.0-2.0-17.0-3.0","battery-v0.2","","""event"",""trial"",""time""
""fullscreenenter"",""1"",""5538""
","
","
","""event"",""trial"",""time""
""fullscreenenter"",""1"",""5538""
","
","","","1326.8999999761581","","","12","6359","3632","&#9789;","elianto","#f73b6a7A"," "," ","1","-10","[849.4000000357628,2177]","2","0","4","","","","","","","",""
"pit-trial","85","688060","0.0-2.0-17.0-4.0","battery-v0.2","","""event"",""trial"",""time""
""fullscreenenter"",""1"",""5538""
","
","
","""event"",""trial"",""time""
""fullscreenenter"",""1"",""5538""
","
","","","231.89999997615814","","","12","6359","3632","&#9789;","elianto","#f73b6a7A"," "," ","1","0","[1086.199999988079]","1","0","4","","","","","","","",""
"pit-trial","86","690950","0.0-2.0-17.1-0.1","battery-v0.2","","""event"",""trial"",""time""
""fullscreenenter"",""1"",""5538""
","
","
","""event"",""trial"",""time""
""fullscreenenter"",""1"",""5538""
","
","","","19.80000001192093","","","12","6359","3632","&#9789;","elianto","#f73b6a7A"," "," ","1","0","[870.8999999761581]","1","0","4","","","","","","","",""
"pit-trial","87","693938","0.0-2.0-17.1-1.1","battery-v0.2","","""event"",""trial"",""time""
""fullscreenenter"",""1"",""5538""
","
","
","""event"",""trial"",""time""
""fullscreenenter"",""1"",""5538""
","
","","","123.70000004768372","","","12","6359","3632","&#9789;","elianto","#f73b6a7A"," "," ","1","0","[976.3000000119209]","1","0","4","","","","","","","",""
"pit-trial","88","697248","0.0-2.0-17.1-2.1","battery-v0.2","","""event"",""trial"",""time""
""fullscreenenter"",""1"",""5538""
","
","
","""event"",""trial"",""time""
""fullscreenenter"",""1"",""5538""
","
","","","453.39999997615814","","","12","6359","3632","&#9789;","elianto","#f73b6a7A"," "," ","1","0","[1306]","1","0","4","","","","","","","",""
"pit-trial","89","700634","0.0-2.0-17.1-3.1","battery-v0.2","","""event"",""trial"",""time""
""fullscreenenter"",""1"",""5538""
","
","
","""event"",""trial"",""time""
""fullscreenenter"",""1"",""5538""
","
","","","527.2999999523163","","","12","6359","3632","&#9789;","elianto","#f73b6a7A"," "," ","1","-10","[1381.2999999523163]","1","0","4","","","","","","","",""
"pit-trial","90","703608","0.0-2.0-17.1-4.1","battery-v0.2","","""event"",""trial"",""time""
""fullscreenenter"",""1"",""5538""
","
","
","""event"",""trial"",""time""
""fullscreenenter"",""1"",""5538""
","
","","","119.39999997615814","","","12","6359","3632","&#9789;","elianto","#f73b6a7A"," "," ","1","0","[970]","1","0","4","","","","","","","",""
"pit-trial","91","706520","0.0-2.0-17.2-0.2","battery-v0.2","","""event"",""trial"",""time""
""fullscreenenter"",""1"",""5538""
","
","
","""event"",""trial"",""time""
""fullscreenenter"",""1"",""5538""
","
","","","52.89999997615814","","","12","6359","3632","&#9789;","elianto","#f73b6a7A"," "," ","1","0","[906.4000000357628]","1","0","4","","","","","","","",""
"pit-trial","92","709515","0.0-2.0-17.2-1.2","battery-v0.2","","""event"",""trial"",""time""
""fullscreenenter"",""1"",""5538""
","
","
","""event"",""trial"",""time""
""fullscreenenter"",""1"",""5538""
","
","","","138.89999997615814","","","12","6359","3632","&#9789;","elianto","#f73b6a7A"," "," ","1","0","[990.1000000238419]","1","0","4","","","","","","","",""
"pit-trial","93","712624","0.0-2.0-17.2-2.2","battery-v0.2","","""event"",""trial"",""time""
""fullscreenenter"",""1"",""5538""
","
","
","""event"",""trial"",""time""
""fullscreenenter"",""1"",""5538""
","
","","","255.5","","","12","6359","3632","&#9789;","elianto","#f73b6a7A"," "," ","1","0","[1105.5]","1","0","4","","","","","","","",""
"pit-trial","94","715592","0.0-2.0-17.2-3.2","battery-v0.2","","""event"",""trial"",""time""
""fullscreenenter"",""1"",""5538""
","
","
","""event"",""trial"",""time""
""fullscreenenter"",""1"",""5538""
","
","","","112.89999997615814","","","12","6359","3632","&#9789;","elianto","#f73b6a7A"," "," ","1","-10","[964.0999999642372]","1","0","4","","","","","","","",""
"pit-trial","95","718673","0.0-2.0-17.2-4.2","battery-v0.2","","""event"",""trial"",""time""
""fullscreenenter"",""1"",""5538""
","
","
","""event"",""trial"",""time""
""fullscreenenter"",""1"",""5538""
","
","","","221.19999998807907","","","12","6359","3632","&#9789;","elianto","#f73b6a7A"," "," ","1","0","[1075.3999999761581]","1","0","4","","","","","","","",""
"pit-trial","96","721736","0.0-2.0-17.3-0.3","battery-v0.2","","""event"",""trial"",""time""
""fullscreenenter"",""1"",""5538""
","
","
","""event"",""trial"",""time""
""fullscreenenter"",""1"",""5538""
","
","","","207.89999997615814","","","12","6359","3632","&#9789;","elianto","#f73b6a7A"," "," ","1","0","[1058.199999988079]","1","0","4","","","","","","","",""
"pit-trial","97","724745","0.0-2.0-17.3-1.3","battery-v0.2","","""event"",""trial"",""time""
""fullscreenenter"",""1"",""5538""
","
","
","""event"",""trial"",""time""
""fullscreenenter"",""1"",""5538""
","
","","","153.89999997615814","","","12","6359","3632","&#9789;","elianto","#f73b6a7A"," "," ","1","0","[1004.6999999880791]","1","0","4","","","","","","","",""
"pit-trial","98","727913","0.0-2.0-17.3-2.3","battery-v0.2","","""event"",""trial"",""time""
""fullscreenenter"",""1"",""5538""
","
","
","""event"",""trial"",""time""
""fullscreenenter"",""1"",""5538""
","
","","","310.30000001192093","","","12","6359","3632","&#9789;","elianto","#f73b6a7A"," "," ","1","0","[1164.0999999642372]","1","0","4","","","","","","","",""
"pit-trial","99","732768","0.0-2.0-17.3-3.3","battery-v0.2","","""event"",""trial"",""time""
""fullscreenenter"",""1"",""5538""
","
","
","""event"",""trial"",""time""
""fullscreenenter"",""1"",""5538""
","
","","","-1","","","12","6359","3632","&#9789;","elianto","#f73b6a7A"," ","-1","0","0","[]","0","0","4","","","","","","","",""
"pit-trial","100","735939","0.0-2.0-17.3-4.3","battery-v0.2","","""event"",""trial"",""time""
""fullscreenenter"",""1"",""5538""
","
","
","""event"",""trial"",""time""
""fullscreenenter"",""1"",""5538""
","
","","","315.4000000357628","","","12","6359","3632","&#9789;","elianto","#f73b6a7A"," "," ","1","0","[1165.8999999761581]","1","0","4","","","","","","","",""
"call-function","101","735943","0.0-2.0-18.0","battery-v0.2","","""event"",""trial"",""time""
""fullscreenenter"",""1"",""5538""
","
","
","""event"",""trial"",""time""
""fullscreenenter"",""1"",""5538""
","
","","","","","","","","","","","","","","","","","","","","","","","","","","",""
"pit-instructions","102","810101","0.0-2.0-19.0","battery-v0.2","","""event"",""trial"",""time""
""fullscreenenter"",""1"",""5538""
","
","
","""event"",""trial"",""time""
""fullscreenenter"",""1"",""5538""
","
","","[{""page_index"":0,""viewing_time"":6731.100000023842},{""page_index"":1,""viewing_time"":6603.199999988079},{""page_index"":2,""viewing_time"":13998.399999976158},{""page_index"":3,""viewing_time"":7241.200000047684},{""page_index"":4,""viewing_time"":8543.399999976158},{""page_index"":5,""viewing_time"":10782},{""page_index"":6,""viewing_time"":8450.399999976158},{""page_index"":7,""viewing_time"":5926.400000035763},{""page_index"":8,""viewing_time"":5879.899999976158}]","74156.80000001192","","","","","","","","","","","","","","","","","","","","","","","",""
"pit-comprehension","103","814844","0.0-2.0-20.0-0.0","battery-v0.2","","""event"",""trial"",""time""
""fullscreenenter"",""1"",""5538""
","
","
","""event"",""trial"",""time""
""fullscreenenter"",""1"",""5538""
","
","","","4733.5","[""SPACE""]","0","12","6359","3632","","","","","","","","","","","","","","","","","","",""
"pit-instructions","104","817702","0.0-2.0-20.0-1.0","battery-v0.2","","""event"",""trial"",""time""
""fullscreenenter"",""1"",""5538""
","
","
","""event"",""trial"",""time""
""fullscreenenter"",""1"",""5538""
","
","","[{""page_index"":0,""viewing_time"":2703}]","2703.699999988079","","","","","","","","","","","","","","","","","","","","","","","",""
"pit-comprehension","105","824062","0.0-2.0-21.0-0.0","battery-v0.2","","""event"",""trial"",""time""
""fullscreenenter"",""1"",""5538""
","
","
","""event"",""trial"",""time""
""fullscreenenter"",""1"",""5538""
","
","","","6351.699999988079","[""10""]","0","12","6359","3632","","","","","","","","","","","","","","","","","","",""
"pit-instructions","106","825444","0.0-2.0-21.0-1.0","battery-v0.2","","""event"",""trial"",""time""
""fullscreenenter"",""1"",""5538""
","
","
","""event"",""trial"",""time""
""fullscreenenter"",""1"",""5538""
","
","","[{""page_index"":0,""viewing_time"":1227.699999988079}]","1228.5","","","","","","","","","","","","","","","","","","","","","","","",""
"pit-comprehension","107","832370","0.0-2.0-22.0-0.0","battery-v0.2","","""event"",""trial"",""time""
""fullscreenenter"",""1"",""5538""
","
","
","""event"",""trial"",""time""
""fullscreenenter"",""1"",""5538""
","
","","","6918.599999964237","[""0""]","0","12","6359","3632","","","","","","","","","","","","","","","","","","",""
"pit-instructions","108","834004","0.0-2.0-22.0-1.0","battery-v0.2","","""event"",""trial"",""time""
""fullscreenenter"",""1"",""5538""
","
","
","""event"",""trial"",""time""
""fullscreenenter"",""1"",""5538""
","
","","[{""page_index"":0,""viewing_time"":1482.5999999642372}]","1483.2999999523163","","","","","","","","","","","","","","","","","","","","","","","",""
"pit-comprehension","109","842479","0.0-2.0-23.0-0.0","battery-v0.2","","""event"",""trial"",""time""
""fullscreenenter"",""1"",""5538""
","
","
","""event"",""trial"",""time""
""fullscreenenter"",""1"",""5538""
","
","","","8467.800000011921","[""True""]","0","12","6359","3632","","","","","","","","","","","","","","","","","","",""
"pit-instructions","110","844032","0.0-2.0-23.0-1.0","battery-v0.2","","""event"",""trial"",""time""
""fullscreenenter"",""1"",""5538""
","
","
","""event"",""trial"",""time""
""fullscreenenter"",""1"",""5538""
","
","","[{""page_index"":0,""viewing_time"":1394}]","1394.5","","","","","","","","","","","","","","","","","","","","","","","",""
"pit-comprehension","111","851699","0.0-2.0-24.0-0.0","battery-v0.2","","""event"",""trial"",""time""
""fullscreenenter"",""1"",""5538""
","
","
","""event"",""trial"",""time""
""fullscreenenter"",""1"",""5538""
","
","","","7659.100000023842","[""True""]","0","12","6359","3632","","","","","","","","","","","","","","","","","","",""
"pit-instructions","112","853403","0.0-2.0-24.0-1.0","battery-v0.2","","""event"",""trial"",""time""
""fullscreenenter"",""1"",""5538""
","
","
","""event"",""trial"",""time""
""fullscreenenter"",""1"",""5538""
","
","","[{""page_index"":0,""viewing_time"":1527.8999999761581}]","1528.5","","","","","","","","","","","","","","","","","","","","","","","",""
"pit-comprehension","113","859951","0.0-2.0-25.0-0.0","battery-v0.2","","""event"",""trial"",""time""
""fullscreenenter"",""1"",""5538""
","
","
","""event"",""trial"",""time""
""fullscreenenter"",""1"",""5538""
","
","","","6539.899999976158","[""True""]","0","12","6359","3632","","","","","","","","","","","","","","","","","","",""
"pit-instructions","114","862409","0.0-2.0-25.0-1.0","battery-v0.2","","""event"",""trial"",""time""
""fullscreenenter"",""1"",""5538""
","
","
","""event"",""trial"",""time""
""fullscreenenter"",""1"",""5538""
","
","","[{""page_index"":0,""viewing_time"":2300.600000023842}]","2301.300000011921","","","","","","","","","","","","","","","","","","","","","","","",""
"pit-comprehension","115","868155","0.0-2.0-26.0-0.0","battery-v0.2","","""event"",""trial"",""time""
""fullscreenenter"",""1"",""5538""
","
","
","""event"",""trial"",""time""
""fullscreenenter"",""1"",""5538""
","
","","","5738.699999988079","[""False""]","0","12","6359","3632","","","","","","","","","","","","","","","","","","",""
"pit-instructions","116","869835","0.0-2.0-26.0-1.0","battery-v0.2","","""event"",""trial"",""time""
""fullscreenenter"",""1"",""5538""
","
","
","""event"",""trial"",""time""
""fullscreenenter"",""1"",""5538""
","
","","[{""page_index"":0,""viewing_time"":1515.9000000357628}]","1516.6000000238419","","","","","","","","","","","","","","","","","","","","","","","",""
"pit-instructions","117","890783","0.0-3.0","battery-v0.2","","""event"",""trial"",""time""
""fullscreenenter"",""1"",""5538""
","
","
","""event"",""trial"",""time""
""fullscreenenter"",""1"",""5538""
","
","","[{""page_index"":0,""viewing_time"":5379.399999976158},{""page_index"":1,""viewing_time"":8362.800000011921},{""page_index"":2,""viewing_time"":7200}]","20942.899999976158","","","","","","","","","","","","","","","","","","","","","","","",""
"pit-trial","118","894564","0.0-4.0","battery-v0.2","","""event"",""trial"",""time""
""fullscreenenter"",""1"",""5538""
","
","
","""event"",""trial"",""time""
""fullscreenenter"",""1"",""5538""
","
","","","915.5","","","12","6359","3632","&#9730;","elianto","#3366ff99"," "," ","1","+10","[1765.8999999761581]","1","1","","","6359","1","1","1","win","go","0"
"pit-trial","119","898521","0.0-5.0","battery-v0.2","","""event"",""trial"",""time""
""fullscreenenter"",""1"",""5538""
","
","
","""event"",""trial"",""time""
""fullscreenenter"",""1"",""5538""
","
","","","1092.8999999761581","","","12","6359","3632","&#9752;","elianto","#f73b6a7A"," "," ","1","-10","[1943.800000011921]","1","1","","","6359","2","3","3","lose","go","1"
"pit-trial","120","901997","0.0-6.0","battery-v0.2","","""event"",""trial"",""time""
""fullscreenenter"",""1"",""5538""
","
","
","""event"",""trial"",""time""
""fullscreenenter"",""1"",""5538""
","
","","","604.1999999880791","","","12","6359","3632","&#9733;","elianto","#3366ff99","-1"," ","0","+10","[1458.5]","1","1","","","6359","3","2","2","win","no-go","1"
"pit-trial","121","905595","0.0-7.0","battery-v0.2","","""event"",""trial"",""time""
""fullscreenenter"",""1"",""5538""
","
","
","""event"",""trial"",""time""
""fullscreenenter"",""1"",""5538""
","
","","","732.8999999761581","","","12","6359","3632","&#9728;","elianto","#f73b6a7A","-1"," ","0","-10","[1583.5]","1","1","","","6359","4","0","4","lose","no-go","0"
"pit-trial","122","909452","0.0-8.0","battery-v0.2","","""event"",""trial"",""time""
""fullscreenenter"",""1"",""5538""
","
","
","""event"",""trial"",""time""
""fullscreenenter"",""1"",""5538""
","
","","","985","","","12","6359","3632","&#9733;","elianto","#3366ff99","-1"," ","0","0","[1840.800000011921]","1","1","","","6359","5","2","2","win","no-go","0"
"pit-trial","123","912965","0.0-9.0","battery-v0.2","","""event"",""trial"",""time""
""fullscreenenter"",""1"",""5538""
","
","
","""event"",""trial"",""time""
""fullscreenenter"",""1"",""5538""
","
","","","642.5","","","12","6359","3632","&#9730;","elianto","#3366ff99"," "," ","1","0","[1496.1000000238419]","1","1","","","6359","6","1","1","win","go","1"
"pit-trial","124","916713","0.0-10.0","battery-v0.2","","""event"",""trial"",""time""
""fullscreenenter"",""1"",""5538""
","
","
","""event"",""trial"",""time""
""fullscreenenter"",""1"",""5538""
","
","","","883.6999999880791","","","12","6359","3632","&#9752;","elianto","#f73b6a7A"," "," ","1","0","[1736]","1","1","","","6359","7","3","3","lose","go","0"
"pit-trial","125","921579","0.0-11.0","battery-v0.2","","""event"",""trial"",""time""
""fullscreenenter"",""1"",""5538""
","
","
","""event"",""trial"",""time""
""fullscreenenter"",""1"",""5538""
","
","","","-1","","","12","6359","3632","&#9728;","elianto","#f73b6a7A","-1","-1","1","-10","[]","0","1","","","6359","8","0","4","lose","no-go","1"
"pit-trial","126","925408","0.0-12.0","battery-v0.2","","""event"",""trial"",""time""
""fullscreenenter"",""1"",""5538""
","
","
","""event"",""trial"",""time""
""fullscreenenter"",""1"",""5538""
","
","","","971.3000000119209","","","12","6359","3632","&#9752;","elianto","#f73b6a7A"," "," ","1","0","[1824.699999988079]","1","1","","","6359","9","3","3","lose","go","0"
"pit-trial","127","928921","0.0-13.0","battery-v0.2","","""event"",""trial"",""time""
""fullscreenenter"",""1"",""5538""
","
","
","""event"",""trial"",""time""
""fullscreenenter"",""1"",""5538""
","
","","","659.4000000357628","","","12","6359","3632","&#9728;","elianto","#f73b6a7A","-1"," ","0","-10","[1509.5]","1","1","","","6359","10","0","4","lose","no-go","0"
"pit-trial","128","932321","0.0-14.0","battery-v0.2","","""event"",""trial"",""time""
""fullscreenenter"",""1"",""5538""
","
","
","""event"",""trial"",""time""
""fullscreenenter"",""1"",""5538""
","
","","","545.7000000476837","","","12","6359","3632","&#9733;","elianto","#3366ff99","-1"," ","0","0","[1396.1000000238419]","1","1","","","6359","11","2","2","win","no-go","0"
"pit-trial","129","935656","0.0-15.0","battery-v0.2","","""event"",""trial"",""time""
""fullscreenenter"",""1"",""5538""
","
","
","""event"",""trial"",""time""
""fullscreenenter"",""1"",""5538""
","
","","","480.5","","","12","6359","3632","&#9730;","elianto","#3366ff99"," "," ","1","+10","[1331.5999999642372]","1","1","","","6359","12","1","1","win","go","0"
"pit-trial","130","939147","0.0-16.0","battery-v0.2","","""event"",""trial"",""time""
""fullscreenenter"",""1"",""5538""
","
","
","""event"",""trial"",""time""
""fullscreenenter"",""1"",""5538""
","
","","","634.8999999761581","","","12","6359","3632","&#9728;","elianto","#f73b6a7A","-1"," ","0","-10","[1485.8999999761581]","1","1","","","6359","13","0","4","lose","no-go","0"
"pit-trial","131","942714","0.0-17.0","battery-v0.2","","""event"",""trial"",""time""
""fullscreenenter"",""1"",""5538""
","
","
","""event"",""trial"",""time""
""fullscreenenter"",""1"",""5538""
","
","","","709.6999999880791","","","12","6359","3632","&#9730;","elianto","#3366ff99"," "," ","1","+10","[1562]","1","1","","","6359","14","1","1","win","go","0"
"pit-trial","132","946385","0.0-18.0","battery-v0.2","","""event"",""trial"",""time""
""fullscreenenter"",""1"",""5538""
","
","
","""event"",""trial"",""time""
""fullscreenenter"",""1"",""5538""
","
","","","812.9000000357628","","","12","6359","3632","&#9752;","elianto","#f73b6a7A"," "," ","1","-10","[1666.9000000357628]","1","1","","","6359","15","3","3","lose","go","1"
"pit-trial","133","949915","0.0-19.0","battery-v0.2","","""event"",""trial"",""time""
""fullscreenenter"",""1"",""5538""
","
","
","""event"",""trial"",""time""
""fullscreenenter"",""1"",""5538""
","
","","","675","","","12","6359","3632","&#9733;","elianto","#3366ff99","-1"," ","0","0","[1525.3999999761581]","1","1","","","6359","16","2","2","win","no-go","0"
"pit-trial","134","953465","0.0-20.0","battery-v0.2","","""event"",""trial"",""time""
""fullscreenenter"",""1"",""5538""
","
","
","""event"",""trial"",""time""
""fullscreenenter"",""1"",""5538""
","
","","","692.8000000119209","","","12","6359","3632","&#9730;","elianto","#3366ff99"," "," ","1","+10","[1545.5999999642372]","1","1","","","6359","17","1","1","win","go","0"
"pit-trial","135","957018","0.0-21.0","battery-v0.2","","""event"",""trial"",""time""
""fullscreenenter"",""1"",""5538""
","
","
","""event"",""trial"",""time""
""fullscreenenter"",""1"",""5538""
","
","","","694.1999999880791","","","12","6359","3632","&#9728;","elianto","#f73b6a7A","-1"," ","0","-10","[1548.4000000357628]","1","1","","","6359","18","0","4","lose","no-go","0"
"pit-trial","136","960675","0.0-22.0","battery-v0.2","","""event"",""trial"",""time""
""fullscreenenter"",""1"",""5538""
","
","
","""event"",""trial"",""time""
""fullscreenenter"",""1"",""5538""
","
","","","801.2000000476837","","","12","6359","3632","&#9733;","elianto","#3366ff99","-1"," ","0","0","[1652.6000000238419]","1","1","","","6359","19","2","2","win","no-go","0"
"pit-trial","137","964449","0.0-23.0","battery-v0.2","","""event"",""trial"",""time""
""fullscreenenter"",""1"",""5538""
","
","
","""event"",""trial"",""time""
""fullscreenenter"",""1"",""5538""
","
","","","919.3000000119209","","","12","6359","3632","&#9752;","elianto","#f73b6a7A"," "," ","1","0","[1770.1000000238419]","1","1","","","6359","20","3","3","lose","go","0"
"pit-instructions","138","977743","0.0-24.0","battery-v0.2","","""event"",""trial"",""time""
""fullscreenenter"",""1"",""5538""
","
","
","""event"",""trial"",""time""
""fullscreenenter"",""1"",""5538""
","
","","[{""page_index"":0,""viewing_time"":6092.199999988079},{""page_index"":1,""viewing_time"":7197.800000011921}]","13290.699999988079","","","","","","","","","","","","","","","","","","","","","","","",""
"pit-trial","139","981548","0.0-25.0","battery-v0.2","","""event"",""trial"",""time""
""fullscreenenter"",""1"",""5538""
","
","
","""event"",""trial"",""time""
""fullscreenenter"",""1"",""5538""
","
","","","935.5999999642372","","","12","6359","3632","j","elianto","#f73b6a7A"," "," ","1","0","[1787.0999999642372]","1","2","","","6359","21","0","3","lose","go","0"
"pit-trial","140","984976","0.0-26.0","battery-v0.2","","""event"",""trial"",""time""
""fullscreenenter"",""1"",""5538""
","
","
","""event"",""trial"",""time""
""fullscreenenter"",""1"",""5538""
","
","","","567.1999999880791","","","12","6359","3632","d","elianto","#3366ff99","-1"," ","0","+10","[1417.8999999761581]","1","2","","","6359","22","1","2","win","no-go","1"
"pit-trial","141","989849","0.0-27.0","battery-v0.2","","""event"",""trial"",""time""
""fullscreenenter"",""1"",""5538""
","
","
","""event"",""trial"",""time""
""fullscreenenter"",""1"",""5538""
","
","","","-1","","","12","6359","3632","w","elianto","#f73b6a7A","-1","-1","1","0","[]","0","2","","","6359","23","3","4","lose","no-go","0"
"pit-trial","142","994321","0.0-28.0","battery-v0.2","","""event"",""trial"",""time""
""fullscreenenter"",""1"",""5538""
","
","
","""event"",""trial"",""time""
""fullscreenenter"",""1"",""5538""
","
","","","1602.800000011921","","","12","6359","3632","e","elianto","#f73b6a7A"," "," ","1","0","[2453.599999964237]","1","2","","","6359","24","2","3","lose","go","0"
"pit-trial","143","998025","0.0-29.0","battery-v0.2","","""event"",""trial"",""time""
""fullscreenenter"",""1"",""5538""
","
","
","""event"",""trial"",""time""
""fullscreenenter"",""1"",""5538""
","
","","","843","","","12","6359","3632","e","elianto","#f73b6a7A"," "," ","1","0","[1693.9000000357628]","1","2","","","6359","25","2","3","lose","go","0"
"pit-trial","144","1002882","0.0-30.0","battery-v0.2","","""event"",""trial"",""time""
""fullscreenenter"",""1"",""5538""
","
","
","""event"",""trial"",""time""
""fullscreenenter"",""1"",""5538""
","
","","","-1","","","12","6359","3632","w","elianto","#f73b6a7A","-1","-1","1","0","[]","0","2","","","6359","26","3","4","lose","no-go","0"
"pit-trial","145","1007075","0.0-31.0","battery-v0.2","","""event"",""trial"",""time""
""fullscreenenter"",""1"",""5538""
","
","
","""event"",""trial"",""time""
""fullscreenenter"",""1"",""5538""
","
","","","1328.5","","","12","6359","3632","j","elianto","#f73b6a7A"," "," ","1","0","[2179.899999976158]","1","2","","","6359","27","0","3","lose","go","0"
"pit-trial","146","1010539","0.0-32.0","battery-v0.2","","""event"",""trial"",""time""
""fullscreenenter"",""1"",""5538""
","
","
","""event"",""trial"",""time""
""fullscreenenter"",""1"",""5538""
","
","","","608.2999999523163","","","12","6359","3632","d","elianto","#3366ff99","-1"," ","0","0","[1459.800000011921]","1","2","","","6359","28","1","2","win","no-go","0"
"pit-trial","147","1015394","0.0-33.0","battery-v0.2","","""event"",""trial"",""time""
""fullscreenenter"",""1"",""5538""
","
","
","""event"",""trial"",""time""
""fullscreenenter"",""1"",""5538""
","
","","","-1","","","12","6359","3632","d","elianto","#3366ff99","-1","-1","1","+10","[]","0","2","","","6359","29","1","2","win","no-go","0"
"pit-trial","148","1019092","0.0-34.0","battery-v0.2","","""event"",""trial"",""time""
""fullscreenenter"",""1"",""5538""
","
","
","""event"",""trial"",""time""
""fullscreenenter"",""1"",""5538""
","
","","","842.5","","","12","6359","3632","w","elianto","#f73b6a7A","-1"," ","0","-10","[1693.300000011921]","1","2","","","6359","30","3","4","lose","no-go","0"
"pit-trial","149","1023947","0.0-35.0","battery-v0.2","","""event"",""trial"",""time""
""fullscreenenter"",""1"",""5538""
","
","
","""event"",""trial"",""time""
""fullscreenenter"",""1"",""5538""
","
","","","-1","","","12","6359","3632","j","elianto","#f73b6a7A"," ","-1","0","-10","[]","0","2","","","6359","31","0","3","lose","go","0"
"pit-trial","150","1027870","0.0-36.0","battery-v0.2","","""event"",""trial"",""time""
""fullscreenenter"",""1"",""5538""
","
","
","""event"",""trial"",""time""
""fullscreenenter"",""1"",""5538""
","
","","","1066.1000000238419","","","12","6359","3632","e","elianto","#f73b6a7A"," "," ","1","0","[1916.6000000238419]","1","2","","","6359","32","2","3","lose","go","0"
"pit-trial","151","1031789","0.0-37.0","battery-v0.2","","""event"",""trial"",""time""
""fullscreenenter"",""1"",""5538""
","
","
","""event"",""trial"",""time""
""fullscreenenter"",""1"",""5538""
","
","","","1060.5999999642372","","","12","6359","3632","j","elianto","#f73b6a7A"," "," ","1","-10","[1913.9000000357628]","1","2","","","6359","33","0","3","lose","go","1"
"pit-trial","152","1035591","0.0-38.0","battery-v0.2","","""event"",""trial"",""time""
""fullscreenenter"",""1"",""5538""
","
","
","""event"",""trial"",""time""
""fullscreenenter"",""1"",""5538""
","
","","","945.5999999642372","","","12","6359","3632","d","elianto","#3366ff99","-1"," ","0","0","[1797.300000011921]","1","2","","","6359","34","1","2","win","no-go","0"
"pit-trial","153","1039223","0.0-39.0","battery-v0.2","","""event"",""trial"",""time""
""fullscreenenter"",""1"",""5538""
","
","
","""event"",""trial"",""time""
""fullscreenenter"",""1"",""5538""
","
","","","776","","","12","6359","3632","w","elianto","#f73b6a7A","-1"," ","0","-10","[1626.5,3488.600000023842]","2","2","","","6359","35","3","4","lose","no-go","0"
"pit-trial","154","1043148","0.0-40.0","battery-v0.2","","""event"",""trial"",""time""
""fullscreenenter"",""1"",""5538""
","
","
","""event"",""trial"",""time""
""fullscreenenter"",""1"",""5538""
","
","","","1068.0999999642372","","","12","6359","3632","e","elianto","#f73b6a7A"," "," ","1","-10","[1921.3999999761581]","1","2","","","6359","36","2","3","lose","go","1"
"pit-trial","155","1046796","0.0-41.0","battery-v0.2","","""event"",""trial"",""time""
""fullscreenenter"",""1"",""5538""
","
","
","""event"",""trial"",""time""
""fullscreenenter"",""1"",""5538""
","
","","","793.3000000119209","","","12","6359","3632","e","elianto","#f73b6a7A"," "," ","1","0","[1643.699999988079]","1","2","","","6359","37","2","3","lose","go","0"
"pit-trial","156","1050214","0.0-42.0","battery-v0.2","","""event"",""trial"",""time""
""fullscreenenter"",""1"",""5538""
","
","
","""event"",""trial"",""time""
""fullscreenenter"",""1"",""5538""
","
","","","562.6000000238419","","","12","6359","3632","j","elianto","#f73b6a7A"," "," ","1","0","[1413.800000011921,2388.399999976158]","2","2","","","6359","38","0","3","lose","go","0"
"pit-trial","157","1055068","0.0-43.0","battery-v0.2","","""event"",""trial"",""time""
""fullscreenenter"",""1"",""5538""
","
","
","""event"",""trial"",""time""
""fullscreenenter"",""1"",""5538""
","
","","","-1","","","12","6359","3632","d","elianto","#3366ff99","-1","-1","1","0","[]","0","2","","","6359","39","1","2","win","no-go","1"
"pit-trial","158","1058805","0.0-44.0","battery-v0.2","","""event"",""trial"",""time""
""fullscreenenter"",""1"",""5538""
","
","
","""event"",""trial"",""time""
""fullscreenenter"",""1"",""5538""
","
","","","881.8999999761581","","","12","6359","3632","w","elianto","#f73b6a7A","-1"," ","0","-10","[1732.1000000238419]","1","2","","","6359","40","3","4","lose","no-go","0"
"pit-trial","159","1063660","0.0-45.0","battery-v0.2","","""event"",""trial"",""time""
""fullscreenenter"",""1"",""5538""
","
","
","""event"",""trial"",""time""
""fullscreenenter"",""1"",""5538""
","
","","","-1","","","12","6359","3632","e","elianto","#f73b6a7A"," ","-1","0","-10","[]","0","2","","","6359","41","2","3","lose","go","0"
"pit-trial","160","1067318","0.0-46.0","battery-v0.2","","""event"",""trial"",""time""
""fullscreenenter"",""1"",""5538""
","
","
","""event"",""trial"",""time""
""fullscreenenter"",""1"",""5538""
","
","","","802.2000000476837","","","12","6359","3632","d","elianto","#3366ff99","-1"," ","0","0","[1654.1000000238419]","1","2","","","6359","42","1","2","win","no-go","0"
"pit-trial","161","1072173","0.0-47.0","battery-v0.2","","""event"",""trial"",""time""
""fullscreenenter"",""1"",""5538""
","
","
","""event"",""trial"",""time""
""fullscreenenter"",""1"",""5538""
","
","","","-1","","","12","6359","3632","w","elianto","#f73b6a7A","-1","-1","1","0","[]","0","2","","","6359","43","3","4","lose","no-go","0"
"pit-trial","162","1076396","0.0-48.0","battery-v0.2","","""event"",""trial"",""time""
""fullscreenenter"",""1"",""5538""
","
","
","""event"",""trial"",""time""
""fullscreenenter"",""1"",""5538""
","
","","","1363.199999988079","","","12","6359","3632","j","elianto","#f73b6a7A"," "," ","1","0","[2218.400000035763]","1","2","","","6359","44","0","3","lose","go","0"
"pit-trial","163","1080207","0.0-49.0","battery-v0.2","","""event"",""trial"",""time""
""fullscreenenter"",""1"",""5538""
","
","
","""event"",""trial"",""time""
""fullscreenenter"",""1"",""5538""
","
","","","955.3999999761581","","","12","6359","3632","j","elianto","#f73b6a7A"," "," ","1","0","[1806.199999988079]","1","2","","","6359","45","0","3","lose","go","0"
"pit-trial","164","1085064","0.0-50.0","battery-v0.2","","""event"",""trial"",""time""
""fullscreenenter"",""1"",""5538""
","
","
","""event"",""trial"",""time""
""fullscreenenter"",""1"",""5538""
","
","","","-1","","","12","6359","3632","d","elianto","#3366ff99","-1","-1","1","+10","[]","0","2","","","6359","46","1","2","win","no-go","0"
"pit-trial","165","1089919","0.0-51.0","battery-v0.2","","""event"",""trial"",""time""
""fullscreenenter"",""1"",""5538""
","
","
","""event"",""trial"",""time""
""fullscreenenter"",""1"",""5538""
","
","","","-1","","","12","6359","3632","e","elianto","#f73b6a7A"," ","-1","0","-10","[]","0","2","","","6359","47","2","3","lose","go","0"
"pit-trial","166","1093495","0.0-52.0","battery-v0.2","","""event"",""trial"",""time""
""fullscreenenter"",""1"",""5538""
","
","
","""event"",""trial"",""time""
""fullscreenenter"",""1"",""5538""
","
","","","720.4000000357628","","","12","6359","3632","w","elianto","#f73b6a7A","-1"," ","0","-10","[1570.699999988079]","1","2","","","6359","48","3","4","lose","no-go","0"
"pit-trial","167","1098349","0.0-53.0","battery-v0.2","","""event"",""trial"",""time""
""fullscreenenter"",""1"",""5538""
","
","
","""event"",""trial"",""time""
""fullscreenenter"",""1"",""5538""
","
","","","-1","","","12","6359","3632","d","elianto","#3366ff99","-1","-1","1","+10","[]","0","2","","","6359","49","1","2","win","no-go","0"
"pit-trial","168","1102918","0.0-54.0","battery-v0.2","","""event"",""trial"",""time""
""fullscreenenter"",""1"",""5538""
","
","
","""event"",""trial"",""time""
""fullscreenenter"",""1"",""5538""
","
","","","1713.4000000357628","","","12","6359","3632","e","elianto","#f73b6a7A"," "," ","1","0","[2564.199999988079]","1","2","","","6359","50","2","3","lose","go","0"
"pit-trial","169","1106567","0.0-55.0","battery-v0.2","","""event"",""trial"",""time""
""fullscreenenter"",""1"",""5538""
","
","
","""event"",""trial"",""time""
""fullscreenenter"",""1"",""5538""
","
","","","793","","","12","6359","3632","w","elianto","#f73b6a7A","-1"," ","0","-10","[1644.1000000238419]","1","2","","","6359","51","3","4","lose","no-go","0"
"pit-trial","170","1110583","0.0-56.0","battery-v0.2","","""event"",""trial"",""time""
""fullscreenenter"",""1"",""5538""
","
","
","""event"",""trial"",""time""
""fullscreenenter"",""1"",""5538""
","
","","","1160.2000000476837","","","12","6359","3632","j","elianto","#f73b6a7A"," "," ","1","-10","[2011.199999988079]","1","2","","","6359","52","0","3","lose","go","1"
"pit-trial","171","1115439","0.0-57.0","battery-v0.2","","""event"",""trial"",""time""
""fullscreenenter"",""1"",""5538""
","
","
","""event"",""trial"",""time""
""fullscreenenter"",""1"",""5538""
","
","","","-1","","","12","6359","3632","w","elianto","#f73b6a7A","-1","-1","1","-10","[]","0","2","","","6359","53","3","4","lose","no-go","1"
"pit-trial","172","1120294","0.0-58.0","battery-v0.2","","""event"",""trial"",""time""
""fullscreenenter"",""1"",""5538""
","
","
","""event"",""trial"",""time""
""fullscreenenter"",""1"",""5538""
","
","","","-1","","","12","6359","3632","j","elianto","#f73b6a7A"," ","-1","0","-10","[2939.199999988079]","1","2","","","6359","54","0","3","lose","go","0"
"pit-trial","173","1125149","0.0-59.0","battery-v0.2","","""event"",""trial"",""time""
""fullscreenenter"",""1"",""5538""
","
","
","""event"",""trial"",""time""
""fullscreenenter"",""1"",""5538""
","
","","","-1","","","12","6359","3632","d","elianto","#3366ff99","-1","-1","1","+10","[]","0","2","","","6359","55","1","2","win","no-go","0"
"pit-trial","174","1129185","0.0-60.0","battery-v0.2","","""event"",""trial"",""time""
""fullscreenenter"",""1"",""5538""
","
","
","""event"",""trial"",""time""
""fullscreenenter"",""1"",""5538""
","
","","","1178.5","","","12","6359","3632","e","elianto","#f73b6a7A"," "," ","1","-10","[2029.5]","1","2","","","6359","56","2","3","lose","go","1"
"pit-trial","175","1132896","0.0-61.0","battery-v0.2","","""event"",""trial"",""time""
""fullscreenenter"",""1"",""5538""
","
","
","""event"",""trial"",""time""
""fullscreenenter"",""1"",""5538""
","
","","","855.8000000119209","","","12","6359","3632","e","elianto","#f73b6a7A"," "," ","1","0","[1706.2000000476837]","1","2","","","6359","57","2","3","lose","go","0"
"pit-trial","176","1137751","0.0-62.0","battery-v0.2","","""event"",""trial"",""time""
""fullscreenenter"",""1"",""5538""
","
","
","""event"",""trial"",""time""
""fullscreenenter"",""1"",""5538""
","
","","","-1","","","12","6359","3632","w","elianto","#f73b6a7A","-1","-1","1","0","[]","0","2","","","6359","58","3","4","lose","no-go","0"
"pit-trial","177","1142056","0.0-63.0","battery-v0.2","","""event"",""trial"",""time""
""fullscreenenter"",""1"",""5538""
","
","
","""event"",""trial"",""time""
""fullscreenenter"",""1"",""5538""
","
","","","1449.199999988079","","","12","6359","3632","s","elianto","#3366ff99"," "," ","1","+10","[2300.100000023842]","1","2","","","6359","59","4","1","win","go","0"
"pit-trial","178","1146017","0.0-64.0","battery-v0.2","","""event"",""trial"",""time""
""fullscreenenter"",""1"",""5538""
","
","
","""event"",""trial"",""time""
""fullscreenenter"",""1"",""5538""
","
","","","1105","","","12","6359","3632","j","elianto","#f73b6a7A"," "," ","1","0","[1955.5]","1","2","","","6359","60","0","3","lose","go","0"
"pit-trial","179","1150873","0.0-65.0","battery-v0.2","","""event"",""trial"",""time""
""fullscreenenter"",""1"",""5538""
","
","
","""event"",""trial"",""time""
""fullscreenenter"",""1"",""5538""
","
","","","-1","","","12","6359","3632","d","elianto","#3366ff99","-1","-1","1","0","[]","0","2","","","6359","61","1","2","win","no-go","1"
"pit-trial","180","1154543","0.0-66.0","battery-v0.2","","""event"",""trial"",""time""
""fullscreenenter"",""1"",""5538""
","
","
","""event"",""trial"",""time""
""fullscreenenter"",""1"",""5538""
","
","","","814.5","","","12","6359","3632","s","elianto","#3366ff99"," "," ","1","0","[1665.6000000238419]","1","2","","","6359","62","4","1","win","go","1"
"pit-trial","181","1159399","0.0-67.0","battery-v0.2","","""event"",""trial"",""time""
""fullscreenenter"",""1"",""5538""
","
","
","""event"",""trial"",""time""
""fullscreenenter"",""1"",""5538""
","
","","","-1","","","12","6359","3632","w","elianto","#f73b6a7A","-1","-1","1","0","[]","0","2","","","6359","63","3","4","lose","no-go","0"
"pit-trial","182","1163881","0.0-68.0","battery-v0.2","","""event"",""trial"",""time""
""fullscreenenter"",""1"",""5538""
","
","
","""event"",""trial"",""time""
""fullscreenenter"",""1"",""5538""
","
","","","1622.800000011921","","","12","6359","3632","e","elianto","#f73b6a7A"," "," ","1","0","[2477]","1","2","","","6359","64","2","3","lose","go","0"
"pit-trial","183","1167657","0.0-69.0","battery-v0.2","","""event"",""trial"",""time""
""fullscreenenter"",""1"",""5538""
","
","
","""event"",""trial"",""time""
""fullscreenenter"",""1"",""5538""
","
","","","915.3000000119209","","","12","6359","3632","w","elianto","#f73b6a7A","-1"," ","0","0","[1770.1000000238419]","1","2","","","6359","65","3","4","lose","no-go","1"
"pit-trial","184","1171186","0.0-70.0","battery-v0.2","","""event"",""trial"",""time""
""fullscreenenter"",""1"",""5538""
","
","
","""event"",""trial"",""time""
""fullscreenenter"",""1"",""5538""
","
","","","673","","","12","6359","3632","d","elianto","#3366ff99","-1"," ","0","0","[1523.699999988079]","1","2","","","6359","66","1","2","win","no-go","0"
"pit-trial","185","1175145","0.0-71.0","battery-v0.2","","""event"",""trial"",""time""
""fullscreenenter"",""1"",""5538""
","
","
","""event"",""trial"",""time""
""fullscreenenter"",""1"",""5538""
","
","","","1102.199999988079","","","12","6359","3632","s","elianto","#3366ff99"," "," ","1","+10","[1954.9000000357628]","1","2","","","6359","67","4","1","win","go","0"
"pit-trial","186","1179329","0.0-72.0","battery-v0.2","","""event"",""trial"",""time""
""fullscreenenter"",""1"",""5538""
","
","
","""event"",""trial"",""time""
""fullscreenenter"",""1"",""5538""
","
","","","1329.5","","","12","6359","3632","p","elianto","#3366ff99","-1"," ","0","+10","[2180.199999988079]","1","2","","","6359","68","5","2","win","no-go","1"
"pit-trial","187","1183618","0.0-73.0","battery-v0.2","","""event"",""trial"",""time""
""fullscreenenter"",""1"",""5538""
","
","
","""event"",""trial"",""time""
""fullscreenenter"",""1"",""5538""
","
","","","1433.8999999761581","","","12","6359","3632","e","elianto","#f73b6a7A"," "," ","1","0","[2284.699999988079]","1","2","","","6359","69","2","3","lose","go","0"
"pit-trial","188","1187123","0.0-74.0","battery-v0.2","","""event"",""trial"",""time""
""fullscreenenter"",""1"",""5538""
","
","
","""event"",""trial"",""time""
""fullscreenenter"",""1"",""5538""
","
","","","645.8999999761581","","","12","6359","3632","s","elianto","#3366ff99"," "," ","1","+10","[1500.1000000238419]","1","2","","","6359","70","4","1","win","go","0"
"pit-trial","189","1190697","0.0-75.0","battery-v0.2","","""event"",""trial"",""time""
""fullscreenenter"",""1"",""5538""
","
","
","""event"",""trial"",""time""
""fullscreenenter"",""1"",""5538""
","
","","","719.8999999761581","","","12","6359","3632","d","elianto","#3366ff99","-1"," ","0","0","[1570.300000011921]","1","2","","","6359","71","1","2","win","no-go","0"
"pit-trial","190","1194642","0.0-76.0","battery-v0.2","","""event"",""trial"",""time""
""fullscreenenter"",""1"",""5538""
","
","
","""event"",""trial"",""time""
""fullscreenenter"",""1"",""5538""
","
","","","1089.9000000357628","","","12","6359","3632","p","elianto","#3366ff99","-1"," ","0","0","[1940.5999999642372]","1","2","","","6359","72","5","2","win","no-go","0"
"pit-trial","191","1199496","0.0-77.0","battery-v0.2","","""event"",""trial"",""time""
""fullscreenenter"",""1"",""5538""
","
","
","""event"",""trial"",""time""
""fullscreenenter"",""1"",""5538""
","
","","","-1","","","12","6359","3632","w","elianto","#f73b6a7A","-1","-1","1","0","[]","0","2","","","6359","73","3","4","lose","no-go","0"
"pit-trial","192","1202852","0.0-78.0","battery-v0.2","","""event"",""trial"",""time""
""fullscreenenter"",""1"",""5538""
","
","
","""event"",""trial"",""time""
""fullscreenenter"",""1"",""5538""
","
","","","500.39999997615814","","","12","6359","3632","p","elianto","#3366ff99","-1"," ","0","0","[1350.8999999761581]","1","2","","","6359","74","5","2","win","no-go","0"
"pit-trial","193","1206275","0.0-79.0","battery-v0.2","","""event"",""trial"",""time""
""fullscreenenter"",""1"",""5538""
","
","
","""event"",""trial"",""time""
""fullscreenenter"",""1"",""5538""
","
","","","563.4000000357628","","","12","6359","3632","d","elianto","#3366ff99","-1"," ","0","0","[1417.699999988079]","1","2","","","6359","75","1","2","win","no-go","0"
"pit-trial","194","1209777","0.0-80.0","battery-v0.2","","""event"",""trial"",""time""
""fullscreenenter"",""1"",""5538""
","
","
","""event"",""trial"",""time""
""fullscreenenter"",""1"",""5538""
","
","","","645.8000000119209","","","12","6359","3632","s","elianto","#3366ff99"," "," ","1","+10","[1497.3999999761581]","1","2","","","6359","76","4","1","win","go","0"
"pit-trial","195","1213292","0.0-81.0","battery-v0.2","","""event"",""trial"",""time""
""fullscreenenter"",""1"",""5538""
","
","
","""event"",""trial"",""time""
""fullscreenenter"",""1"",""5538""
","
","","","659.8000000119209","","","12","6359","3632","s","elianto","#3366ff99"," "," ","1","0","[1510.7000000476837]","1","2","","","6359","77","4","1","win","go","1"
"pit-trial","196","1216716","0.0-82.0","battery-v0.2","","""event"",""trial"",""time""
""fullscreenenter"",""1"",""5538""
","
","
","""event"",""trial"",""time""
""fullscreenenter"",""1"",""5538""
","
","","","568.4000000357628","","","12","6359","3632","s","elianto","#3366ff99"," "," ","1","+10","[1419.800000011921]","1","2","","","6359","78","4","1","win","go","0"
"pit-trial","197","1220259","0.0-83.0","battery-v0.2","","""event"",""trial"",""time""
""fullscreenenter"",""1"",""5538""
","
","
","""event"",""trial"",""time""
""fullscreenenter"",""1"",""5538""
","
","","","687.3000000119209","","","12","6359","3632","p","elianto","#3366ff99","-1"," ","0","+10","[1537.800000011921]","1","2","","","6359","79","5","2","win","no-go","1"
"pit-trial","198","1225113","0.0-84.0","battery-v0.2","","""event"",""trial"",""time""
""fullscreenenter"",""1"",""5538""
","
","
","""event"",""trial"",""time""
""fullscreenenter"",""1"",""5538""
","
","","","-1","","","12","6359","3632","w","elianto","#f73b6a7A","-1","-1","1","0","[2995.5]","1","2","","","6359","80","3","4","lose","no-go","0"
"pit-trial","199","1228987","0.0-85.0","battery-v0.2","","""event"",""trial"",""time""
""fullscreenenter"",""1"",""5538""
","
","
","""event"",""trial"",""time""
""fullscreenenter"",""1"",""5538""
","
","","","1018.5","","","12","6359","3632","p","elianto","#3366ff99","-1"," ","0","0","[1869]","1","2","","","6359","81","5","2","win","no-go","0"
"pit-trial","200","1232708","0.0-86.0","battery-v0.2","","""event"",""trial"",""time""
""fullscreenenter"",""1"",""5538""
","
","
","""event"",""trial"",""time""
""fullscreenenter"",""1"",""5538""
","
","","","861.3999999761581","","","12","6359","3632","w","elianto","#f73b6a7A","-1"," ","0","0","[1715.800000011921,2459.099999964237]","2","2","","","6359","82","3","4","lose","no-go","1"
"pit-trial","201","1236470","0.0-87.0","battery-v0.2","","""event"",""trial"",""time""
""fullscreenenter"",""1"",""5538""
","
","
","""event"",""trial"",""time""
""fullscreenenter"",""1"",""5538""
","
","","","904.6999999880791","","","12","6359","3632","s","elianto","#3366ff99"," "," ","1","0","[1757.5999999642372]","1","2","","","6359","83","4","1","win","go","1"
"pit-trial","202","1240443","0.0-88.0","battery-v0.2","","""event"",""trial"",""time""
""fullscreenenter"",""1"",""5538""
","
","
","""event"",""trial"",""time""
""fullscreenenter"",""1"",""5538""
","
","","","1117.699999988079","","","12","6359","3632","a","elianto","#f73b6a7A","-1"," ","0","-10","[1968.699999988079]","1","2","","","6359","84","7","4","lose","no-go","0"
"pit-trial","203","1245298","0.0-89.0","battery-v0.2","","""event"",""trial"",""time""
""fullscreenenter"",""1"",""5538""
","
","
","""event"",""trial"",""time""
""fullscreenenter"",""1"",""5538""
","
","","","-1","","","12","6359","3632","a","elianto","#f73b6a7A","-1","-1","1","0","[]","0","2","","","6359","85","7","4","lose","no-go","0"
"pit-trial","204","1249373","0.0-90.0","battery-v0.2","","""event"",""trial"",""time""
""fullscreenenter"",""1"",""5538""
","
","
","""event"",""trial"",""time""
""fullscreenenter"",""1"",""5538""
","
","","","1219","","","12","6359","3632","p","elianto","#3366ff99","-1"," ","0","0","[2069.600000023842]","1","2","","","6359","86","5","2","win","no-go","0"
"pit-trial","205","1253387","0.0-91.0","battery-v0.2","","""event"",""trial"",""time""
""fullscreenenter"",""1"",""5538""
","
","
","""event"",""trial"",""time""
""fullscreenenter"",""1"",""5538""
","
","","","1154.800000011921","","","12","6359","3632","s","elianto","#3366ff99"," "," ","1","+10","[2009.7999999523163]","1","2","","","6359","87","4","1","win","go","0"
"pit-trial","206","1257394","0.0-92.0","battery-v0.2","","""event"",""trial"",""time""
""fullscreenenter"",""1"",""5538""
","
","
","""event"",""trial"",""time""
""fullscreenenter"",""1"",""5538""
","
","","","1153.699999988079","","","12","6359","3632","g","elianto","#f73b6a7A"," "," ","1","0","[2003.699999988079]","1","2","","","6359","88","6","3","lose","go","0"
"pit-trial","207","1260909","0.0-93.0","battery-v0.2","","""event"",""trial"",""time""
""fullscreenenter"",""1"",""5538""
","
","
","""event"",""trial"",""time""
""fullscreenenter"",""1"",""5538""
","
","","","657.7000000476837","","","12","6359","3632","g","elianto","#f73b6a7A"," "," ","1","-10","[1509.300000011921]","1","2","","","6359","89","6","3","lose","go","1"
"pit-trial","208","1264363","0.0-94.0","battery-v0.2","","""event"",""trial"",""time""
""fullscreenenter"",""1"",""5538""
","
","
","""event"",""trial"",""time""
""fullscreenenter"",""1"",""5538""
","
","","","596.2999999523163","","","12","6359","3632","a","elianto","#f73b6a7A","-1"," ","0","-10","[1449.7999999523163]","1","2","","","6359","90","7","4","lose","no-go","0"
"pit-trial","209","1267932","0.0-95.0","battery-v0.2","","""event"",""trial"",""time""
""fullscreenenter"",""1"",""5538""
","
","
","""event"",""trial"",""time""
""fullscreenenter"",""1"",""5538""
","
","","","713","","","12","6359","3632","s","elianto","#3366ff99"," "," ","1","0","[1563.8999999761581]","1","2","","","6359","91","4","1","win","go","1"
"pit-trial","210","1271334","0.0-96.0","battery-v0.2","","""event"",""trial"",""time""
""fullscreenenter"",""1"",""5538""
","
","
","""event"",""trial"",""time""
""fullscreenenter"",""1"",""5538""
","
","","","545.7999999523163","","","12","6359","3632","p","elianto","#3366ff99","-1"," ","0","0","[1396.9000000357628]","1","2","","","6359","92","5","2","win","no-go","0"
"pit-trial","211","1276189","0.0-97.0","battery-v0.2","","""event"",""trial"",""time""
""fullscreenenter"",""1"",""5538""
","
","
","""event"",""trial"",""time""
""fullscreenenter"",""1"",""5538""
","
","","","-1","","","12","6359","3632","l","elianto","#3366ff99"," ","-1","0","0","[]","0","2","","","6359","93","8","1","win","go","0"
"pit-trial","212","1280108","0.0-98.0","battery-v0.2","","""event"",""trial"",""time""
""fullscreenenter"",""1"",""5538""
","
","
","""event"",""trial"",""time""
""fullscreenenter"",""1"",""5538""
","
","","","1064","","","12","6359","3632","g","elianto","#f73b6a7A"," "," ","1","0","[1914.9000000357628]","1","2","","","6359","94","6","3","lose","go","0"
"pit-trial","213","1283702","0.0-99.0","battery-v0.2","","""event"",""trial"",""time""
""fullscreenenter"",""1"",""5538""
","
","
","""event"",""trial"",""time""
""fullscreenenter"",""1"",""5538""
","
","","","732.3000000119209","","","12","6359","3632","p","elianto","#3366ff99","-1"," ","0","0","[1587.0999999642372]","1","2","","","6359","95","5","2","win","no-go","0"
"pit-trial","214","1288557","0.0-100.0","battery-v0.2","","""event"",""trial"",""time""
""fullscreenenter"",""1"",""5538""
","
","
","""event"",""trial"",""time""
""fullscreenenter"",""1"",""5538""
","
","","","-1","","","12","6359","3632","a","elianto","#f73b6a7A","-1","-1","1","0","[]","0","2","","","6359","96","7","4","lose","no-go","0"
"pit-trial","215","1293412","0.0-101.0","battery-v0.2","","""event"",""trial"",""time""
""fullscreenenter"",""1"",""5538""
","
","
","""event"",""trial"",""time""
""fullscreenenter"",""1"",""5538""
","
","","","-1","","","12","6359","3632","a","elianto","#f73b6a7A","-1","-1","1","0","[]","0","2","","","6359","97","7","4","lose","no-go","0"
"pit-trial","216","1297782","0.0-102.0","battery-v0.2","","""event"",""trial"",""time""
""fullscreenenter"",""1"",""5538""
","
","
","""event"",""trial"",""time""
""fullscreenenter"",""1"",""5538""
","
","","","1511.199999988079","","","12","6359","3632","g","elianto","#f73b6a7A"," "," ","1","-10","[2365]","1","2","","","6359","98","6","3","lose","go","1"
"pit-trial","217","1302294","0.0-103.0","battery-v0.2","","""event"",""trial"",""time""
""fullscreenenter"",""1"",""5538""
","
","
","""event"",""trial"",""time""
""fullscreenenter"",""1"",""5538""
","
","","","1654.699999988079","","","12","6359","3632","l","elianto","#3366ff99"," "," ","1","+10","[2506.300000011921]","1","2","","","6359","99","8","1","win","go","0"
"pit-trial","218","1305973","0.0-104.0","battery-v0.2","","""event"",""trial"",""time""
""fullscreenenter"",""1"",""5538""
","
","
","""event"",""trial"",""time""
""fullscreenenter"",""1"",""5538""
","
","","","820.2000000476837","","","12","6359","3632","p","elianto","#3366ff99","-1"," ","0","0","[1672.800000011921]","1","2","","","6359","100","5","2","win","no-go","0"
"pit-trial","219","1310828","0.0-105.0","battery-v0.2","","""event"",""trial"",""time""
""fullscreenenter"",""1"",""5538""
","
","
","""event"",""trial"",""time""
""fullscreenenter"",""1"",""5538""
","
","","","-1","","","12","6359","3632","p","elianto","#3366ff99","-1","-1","1","+10","[]","0","2","","","6359","101","5","2","win","no-go","0"
"pit-trial","220","1314437","0.0-106.0","battery-v0.2","","""event"",""trial"",""time""
""fullscreenenter"",""1"",""5538""
","
","
","""event"",""trial"",""time""
""fullscreenenter"",""1"",""5538""
","
","","","748.1999999880791","","","12","6359","3632","l","elianto","#3366ff99"," "," ","1","+10","[1604.5]","1","2","","","6359","102","8","1","win","go","0"
"pit-trial","221","1318431","0.0-107.0","battery-v0.2","","""event"",""trial"",""time""
""fullscreenenter"",""1"",""5538""
","
","
","""event"",""trial"",""time""
""fullscreenenter"",""1"",""5538""
","
","","","1137.699999988079","","","12","6359","3632","a","elianto","#f73b6a7A","-1"," ","0","-10","[1988.9000000357628]","1","2","","","6359","103","7","4","lose","no-go","0"
"pit-trial","222","1323286","0.0-108.0","battery-v0.2","","""event"",""trial"",""time""
""fullscreenenter"",""1"",""5538""
","
","
","""event"",""trial"",""time""
""fullscreenenter"",""1"",""5538""
","
","","","-1","","","12","6359","3632","u","elianto","#3366ff99"," ","-1","0","0","[]","0","2","","","6359","104","9","1","win","go","0"
"pit-trial","223","1326926","0.0-109.0","battery-v0.2","","""event"",""trial"",""time""
""fullscreenenter"",""1"",""5538""
","
","
","""event"",""trial"",""time""
""fullscreenenter"",""1"",""5538""
","
","","","784.5","","","12","6359","3632","l","elianto","#3366ff99"," "," ","1","0","[1636]","1","2","","","6359","105","8","1","win","go","1"
"pit-trial","224","1331781","0.0-110.0","battery-v0.2","","""event"",""trial"",""time""
""fullscreenenter"",""1"",""5538""
","
","
","""event"",""trial"",""time""
""fullscreenenter"",""1"",""5538""
","
","","","-1","","","12","6359","3632","s","elianto","#3366ff99"," ","-1","0","0","[]","0","2","","","6359","106","4","1","win","go","0"
"pit-trial","225","1336636","0.0-111.0","battery-v0.2","","""event"",""trial"",""time""
""fullscreenenter"",""1"",""5538""
","
","
","""event"",""trial"",""time""
""fullscreenenter"",""1"",""5538""
","
","","","-1","","","12","6359","3632","g","elianto","#f73b6a7A"," ","-1","0","-10","[]","0","2","","","6359","107","6","3","lose","go","0"
"pit-trial","226","1340423","0.0-112.0","battery-v0.2","","""event"",""trial"",""time""
""fullscreenenter"",""1"",""5538""
","
","
","""event"",""trial"",""time""
""fullscreenenter"",""1"",""5538""
","
","","","931.7999999523163","","","12","6359","3632","u","elianto","#3366ff99"," "," ","1","+10","[1782.800000011921]","1","2","","","6359","108","9","1","win","go","0"
"pit-trial","227","1343927","0.0-113.0","battery-v0.2","","""event"",""trial"",""time""
""fullscreenenter"",""1"",""5538""
","
","
","""event"",""trial"",""time""
""fullscreenenter"",""1"",""5538""
","
","","","646.9000000357628","","","12","6359","3632","u","elianto","#3366ff99"," "," ","1","+10","[1498.9000000357628]","1","2","","","6359","109","9","1","win","go","0"
"pit-trial","228","1347559","0.0-114.0","battery-v0.2","","""event"",""trial"",""time""
""fullscreenenter"",""1"",""5538""
","
","
","""event"",""trial"",""time""
""fullscreenenter"",""1"",""5538""
","
","","","776.8999999761581","","","12","6359","3632","l","elianto","#3366ff99"," "," ","1","+10","[1627.300000011921]","1","2","","","6359","110","8","1","win","go","0"
"pit-trial","229","1352414","0.0-115.0","battery-v0.2","","""event"",""trial"",""time""
""fullscreenenter"",""1"",""5538""
","
","
","""event"",""trial"",""time""
""fullscreenenter"",""1"",""5538""
","
","","","-1","","","12","6359","3632","p","elianto","#3366ff99","-1","-1","1","+10","[]","0","2","","","6359","111","5","2","win","no-go","0"
"pit-trial","230","1357270","0.0-116.0","battery-v0.2","","""event"",""trial"",""time""
""fullscreenenter"",""1"",""5538""
","
","
","""event"",""trial"",""time""
""fullscreenenter"",""1"",""5538""
","
","","","-1","","","12","6359","3632","g","elianto","#f73b6a7A"," ","-1","0","-10","[]","0","2","","","6359","112","6","3","lose","go","0"
"pit-trial","231","1360903","0.0-117.0","battery-v0.2","","""event"",""trial"",""time""
""fullscreenenter"",""1"",""5538""
","
","
","""event"",""trial"",""time""
""fullscreenenter"",""1"",""5538""
","
","","","776.9000000357628","","","12","6359","3632","l","elianto","#3366ff99"," "," ","1","+10","[1628.199999988079]","1","2","","","6359","113","8","1","win","go","0"
"pit-trial","232","1365759","0.0-118.0","battery-v0.2","","""event"",""trial"",""time""
""fullscreenenter"",""1"",""5538""
","
","
","""event"",""trial"",""time""
""fullscreenenter"",""1"",""5538""
","
","","","-1","","","12","6359","3632","g","elianto","#f73b6a7A"," ","-1","0","-10","[]","0","2","","","6359","114","6","3","lose","go","0"
"pit-trial","233","1369583","0.0-119.0","battery-v0.2","","""event"",""trial"",""time""
""fullscreenenter"",""1"",""5538""
","
","
","""event"",""trial"",""time""
""fullscreenenter"",""1"",""5538""
","
","","","969.5","","","12","6359","3632","u","elianto","#3366ff99"," "," ","1","+10","[1819.800000011921]","1","2","","","6359","115","9","1","win","go","0"
"pit-trial","234","1373321","0.0-120.0","battery-v0.2","","""event"",""trial"",""time""
""fullscreenenter"",""1"",""5538""
","
","
","""event"",""trial"",""time""
""fullscreenenter"",""1"",""5538""
","
","","","878.6000000238419","","","12","6359","3632","p","elianto","#3366ff99","-1"," ","0","+10","[1732.699999988079]","1","2","","","6359","116","5","2","win","no-go","1"
"pit-trial","235","1376951","0.0-121.0","battery-v0.2","","""event"",""trial"",""time""
""fullscreenenter"",""1"",""5538""
","
","
","""event"",""trial"",""time""
""fullscreenenter"",""1"",""5538""
","
","","","773.6000000238419","","","12","6359","3632","p","elianto","#3366ff99","-1"," ","0","0","[1625.199999988079]","1","2","","","6359","117","5","2","win","no-go","0"
"pit-trial","236","1381306","0.0-122.0","battery-v0.2","","""event"",""trial"",""time""
""fullscreenenter"",""1"",""5538""
","
","
","""event"",""trial"",""time""
""fullscreenenter"",""1"",""5538""
","
","","","1495.3999999761581","","","12","6359","3632","g","elianto","#f73b6a7A"," "," ","1","0","[2348.899999976158]","1","2","","","6359","118","6","3","lose","go","0"
"pit-trial","237","1384897","0.0-123.0","battery-v0.2","","""event"",""trial"",""time""
""fullscreenenter"",""1"",""5538""
","
","
","""event"",""trial"",""time""
""fullscreenenter"",""1"",""5538""
","
","","","735.0999999642372","","","12","6359","3632","u","elianto","#3366ff99"," "," ","1","0","[1586]","1","2","","","6359","119","9","1","win","go","1"
"pit-trial","238","1388335","0.0-124.0","battery-v0.2","","""event"",""trial"",""time""
""fullscreenenter"",""1"",""5538""
","
","
","""event"",""trial"",""time""
""fullscreenenter"",""1"",""5538""
","
","","","584","","","12","6359","3632","l","elianto","#3366ff99"," "," ","1","+10","[1434.199999988079]","1","2","","","6359","120","8","1","win","go","0"
"pit-trial","239","1393204","0.0-125.0","battery-v0.2","","""event"",""trial"",""time""
""fullscreenenter"",""1"",""5538""
","
","
","""event"",""trial"",""time""
""fullscreenenter"",""1"",""5538""
","
","","","-1","","","12","6359","3632","a","elianto","#f73b6a7A","-1","-1","1","0","[]","0","2","","","6359","121","7","4","lose","no-go","0"
"pit-trial","240","1396761","0.0-126.0","battery-v0.2","","""event"",""trial"",""time""
""fullscreenenter"",""1"",""5538""
","
","
","""event"",""trial"",""time""
""fullscreenenter"",""1"",""5538""
","
","","","699.5999999642372","","","12","6359","3632","u","elianto","#3366ff99"," "," ","1","0","[1553.199999988079]","1","2","","","6359","122","9","1","win","go","1"
"pit-trial","241","1400393","0.0-127.0","battery-v0.2","","""event"",""trial"",""time""
""fullscreenenter"",""1"",""5538""
","
","
","""event"",""trial"",""time""
""fullscreenenter"",""1"",""5538""
","
","","","775.8999999761581","","","12","6359","3632","l","elianto","#3366ff99"," "," ","1","0","[1627.5999999642372]","1","2","","","6359","123","8","1","win","go","1"
"pit-trial","242","1405248","0.0-128.0","battery-v0.2","","""event"",""trial"",""time""
""fullscreenenter"",""1"",""5538""
","
","
","""event"",""trial"",""time""
""fullscreenenter"",""1"",""5538""
","
","","","-1","","","12","6359","3632","g","elianto","#f73b6a7A"," ","-1","0","-10","[]","0","2","","","6359","124","6","3","lose","go","0"
"pit-trial","243","1408857","0.0-129.0","battery-v0.2","","""event"",""trial"",""time""
""fullscreenenter"",""1"",""5538""
","
","
","""event"",""trial"",""time""
""fullscreenenter"",""1"",""5538""
","
","","","752.5","","","12","6359","3632","g","elianto","#f73b6a7A"," "," ","1","0","[1604.3999999761581]","1","2","","","6359","125","6","3","lose","go","0"
"pit-trial","244","1413714","0.0-130.0","battery-v0.2","","""event"",""trial"",""time""
""fullscreenenter"",""1"",""5538""
","
","
","""event"",""trial"",""time""
""fullscreenenter"",""1"",""5538""
","
","","","-1","","","12","6359","3632","a","elianto","#f73b6a7A","-1","-1","1","0","[]","0","2","","","6359","126","7","4","lose","no-go","0"
"pit-trial","245","1418569","0.0-131.0","battery-v0.2","","""event"",""trial"",""time""
""fullscreenenter"",""1"",""5538""
","
","
","""event"",""trial"",""time""
""fullscreenenter"",""1"",""5538""
","
","","","-1","","","12","6359","3632","u","elianto","#3366ff99"," ","-1","0","+10","[]","0","2","","","6359","127","9","1","win","go","1"
"pit-trial","246","1422307","0.0-132.0","battery-v0.2","","""event"",""trial"",""time""
""fullscreenenter"",""1"",""5538""
","
","
","""event"",""trial"",""time""
""fullscreenenter"",""1"",""5538""
","
","","","882.5","","","12","6359","3632","l","elianto","#3366ff99"," "," ","1","0","[1732.6000000238419]","1","2","","","6359","128","8","1","win","go","1"
"pit-trial","247","1427163","0.0-133.0","battery-v0.2","","""event"",""trial"",""time""
""fullscreenenter"",""1"",""5538""
","
","
","""event"",""trial"",""time""
""fullscreenenter"",""1"",""5538""
","
","","","-1","","","12","6359","3632","a","elianto","#f73b6a7A","-1","-1","1","0","[]","0","2","","","6359","129","7","4","lose","no-go","0"
"pit-trial","248","1432019","0.0-134.0","battery-v0.2","","""event"",""trial"",""time""
""fullscreenenter"",""1"",""5538""
","
","
","""event"",""trial"",""time""
""fullscreenenter"",""1"",""5538""
","
","","","-1","","","12","6359","3632","u","elianto","#3366ff99"," ","-1","0","0","[]","0","2","","","6359","130","9","1","win","go","0"
"pit-trial","249","1435691","0.0-135.0","battery-v0.2","","""event"",""trial"",""time""
""fullscreenenter"",""1"",""5538""
","
","
","""event"",""trial"",""time""
""fullscreenenter"",""1"",""5538""
","
","","","817.0999999642372","","","12","6359","3632","l","elianto","#3366ff99"," "," ","1","+10","[1667.300000011921]","1","2","","","6359","131","8","1","win","go","0"
"pit-trial","250","1439386","0.0-136.0","battery-v0.2","","""event"",""trial"",""time""
""fullscreenenter"",""1"",""5538""
","
","
","""event"",""trial"",""time""
""fullscreenenter"",""1"",""5538""
","
","","","838.9000000357628","","","12","6359","3632","g","elianto","#f73b6a7A"," "," ","1","0","[1691]","1","2","","","6359","132","6","3","lose","go","0"
"pit-trial","251","1443170","0.0-137.0","battery-v0.2","","""event"",""trial"",""time""
""fullscreenenter"",""1"",""5538""
","
","
","""event"",""trial"",""time""
""fullscreenenter"",""1"",""5538""
","
","","","929","","","12","6359","3632","g","elianto","#f73b6a7A"," "," ","1","0","[1779.8999999761581]","1","2","","","6359","133","6","3","lose","go","0"
"pit-trial","252","1448026","0.0-138.0","battery-v0.2","","""event"",""trial"",""time""
""fullscreenenter"",""1"",""5538""
","
","
","""event"",""trial"",""time""
""fullscreenenter"",""1"",""5538""
","
","","","-1","","","12","6359","3632","a","elianto","#f73b6a7A","-1","-1","1","0","[]","0","2","","","6359","134","7","4","lose","no-go","0"
"pit-trial","253","1451660","0.0-139.0","battery-v0.2","","""event"",""trial"",""time""
""fullscreenenter"",""1"",""5538""
","
","
","""event"",""trial"",""time""
""fullscreenenter"",""1"",""5538""
","
","","","775.0999999642372","","","12","6359","3632","l","elianto","#3366ff99"," "," ","1","+10","[1627.5]","1","2","","","6359","135","8","1","win","go","0"
"pit-trial","254","1456515","0.0-140.0","battery-v0.2","","""event"",""trial"",""time""
""fullscreenenter"",""1"",""5538""
","
","
","""event"",""trial"",""time""
""fullscreenenter"",""1"",""5538""
","
","","","-1","","","12","6359","3632","u","elianto","#3366ff99"," ","-1","0","0","[]","0","2","","","6359","136","9","1","win","go","0"
"pit-trial","255","1461370","0.0-141.0","battery-v0.2","","""event"",""trial"",""time""
""fullscreenenter"",""1"",""5538""
","
","
","""event"",""trial"",""time""
""fullscreenenter"",""1"",""5538""
","
","","","-1","","","12","6359","3632","u","elianto","#3366ff99"," ","-1","0","0","[]","0","2","","","6359","137","9","1","win","go","0"
"pit-trial","256","1466226","0.0-142.0","battery-v0.2","","""event"",""trial"",""time""
""fullscreenenter"",""1"",""5538""
","
","
","""event"",""trial"",""time""
""fullscreenenter"",""1"",""5538""
","
","","","-1","","","12","6359","3632","a","elianto","#f73b6a7A","-1","-1","1","-10","[]","0","2","","","6359","138","7","4","lose","no-go","1"
"pit-trial","257","1469868","0.0-143.0","battery-v0.2","","""event"",""trial"",""time""
""fullscreenenter"",""1"",""5538""
","
","
","""event"",""trial"",""time""
""fullscreenenter"",""1"",""5538""
","
","","","782.4000000357628","","","12","6359","3632","l","elianto","#3366ff99"," "," ","1","+10","[1636.800000011921]","1","2","","","6359","139","8","1","win","go","0"
"pit-trial","258","1473707","0.0-144.0","battery-v0.2","","""event"",""trial"",""time""
""fullscreenenter"",""1"",""5538""
","
","
","""event"",""trial"",""time""
""fullscreenenter"",""1"",""5538""
","
","","","983.6999999880791","","","12","6359","3632","g","elianto","#f73b6a7A"," "," ","1","0","[1835]","1","2","","","6359","140","6","3","lose","go","0"
"pit-instructions","259","1579851","0.0-145.0","battery-v0.2","","""event"",""trial"",""time""
""fullscreenenter"",""1"",""5538""
","
","
","""event"",""trial"",""time""
""fullscreenenter"",""1"",""5538""
","
","","[{""page_index"":0,""viewing_time"":95792.10000002384},{""page_index"":1,""viewing_time"":10347.600000023842}]","106140.40000003576","","","","","","","","","","","","","","","","","","","","","","","",""
"pit-trial","260","1584719","0.0-146.0","battery-v0.2","","""event"",""trial"",""time""
""fullscreenenter"",""1"",""5538""
","
","
","""event"",""trial"",""time""
""fullscreenenter"",""1"",""5538""
","
","","","-1","","","12","6359","3632","b","elianto","#f73b6a7A"," ","-1","0","-10","[]","0","3","","","6359","141","3","3","lose","go","0"
"pit-trial","261","1588328","0.0-147.0","battery-v0.2","","""event"",""trial"",""time""
""fullscreenenter"",""1"",""5538""
","
","
","""event"",""trial"",""time""
""fullscreenenter"",""1"",""5538""
","
","","","746.8000000119209","","","12","6359","3632","t","elianto","#f73b6a7A","-1"," ","0","-10","[1602.3999999761581]","1","3","","","6359","142","2","4","lose","no-go","0"
"pit-trial","262","1591853","0.0-148.0","battery-v0.2","","""event"",""trial"",""time""
""fullscreenenter"",""1"",""5538""
","
","
","""event"",""trial"",""time""
""fullscreenenter"",""1"",""5538""
","
","","","655.2000000476837","","","12","6359","3632","f","elianto","#3366ff99"," "," ","1","+10","[1506.1000000238419]","1","3","","","6359","143","1","1","win","go","0"
"pit-trial","263","1595442","0.0-149.0","battery-v0.2","","""event"",""trial"",""time""
""fullscreenenter"",""1"",""5538""
","
","
","""event"",""trial"",""time""
""fullscreenenter"",""1"",""5538""
","
","","","726.6999999880791","","","12","6359","3632","n","elianto","#f73b6a7A","-1"," ","0","-10","[1582]","1","3","","","6359","144","0","4","lose","no-go","0"
"pit-trial","264","1600313","0.0-150.0","battery-v0.2","","""event"",""trial"",""time""
""fullscreenenter"",""1"",""5538""
","
","
","""event"",""trial"",""time""
""fullscreenenter"",""1"",""5538""
","
","","","-1","","","12","6359","3632","b","elianto","#f73b6a7A"," ","-1","0","-10","[]","0","3","","","6359","145","3","3","lose","go","0"
"pit-trial","265","1604505","0.0-151.0","battery-v0.2","","""event"",""trial"",""time""
""fullscreenenter"",""1"",""5538""
","
","
","""event"",""trial"",""time""
""fullscreenenter"",""1"",""5538""
","
","","","1326.800000011921","","","12","6359","3632","f","elianto","#3366ff99"," "," ","1","0","[2178]","1","3","","","6359","146","1","1","win","go","1"
"pit-trial","266","1608431","0.0-152.0","battery-v0.2","","""event"",""trial"",""time""
""fullscreenenter"",""1"",""5538""
","
","
","""event"",""trial"",""time""
""fullscreenenter"",""1"",""5538""
","
