"trial_type","trial_index","time_elapsed","internal_node_id","task_version","subject_id","interactions","blur_events","focus_events","fullscreenenter_events","fullscreenexit_events","success","view_history","rt","responses","num_errors","age","subject","participantId","rune","rune_set","hex","correct","choice","accuracy","outcome","keys","total_keys","block","practice","value","sub","trial","stimulus","robot","valence","action","sham"
"pavlovia","0","3","0.0-0.0","battery-v0.2","","""event"",""trial"",""time""
""fullscreenenter"",""1"",""4369""
","
","
","""event"",""trial"",""time""
""fullscreenenter"",""1"",""4369""
","
","","","","","","","","","","","","","","","","","","","","","","","","","","",""
"fullscreen","1","5367","0.0-1.0","battery-v0.2","","""event"",""trial"",""time""
""fullscreenenter"",""1"",""4369""
","
","
","""event"",""trial"",""time""
""fullscreenenter"",""1"",""4369""
","
","true","","","","","","","","","","","","","","","","","","","","","","","","","",""
"pit-instructions","2","11208","0.0-2.0-0.0","battery-v0.2","","""event"",""trial"",""time""
""fullscreenenter"",""1"",""4369""
","
","
","""event"",""trial"",""time""
""fullscreenenter"",""1"",""4369""
","
","","[{""page_index"":0,""viewing_time"":5834.799999952316}]","5835.5","","","","","","","","","","","","","","","","","","","","","","","",""
"pit-comprehension","3","15127","0.0-2.0-1.0-0.0","battery-v0.2","","""event"",""trial"",""time""
""fullscreenenter"",""1"",""4369""
","
","
","""event"",""trial"",""time""
""fullscreenenter"",""1"",""4369""
","
","","","3914","[""shark""]","0","19","10377","4725","","","","","","","","","","","","","","","","","","",""
"pit-instructions","4","17859","0.0-2.0-1.0-1.0","battery-v0.2","","""event"",""trial"",""time""
""fullscreenenter"",""1"",""4369""
","
","
","""event"",""trial"",""time""
""fullscreenenter"",""1"",""4369""
","
","","[{""page_index"":0,""viewing_time"":2720.899999976158}]","2721.5","","","","","","","","","","","","","","","","","","","","","","","",""
"pit-comprehension","5","20127","0.0-2.0-2.0-0.0","battery-v0.2","","""event"",""trial"",""time""
""fullscreenenter"",""1"",""4369""
","
","
","""event"",""trial"",""time""
""fullscreenenter"",""1"",""4369""
","
","","","2262.8000000715256","[""tiger""]","0","19","10377","4725","","","","","","","","","","","","","","","","","","",""
"pit-instructions","6","21306","0.0-2.0-2.0-1.0","battery-v0.2","","""event"",""trial"",""time""
""fullscreenenter"",""1"",""4369""
","
","
","""event"",""trial"",""time""
""fullscreenenter"",""1"",""4369""
","
","","[{""page_index"":0,""viewing_time"":1176.2999999523163}]","1176.6000000238419","","","","","","","","","","","","","","","","","","","","","","","",""
"pit-instructions","7","113625","0.0-2.0-3.0","battery-v0.2","","""event"",""trial"",""time""
""fullscreenenter"",""1"",""4369""
","
","
","""event"",""trial"",""time""
""fullscreenenter"",""1"",""4369""
","
","","[{""page_index"":0,""viewing_time"":8216.399999976158},{""page_index"":1,""viewing_time"":5584.300000071526},{""page_index"":2,""viewing_time"":7450.5},{""page_index"":3,""viewing_time"":5466.600000023842},{""page_index"":4,""viewing_time"":5383.699999928474},{""page_index"":5,""viewing_time"":5049.200000047684},{""page_index"":6,""viewing_time"":6684.799999952316},{""page_index"":7,""viewing_time"":6182.700000047684},{""page_index"":8,""viewing_time"":6216.799999952316},{""page_index"":9,""viewing_time"":7866.800000071526},{""page_index"":10,""viewing_time"":7550.399999976158},{""page_index"":11,""viewing_time"":7533.199999928474},{""page_index"":12,""viewing_time"":7233.300000071526},{""page_index"":13,""viewing_time"":5899.799999952316}]","92319.20000004768","","","","","","","","","","","","","","","","","","","","","","","",""
"pit-trial","8","117311","0.0-2.0-4.0-0.0","battery-v0.2","","""event"",""trial"",""time""
""fullscreenenter"",""1"",""4369""
","
","
","""event"",""trial"",""time""
""fullscreenenter"",""1"",""4369""
","
","","","818.3000000715256","","","19","10377","4725","&#9784;","elianto","#FFFFF080"," "," ","1","&#10004","[1675.2000000476837]","1","0","0","","","","","","","",""
"pit-trial","9","121022","0.0-2.0-4.1-0.1","battery-v0.2","","""event"",""trial"",""time""
""fullscreenenter"",""1"",""4369""
","
","
","""event"",""trial"",""time""
""fullscreenenter"",""1"",""4369""
","
","","","841.5","","","19","10377","4725","&#9784;","elianto","#FFFFF080"," "," ","1","&#10004","[1695.6000000238419]","1","0","0","","","","","","","",""
"pit-trial","10","124435","0.0-2.0-4.2-0.2","battery-v0.2","","""event"",""trial"",""time""
""fullscreenenter"",""1"",""4369""
","
","
","""event"",""trial"",""time""
""fullscreenenter"",""1"",""4369""
","
","","","548.7999999523163","","","19","10377","4725","&#9784;","elianto","#FFFFF080"," "," ","1","&#10004","[1405.5]","1","0","0","","","","","","","",""
"pit-trial","11","127862","0.0-2.0-4.3-0.3","battery-v0.2","","""event"",""trial"",""time""
""fullscreenenter"",""1"",""4369""
","
","
","""event"",""trial"",""time""
""fullscreenenter"",""1"",""4369""
","
","","","553.3999999761581","","","19","10377","4725","&#9784;","elianto","#FFFFF080"," "," ","1","&#10004","[1413.8999999761581]","1","0","0","","","","","","","",""
"pit-trial","12","131622","0.0-2.0-4.4-0.4","battery-v0.2","","""event"",""trial"",""time""
""fullscreenenter"",""1"",""4369""
","
","
","""event"",""trial"",""time""
""fullscreenenter"",""1"",""4369""
","
","","","894.1000000238419","","","19","10377","4725","&#9784;","elianto","#FFFFF080"," "," ","1","&#10004","[1746.2000000476837]","1","0","0","","","","","","","",""
"pit-instructions","13","152089","0.0-2.0-5.0","battery-v0.2","","""event"",""trial"",""time""
""fullscreenenter"",""1"",""4369""
","
","
","""event"",""trial"",""time""
""fullscreenenter"",""1"",""4369""
","
","","[{""page_index"":0,""viewing_time"":4730.899999976158},{""page_index"":1,""viewing_time"":5381.600000023842},{""page_index"":2,""viewing_time"":4801.799999952316},{""page_index"":3,""viewing_time"":5548.5}]","20462.899999976158","","","","","","","","","","","","","","","","","","","","","","","",""
"pit-trial","14","156957","0.0-2.0-6.0-0.0","battery-v0.2","","""event"",""trial"",""time""
""fullscreenenter"",""1"",""4369""
","
","
","""event"",""trial"",""time""
""fullscreenenter"",""1"",""4369""
","
","","","-1","","","19","10377","4725","&#9854;","elianto","#FFFFF080","-1","-1","1","&#10004","[]","0","0","1","","","","","","","",""
"pit-trial","15","161829","0.0-2.0-6.1-0.1","battery-v0.2","","""event"",""trial"",""time""
""fullscreenenter"",""1"",""4369""
","
","
","""event"",""trial"",""time""
""fullscreenenter"",""1"",""4369""
","
","","","-1","","","19","10377","4725","&#9854;","elianto","#FFFFF080","-1","-1","1","&#10004","[]","0","0","1","","","","","","","",""
"pit-trial","16","166699","0.0-2.0-6.2-0.2","battery-v0.2","","""event"",""trial"",""time""
""fullscreenenter"",""1"",""4369""
","
","
","""event"",""trial"",""time""
""fullscreenenter"",""1"",""4369""
","
","","","-1","","","19","10377","4725","&#9854;","elianto","#FFFFF080","-1","-1","1","&#10004","[]","0","0","1","","","","","","","",""
"pit-trial","17","171573","0.0-2.0-6.3-0.3","battery-v0.2","","""event"",""trial"",""time""
""fullscreenenter"",""1"",""4369""
","
","
","""event"",""trial"",""time""
""fullscreenenter"",""1"",""4369""
","
","","","-1","","","19","10377","4725","&#9854;","elianto","#FFFFF080","-1","-1","1","&#10004","[]","0","0","1","","","","","","","",""
"pit-trial","18","176445","0.0-2.0-6.4-0.4","battery-v0.2","","""event"",""trial"",""time""
""fullscreenenter"",""1"",""4369""
","
","
","""event"",""trial"",""time""
""fullscreenenter"",""1"",""4369""
","
","","","-1","","","19","10377","4725","&#9854;","elianto","#FFFFF080","-1","-1","1","&#10004","[]","0","0","1","","","","","","","",""
"pit-instructions","19","288891","0.0-2.0-7.0","battery-v0.2","","""event"",""trial"",""time""
""fullscreenenter"",""1"",""4369""
","
","
","""event"",""trial"",""time""
""fullscreenenter"",""1"",""4369""
","
","","[{""page_index"":0,""viewing_time"":6143.399999976158},{""page_index"":1,""viewing_time"":6533.300000071526},{""page_index"":2,""viewing_time"":5449.399999976158},{""page_index"":3,""viewing_time"":5752.700000047684},{""page_index"":4,""viewing_time"":5681.899999976158},{""page_index"":5,""viewing_time"":5750.100000023842},{""page_index"":6,""viewing_time"":4633.599999904633},{""page_index"":7,""viewing_time"":7300.100000023842},{""page_index"":8,""viewing_time"":6400.200000047684},{""page_index"":9,""viewing_time"":5783.299999952316},{""page_index"":10,""viewing_time"":6183.800000071526},{""page_index"":11,""viewing_time"":4399.5},{""page_index"":12,""viewing_time"":7468.5},{""page_index"":13,""viewing_time"":7215.699999928474},{""page_index"":14,""viewing_time"":7066.5},{""page_index"":15,""viewing_time"":6451.399999976158},{""page_index"":16,""viewing_time"":7548.700000047684},{""page_index"":17,""viewing_time"":6683.899999976158}]","112446.70000004768","","","","","","","","","","","","","","","","","","","","","","","",""
"pit-trial","20","292738","0.0-2.0-8.0-0.0","battery-v0.2","","""event"",""trial"",""time""
""fullscreenenter"",""1"",""4369""
","
","
","""event"",""trial"",""time""
""fullscreenenter"",""1"",""4369""
","
","","","974.7999999523163","","","19","10377","4725","&#9776;","elianto","#3366ff99"," "," ","1","+10","[1831.1999999284744]","1","0","1","","","","","","","",""
"pit-trial","21","296120","0.0-2.0-8.0-1.0","battery-v0.2","","""event"",""trial"",""time""
""fullscreenenter"",""1"",""4369""
","
","
","""event"",""trial"",""time""
""fullscreenenter"",""1"",""4369""
","
","","","513.6000000238419","","","19","10377","4725","&#9776;","elianto","#3366ff99"," "," ","1","+10","[1370.5]","1","0","1","","","","","","","",""
"pit-trial","22","300105","0.0-2.0-8.0-2.0","battery-v0.2","","""event"",""trial"",""time""
""fullscreenenter"",""1"",""4369""
","
","
","""event"",""trial"",""time""
""fullscreenenter"",""1"",""4369""
","
","","","1121.2999999523163","","","19","10377","4725","&#9776;","elianto","#3366ff99"," "," ","1","+10","[1971.7999999523163]","1","0","1","","","","","","","",""
"pit-trial","23","303746","0.0-2.0-8.0-3.0","battery-v0.2","","""event"",""trial"",""time""
""fullscreenenter"",""1"",""4369""
","
","
","""event"",""trial"",""time""
""fullscreenenter"",""1"",""4369""
","
","","","765.6000000238419","","","19","10377","4725","&#9776;","elianto","#3366ff99"," "," ","1","0","[1623.7000000476837]","1","0","1","","","","","","","",""
"pit-trial","24","307098","0.0-2.0-8.0-4.0","battery-v0.2","","""event"",""trial"",""time""
""fullscreenenter"",""1"",""4369""
","
","
","""event"",""trial"",""time""
""fullscreenenter"",""1"",""4369""
","
","","","486.5","","","19","10377","4725","&#9776;","elianto","#3366ff99"," "," ","1","+10","[1341.7000000476837]","1","0","1","","","","","","","",""
"pit-trial","25","310440","0.0-2.0-8.1-0.1","battery-v0.2","","""event"",""trial"",""time""
""fullscreenenter"",""1"",""4369""
","
","
","""event"",""trial"",""time""
""fullscreenenter"",""1"",""4369""
","
","","","477","","","19","10377","4725","&#9776;","elianto","#3366ff99"," "," ","1","+10","[1330.2000000476837]","1","0","1","","","","","","","",""
"pit-trial","26","313833","0.0-2.0-8.1-1.1","battery-v0.2","","""event"",""trial"",""time""
""fullscreenenter"",""1"",""4369""
","
","
","""event"",""trial"",""time""
""fullscreenenter"",""1"",""4369""
","
","","","524.2000000476837","","","19","10377","4725","&#9776;","elianto","#3366ff99"," "," ","1","+10","[1384.1000000238419]","1","0","1","","","","","","","",""
"pit-trial","27","317559","0.0-2.0-8.1-2.1","battery-v0.2","","""event"",""trial"",""time""
""fullscreenenter"",""1"",""4369""
","
","
","""event"",""trial"",""time""
""fullscreenenter"",""1"",""4369""
","
","","","864","","","19","10377","4725","&#9776;","elianto","#3366ff99"," "," ","1","+10","[1714.9000000953674]","1","0","1","","","","","","","",""
"pit-trial","28","321156","0.0-2.0-8.1-3.1","battery-v0.2","","""event"",""trial"",""time""
""fullscreenenter"",""1"",""4369""
","
","
","""event"",""trial"",""time""
""fullscreenenter"",""1"",""4369""
","
","","","733.8999999761581","","","19","10377","4725","&#9776;","elianto","#3366ff99"," "," ","1","0","[1586.1000000238419]","1","0","1","","","","","","","",""
"pit-trial","29","324505","0.0-2.0-8.1-4.1","battery-v0.2","","""event"",""trial"",""time""
""fullscreenenter"",""1"",""4369""
","
","
","""event"",""trial"",""time""
""fullscreenenter"",""1"",""4369""
","
","","","483.90000009536743","","","19","10377","4725","&#9776;","elianto","#3366ff99"," "," ","1","+10","[1339]","1","0","1","","","","","","","",""
"pit-trial","30","327817","0.0-2.0-8.2-0.2","battery-v0.2","","""event"",""trial"",""time""
""fullscreenenter"",""1"",""4369""
","
","
","""event"",""trial"",""time""
""fullscreenenter"",""1"",""4369""
","
","","","438.60000002384186","","","19","10377","4725","&#9776;","elianto","#3366ff99"," "," ","1","+10","[1296.8999999761581]","1","0","1","","","","","","","",""
"pit-trial","31","331129","0.0-2.0-8.2-1.2","battery-v0.2","","""event"",""trial"",""time""
""fullscreenenter"",""1"",""4369""
","
","
","""event"",""trial"",""time""
""fullscreenenter"",""1"",""4369""
","
","","","445.89999997615814","","","19","10377","4725","&#9776;","elianto","#3366ff99"," "," ","1","+10","[1296.6000000238419]","1","0","1","","","","","","","",""
"pit-trial","32","334574","0.0-2.0-8.2-2.2","battery-v0.2","","""event"",""trial"",""time""
""fullscreenenter"",""1"",""4369""
","
","
","""event"",""trial"",""time""
""fullscreenenter"",""1"",""4369""
","
","","","578.3999999761581","","","19","10377","4725","&#9776;","elianto","#3366ff99"," "," ","1","+10","[1434.5]","1","0","1","","","","","","","",""
"pit-trial","33","338097","0.0-2.0-8.2-3.2","battery-v0.2","","""event"",""trial"",""time""
""fullscreenenter"",""1"",""4369""
","
","
","""event"",""trial"",""time""
""fullscreenenter"",""1"",""4369""
","
","","","655.2000000476837","","","19","10377","4725","&#9776;","elianto","#3366ff99"," "," ","1","0","[1506.6000000238419]","1","0","1","","","","","","","",""
"pit-trial","34","341400","0.0-2.0-8.2-4.2","battery-v0.2","","""event"",""trial"",""time""
""fullscreenenter"",""1"",""4369""
","
","
","""event"",""trial"",""time""
""fullscreenenter"",""1"",""4369""
","
","","","439.60000002384186","","","19","10377","4725","&#9776;","elianto","#3366ff99"," "," ","1","+10","[1292.3000000715256]","1","0","1","","","","","","","",""
"call-function","35","341404","0.0-2.0-9.0","battery-v0.2","","""event"",""trial"",""time""
""fullscreenenter"",""1"",""4369""
","
","
","""event"",""trial"",""time""
""fullscreenenter"",""1"",""4369""
","
","","","","","","","","","","","","","","","","","","","","","","","","","","",""
"pit-instructions","36","424939","0.0-2.0-10.0","battery-v0.2","","""event"",""trial"",""time""
""fullscreenenter"",""1"",""4369""
","
","
","""event"",""trial"",""time""
""fullscreenenter"",""1"",""4369""
","
","","[{""page_index"":0,""viewing_time"":51453},{""page_index"":1,""viewing_time"":6418.199999928474},{""page_index"":2,""viewing_time"":9382.800000071526},{""page_index"":3,""viewing_time"":8633.899999976158},{""page_index"":4,""viewing_time"":7648.899999976158}]","83536.89999997616","","","","","","","","","","","","","","","","","","","","","","","",""
"pit-trial","37","429806","0.0-2.0-11.0-0.0","battery-v0.2","","""event"",""trial"",""time""
""fullscreenenter"",""1"",""4369""
","
","
","""event"",""trial"",""time""
""fullscreenenter"",""1"",""4369""
","
","","","-1","","","19","10377","4725","&#9761;","elianto","#3366ff99","-1","-1","1","+10","[]","0","0","2","","","","","","","",""
"pit-trial","38","434678","0.0-2.0-11.0-1.0","battery-v0.2","","""event"",""trial"",""time""
""fullscreenenter"",""1"",""4369""
","
","
","""event"",""trial"",""time""
""fullscreenenter"",""1"",""4369""
","
","","","-1","","","19","10377","4725","&#9761;","elianto","#3366ff99","-1","-1","1","+10","[]","0","0","2","","","","","","","",""
"pit-trial","39","439550","0.0-2.0-11.0-2.0","battery-v0.2","","""event"",""trial"",""time""
""fullscreenenter"",""1"",""4369""
","
","
","""event"",""trial"",""time""
""fullscreenenter"",""1"",""4369""
","
","","","-1","","","19","10377","4725","&#9761;","elianto","#3366ff99","-1","-1","1","+10","[]","0","0","2","","","","","","","",""
"pit-trial","40","444409","0.0-2.0-11.0-3.0","battery-v0.2","","""event"",""trial"",""time""
""fullscreenenter"",""1"",""4369""
","
","
","""event"",""trial"",""time""
""fullscreenenter"",""1"",""4369""
","
","","","-1","","","19","10377","4725","&#9761;","elianto","#3366ff99","-1","-1","1","0","[]","0","0","2","","","","","","","",""
"pit-trial","41","449278","0.0-2.0-11.0-4.0","battery-v0.2","","""event"",""trial"",""time""
""fullscreenenter"",""1"",""4369""
","
","
","""event"",""trial"",""time""
""fullscreenenter"",""1"",""4369""
","
","","","-1","","","19","10377","4725","&#9761;","elianto","#3366ff99","-1","-1","1","+10","[]","0","0","2","","","","","","","",""
"pit-trial","42","454150","0.0-2.0-11.1-0.1","battery-v0.2","","""event"",""trial"",""time""
""fullscreenenter"",""1"",""4369""
","
","
","""event"",""trial"",""time""
""fullscreenenter"",""1"",""4369""
","
","","","-1","","","19","10377","4725","&#9761;","elianto","#3366ff99","-1","-1","1","+10","[]","0","0","2","","","","","","","",""
"pit-trial","43","459022","0.0-2.0-11.1-1.1","battery-v0.2","","""event"",""trial"",""time""
""fullscreenenter"",""1"",""4369""
","
","
","""event"",""trial"",""time""
""fullscreenenter"",""1"",""4369""
","
","","","-1","","","19","10377","4725","&#9761;","elianto","#3366ff99","-1","-1","1","+10","[]","0","0","2","","","","","","","",""
"pit-trial","44","463893","0.0-2.0-11.1-2.1","battery-v0.2","","""event"",""trial"",""time""
""fullscreenenter"",""1"",""4369""
","
","
","""event"",""trial"",""time""
""fullscreenenter"",""1"",""4369""
","
","","","-1","","","19","10377","4725","&#9761;","elianto","#3366ff99","-1","-1","1","+10","[]","0","0","2","","","","","","","",""
"pit-trial","45","468765","0.0-2.0-11.1-3.1","battery-v0.2","","""event"",""trial"",""time""
""fullscreenenter"",""1"",""4369""
","
","
","""event"",""trial"",""time""
""fullscreenenter"",""1"",""4369""
","
","","","-1","","","19","10377","4725","&#9761;","elianto","#3366ff99","-1","-1","1","0","[]","0","0","2","","","","","","","",""
"pit-trial","46","473637","0.0-2.0-11.1-4.1","battery-v0.2","","""event"",""trial"",""time""
""fullscreenenter"",""1"",""4369""
","
","
","""event"",""trial"",""time""
""fullscreenenter"",""1"",""4369""
","
","","","-1","","","19","10377","4725","&#9761;","elianto","#3366ff99","-1","-1","1","+10","[]","0","0","2","","","","","","","",""
"pit-trial","47","478508","0.0-2.0-11.2-0.2","battery-v0.2","","""event"",""trial"",""time""
""fullscreenenter"",""1"",""4369""
","
","
","""event"",""trial"",""time""
""fullscreenenter"",""1"",""4369""
","
","","","-1","","","19","10377","4725","&#9761;","elianto","#3366ff99","-1","-1","1","+10","[]","0","0","2","","","","","","","",""
"pit-trial","48","483365","0.0-2.0-11.2-1.2","battery-v0.2","","""event"",""trial"",""time""
""fullscreenenter"",""1"",""4369""
","
","
","""event"",""trial"",""time""
""fullscreenenter"",""1"",""4369""
","
","","","-1","","","19","10377","4725","&#9761;","elianto","#3366ff99","-1","-1","1","+10","[]","0","0","2","","","","","","","",""
"pit-trial","49","488234","0.0-2.0-11.2-2.2","battery-v0.2","","""event"",""trial"",""time""
""fullscreenenter"",""1"",""4369""
","
","
","""event"",""trial"",""time""
""fullscreenenter"",""1"",""4369""
","
","","","-1","","","19","10377","4725","&#9761;","elianto","#3366ff99","-1","-1","1","+10","[]","0","0","2","","","","","","","",""
"pit-trial","50","493101","0.0-2.0-11.2-3.2","battery-v0.2","","""event"",""trial"",""time""
""fullscreenenter"",""1"",""4369""
","
","
","""event"",""trial"",""time""
""fullscreenenter"",""1"",""4369""
","
","","","-1","","","19","10377","4725","&#9761;","elianto","#3366ff99","-1","-1","1","0","[]","0","0","2","","","","","","","",""
"pit-trial","51","497973","0.0-2.0-11.2-4.2","battery-v0.2","","""event"",""trial"",""time""
""fullscreenenter"",""1"",""4369""
","
","
","""event"",""trial"",""time""
""fullscreenenter"",""1"",""4369""
","
","","","-1","","","19","10377","4725","&#9761;","elianto","#3366ff99","-1","-1","1","+10","[]","0","0","2","","","","","","","",""
"pit-trial","52","502845","0.0-2.0-11.3-0.3","battery-v0.2","","""event"",""trial"",""time""
""fullscreenenter"",""1"",""4369""
","
","
","""event"",""trial"",""time""
""fullscreenenter"",""1"",""4369""
","
","","","-1","","","19","10377","4725","&#9761;","elianto","#3366ff99","-1","-1","1","+10","[]","0","0","2","","","","","","","",""
"pit-trial","53","506684","0.0-2.0-11.3-1.3","battery-v0.2","","""event"",""trial"",""time""
""fullscreenenter"",""1"",""4369""
","
","
","""event"",""trial"",""time""
""fullscreenenter"",""1"",""4369""
","
","","","970","","","19","10377","4725","&#9761;","elianto","#3366ff99","-1"," ","0","0","[1824.5]","1","0","2","","","","","","","",""
"pit-trial","54","511556","0.0-2.0-11.3-2.3","battery-v0.2","","""event"",""trial"",""time""
""fullscreenenter"",""1"",""4369""
","
","
","""event"",""trial"",""time""
""fullscreenenter"",""1"",""4369""
","
","","","-1","","","19","10377","4725","&#9761;","elianto","#3366ff99","-1","-1","1","+10","[]","0","0","2","","","","","","","",""
"pit-trial","55","516426","0.0-2.0-11.3-3.3","battery-v0.2","","""event"",""trial"",""time""
""fullscreenenter"",""1"",""4369""
","
","
","""event"",""trial"",""time""
""fullscreenenter"",""1"",""4369""
","
","","","-1","","","19","10377","4725","&#9761;","elianto","#3366ff99","-1","-1","1","0","[]","0","0","2","","","","","","","",""
"pit-trial","56","520202","0.0-2.0-11.3-4.3","battery-v0.2","","""event"",""trial"",""time""
""fullscreenenter"",""1"",""4369""
","
","
","""event"",""trial"",""time""
""fullscreenenter"",""1"",""4369""
","
","","","912.2000000476837","","","19","10377","4725","&#9761;","elianto","#3366ff99","-1"," ","0","0","[1767.5]","1","0","2","","","","","","","",""
"call-function","57","520205","0.0-2.0-12.0","battery-v0.2","","""event"",""trial"",""time""
""fullscreenenter"",""1"",""4369""
","
","
","""event"",""trial"",""time""
""fullscreenenter"",""1"",""4369""
","
","","","","","","","","","","","","","","","","","","","","","","","","","","",""
"pit-instructions","58","552907","0.0-2.0-13.0","battery-v0.2","","""event"",""trial"",""time""
""fullscreenenter"",""1"",""4369""
","
","
","""event"",""trial"",""time""
""fullscreenenter"",""1"",""4369""
","
","","[{""page_index"":0,""viewing_time"":6167.300000071526},{""page_index"":1,""viewing_time"":6650.199999928474},{""page_index"":2,""viewing_time"":3783.399999976158},{""page_index"":3,""viewing_time"":11033.700000047684},{""page_index"":4,""viewing_time"":5066.799999952316}]","32702","","","","","","","","","","","","","","","","","","","","","","","",""
"pit-trial","59","556475","0.0-2.0-14.0-0.0","battery-v0.2","","""event"",""trial"",""time""
""fullscreenenter"",""1"",""4369""
","
","
","""event"",""trial"",""time""
""fullscreenenter"",""1"",""4369""
","
","","","698.7000000476837","","","19","10377","4725","&#9826;","elianto","#f73b6a7A","-1"," ","0","-10","[1557.3999999761581]","1","0","3","","","","","","","",""
"pit-trial","60","561346","0.0-2.0-14.0-1.0","battery-v0.2","","""event"",""trial"",""time""
""fullscreenenter"",""1"",""4369""
","
","
","""event"",""trial"",""time""
""fullscreenenter"",""1"",""4369""
","
","","","-1","","","19","10377","4725","&#9826;","elianto","#f73b6a7A","-1","-1","1","0","[]","0","0","3","","","","","","","",""
"pit-trial","61","566211","0.0-2.0-14.0-2.0","battery-v0.2","","""event"",""trial"",""time""
""fullscreenenter"",""1"",""4369""
","
","
","""event"",""trial"",""time""
""fullscreenenter"",""1"",""4369""
","
","","","-1","","","19","10377","4725","&#9826;","elianto","#f73b6a7A","-1","-1","1","0","[]","0","0","3","","","","","","","",""
"pit-trial","62","571083","0.0-2.0-14.0-3.0","battery-v0.2","","""event"",""trial"",""time""
""fullscreenenter"",""1"",""4369""
","
","
","""event"",""trial"",""time""
""fullscreenenter"",""1"",""4369""
","
","","","-1","","","19","10377","4725","&#9826;","elianto","#f73b6a7A","-1","-1","1","-10","[]","0","0","3","","","","","","","",""
"pit-trial","63","575954","0.0-2.0-14.0-4.0","battery-v0.2","","""event"",""trial"",""time""
""fullscreenenter"",""1"",""4369""
","
","
","""event"",""trial"",""time""
""fullscreenenter"",""1"",""4369""
","
","","","-1","","","19","10377","4725","&#9826;","elianto","#f73b6a7A","-1","-1","1","0","[]","0","0","3","","","","","","","",""
"pit-trial","64","580827","0.0-2.0-14.1-0.1","battery-v0.2","","""event"",""trial"",""time""
""fullscreenenter"",""1"",""4369""
","
","
","""event"",""trial"",""time""
""fullscreenenter"",""1"",""4369""
","
","","","-1","","","19","10377","4725","&#9826;","elianto","#f73b6a7A","-1","-1","1","0","[]","0","0","3","","","","","","","",""
"pit-trial","65","585698","0.0-2.0-14.1-1.1","battery-v0.2","","""event"",""trial"",""time""
""fullscreenenter"",""1"",""4369""
","
","
","""event"",""trial"",""time""
""fullscreenenter"",""1"",""4369""
","
","","","-1","","","19","10377","4725","&#9826;","elianto","#f73b6a7A","-1","-1","1","0","[]","0","0","3","","","","","","","",""
"pit-trial","66","590571","0.0-2.0-14.1-2.1","battery-v0.2","","""event"",""trial"",""time""
""fullscreenenter"",""1"",""4369""
","
","
","""event"",""trial"",""time""
""fullscreenenter"",""1"",""4369""
","
","","","-1","","","19","10377","4725","&#9826;","elianto","#f73b6a7A","-1","-1","1","0","[]","0","0","3","","","","","","","",""
"pit-trial","67","595434","0.0-2.0-14.1-3.1","battery-v0.2","","""event"",""trial"",""time""
""fullscreenenter"",""1"",""4369""
","
","
","""event"",""trial"",""time""
""fullscreenenter"",""1"",""4369""
","
","","","-1","","","19","10377","4725","&#9826;","elianto","#f73b6a7A","-1","-1","1","-10","[]","0","0","3","","","","","","","",""
"pit-trial","68","600306","0.0-2.0-14.1-4.1","battery-v0.2","","""event"",""trial"",""time""
""fullscreenenter"",""1"",""4369""
","
","
","""event"",""trial"",""time""
""fullscreenenter"",""1"",""4369""
","
","","","-1","","","19","10377","4725","&#9826;","elianto","#f73b6a7A","-1","-1","1","0","[]","0","0","3","","","","","","","",""
"pit-trial","69","605177","0.0-2.0-14.2-0.2","battery-v0.2","","""event"",""trial"",""time""
""fullscreenenter"",""1"",""4369""
","
","
","""event"",""trial"",""time""
""fullscreenenter"",""1"",""4369""
","
","","","-1","","","19","10377","4725","&#9826;","elianto","#f73b6a7A","-1","-1","1","0","[]","0","0","3","","","","","","","",""
"pit-trial","70","610050","0.0-2.0-14.2-1.2","battery-v0.2","","""event"",""trial"",""time""
""fullscreenenter"",""1"",""4369""
","
","
","""event"",""trial"",""time""
""fullscreenenter"",""1"",""4369""
","
","","","-1","","","19","10377","4725","&#9826;","elianto","#f73b6a7A","-1","-1","1","0","[]","0","0","3","","","","","","","",""
"pit-trial","71","614921","0.0-2.0-14.2-2.2","battery-v0.2","","""event"",""trial"",""time""
""fullscreenenter"",""1"",""4369""
","
","
","""event"",""trial"",""time""
""fullscreenenter"",""1"",""4369""
","
","","","-1","","","19","10377","4725","&#9826;","elianto","#f73b6a7A","-1","-1","1","0","[]","0","0","3","","","","","","","",""
"pit-trial","72","619793","0.0-2.0-14.2-3.2","battery-v0.2","","""event"",""trial"",""time""
""fullscreenenter"",""1"",""4369""
","
","
","""event"",""trial"",""time""
""fullscreenenter"",""1"",""4369""
","
","","","-1","","","19","10377","4725","&#9826;","elianto","#f73b6a7A","-1","-1","1","-10","[]","0","0","3","","","","","","","",""
"pit-trial","73","624666","0.0-2.0-14.2-4.2","battery-v0.2","","""event"",""trial"",""time""
""fullscreenenter"",""1"",""4369""
","
","
","""event"",""trial"",""time""
""fullscreenenter"",""1"",""4369""
","
","","","-1","","","19","10377","4725","&#9826;","elianto","#f73b6a7A","-1","-1","1","0","[]","0","0","3","","","","","","","",""
"pit-trial","74","629536","0.0-2.0-14.3-0.3","battery-v0.2","","""event"",""trial"",""time""
""fullscreenenter"",""1"",""4369""
","
","
","""event"",""trial"",""time""
""fullscreenenter"",""1"",""4369""
","
","","","-1","","","19","10377","4725","&#9826;","elianto","#f73b6a7A","-1","-1","1","0","[]","0","0","3","","","","","","","",""
"pit-trial","75","634405","0.0-2.0-14.3-1.3","battery-v0.2","","""event"",""trial"",""time""
""fullscreenenter"",""1"",""4369""
","
","
","""event"",""trial"",""time""
""fullscreenenter"",""1"",""4369""
","
","","","-1","","","19","10377","4725","&#9826;","elianto","#f73b6a7A","-1","-1","1","0","[]","0","0","3","","","","","","","",""
"pit-trial","76","639273","0.0-2.0-14.3-2.3","battery-v0.2","","""event"",""trial"",""time""
""fullscreenenter"",""1"",""4369""
","
","
","""event"",""trial"",""time""
""fullscreenenter"",""1"",""4369""
","
","","","-1","","","19","10377","4725","&#9826;","elianto","#f73b6a7A","-1","-1","1","0","[]","0","0","3","","","","","","","",""
"pit-trial","77","644145","0.0-2.0-14.3-3.3","battery-v0.2","","""event"",""trial"",""time""
""fullscreenenter"",""1"",""4369""
","
","
","""event"",""trial"",""time""
""fullscreenenter"",""1"",""4369""
","
","","","-1","","","19","10377","4725","&#9826;","elianto","#f73b6a7A","-1","-1","1","-10","[]","0","0","3","","","","","","","",""
"pit-trial","78","649016","0.0-2.0-14.3-4.3","battery-v0.2","","""event"",""trial"",""time""
""fullscreenenter"",""1"",""4369""
","
","
","""event"",""trial"",""time""
""fullscreenenter"",""1"",""4369""
","
","","","-1","","","19","10377","4725","&#9826;","elianto","#f73b6a7A","-1","-1","1","0","[]","0","0","3","","","","","","","",""
"call-function","79","649019","0.0-2.0-15.0","battery-v0.2","","""event"",""trial"",""time""
""fullscreenenter"",""1"",""4369""
","
","
","""event"",""trial"",""time""
""fullscreenenter"",""1"",""4369""
","
","","","","","","","","","","","","","","","","","","","","","","","","","","",""
"pit-instructions","80","673558","0.0-2.0-16.0","battery-v0.2","","""event"",""trial"",""time""
""fullscreenenter"",""1"",""4369""
","
","
","""event"",""trial"",""time""
""fullscreenenter"",""1"",""4369""
","
","","[{""page_index"":0,""viewing_time"":6570.799999952316},{""page_index"":1,""viewing_time"":8299.299999952316},{""page_index"":2,""viewing_time"":4766.400000095367},{""page_index"":3,""viewing_time"":4901.699999928474}]","24538.699999928474","","","","","","","","","","","","","","","","","","","","","","","",""
"pit-trial","81","676808","0.0-2.0-17.0-0.0","battery-v0.2","","""event"",""trial"",""time""
""fullscreenenter"",""1"",""4369""
","
","
","""event"",""trial"",""time""
""fullscreenenter"",""1"",""4369""
","
","","","376.8000000715256","","","19","10377","4725","&#9789;","elianto","#f73b6a7A"," "," ","1","0","[1235.3000000715256]","1","0","4","","","","","","","",""
"pit-trial","82","680424","0.0-2.0-17.0-1.0","battery-v0.2","","""event"",""trial"",""time""
""fullscreenenter"",""1"",""4369""
","
","
","""event"",""trial"",""time""
""fullscreenenter"",""1"",""4369""
","
","","","742.1000000238419","","","19","10377","4725","&#9789;","elianto","#f73b6a7A"," "," ","1","0","[1600.5]","1","0","4","","","","","","","",""
"pit-trial","83","683709","0.0-2.0-17.0-2.0","battery-v0.2","","""event"",""trial"",""time""
""fullscreenenter"",""1"",""4369""
","
","
","""event"",""trial"",""time""
""fullscreenenter"",""1"",""4369""
","
","","","419.7000000476837","","","19","10377","4725","&#9789;","elianto","#f73b6a7A"," "," ","1","0","[1278.6000000238419]","1","0","4","","","","","","","",""
"pit-trial","84","686986","0.0-2.0-17.0-3.0","battery-v0.2","","""event"",""trial"",""time""
""fullscreenenter"",""1"",""4369""
","
","
","""event"",""trial"",""time""
""fullscreenenter"",""1"",""4369""
","
","","","416.3000000715256","","","19","10377","4725","&#9789;","elianto","#f73b6a7A"," "," ","1","-10","[1268.8000000715256]","1","0","4","","","","","","","",""
"pit-trial","85","690167","0.0-2.0-17.0-4.0","battery-v0.2","","""event"",""trial"",""time""
""fullscreenenter"",""1"",""4369""
","
","
","""event"",""trial"",""time""
""fullscreenenter"",""1"",""4369""
","
","","","318","","","19","10377","4725","&#9789;","elianto","#f73b6a7A"," "," ","1","0","[1168.3999999761581]","1","0","4","","","","","","","",""
"pit-trial","86","693463","0.0-2.0-17.1-0.1","battery-v0.2","","""event"",""trial"",""time""
""fullscreenenter"",""1"",""4369""
","
","
","""event"",""trial"",""time""
""fullscreenenter"",""1"",""4369""
","
","","","430.60000002384186","","","19","10377","4725","&#9789;","elianto","#f73b6a7A"," "," ","1","0","[1281.1000000238419]","1","0","4","","","","","","","",""
"pit-trial","87","696680","0.0-2.0-17.1-1.1","battery-v0.2","","""event"",""trial"",""time""
""fullscreenenter"",""1"",""4369""
","
","
","""event"",""trial"",""time""
""fullscreenenter"",""1"",""4369""
","
","","","351.2999999523163","","","19","10377","4725","&#9789;","elianto","#f73b6a7A"," "," ","1","0","[1204.2999999523163]","1","0","4","","","","","","","",""
"pit-trial","88","699799","0.0-2.0-17.1-2.1","battery-v0.2","","""event"",""trial"",""time""
""fullscreenenter"",""1"",""4369""
","
","
","""event"",""trial"",""time""
""fullscreenenter"",""1"",""4369""
","
","","","251.69999992847443","","","19","10377","4725","&#9789;","elianto","#f73b6a7A"," "," ","1","0","[1105]","1","0","4","","","","","","","",""
"pit-trial","89","702951","0.0-2.0-17.1-3.1","battery-v0.2","","""event"",""trial"",""time""
""fullscreenenter"",""1"",""4369""
","
","
","""event"",""trial"",""time""
""fullscreenenter"",""1"",""4369""
","
","","","284.10000002384186","","","19","10377","4725","&#9789;","elianto","#f73b6a7A"," "," ","1","-10","[1136.2999999523163]","1","0","4","","","","","","","",""
"pit-trial","90","706175","0.0-2.0-17.1-4.1","battery-v0.2","","""event"",""trial"",""time""
""fullscreenenter"",""1"",""4369""
","
","
","""event"",""trial"",""time""
""fullscreenenter"",""1"",""4369""
","
","","","360.8000000715256","","","19","10377","4725","&#9789;","elianto","#f73b6a7A"," "," ","1","0","[1211]","1","0","4","","","","","","","",""
"pit-trial","91","709452","0.0-2.0-17.2-0.2","battery-v0.2","","""event"",""trial"",""time""
""fullscreenenter"",""1"",""4369""
","
","
","""event"",""trial"",""time""
""fullscreenenter"",""1"",""4369""
","
","","","412.1999999284744","","","19","10377","4725","&#9789;","elianto","#f73b6a7A"," "," ","1","0","[1269.7999999523163]","1","0","4","","","","","","","",""
"pit-trial","92","712575","0.0-2.0-17.2-1.2","battery-v0.2","","""event"",""trial"",""time""
""fullscreenenter"",""1"",""4369""
","
","
","""event"",""trial"",""time""
""fullscreenenter"",""1"",""4369""
","
","","","261.3000000715256","","","19","10377","4725","&#9789;","elianto","#f73b6a7A"," "," ","1","0","[1113.5]","1","0","4","","","","","","","",""
"pit-trial","93","715799","0.0-2.0-17.2-2.2","battery-v0.2","","""event"",""trial"",""time""
""fullscreenenter"",""1"",""4369""
","
","
","""event"",""trial"",""time""
""fullscreenenter"",""1"",""4369""
","
","","","351.7000000476837","","","19","10377","4725","&#9789;","elianto","#f73b6a7A"," "," ","1","0","[1209.6000000238419]","1","0","4","","","","","","","",""
"pit-trial","94","719047","0.0-2.0-17.2-3.2","battery-v0.2","","""event"",""trial"",""time""
""fullscreenenter"",""1"",""4369""
","
","
","""event"",""trial"",""time""
""fullscreenenter"",""1"",""4369""
","
","","","382.6999999284744","","","19","10377","4725","&#9789;","elianto","#f73b6a7A"," "," ","1","-10","[1233.5]","1","0","4","","","","","","","",""
"pit-trial","95","722387","0.0-2.0-17.2-4.2","battery-v0.2","","""event"",""trial"",""time""
""fullscreenenter"",""1"",""4369""
","
","
","""event"",""trial"",""time""
""fullscreenenter"",""1"",""4369""
","
","","","477.8000000715256","","","19","10377","4725","&#9789;","elianto","#f73b6a7A"," "," ","1","0","[1328.1000000238419]","1","0","4","","","","","","","",""
"pit-trial","96","725547","0.0-2.0-17.3-0.3","battery-v0.2","","""event"",""trial"",""time""
""fullscreenenter"",""1"",""4369""
","
","
","""event"",""trial"",""time""
""fullscreenenter"",""1"",""4369""
","
","","","288.5","","","19","10377","4725","&#9789;","elianto","#f73b6a7A"," "," ","1","0","[1147.3000000715256]","1","0","4","","","","","","","",""
"pit-trial","97","728626","0.0-2.0-17.3-1.3","battery-v0.2","","""event"",""trial"",""time""
""fullscreenenter"",""1"",""4369""
","
","
","""event"",""trial"",""time""
""fullscreenenter"",""1"",""4369""
","
","","","214.39999997615814","","","19","10377","4725","&#9789;","elianto","#f73b6a7A"," "," ","1","0","[1064.6000000238419]","1","0","4","","","","","","","",""
"pit-trial","98","731784","0.0-2.0-17.3-2.3","battery-v0.2","","""event"",""trial"",""time""
""fullscreenenter"",""1"",""4369""
","
","
","""event"",""trial"",""time""
""fullscreenenter"",""1"",""4369""
","
","","","291.7999999523163","","","19","10377","4725","&#9789;","elianto","#f73b6a7A"," "," ","1","0","[1144.3999999761581]","1","0","4","","","","","","","",""
"pit-trial","99","734959","0.0-2.0-17.3-3.3","battery-v0.2","","""event"",""trial"",""time""
""fullscreenenter"",""1"",""4369""
","
","
","""event"",""trial"",""time""
""fullscreenenter"",""1"",""4369""
","
","","","307.3000000715256","","","19","10377","4725","&#9789;","elianto","#f73b6a7A"," "," ","1","-10","[1166.8000000715256]","1","0","4","","","","","","","",""
"pit-trial","100","738343","0.0-2.0-17.3-4.3","battery-v0.2","","""event"",""trial"",""time""
""fullscreenenter"",""1"",""4369""
","
","
","""event"",""trial"",""time""
""fullscreenenter"",""1"",""4369""
","
","","","522.2000000476837","","","19","10377","4725","&#9789;","elianto","#f73b6a7A"," "," ","1","0","[1372.8999999761581]","1","0","4","","","","","","","",""
"call-function","101","738346","0.0-2.0-18.0","battery-v0.2","","""event"",""trial"",""time""
""fullscreenenter"",""1"",""4369""
","
","
","""event"",""trial"",""time""
""fullscreenenter"",""1"",""4369""
","
","","","","","","","","","","","","","","","","","","","","","","","","","","",""
"pit-instructions","102","806478","0.0-2.0-19.0","battery-v0.2","","""event"",""trial"",""time""
""fullscreenenter"",""1"",""4369""
","
","
","""event"",""trial"",""time""
""fullscreenenter"",""1"",""4369""
","
","","[{""page_index"":0,""viewing_time"":6401.800000071526},{""page_index"":1,""viewing_time"":5900.299999952316},{""page_index"":2,""viewing_time"":13600.300000071526},{""page_index"":3,""viewing_time"":7267.799999952316},{""page_index"":4,""viewing_time"":8365.899999976158},{""page_index"":5,""viewing_time"":8732.899999976158},{""page_index"":6,""viewing_time"":8150.400000095367},{""page_index"":7,""viewing_time"":6234},{""page_index"":8,""viewing_time"":3482.6999999284744}]","68136.60000002384","","","","","","","","","","","","","","","","","","","","","","","",""
"pit-comprehension","103","812177","0.0-2.0-20.0-0.0","battery-v0.2","","""event"",""trial"",""time""
""fullscreenenter"",""1"",""4369""
","
","
","""event"",""trial"",""time""
""fullscreenenter"",""1"",""4369""
","
","","","5696.399999976158","[""SPACE""]","0","19","10377","4725","","","","","","","","","","","","","","","","","","",""
"pit-instructions","104","815778","0.0-2.0-20.0-1.0","battery-v0.2","","""event"",""trial"",""time""
""fullscreenenter"",""1"",""4369""
","
","
","""event"",""trial"",""time""
""fullscreenenter"",""1"",""4369""
","
","","[{""page_index"":0,""viewing_time"":3577.899999976158}]","3578.399999976158","","","","","","","","","","","","","","","","","","","","","","","",""
"pit-comprehension","105","823146","0.0-2.0-21.0-0.0","battery-v0.2","","""event"",""trial"",""time""
""fullscreenenter"",""1"",""4369""
","
","
","""event"",""trial"",""time""
""fullscreenenter"",""1"",""4369""
","
","","","7363.800000071526","[""10""]","0","19","10377","4725","","","","","","","","","","","","","","","","","","",""
"pit-instructions","106","826362","0.0-2.0-21.0-1.0","battery-v0.2","","""event"",""trial"",""time""
""fullscreenenter"",""1"",""4369""
","
","
","""event"",""trial"",""time""
""fullscreenenter"",""1"",""4369""
","
","","[{""page_index"":0,""viewing_time"":3192.7000000476837}]","3193.2999999523163","","","","","","","","","","","","","","","","","","","","","","","",""
"pit-comprehension","107","832796","0.0-2.0-22.0-0.0","battery-v0.2","","""event"",""trial"",""time""
""fullscreenenter"",""1"",""4369""
","
","
","""event"",""trial"",""time""
""fullscreenenter"",""1"",""4369""
","
","","","6429.699999928474","[""0""]","0","19","10377","4725","","","","","","","","","","","","","","","","","","",""
"pit-instructions","108","834662","0.0-2.0-22.0-1.0","battery-v0.2","","""event"",""trial"",""time""
""fullscreenenter"",""1"",""4369""
","
","
","""event"",""trial"",""time""
""fullscreenenter"",""1"",""4369""
","
","","[{""page_index"":0,""viewing_time"":1842.1000000238419}]","1842.6000000238419","","","","","","","","","","","","","","","","","","","","","","","",""
"pit-comprehension","109","848962","0.0-2.0-23.0-0.0","battery-v0.2","","""event"",""trial"",""time""
""fullscreenenter"",""1"",""4369""
","
","
","""event"",""trial"",""time""
""fullscreenenter"",""1"",""4369""
","
","","","14295.299999952316","[""True""]","0","19","10377","4725","","","","","","","","","","","","","","","","","","",""
"pit-instructions","110","850778","0.0-2.0-23.0-1.0","battery-v0.2","","""event"",""trial"",""time""
""fullscreenenter"",""1"",""4369""
","
","
","""event"",""trial"",""time""
""fullscreenenter"",""1"",""4369""
","
","","[{""page_index"":0,""viewing_time"":1789.3999999761581}]","1789.8999999761581","","","","","","","","","","","","","","","","","","","","","","","",""
"pit-comprehension","111","858645","0.0-2.0-24.0-0.0","battery-v0.2","","""event"",""trial"",""time""
""fullscreenenter"",""1"",""4369""
","
","
","""event"",""trial"",""time""
""fullscreenenter"",""1"",""4369""
","
","","","7863.100000023842","[""True""]","0","19","10377","4725","","","","","","","","","","","","","","","","","","",""
"pit-instructions","112","861094","0.0-2.0-24.0-1.0","battery-v0.2","","""event"",""trial"",""time""
""fullscreenenter"",""1"",""4369""
","
","
","""event"",""trial"",""time""
""fullscreenenter"",""1"",""4369""
","
","","[{""page_index"":0,""viewing_time"":2423.5}]","2423.899999976158","","","","","","","","","","","","","","","","","","","","","","","",""
"pit-comprehension","113","867478","0.0-2.0-25.0-0.0","battery-v0.2","","""event"",""trial"",""time""
""fullscreenenter"",""1"",""4369""
","
","
","""event"",""trial"",""time""
""fullscreenenter"",""1"",""4369""
","
","","","6379.799999952316","[""True""]","0","19","10377","4725","","","","","","","","","","","","","","","","","","",""
"pit-instructions","114","869496","0.0-2.0-25.0-1.0","battery-v0.2","","""event"",""trial"",""time""
""fullscreenenter"",""1"",""4369""
","
","
","""event"",""trial"",""time""
""fullscreenenter"",""1"",""4369""
","
","","[{""page_index"":0,""viewing_time"":1990.6000000238419}]","1991.3000000715256","","","","","","","","","","","","","","","","","","","","","","","",""
"pit-comprehension","115","878062","0.0-2.0-26.0-0.0","battery-v0.2","","""event"",""trial"",""time""
""fullscreenenter"",""1"",""4369""
","
","
","""event"",""trial"",""time""
""fullscreenenter"",""1"",""4369""
","
","","","8561.600000023842","[""False""]","0","19","10377","4725","","","","","","","","","","","","","","","","","","",""
"pit-instructions","116","879511","0.0-2.0-26.0-1.0","battery-v0.2","","""event"",""trial"",""time""
""fullscreenenter"",""1"",""4369""
","
","
","""event"",""trial"",""time""
""fullscreenenter"",""1"",""4369""
","
","","[{""page_index"":0,""viewing_time"":1422.8000000715256}]","1423.2000000476837","","","","","","","","","","","","","","","","","","","","","","","",""
"pit-instructions","117","897295","0.0-3.0","battery-v0.2","","""event"",""trial"",""time""
""fullscreenenter"",""1"",""4369""
","
","
","""event"",""trial"",""time""
""fullscreenenter"",""1"",""4369""
","
","","[{""page_index"":0,""viewing_time"":4414.600000023842},{""page_index"":1,""viewing_time"":6500},{""page_index"":2,""viewing_time"":6866.700000047684}]","17781.800000071526","","","","","","","","","","","","","","","","","","","","","","","",""
"pit-trial","118","900847","0.0-4.0","battery-v0.2","","""event"",""trial"",""time""
""fullscreenenter"",""1"",""4369""
","
","
","""event"",""trial"",""time""
""fullscreenenter"",""1"",""4369""
","
","","","684.3000000715256","","","19","10377","4725","&#9752;","elianto","#f73b6a7A"," "," ","1","0","[1538.7000000476837]","1","1","","","10377","1","3","3","lose","go","0"
"pit-trial","119","904462","0.0-5.0","battery-v0.2","","""event"",""trial"",""time""
""fullscreenenter"",""1"",""4369""
","
","
","""event"",""trial"",""time""
""fullscreenenter"",""1"",""4369""
","
","","","743.8999999761581","","","19","10377","4725","&#9728;","elianto","#f73b6a7A","-1"," ","0","-10","[1600.3000000715256]","1","1","","","10377","2","0","4","lose","no-go","0"
"pit-trial","120","908246","0.0-6.0","battery-v0.2","","""event"",""trial"",""time""
""fullscreenenter"",""1"",""4369""
","
","
","""event"",""trial"",""time""
""fullscreenenter"",""1"",""4369""
","
","","","913.9000000953674","","","19","10377","4725","&#9730;","elianto","#3366ff99"," "," ","1","0","[1771.5]","1","1","","","10377","3","1","1","win","go","1"
"pit-trial","121","911949","0.0-7.0","battery-v0.2","","""event"",""trial"",""time""
""fullscreenenter"",""1"",""4369""
","
","
","""event"",""trial"",""time""
""fullscreenenter"",""1"",""4369""
","
","","","829.2999999523163","","","19","10377","4725","&#9733;","elianto","#3366ff99","-1"," ","0","0","[1687.7999999523163]","1","1","","","10377","4","2","2","win","no-go","0"
"pit-trial","122","915798","0.0-8.0","battery-v0.2","","""event"",""trial"",""time""
""fullscreenenter"",""1"",""4369""
","
","
","""event"",""trial"",""time""
""fullscreenenter"",""1"",""4369""
","
","","","976.8999999761581","","","19","10377","4725","&#9733;","elianto","#3366ff99","-1"," ","0","+10","[1831.3999999761581]","1","1","","","10377","5","2","2","win","no-go","1"
"pit-trial","123","919934","0.0-9.0","battery-v0.2","","""event"",""trial"",""time""
""fullscreenenter"",""1"",""4369""
","
","
","""event"",""trial"",""time""
""fullscreenenter"",""1"",""4369""
","
","","","1264.8000000715256","","","19","10377","4725","&#9730;","elianto","#3366ff99"," "," ","1","+10","[2119.899999976158]","1","1","","","10377","6","1","1","win","go","0"
"pit-trial","124","924190","0.0-10.0","battery-v0.2","","""event"",""trial"",""time""
""fullscreenenter"",""1"",""4369""
","
","
","""event"",""trial"",""time""
""fullscreenenter"",""1"",""4369""
","
","","","1387.2999999523163","","","19","10377","4725","&#9752;","elianto","#f73b6a7A"," "," ","1","0","[2240.100000023842]","1","1","","","10377","7","3","3","lose","go","0"
"pit-trial","125","929060","0.0-11.0","battery-v0.2","","""event"",""trial"",""time""
""fullscreenenter"",""1"",""4369""
","
","
","""event"",""trial"",""time""
""fullscreenenter"",""1"",""4369""
","
","","","-1","","","19","10377","4725","&#9728;","elianto","#f73b6a7A","-1","-1","1","0","[]","0","1","","","10377","8","0","4","lose","no-go","0"
"pit-trial","126","932725","0.0-12.0","battery-v0.2","","""event"",""trial"",""time""
""fullscreenenter"",""1"",""4369""
","
","
","""event"",""trial"",""time""
""fullscreenenter"",""1"",""4369""
","
","","","791","","","19","10377","4725","&#9733;","elianto","#3366ff99","-1"," ","0","0","[1649.7000000476837]","1","1","","","10377","9","2","2","win","no-go","0"
"pit-trial","127","936701","0.0-13.0","battery-v0.2","","""event"",""trial"",""time""
""fullscreenenter"",""1"",""4369""
","
","
","""event"",""trial"",""time""
""fullscreenenter"",""1"",""4369""
","
","","","1101.9000000953674","","","19","10377","4725","&#9752;","elianto","#f73b6a7A"," "," ","1","0","[1959.5]","1","1","","","10377","10","3","3","lose","go","0"
"pit-trial","128","940501","0.0-14.0","battery-v0.2","","""event"",""trial"",""time""
""fullscreenenter"",""1"",""4369""
","
","
","""event"",""trial"",""time""
""fullscreenenter"",""1"",""4369""
","
","","","931.5","","","19","10377","4725","&#9730;","elianto","#3366ff99"," "," ","1","0","[1785]","1","1","","","10377","11","1","1","win","go","1"
"pit-trial","129","945373","0.0-15.0","battery-v0.2","","""event"",""trial"",""time""
""fullscreenenter"",""1"",""4369""
","
","
","""event"",""trial"",""time""
""fullscreenenter"",""1"",""4369""
","
","","","-1","","","19","10377","4725","&#9728;","elianto","#f73b6a7A","-1","-1","1","0","[]","0","1","","","10377","12","0","4","lose","no-go","0"
"pit-trial","130","949005","0.0-16.0","battery-v0.2","","""event"",""trial"",""time""
""fullscreenenter"",""1"",""4369""
","
","
","""event"",""trial"",""time""
""fullscreenenter"",""1"",""4369""
","
","","","761.8000000715256","","","19","10377","4725","&#9730;","elianto","#3366ff99"," "," ","1","+10","[1618.9000000953674]","1","1","","","10377","13","1","1","win","go","0"
"pit-trial","131","953005","0.0-17.0","battery-v0.2","","""event"",""trial"",""time""
""fullscreenenter"",""1"",""4369""
","
","
","""event"",""trial"",""time""
""fullscreenenter"",""1"",""4369""
","
","","","1130.5","","","19","10377","4725","&#9733;","elianto","#3366ff99","-1"," ","0","0","[1986.4000000953674]","1","1","","","10377","14","2","2","win","no-go","0"
"pit-trial","132","956717","0.0-18.0","battery-v0.2","","""event"",""trial"",""time""
""fullscreenenter"",""1"",""4369""
","
","
","""event"",""trial"",""time""
""fullscreenenter"",""1"",""4369""
","
","","","839.4000000953674","","","19","10377","4725","&#9752;","elianto","#f73b6a7A"," "," ","1","0","[1696.5]","1","1","","","10377","15","3","3","lose","go","0"
"pit-trial","133","961589","0.0-19.0","battery-v0.2","","""event"",""trial"",""time""
""fullscreenenter"",""1"",""4369""
","
","
","""event"",""trial"",""time""
""fullscreenenter"",""1"",""4369""
","
","","","-1","","","19","10377","4725","&#9728;","elianto","#f73b6a7A","-1","-1","1","0","[]","0","1","","","10377","16","0","4","lose","no-go","0"
"pit-trial","134","965309","0.0-20.0","battery-v0.2","","""event"",""trial"",""time""
""fullscreenenter"",""1"",""4369""
","
","
","""event"",""trial"",""time""
""fullscreenenter"",""1"",""4369""
","
","","","849.1999999284744","","","19","10377","4725","&#9752;","elianto","#f73b6a7A"," "," ","1","0","[1706.1999999284744]","1","1","","","10377","17","3","3","lose","go","0"
"pit-trial","135","968984","0.0-21.0","battery-v0.2","","""event"",""trial"",""time""
""fullscreenenter"",""1"",""4369""
","
","
","""event"",""trial"",""time""
""fullscreenenter"",""1"",""4369""
","
","","","805.9000000953674","","","19","10377","4725","&#9730;","elianto","#3366ff99"," "," ","1","+10","[1662.9000000953674]","1","1","","","10377","18","1","1","win","go","0"
"pit-trial","136","972628","0.0-22.0","battery-v0.2","","""event"",""trial"",""time""
""fullscreenenter"",""1"",""4369""
","
","
","""event"",""trial"",""time""
""fullscreenenter"",""1"",""4369""
","
","","","778.1999999284744","","","19","10377","4725","&#9733;","elianto","#3366ff99","-1"," ","0","0","[1630.5]","1","1","","","10377","19","2","2","win","no-go","0"
"pit-trial","137","977496","0.0-23.0","battery-v0.2","","""event"",""trial"",""time""
""fullscreenenter"",""1"",""4369""
","
","
","""event"",""trial"",""time""
""fullscreenenter"",""1"",""4369""
","
","","","-1","","","19","10377","4725","&#9728;","elianto","#f73b6a7A","-1","-1","1","-10","[]","0","1","","","10377","20","0","4","lose","no-go","1"
"pit-instructions","138","989927","0.0-24.0","battery-v0.2","","""event"",""trial"",""time""
""fullscreenenter"",""1"",""4369""
","
","
","""event"",""trial"",""time""
""fullscreenenter"",""1"",""4369""
","
","","[{""page_index"":0,""viewing_time"":5796},{""page_index"":1,""viewing_time"":6632.700000047684}]","12429.300000071526","","","","","","","","","","","","","","","","","","","","","","","",""
"pit-trial","139","993467","0.0-25.0","battery-v0.2","","""event"",""trial"",""time""
""fullscreenenter"",""1"",""4369""
","
","
","""event"",""trial"",""time""
""fullscreenenter"",""1"",""4369""
","
","","","680.8999999761581","","","19","10377","4725","b","elianto","#f73b6a7A","-1"," ","0","0","[1534]","1","2","","","10377","21","3","4","lose","no-go","1"
"pit-trial","140","997191","0.0-26.0","battery-v0.2","","""event"",""trial"",""time""
""fullscreenenter"",""1"",""4369""
","
","
","""event"",""trial"",""time""
""fullscreenenter"",""1"",""4369""
","
","","","864.7999999523163","","","19","10377","4725","n","elianto","#f73b6a7A"," "," ","1","-10","[1719.3999999761581]","1","2","","","10377","22","0","3","lose","go","1"
"pit-trial","141","1000828","0.0-27.0","battery-v0.2","","""event"",""trial"",""time""
""fullscreenenter"",""1"",""4369""
","
","
","""event"",""trial"",""time""
""fullscreenenter"",""1"",""4369""
","
","","","768.6999999284744","","","19","10377","4725","f","elianto","#3366ff99","-1"," ","0","0","[1622.1000000238419]","1","2","","","10377","23","1","2","win","no-go","0"
"pit-trial","142","1004947","0.0-28.0","battery-v0.2","","""event"",""trial"",""time""
""fullscreenenter"",""1"",""4369""
","
","
","""event"",""trial"",""time""
""fullscreenenter"",""1"",""4369""
","
","","","1252.7000000476837","","","19","10377","4725","t","elianto","#f73b6a7A"," "," ","1","0","[2110.2000000476837]","1","2","","","10377","24","2","3","lose","go","0"
"pit-trial","143","1008771","0.0-29.0","battery-v0.2","","""event"",""trial"",""time""
""fullscreenenter"",""1"",""4369""
","
","
","""event"",""trial"",""time""
""fullscreenenter"",""1"",""4369""
","
","","","952.7000000476837","","","19","10377","4725","b","elianto","#f73b6a7A","-1"," ","0","-10","[1810]","1","2","","","10377","25","3","4","lose","no-go","0"
"pit-trial","144","1013643","0.0-30.0","battery-v0.2","","""event"",""trial"",""time""
""fullscreenenter"",""1"",""4369""
","
","
","""event"",""trial"",""time""
""fullscreenenter"",""1"",""4369""
","
","","","-1","","","19","10377","4725","n","elianto","#f73b6a7A"," ","-1","0","-10","[]","0","2","","","10377","26","0","3","lose","go","0"
"pit-trial","145","1017594","0.0-31.0","battery-v0.2","","""event"",""trial"",""time""
""fullscreenenter"",""1"",""4369""
","
","
","""event"",""trial"",""time""
""fullscreenenter"",""1"",""4369""
","
","","","1079","","","19","10377","4725","t","elianto","#f73b6a7A"," "," ","1","0","[1936.6999999284744]","1","2","","","10377","27","2","3","lose","go","0"
"pit-trial","146","1022467","0.0-32.0","battery-v0.2","","""event"",""trial"",""time""
""fullscreenenter"",""1"",""4369""
","
","
","""event"",""trial"",""time""
""fullscreenenter"",""1"",""4369""
","
","","","-1","","","19","10377","4725","f","elianto","#3366ff99","-1","-1","1","0","[]","0","2","","","10377","28","1","2","win","no-go","1"
"pit-trial","147","1026642","0.0-33.0","battery-v0.2","","""event"",""trial"",""time""
""fullscreenenter"",""1"",""4369""
","
","
","""event"",""trial"",""time""
""fullscreenenter"",""1"",""4369""
","
","","","1307.9000000953674","","","19","10377","4725","n","elianto","#f73b6a7A"," "," ","1","-10","[2163]","1","2","","","10377","29","0","3","lose","go","1"
"pit-trial","148","1030374","0.0-34.0","battery-v0.2","","""event"",""trial"",""time""
""fullscreenenter"",""1"",""4369""
","
","
","""event"",""trial"",""time""
""fullscreenenter"",""1"",""4369""
","
","","","868.5","","","19","10377","4725","b","elianto","#f73b6a7A","-1"," ","0","-10","[1727.1000000238419]","1","2","","","10377","30","3","4","lose","no-go","0"
"pit-trial","149","1034162","0.0-35.0","battery-v0.2","","""event"",""trial"",""time""
""fullscreenenter"",""1"",""4369""
","
","
","""event"",""trial"",""time""
""fullscreenenter"",""1"",""4369""
","
","","","924.7999999523163","","","19","10377","4725","t","elianto","#f73b6a7A"," "," ","1","0","[1778.1999999284744]","1","2","","","10377","31","2","3","lose","go","0"
"pit-trial","150","1039034","0.0-36.0","battery-v0.2","","""event"",""trial"",""time""
""fullscreenenter"",""1"",""4369""
","
","
","""event"",""trial"",""time""
""fullscreenenter"",""1"",""4369""
","
","","","-1","","","19","10377","4725","f","elianto","#3366ff99","-1","-1","1","+10","[]","0","2","","","10377","32","1","2","win","no-go","0"
"pit-trial","151","1043907","0.0-37.0","battery-v0.2","","""event"",""trial"",""time""
""fullscreenenter"",""1"",""4369""
","
","
","""event"",""trial"",""time""
""fullscreenenter"",""1"",""4369""
","
","","","-1","","","19","10377","4725","f","elianto","#3366ff99","-1","-1","1","0","[]","0","2","","","10377","33","1","2","win","no-go","1"
"pit-trial","152","1047786","0.0-38.0","battery-v0.2","","""event"",""trial"",""time""
""fullscreenenter"",""1"",""4369""
","
","
","""event"",""trial"",""time""
""fullscreenenter"",""1"",""4369""
","
","","","1011.3999999761581","","","19","10377","4725","b","elianto","#f73b6a7A","-1"," ","0","-10","[1868.7999999523163]","1","2","","","10377","34","3","4","lose","no-go","0"
"pit-trial","153","1051621","0.0-39.0","battery-v0.2","","""event"",""trial"",""time""
""fullscreenenter"",""1"",""4369""
","
","
","""event"",""trial"",""time""
""fullscreenenter"",""1"",""4369""
","
","","","975.7000000476837","","","19","10377","4725","t","elianto","#f73b6a7A"," "," ","1","0","[1827]","1","2","","","10377","35","2","3","lose","go","0"
"pit-trial","154","1056490","0.0-40.0","battery-v0.2","","""event"",""trial"",""time""
""fullscreenenter"",""1"",""4369""
","
","
","""event"",""trial"",""time""
""fullscreenenter"",""1"",""4369""
","
","","","-1","","","19","10377","4725","n","elianto","#f73b6a7A"," ","-1","0","-10","[]","0","2","","","10377","36","0","3","lose","go","0"
"pit-trial","155","1061360","0.0-41.0","battery-v0.2","","""event"",""trial"",""time""
""fullscreenenter"",""1"",""4369""
","
","
","""event"",""trial"",""time""
""fullscreenenter"",""1"",""4369""
","
","","","-1","","","19","10377","4725","b","elianto","#f73b6a7A","-1","-1","1","0","[]","0","2","","","10377","37","3","4","lose","no-go","0"
"pit-trial","156","1065337","0.0-42.0","battery-v0.2","","""event"",""trial"",""time""
""fullscreenenter"",""1"",""4369""
","
","
","""event"",""trial"",""time""
""fullscreenenter"",""1"",""4369""
","
","","","1105.8999999761581","","","19","10377","4725","t","elianto","#f73b6a7A"," "," ","1","0","[1967]","1","2","","","10377","38","2","3","lose","go","0"
"pit-trial","157","1068874","0.0-43.0","battery-v0.2","","""event"",""trial"",""time""
""fullscreenenter"",""1"",""4369""
","
","
","""event"",""trial"",""time""
""fullscreenenter"",""1"",""4369""
","
","","","671.6000000238419","","","19","10377","4725","n","elianto","#f73b6a7A"," "," ","1","0","[1521.7000000476837]","1","2","","","10377","39","0","3","lose","go","0"
"pit-trial","158","1072794","0.0-44.0","battery-v0.2","","""event"",""trial"",""time""
""fullscreenenter"",""1"",""4369""
","
","
","""event"",""trial"",""time""
""fullscreenenter"",""1"",""4369""
","
","","","1047.7000000476837","","","19","10377","4725","f","elianto","#3366ff99","-1"," ","0","+10","[1905.3999999761581]","1","2","","","10377","40","1","2","win","no-go","1"
"pit-trial","159","1076586","0.0-45.0","battery-v0.2","","""event"",""trial"",""time""
""fullscreenenter"",""1"",""4369""
","
","
","""event"",""trial"",""time""
""fullscreenenter"",""1"",""4369""
","
","","","925.1000000238419","","","19","10377","4725","t","elianto","#f73b6a7A"," "," ","1","0","[1782]","1","2","","","10377","41","2","3","lose","go","0"
"pit-trial","160","1080377","0.0-46.0","battery-v0.2","","""event"",""trial"",""time""
""fullscreenenter"",""1"",""4369""
","
","
","""event"",""trial"",""time""
""fullscreenenter"",""1"",""4369""
","
","","","928.8999999761581","","","19","10377","4725","f","elianto","#3366ff99","-1"," ","0","+10","[1779.5]","1","2","","","10377","42","1","2","win","no-go","1"
"pit-trial","161","1084047","0.0-47.0","battery-v0.2","","""event"",""trial"",""time""
""fullscreenenter"",""1"",""4369""
","
","
","""event"",""trial"",""time""
""fullscreenenter"",""1"",""4369""
","
","","","802.8000000715256","","","19","10377","4725","n","elianto","#f73b6a7A"," "," ","1","0","[1660.8999999761581]","1","2","","","10377","43","0","3","lose","go","0"
"pit-trial","162","1088921","0.0-48.0","battery-v0.2","","""event"",""trial"",""time""
""fullscreenenter"",""1"",""4369""
","
","
","""event"",""trial"",""time""
""fullscreenenter"",""1"",""4369""
","
","","","-1","","","19","10377","4725","b","elianto","#f73b6a7A","-1","-1","1","0","[]","0","2","","","10377","44","3","4","lose","no-go","0"
"pit-trial","163","1092680","0.0-49.0","battery-v0.2","","""event"",""trial"",""time""
""fullscreenenter"",""1"",""4369""
","
","
","""event"",""trial"",""time""
""fullscreenenter"",""1"",""4369""
","
","","","894.3999999761581","","","19","10377","4725","n","elianto","#f73b6a7A"," "," ","1","0","[1744.7999999523163]","1","2","","","10377","45","0","3","lose","go","0"
"pit-trial","164","1097553","0.0-50.0","battery-v0.2","","""event"",""trial"",""time""
""fullscreenenter"",""1"",""4369""
","
","
","""event"",""trial"",""time""
""fullscreenenter"",""1"",""4369""
","
","","","-1","","","19","10377","4725","b","elianto","#f73b6a7A","-1","-1","1","0","[]","0","2","","","10377","46","3","4","lose","no-go","0"
"pit-trial","165","1101060","0.0-51.0","battery-v0.2","","""event"",""trial"",""time""
""fullscreenenter"",""1"",""4369""
","
","
","""event"",""trial"",""time""
""fullscreenenter"",""1"",""4369""
","
","","","644.5","","","19","10377","4725","t","elianto","#f73b6a7A"," "," ","1","-10","[1501.4000000953674]","1","2","","","10377","47","2","3","lose","go","1"
"pit-trial","166","1104612","0.0-52.0","battery-v0.2","","""event"",""trial"",""time""
""fullscreenenter"",""1"",""4369""
","
","
","""event"",""trial"",""time""
""fullscreenenter"",""1"",""4369""
","
","","","686","","","19","10377","4725","f","elianto","#3366ff99","-1"," ","0","0","[1541.2999999523163]","1","2","","","10377","48","1","2","win","no-go","0"
"pit-trial","167","1108296","0.0-53.0","battery-v0.2","","""event"",""trial"",""time""
""fullscreenenter"",""1"",""4369""
","
","
","""event"",""trial"",""time""
""fullscreenenter"",""1"",""4369""
","
","","","813.5","","","19","10377","4725","t","elianto","#f73b6a7A"," "," ","1","0","[1669]","1","2","","","10377","49","2","3","lose","go","0"
"pit-trial","168","1111744","0.0-54.0","battery-v0.2","","""event"",""trial"",""time""
""fullscreenenter"",""1"",""4369""
","
","
","""event"",""trial"",""time""
""fullscreenenter"",""1"",""4369""
","
","","","581","","","19","10377","4725","f","elianto","#3366ff99","-1"," ","0","0","[1438.1000000238419]","1","2","","","10377","50","1","2","win","no-go","0"
"pit-trial","169","1115376","0.0-55.0","battery-v0.2","","""event"",""trial"",""time""
""fullscreenenter"",""1"",""4369""
","
","
","""event"",""trial"",""time""
""fullscreenenter"",""1"",""4369""
","
","","","759.8999999761581","","","19","10377","4725","n","elianto","#f73b6a7A"," "," ","1","0","[1617.7999999523163]","1","2","","","10377","51","0","3","lose","go","0"
"pit-trial","170","1120248","0.0-56.0","battery-v0.2","","""event"",""trial"",""time""
""fullscreenenter"",""1"",""4369""
","
","
","""event"",""trial"",""time""
""fullscreenenter"",""1"",""4369""
","
","","","-1","","","19","10377","4725","b","elianto","#f73b6a7A","-1","-1","1","0","[]","0","2","","","10377","52","3","4","lose","no-go","0"
"pit-trial","171","1123832","0.0-57.0","battery-v0.2","","""event"",""trial"",""time""
""fullscreenenter"",""1"",""4369""
","
","
","""event"",""trial"",""time""
""fullscreenenter"",""1"",""4369""
","
","","","717.6000000238419","","","19","10377","4725","f","elianto","#3366ff99","-1"," ","0","0","[1572.3999999761581]","1","2","","","10377","53","1","2","win","no-go","0"
"pit-trial","172","1127544","0.0-58.0","battery-v0.2","","""event"",""trial"",""time""
""fullscreenenter"",""1"",""4369""
","
","
","""event"",""trial"",""time""
""fullscreenenter"",""1"",""4369""
","
","","","849.7999999523163","","","19","10377","4725","n","elianto","#f73b6a7A"," "," ","1","0","[1701.3999999761581]","1","2","","","10377","54","0","3","lose","go","0"
"pit-trial","173","1131214","0.0-59.0","battery-v0.2","","""event"",""trial"",""time""
""fullscreenenter"",""1"",""4369""
","
","
","""event"",""trial"",""time""
""fullscreenenter"",""1"",""4369""
","
","","","803.8999999761581","","","19","10377","4725","t","elianto","#f73b6a7A"," "," ","1","0","[1661.8999999761581]","1","2","","","10377","55","2","3","lose","go","0"
"pit-trial","174","1136087","0.0-60.0","battery-v0.2","","""event"",""trial"",""time""
""fullscreenenter"",""1"",""4369""
","
","
","""event"",""trial"",""time""
""fullscreenenter"",""1"",""4369""
","
","","","-1","","","19","10377","4725","b","elianto","#f73b6a7A","-1","-1","1","0","[]","0","2","","","10377","56","3","4","lose","no-go","0"
"pit-trial","175","1139847","0.0-61.0","battery-v0.2","","""event"",""trial"",""time""
""fullscreenenter"",""1"",""4369""
","
","
","""event"",""trial"",""time""
""fullscreenenter"",""1"",""4369""
","
","","","887.2000000476837","","","19","10377","4725","n","elianto","#f73b6a7A"," "," ","1","0","[1743.4000000953674]","1","2","","","10377","57","0","3","lose","go","0"
"pit-trial","176","1144717","0.0-62.0","battery-v0.2","","""event"",""trial"",""time""
""fullscreenenter"",""1"",""4369""
","
","
","""event"",""trial"",""time""
""fullscreenenter"",""1"",""4369""
","
","","","-1","","","19","10377","4725","b","elianto","#f73b6a7A","-1","-1","1","0","[]","0","2","","","10377","58","3","4","lose","no-go","0"
"pit-trial","177","1148471","0.0-63.0","battery-v0.2","","""event"",""trial"",""time""
""fullscreenenter"",""1"",""4369""
","
","
","""event"",""trial"",""time""
""fullscreenenter"",""1"",""4369""
","
","","","889.7999999523163","","","19","10377","4725","c","elianto","#3366ff99"," "," ","1","0","[1742.5]","1","2","","","10377","59","4","1","win","go","1"
"pit-trial","178","1152141","0.0-64.0","battery-v0.2","","""event"",""trial"",""time""
""fullscreenenter"",""1"",""4369""
","
","
","""event"",""trial"",""time""
""fullscreenenter"",""1"",""4369""
","
","","","797.6999999284744","","","19","10377","4725","t","elianto","#f73b6a7A"," "," ","1","0","[1655.4000000953674]","1","2","","","10377","60","2","3","lose","go","0"
"pit-trial","179","1157015","0.0-65.0","battery-v0.2","","""event"",""trial"",""time""
""fullscreenenter"",""1"",""4369""
","
","
","""event"",""trial"",""time""
""fullscreenenter"",""1"",""4369""
","
","","","-1","","","19","10377","4725","b","elianto","#f73b6a7A","-1","-1","1","0","[]","0","2","","","10377","61","3","4","lose","no-go","0"
"pit-trial","180","1160686","0.0-66.0","battery-v0.2","","""event"",""trial"",""time""
""fullscreenenter"",""1"",""4369""
","
","
","""event"",""trial"",""time""
""fullscreenenter"",""1"",""4369""
","
","","","803.3999999761581","","","19","10377","4725","c","elianto","#3366ff99"," "," ","1","0","[1657.2000000476837]","1","2","","","10377","62","4","1","win","go","1"
"pit-trial","181","1164420","0.0-67.0","battery-v0.2","","""event"",""trial"",""time""
""fullscreenenter"",""1"",""4369""
","
","
","""event"",""trial"",""time""
""fullscreenenter"",""1"",""4369""
","
","","","871.1000000238419","","","19","10377","4725","f","elianto","#3366ff99","-1"," ","0","+10","[1722.5]","1","2","","","10377","63","1","2","win","no-go","1"
"pit-trial","182","1168047","0.0-68.0","battery-v0.2","","""event"",""trial"",""time""
""fullscreenenter"",""1"",""4369""
","
","
","""event"",""trial"",""time""
""fullscreenenter"",""1"",""4369""
","
","","","766.7999999523163","","","19","10377","4725","t","elianto","#f73b6a7A"," "," ","1","-10","[1617.8000000715256]","1","2","","","10377","64","2","3","lose","go","1"
"pit-trial","183","1172918","0.0-69.0","battery-v0.2","","""event"",""trial"",""time""
""fullscreenenter"",""1"",""4369""
","
","
","""event"",""trial"",""time""
""fullscreenenter"",""1"",""4369""
","
","","","-1","","","19","10377","4725","b","elianto","#f73b6a7A","-1","-1","1","-10","[]","0","2","","","10377","65","3","4","lose","no-go","1"
"pit-trial","184","1177790","0.0-70.0","battery-v0.2","","""event"",""trial"",""time""
""fullscreenenter"",""1"",""4369""
","
","
","""event"",""trial"",""time""
""fullscreenenter"",""1"",""4369""
","
","","","-1","","","19","10377","4725","c","elianto","#3366ff99"," ","-1","0","0","[]","0","2","","","10377","66","4","1","win","go","0"
"pit-trial","185","1181403","0.0-71.0","battery-v0.2","","""event"",""trial"",""time""
""fullscreenenter"",""1"",""4369""
","
","
","""event"",""trial"",""time""
""fullscreenenter"",""1"",""4369""
","
","","","742.6000000238419","","","19","10377","4725","f","elianto","#3366ff99","-1"," ","0","0","[1601.3000000715256]","1","2","","","10377","67","1","2","win","no-go","0"
"pit-trial","186","1185046","0.0-72.0","battery-v0.2","","""event"",""trial"",""time""
""fullscreenenter"",""1"",""4369""
","
","
","""event"",""trial"",""time""
""fullscreenenter"",""1"",""4369""
","
","","","777.6999999284744","","","19","10377","4725","z","elianto","#3366ff99","-1"," ","0","0","[1628.7999999523163]","1","2","","","10377","68","5","2","win","no-go","0"
"pit-trial","187","1189918","0.0-73.0","battery-v0.2","","""event"",""trial"",""time""
""fullscreenenter"",""1"",""4369""
","
","
","""event"",""trial"",""time""
""fullscreenenter"",""1"",""4369""
","
","","","-1","","","19","10377","4725","c","elianto","#3366ff99"," ","-1","0","0","[]","0","2","","","10377","69","4","1","win","go","0"
"pit-trial","188","1193806","0.0-74.0","battery-v0.2","","""event"",""trial"",""time""
""fullscreenenter"",""1"",""4369""
","
","
","""event"",""trial"",""time""
""fullscreenenter"",""1"",""4369""
","
","","","1026.6000000238419","","","19","10377","4725","t","elianto","#f73b6a7A"," "," ","1","0","[1877.5]","1","2","","","10377","70","2","3","lose","go","0"
"pit-trial","189","1198677","0.0-75.0","battery-v0.2","","""event"",""trial"",""time""
""fullscreenenter"",""1"",""4369""
","
","
","""event"",""trial"",""time""
""fullscreenenter"",""1"",""4369""
","
","","","-1","","","19","10377","4725","z","elianto","#3366ff99","-1","-1","1","+10","[]","0","2","","","10377","71","5","2","win","no-go","0"
"pit-trial","190","1203550","0.0-76.0","battery-v0.2","","""event"",""trial"",""time""
""fullscreenenter"",""1"",""4369""
","
","
","""event"",""trial"",""time""
""fullscreenenter"",""1"",""4369""
","
","","","-1","","","19","10377","4725","f","elianto","#3366ff99","-1","-1","1","0","[]","0","2","","","10377","72","1","2","win","no-go","1"
"pit-trial","191","1208405","0.0-77.0","battery-v0.2","","""event"",""trial"",""time""
""fullscreenenter"",""1"",""4369""
","
","
","""event"",""trial"",""time""
""fullscreenenter"",""1"",""4369""
","
","","","-1","","","19","10377","4725","z","elianto","#3366ff99","-1","-1","1","+10","[]","0","2","","","10377","73","5","2","win","no-go","0"
"pit-trial","192","1212387","0.0-78.0","battery-v0.2","","""event"",""trial"",""time""
""fullscreenenter"",""1"",""4369""
","
","
","""event"",""trial"",""time""
""fullscreenenter"",""1"",""4369""
","
","","","1113.4000000953674","","","19","10377","4725","f","elianto","#3366ff99","-1"," ","0","+10","[1971.8000000715256]","1","2","","","10377","74","1","2","win","no-go","1"
"pit-trial","193","1217261","0.0-79.0","battery-v0.2","","""event"",""trial"",""time""
""fullscreenenter"",""1"",""4369""
","
","
","""event"",""trial"",""time""
""fullscreenenter"",""1"",""4369""
","
","","","-1","","","19","10377","4725","b","elianto","#f73b6a7A","-1","-1","1","0","[]","0","2","","","10377","75","3","4","lose","no-go","0"
"pit-trial","194","1222132","0.0-80.0","battery-v0.2","","""event"",""trial"",""time""
""fullscreenenter"",""1"",""4369""
","
","
","""event"",""trial"",""time""
""fullscreenenter"",""1"",""4369""
","
","","","-1","","","19","10377","4725","c","elianto","#3366ff99"," ","-1","0","0","[]","0","2","","","10377","76","4","1","win","go","0"
"pit-trial","195","1227004","0.0-81.0","battery-v0.2","","""event"",""trial"",""time""
""fullscreenenter"",""1"",""4369""
","
","
","""event"",""trial"",""time""
""fullscreenenter"",""1"",""4369""
","
","","","-1","","","19","10377","4725","c","elianto","#3366ff99"," ","-1","0","0","[]","0","2","","","10377","77","4","1","win","go","0"
"pit-trial","196","1231877","0.0-82.0","battery-v0.2","","""event"",""trial"",""time""
""fullscreenenter"",""1"",""4369""
","
","
","""event"",""trial"",""time""
""fullscreenenter"",""1"",""4369""
","
","","","-1","","","19","10377","4725","b","elianto","#f73b6a7A","-1","-1","1","-10","[]","0","2","","","10377","78","3","4","lose","no-go","1"
"pit-trial","197","1236749","0.0-83.0","battery-v0.2","","""event"",""trial"",""time""
""fullscreenenter"",""1"",""4369""
","
","
","""event"",""trial"",""time""
""fullscreenenter"",""1"",""4369""
","
","","","-1","","","19","10377","4725","c","elianto","#3366ff99"," ","-1","0","0","[]","0","2","","","10377","79","4","1","win","go","0"
"pit-trial","198","1240556","0.0-84.0","battery-v0.2","","""event"",""trial"",""time""
""fullscreenenter"",""1"",""4369""
","
","
","""event"",""trial"",""time""
""fullscreenenter"",""1"",""4369""
","
","","","939.8000000715256","","","19","10377","4725","z","elianto","#3366ff99","-1"," ","0","0","[1794.7999999523163]","1","2","","","10377","80","5","2","win","no-go","0"
"pit-trial","199","1244234","0.0-85.0","battery-v0.2","","""event"",""trial"",""time""
""fullscreenenter"",""1"",""4369""
","
","
","""event"",""trial"",""time""
""fullscreenenter"",""1"",""4369""
","
","","","810.1999999284744","","","19","10377","4725","y","elianto","#f73b6a7A","-1"," ","0","-10","[1667.9000000953674]","1","2","","","10377","81","7","4","lose","no-go","0"
"pit-trial","200","1249103","0.0-86.0","battery-v0.2","","""event"",""trial"",""time""
""fullscreenenter"",""1"",""4369""
","
","
","""event"",""trial"",""time""
""fullscreenenter"",""1"",""4369""
","
","","","-1","","","19","10377","4725","c","elianto","#3366ff99"," ","-1","0","0","[]","0","2","","","10377","82","4","1","win","go","0"
"pit-trial","201","1253972","0.0-87.0","battery-v0.2","","""event"",""trial"",""time""
""fullscreenenter"",""1"",""4369""
","
","
","""event"",""trial"",""time""
""fullscreenenter"",""1"",""4369""
","
","","","-1","","","19","10377","4725","z","elianto","#3366ff99","-1","-1","1","0","[]","0","2","","","10377","83","5","2","win","no-go","1"
"pit-trial","202","1258844","0.0-88.0","battery-v0.2","","""event"",""trial"",""time""
""fullscreenenter"",""1"",""4369""
","
","
","""event"",""trial"",""time""
""fullscreenenter"",""1"",""4369""
","
","","","-1","","","19","10377","4725","b","elianto","#f73b6a7A","-1","-1","1","0","[]","0","2","","","10377","84","3","4","lose","no-go","0"
"pit-trial","203","1262540","0.0-89.0","battery-v0.2","","""event"",""trial"",""time""
""fullscreenenter"",""1"",""4369""
","
","
","""event"",""trial"",""time""
""fullscreenenter"",""1"",""4369""
","
","","","823.4000000953674","","","19","10377","4725","h","elianto","#f73b6a7A"," "," ","1","0","[1681.5]","1","2","","","10377","85","6","3","lose","go","0"
"pit-trial","204","1267404","0.0-90.0","battery-v0.2","","""event"",""trial"",""time""
""fullscreenenter"",""1"",""4369""
","
","
","""event"",""trial"",""time""
""fullscreenenter"",""1"",""4369""
","
","","","-1","","","19","10377","4725","y","elianto","#f73b6a7A","-1","-1","1","0","[]","0","2","","","10377","86","7","4","lose","no-go","0"
"pit-trial","205","1271484","0.0-91.0","battery-v0.2","","""event"",""trial"",""time""
""fullscreenenter"",""1"",""4369""
","
","
","""event"",""trial"",""time""
""fullscreenenter"",""1"",""4369""
","
","","","1218.1000000238419","","","19","10377","4725","c","elianto","#3366ff99"," "," ","1","0","[2075.600000023842]","1","2","","","10377","87","4","1","win","go","1"
"pit-trial","206","1276355","0.0-92.0","battery-v0.2","","""event"",""trial"",""time""
""fullscreenenter"",""1"",""4369""
","
","
","""event"",""trial"",""time""
""fullscreenenter"",""1"",""4369""
","
","","","-1","","","19","10377","4725","z","elianto","#3366ff99","-1","-1","1","+10","[]","0","2","","","10377","88","5","2","win","no-go","0"
"pit-trial","207","1280795","0.0-93.0","battery-v0.2","","""event"",""trial"",""time""
""fullscreenenter"",""1"",""4369""
","
","
","""event"",""trial"",""time""
""fullscreenenter"",""1"",""4369""
","
","","","1569.5","","","19","10377","4725","h","elianto","#f73b6a7A"," "," ","1","0","[2427.399999976158]","1","2","","","10377","89","6","3","lose","go","0"
"pit-trial","208","1285667","0.0-94.0","battery-v0.2","","""event"",""trial"",""time""
""fullscreenenter"",""1"",""4369""
","
","
","""event"",""trial"",""time""
""fullscreenenter"",""1"",""4369""
","
","","","-1","","","19","10377","4725","z","elianto","#3366ff99","-1","-1","1","0","[]","0","2","","","10377","90","5","2","win","no-go","1"
"pit-trial","209","1290539","0.0-95.0","battery-v0.2","","""event"",""trial"",""time""
""fullscreenenter"",""1"",""4369""
","
","
","""event"",""trial"",""time""
""fullscreenenter"",""1"",""4369""
","
","","","-1","","","19","10377","4725","y","elianto","#f73b6a7A","-1","-1","1","0","[]","0","2","","","10377","91","7","4","lose","no-go","0"
"pit-trial","210","1295404","0.0-96.0","battery-v0.2","","""event"",""trial"",""time""
""fullscreenenter"",""1"",""4369""
","
","
","""event"",""trial"",""time""
""fullscreenenter"",""1"",""4369""
","
","","","-1","","","19","10377","4725","c","elianto","#3366ff99"," ","-1","0","0","[]","0","2","","","10377","92","4","1","win","go","0"
"pit-trial","211","1300275","0.0-97.0","battery-v0.2","","""event"",""trial"",""time""
""fullscreenenter"",""1"",""4369""
","
","
","""event"",""trial"",""time""
""fullscreenenter"",""1"",""4369""
","
","","","-1","","","19","10377","4725","y","elianto","#f73b6a7A","-1","-1","1","0","[]","0","2","","","10377","93","7","4","lose","no-go","0"
"pit-trial","212","1305147","0.0-98.0","battery-v0.2","","""event"",""trial"",""time""
""fullscreenenter"",""1"",""4369""
","
","
","""event"",""trial"",""time""
""fullscreenenter"",""1"",""4369""
","
","","","-1","","","19","10377","4725","z","elianto","#3366ff99","-1","-1","1","+10","[]","0","2","","","10377","94","5","2","win","no-go","0"
"pit-trial","213","1309370","0.0-99.0","battery-v0.2","","""event"",""trial"",""time""
""fullscreenenter"",""1"",""4369""
","
","
","""event"",""trial"",""time""
""fullscreenenter"",""1"",""4369""
","
","","","1363","","","19","10377","4725","h","elianto","#f73b6a7A"," "," ","1","0","[2218.600000023842]","1","2","","","10377","95","6","3","lose","go","0"
"pit-trial","214","1313195","0.0-100.0","battery-v0.2","","""event"",""trial"",""time""
""fullscreenenter"",""1"",""4369""
","
","
","""event"",""trial"",""time""
""fullscreenenter"",""1"",""4369""
","
","","","950.2000000476837","","","19","10377","4725","r","elianto","#3366ff99"," "," ","1","+10","[1807.5]","1","2","","","10377","96","8","1","win","go","0"
"pit-trial","215","1318066","0.0-101.0","battery-v0.2","","""event"",""trial"",""time""
""fullscreenenter"",""1"",""4369""
","
","
","""event"",""trial"",""time""
""fullscreenenter"",""1"",""4369""
","
","","","-1","","","19","10377","4725","z","elianto","#3366ff99","-1","-1","1","+10","[]","0","2","","","10377","97","5","2","win","no-go","0"
"pit-trial","216","1321458","0.0-102.0","battery-v0.2","","""event"",""trial"",""time""
""fullscreenenter"",""1"",""4369""
","
","
","""event"",""trial"",""time""
""fullscreenenter"",""1"",""4369""
","
","","","523.1000000238419","","","19","10377","4725","r","elianto","#3366ff99"," "," ","1","+10","[1375.1000000238419]","1","2","","","10377","98","8","1","win","go","0"
"pit-trial","217","1326330","0.0-103.0","battery-v0.2","","""event"",""trial"",""time""
""fullscreenenter"",""1"",""4369""
","
","
","""event"",""trial"",""time""
""fullscreenenter"",""1"",""4369""
","
","","","-1","","","19","10377","4725","y","elianto","#f73b6a7A","-1","-1","1","0","[]","0","2","","","10377","99","7","4","lose","no-go","0"
"pit-trial","218","1330056","0.0-104.0","battery-v0.2","","""event"",""trial"",""time""
""fullscreenenter"",""1"",""4369""
","
","
","""event"",""trial"",""time""
""fullscreenenter"",""1"",""4369""
","
","","","859.6000000238419","","","19","10377","4725","h","elianto","#f73b6a7A"," "," ","1","0","[1715.2999999523163]","1","2","","","10377","100","6","3","lose","go","0"
"pit-trial","219","1333546","0.0-105.0","battery-v0.2","","""event"",""trial"",""time""
""fullscreenenter"",""1"",""4369""
","
","
","""event"",""trial"",""time""
""fullscreenenter"",""1"",""4369""
","
","","","620","","","19","10377","4725","r","elianto","#3366ff99"," "," ","1","+10","[1480.1000000238419]","1","2","","","10377","101","8","1","win","go","0"
"pit-trial","220","1338402","0.0-106.0","battery-v0.2","","""event"",""trial"",""time""
""fullscreenenter"",""1"",""4369""
","
","
","""event"",""trial"",""time""
""fullscreenenter"",""1"",""4369""
","
","","","-1","","","19","10377","4725","z","elianto","#3366ff99","-1","-1","1","0","[]","0","2","","","10377","102","5","2","win","no-go","1"
"pit-trial","221","1343274","0.0-107.0","battery-v0.2","","""event"",""trial"",""time""
""fullscreenenter"",""1"",""4369""
","
","
","""event"",""trial"",""time""
""fullscreenenter"",""1"",""4369""
","
","","","-1","","","19","10377","4725","y","elianto","#f73b6a7A","-1","-1","1","0","[]","0","2","","","10377","103","7","4","lose","no-go","0"
"pit-trial","222","1346967","0.0-108.0","battery-v0.2","","""event"",""trial"",""time""
""fullscreenenter"",""1"",""4369""
","
","
","""event"",""trial"",""time""
""fullscreenenter"",""1"",""4369""
","
","","","821.1999999284744","","","19","10377","4725","m","elianto","#3366ff99"," "," ","1","0","[1679.3000000715256]","1","2","","","10377","104","9","1","win","go","1"
"pit-trial","223","1350657","0.0-109.0","battery-v0.2","","""event"",""trial"",""time""
""fullscreenenter"",""1"",""4369""
","
","
","""event"",""trial"",""time""
""fullscreenenter"",""1"",""4369""
","
","","","824.1999999284744","","","19","10377","4725","h","elianto","#f73b6a7A"," "," ","1","0","[1676.0999999046326]","1","2","","","10377","105","6","3","lose","go","0"
"pit-trial","224","1354208","0.0-110.0","battery-v0.2","","""event"",""trial"",""time""
""fullscreenenter"",""1"",""4369""
","
","
","""event"",""trial"",""time""
""fullscreenenter"",""1"",""4369""
","
","","","679.1000000238419","","","19","10377","4725","r","elianto","#3366ff99"," "," ","1","0","[1536.6000000238419]","1","2","","","10377","106","8","1","win","go","1"
"pit-trial","225","1359077","0.0-111.0","battery-v0.2","","""event"",""trial"",""time""
""fullscreenenter"",""1"",""4369""
","
","
","""event"",""trial"",""time""
""fullscreenenter"",""1"",""4369""
","
","","","-1","","","19","10377","4725","c","elianto","#3366ff99"," ","-1","0","0","[]","0","2","","","10377","107","4","1","win","go","0"
"pit-trial","226","1363945","0.0-112.0","battery-v0.2","","""event"",""trial"",""time""
""fullscreenenter"",""1"",""4369""
","
","
","""event"",""trial"",""time""
""fullscreenenter"",""1"",""4369""
","
","","","-1","","","19","10377","4725","m","elianto","#3366ff99"," ","-1","0","0","[]","0","2","","","10377","108","9","1","win","go","0"
"pit-trial","227","1368816","0.0-113.0","battery-v0.2","","""event"",""trial"",""time""
""fullscreenenter"",""1"",""4369""
","
","
","""event"",""trial"",""time""
""fullscreenenter"",""1"",""4369""
","
","","","-1","","","19","10377","4725","z","elianto","#3366ff99","-1","-1","1","+10","[]","0","2","","","10377","109","5","2","win","no-go","0"
"pit-trial","228","1372460","0.0-114.0","battery-v0.2","","""event"",""trial"",""time""
""fullscreenenter"",""1"",""4369""
","
","
","""event"",""trial"",""time""
""fullscreenenter"",""1"",""4369""
","
","","","780.3000000715256","","","19","10377","4725","h","elianto","#f73b6a7A"," "," ","1","-10","[1632.6000000238419]","1","2","","","10377","110","6","3","lose","go","1"
"pit-trial","229","1375948","0.0-115.0","battery-v0.2","","""event"",""trial"",""time""
""fullscreenenter"",""1"",""4369""
","
","
","""event"",""trial"",""time""
""fullscreenenter"",""1"",""4369""
","
","","","626.5","","","19","10377","4725","r","elianto","#3366ff99"," "," ","1","+10","[1481.1000000238419]","1","2","","","10377","111","8","1","win","go","0"
"pit-trial","230","1380104","0.0-116.0","battery-v0.2","","""event"",""trial"",""time""
""fullscreenenter"",""1"",""4369""
","
","
","""event"",""trial"",""time""
""fullscreenenter"",""1"",""4369""
","
","","","1288.3999999761581","","","19","10377","4725","m","elianto","#3366ff99"," "," ","1","0","[2141.899999976158]","1","2","","","10377","112","9","1","win","go","1"
"pit-trial","231","1383643","0.0-117.0","battery-v0.2","","""event"",""trial"",""time""
""fullscreenenter"",""1"",""4369""
","
","
","""event"",""trial"",""time""
""fullscreenenter"",""1"",""4369""
","
","","","672.6000000238419","","","19","10377","4725","h","elianto","#f73b6a7A"," "," ","1","0","[1531.3000000715256]","1","2","","","10377","113","6","3","lose","go","0"
"pit-trial","232","1388512","0.0-118.0","battery-v0.2","","""event"",""trial"",""time""
""fullscreenenter"",""1"",""4369""
","
","
","""event"",""trial"",""time""
""fullscreenenter"",""1"",""4369""
","
","","","-1","","","19","10377","4725","z","elianto","#3366ff99","-1","-1","1","+10","[]","0","2","","","10377","114","5","2","win","no-go","0"
"pit-trial","233","1392064","0.0-119.0","battery-v0.2","","""event"",""trial"",""time""
""fullscreenenter"",""1"",""4369""
","
","
","""event"",""trial"",""time""
""fullscreenenter"",""1"",""4369""
","
","","","680.7999999523163","","","19","10377","4725","r","elianto","#3366ff99"," "," ","1","+10","[1536.8999999761581]","1","2","","","10377","115","8","1","win","go","0"
"pit-trial","234","1396936","0.0-120.0","battery-v0.2","","""event"",""trial"",""time""
""fullscreenenter"",""1"",""4369""
","
","
","""event"",""trial"",""time""
""fullscreenenter"",""1"",""4369""
","
","","","-1","","","19","10377","4725","m","elianto","#3366ff99"," ","-1","0","0","[]","0","2","","","10377","116","9","1","win","go","0"
"pit-trial","235","1400373","0.0-121.0","battery-v0.2","","""event"",""trial"",""time""
""fullscreenenter"",""1"",""4369""
","
","
","""event"",""trial"",""time""
""fullscreenenter"",""1"",""4369""
","
","","","572.3999999761581","","","19","10377","4725","r","elianto","#3366ff99"," "," ","1","0","[1429.7999999523163]","1","2","","","10377","117","8","1","win","go","1"
"pit-trial","236","1403912","0.0-122.0","battery-v0.2","","""event"",""trial"",""time""
""fullscreenenter"",""1"",""4369""
","
","
","""event"",""trial"",""time""
""fullscreenenter"",""1"",""4369""
","
","","","662.2000000476837","","","19","10377","4725","h","elianto","#f73b6a7A"," "," ","1","0","[1522.7999999523163]","1","2","","","10377","118","6","3","lose","go","0"
"pit-trial","237","1408784","0.0-123.0","battery-v0.2","","""event"",""trial"",""time""
""fullscreenenter"",""1"",""4369""
","
","
","""event"",""trial"",""time""
""fullscreenenter"",""1"",""4369""
","
","","","-1","","","19","10377","4725","m","elianto","#3366ff99"," ","-1","0","0","[]","0","2","","","10377","119","9","1","win","go","0"
"pit-trial","238","1413655","0.0-124.0","battery-v0.2","","""event"",""trial"",""time""
""fullscreenenter"",""1"",""4369""
","
","
","""event"",""trial"",""time""
""fullscreenenter"",""1"",""4369""
","
","","","-1","","","19","10377","4725","z","elianto","#3366ff99","-1","-1","1","0","[]","0","2","","","10377","120","5","2","win","no-go","1"
"pit-trial","239","1417168","0.0-125.0","battery-v0.2","","""event"",""trial"",""time""
""fullscreenenter"",""1"",""4369""
","
","
","""event"",""trial"",""time""
""fullscreenenter"",""1"",""4369""
","
","","","644.6999999284744","","","19","10377","4725","r","elianto","#3366ff99"," "," ","1","+10","[1502.1999999284744]","1","2","","","10377","121","8","1","win","go","0"
"pit-trial","240","1421640","0.0-126.0","battery-v0.2","","""event"",""trial"",""time""
""fullscreenenter"",""1"",""4369""
","
","
","""event"",""trial"",""time""
""fullscreenenter"",""1"",""4369""
","
","","","1606.0999999046326","","","19","10377","4725","m","elianto","#3366ff99"," "," ","1","0","[2456.7000000476837]","1","2","","","10377","122","9","1","win","go","1"
"pit-trial","241","1426511","0.0-127.0","battery-v0.2","","""event"",""trial"",""time""
""fullscreenenter"",""1"",""4369""
","
","
","""event"",""trial"",""time""
""fullscreenenter"",""1"",""4369""
","
","","","-1","","","19","10377","4725","y","elianto","#f73b6a7A","-1","-1","1","0","[]","0","2","","","10377","123","7","4","lose","no-go","0"
"pit-trial","242","1430167","0.0-128.0","battery-v0.2","","""event"",""trial"",""time""
""fullscreenenter"",""1"",""4369""
","
","
","""event"",""trial"",""time""
""fullscreenenter"",""1"",""4369""
","
","","","787.5","","","19","10377","4725","h","elianto","#f73b6a7A"," "," ","1","-10","[1644.5999999046326]","1","2","","","10377","124","6","3","lose","go","1"
"pit-trial","243","1434047","0.0-129.0","battery-v0.2","","""event"",""trial"",""time""
""fullscreenenter"",""1"",""4369""
","
","
","""event"",""trial"",""time""
""fullscreenenter"",""1"",""4369""
","
","","","1014.1999999284744","","","19","10377","4725","m","elianto","#3366ff99"," "," ","1","0","[1865.3999999761581]","1","2","","","10377","125","9","1","win","go","1"
"pit-trial","244","1438919","0.0-130.0","battery-v0.2","","""event"",""trial"",""time""
""fullscreenenter"",""1"",""4369""
","
","
","""event"",""trial"",""time""
""fullscreenenter"",""1"",""4369""
","
","","","-1","","","19","10377","4725","y","elianto","#f73b6a7A","-1","-1","1","0","[]","0","2","","","10377","126","7","4","lose","no-go","0"
"pit-trial","245","1442455","0.0-131.0","battery-v0.2","","""event"",""trial"",""time""
""fullscreenenter"",""1"",""4369""
","
","
","""event"",""trial"",""time""
""fullscreenenter"",""1"",""4369""
","
","","","662.1999999284744","","","19","10377","4725","h","elianto","#f73b6a7A"," "," ","1","0","[1518.3999999761581]","1","2","","","10377","127","6","3","lose","go","0"
"pit-trial","246","1445884","0.0-132.0","battery-v0.2","","""event"",""trial"",""time""
""fullscreenenter"",""1"",""4369""
","
","
","""event"",""trial"",""time""
""fullscreenenter"",""1"",""4369""
","
","","","558","","","19","10377","4725","r","elianto","#3366ff99"," "," ","1","+10","[1414.7000000476837]","1","2","","","10377","128","8","1","win","go","0"
"pit-trial","247","1449348","0.0-133.0","battery-v0.2","","""event"",""trial"",""time""
""fullscreenenter"",""1"",""4369""
","
","
","""event"",""trial"",""time""
""fullscreenenter"",""1"",""4369""
","
","","","604.1000000238419","","","19","10377","4725","h","elianto","#f73b6a7A"," "," ","1","0","[1454.7000000476837]","1","2","","","10377","129","6","3","lose","go","0"
"pit-trial","248","1452762","0.0-134.0","battery-v0.2","","""event"",""trial"",""time""
""fullscreenenter"",""1"",""4369""
","
","
","""event"",""trial"",""time""
""fullscreenenter"",""1"",""4369""
","
","","","550.3000000715256","","","19","10377","4725","r","elianto","#3366ff99"," "," ","1","0","[1402.1000000238419]","1","2","","","10377","130","8","1","win","go","1"
"pit-trial","249","1456438","0.0-135.0","battery-v0.2","","""event"",""trial"",""time""
""fullscreenenter"",""1"",""4369""
","
","
","""event"",""trial"",""time""
""fullscreenenter"",""1"",""4369""
","
","","","805.1000000238419","","","19","10377","4725","m","elianto","#3366ff99"," "," ","1","+10","[1659.8999999761581]","1","2","","","10377","131","9","1","win","go","0"
"pit-trial","250","1461310","0.0-136.0","battery-v0.2","","""event"",""trial"",""time""
""fullscreenenter"",""1"",""4369""
","
","
","""event"",""trial"",""time""
""fullscreenenter"",""1"",""4369""
","
","","","-1","","","19","10377","4725","y","elianto","#f73b6a7A","-1","-1","1","0","[]","0","2","","","10377","132","7","4","lose","no-go","0"
"pit-trial","251","1464780","0.0-137.0","battery-v0.2","","""event"",""trial"",""time""
""fullscreenenter"",""1"",""4369""
","
","
","""event"",""trial"",""time""
""fullscreenenter"",""1"",""4369""
","
","","","610.0999999046326","","","19","10377","4725","h","elianto","#f73b6a7A"," "," ","1","0","[1461.5999999046326]","1","2","","","10377","133","6","3","lose","go","0"
"pit-trial","252","1468196","0.0-138.0","battery-v0.2","","""event"",""trial"",""time""
""fullscreenenter"",""1"",""4369""
","
","
","""event"",""trial"",""time""
""fullscreenenter"",""1"",""4369""
","
","","","553.7000000476837","","","19","10377","4725","r","elianto","#3366ff99"," "," ","1","0","[1404.8999999761581]","1","2","","","10377","134","8","1","win","go","1"
"pit-trial","253","1473069","0.0-139.0","battery-v0.2","","""event"",""trial"",""time""
""fullscreenenter"",""1"",""4369""
","
","
","""event"",""trial"",""time""
""fullscreenenter"",""1"",""4369""
","
","","","-1","","","19","10377","4725","y","elianto","#f73b6a7A","-1","-1","1","0","[]","0","2","","","10377","135","7","4","lose","no-go","0"
"pit-trial","254","1476701","0.0-140.0","battery-v0.2","","""event"",""trial"",""time""
""fullscreenenter"",""1"",""4369""
","
","
","""event"",""trial"",""time""
""fullscreenenter"",""1"",""4369""
","
","","","768.3000000715256","","","19","10377","4725","m","elianto","#3366ff99"," "," ","1","+10","[1618.5]","1","2","","","10377","136","9","1","win","go","0"
"pit-trial","255","1480134","0.0-141.0","battery-v0.2","","""event"",""trial"",""time""
""fullscreenenter"",""1"",""4369""
","
","
","""event"",""trial"",""time""
""fullscreenenter"",""1"",""4369""
","
","","","570.2000000476837","","","19","10377","4725","r","elianto","#3366ff99"," "," ","1","+10","[1420.7999999523163]","1","2","","","10377","137","8","1","win","go","0"
"pit-trial","256","1485005","0.0-142.0","battery-v0.2","","""event"",""trial"",""time""
""fullscreenenter"",""1"",""4369""
","
","
","""event"",""trial"",""time""
""fullscreenenter"",""1"",""4369""
","
","","","-1","","","19","10377","4725","y","elianto","#f73b6a7A","-1","-1","1","0","[]","0","2","","","10377","138","7","4","lose","no-go","0"
"pit-trial","257","1488462","0.0-143.0","battery-v0.2","","""event"",""trial"",""time""
""fullscreenenter"",""1"",""4369""
","
","
","""event"",""trial"",""time""
""fullscreenenter"",""1"",""4369""
","
","","","588","","","19","10377","4725","m","elianto","#3366ff99"," "," ","1","+10","[1445.8999999761581]","1","2","","","10377","139","9","1","win","go","0"
"pit-trial","258","1491987","0.0-144.0","battery-v0.2","","""event"",""trial"",""time""
""fullscreenenter"",""1"",""4369""
","
","
","""event"",""trial"",""time""
""fullscreenenter"",""1"",""4369""
","
","","","658.6000000238419","","","19","10377","4725","h","elianto","#f73b6a7A"," "," ","1","-10","[1511.8999999761581]","1","2","","","10377","140","6","3","lose","go","1"
"pit-instructions","259","1513691","0.0-145.0","battery-v0.2","","""event"",""trial"",""time""
""fullscreenenter"",""1"",""4369""
","
","
","""event"",""trial"",""time""
""fullscreenenter"",""1"",""4369""
","
","","[{""page_index"":0,""viewing_time"":12467.600000023842},{""page_index"":1,""viewing_time"":9233.399999976158}]","21701.5","","","","","","","","","","","","","","","","","","","","","","","",""
"pit-trial","260","1517265","0.0-146.0","battery-v0.2","","""event"",""trial"",""time""
""fullscreenenter"",""1"",""4369""
","
","
","""event"",""trial"",""time""
""fullscreenenter"",""1"",""4369""
","
","","","705.7000000476837","","","19","10377","4725","l","elianto","#3366ff99"," "," ","1","+10","[1561.7000000476837]","1","3","","","10377","141","1","1","win","go","0"
"pit-trial","261","1521020","0.0-147.0","battery-v0.2","","""event"",""trial"",""time""
""fullscreenenter"",""1"",""4369""
","
","
","""event"",""trial"",""time""
""fullscreenenter"",""1"",""4369""
","
","","","890.1000000238419","","","19","10377","4725","u","elianto","#f73b6a7A","-1"," ","0","-10","[1742.7999999523163]","1","3","","","10377","142","0","4","lose","no-go","0"
"pit-trial","262","1524548","0.0-148.0","battery-v0.2","","""event"",""trial"",""time""
""fullscreenenter"",""1"",""4369""
","
","
","""event"",""trial"",""time""
""fullscreenenter"",""1"",""4369""
","
","","","656.6000000238419","","","19","10377","4725","a","elianto","#f73b6a7A","-1"," ","0","-10","[1513.8999999761581]","1","3","","","10377","143","2","4","lose","no-go","0"
"pit-trial","263","1528084","0.0-149.0","battery-v0.2","","""event"",""trial"",""time""
""fullscreenenter"",""1"",""4369""
","
","
","""event"",""trial"",""time""
""fullscreenenter"",""1"",""4369""
","
","","","672","","","19","10377","4725","g","elianto","#f73b6a7A"," "," ","1","0","[1525.6000000238419]","1","3","","","10377","144","3","3","lose","go","0"
"pit-trial","264","1532956","0.0-150.0","battery-v0.2","","""event"",""trial"",""time""
""fullscreenenter"",""1"",""4369""
","
","
","""event"",""trial"",""time""
""fullscreenenter"",""1"",""4369""
","
","","","-1","","","19","10377","4725","u","elianto","#f73b6a7A","-1","-1","1","0","[]","0","3","","","10377","145","0","4","lose","no-go","0"
"pit-trial","265","1536932","0.0-151.0","battery-v0.2","","""event"",""trial"",""time""
""fullscreenenter"",""1"",""4369""
","
","
","""event"",""trial"",""time""
""fullscreenenter"",""1"",""4369""
","
","","","1103.8999999761581","","","19","10377","4725","g","elianto","#f73b6a7A"," "," ","1","0","[1960.3999999761581]","1","3","","","10377","146","3","3","lose","go","0"
"pit-trial","266","1540531","0.0-152.0","battery-v0.2","","""event"",""trial"",""time""
""fullscreenenter"",""1"",""4369""
","
","
