"trial_type","trial_index","time_elapsed","internal_node_id","task_version","subject_id","interactions","blur_events","focus_events","fullscreenenter_events","fullscreenexit_events","success","view_history","rt","responses","num_errors","age","subject","participantId","rune","rune_set","hex","correct","choice","accuracy","outcome","keys","total_keys","block","practice","value","sub","trial","stimulus","robot","valence","action","sham"
"pavlovia","0","13","0.0-0.0","battery-v0.2","","""event"",""trial"",""time""
""fullscreenenter"",""1"",""4797""
","
","
","""event"",""trial"",""time""
""fullscreenenter"",""1"",""4797""
","
","","","","","","","","","","","","","","","","","","","","","","","","","","",""
"fullscreen","1","5784","0.0-1.0","battery-v0.2","","""event"",""trial"",""time""
""fullscreenenter"",""1"",""4797""
","
","
","""event"",""trial"",""time""
""fullscreenenter"",""1"",""4797""
","
","true","","","","","","","","","","","","","","","","","","","","","","","","","",""
"pit-instructions","2","12715","0.0-2.0-0.0","battery-v0.2","","""event"",""trial"",""time""
""fullscreenenter"",""1"",""4797""
","
","
","""event"",""trial"",""time""
""fullscreenenter"",""1"",""4797""
","
","","[{""page_index"":0,""viewing_time"":6925.400000572205}]","6926.300000190735","","","","","","","","","","","","","","","","","","","","","","","",""
"pit-comprehension","3","23551","0.0-2.0-1.0-0.0","battery-v0.2","","""event"",""trial"",""time""
""fullscreenenter"",""1"",""4797""
","
","
","""event"",""trial"",""time""
""fullscreenenter"",""1"",""4797""
","
","","","10831.199999809265","[""shark""]","0","13","9848","2432","","","","","","","","","","","","","","","","","","",""
"pit-instructions","4","26281","0.0-2.0-1.0-1.0","battery-v0.2","","""event"",""trial"",""time""
""fullscreenenter"",""1"",""4797""
","
","
","""event"",""trial"",""time""
""fullscreenenter"",""1"",""4797""
","
","","[{""page_index"":0,""viewing_time"":2719.300000190735}]","2719.699999809265","","","","","","","","","","","","","","","","","","","","","","","",""
"pit-comprehension","5","30963","0.0-2.0-2.0-0.0","battery-v0.2","","""event"",""trial"",""time""
""fullscreenenter"",""1"",""4797""
","
","
","""event"",""trial"",""time""
""fullscreenenter"",""1"",""4797""
","
","","","4678.199999809265","[""tiger""]","0","13","9848","2432","","","","","","","","","","","","","","","","","","",""
"pit-instructions","6","32060","0.0-2.0-2.0-1.0","battery-v0.2","","""event"",""trial"",""time""
""fullscreenenter"",""1"",""4797""
","
","
","""event"",""trial"",""time""
""fullscreenenter"",""1"",""4797""
","
","","[{""page_index"":0,""viewing_time"":1092.1999998092651}]","1092.6000003814697","","","","","","","","","","","","","","","","","","","","","","","",""
"pit-instructions","7","141595","0.0-2.0-3.0","battery-v0.2","","""event"",""trial"",""time""
""fullscreenenter"",""1"",""4797""
","
","
","""event"",""trial"",""time""
""fullscreenenter"",""1"",""4797""
","
","","[{""page_index"":0,""viewing_time"":10554},{""page_index"":1,""viewing_time"":7307.699999809265},{""page_index"":2,""viewing_time"":6298.5},{""page_index"":3,""viewing_time"":10138.39999961853},{""page_index"":4,""viewing_time"":7874.700000762939},{""page_index"":5,""viewing_time"":5896.799999237061},{""page_index"":6,""viewing_time"":7393.200000762939},{""page_index"":7,""viewing_time"":6827.89999961853},{""page_index"":8,""viewing_time"":6179.60000038147},{""page_index"":9,""viewing_time"":8836.29999923706},{""page_index"":10,""viewing_time"":11795.10000038147},{""page_index"":11,""viewing_time"":7959.60000038147},{""page_index"":12,""viewing_time"":7222},{""page_index"":13,""viewing_time"":5248.39999961853}]","109532.80000019073","","","","","","","","","","","","","","","","","","","","","","","",""
"pit-trial","8","144948","0.0-2.0-4.0-0.0","battery-v0.2","","""event"",""trial"",""time""
""fullscreenenter"",""1"",""4797""
","
","
","""event"",""trial"",""time""
""fullscreenenter"",""1"",""4797""
","
","","","488.79999923706055","","","13","9848","2432","&#9784;","elianto","#FFFFF080"," "," ","1","&#10004","[1340.6999998092651]","1","0","0","","","","","","","",""
"pit-trial","9","148208","0.0-2.0-4.1-0.1","battery-v0.2","","""event"",""trial"",""time""
""fullscreenenter"",""1"",""4797""
","
","
","""event"",""trial"",""time""
""fullscreenenter"",""1"",""4797""
","
","","","386.4000005722046","","","13","9848","2432","&#9784;","elianto","#FFFFF080"," "," ","1","&#10004","[1239.8999996185303]","1","0","0","","","","","","","",""
"pit-trial","10","151504","0.0-2.0-4.2-0.2","battery-v0.2","","""event"",""trial"",""time""
""fullscreenenter"",""1"",""4797""
","
","
","""event"",""trial"",""time""
""fullscreenenter"",""1"",""4797""
","
","","","428.30000019073486","","","13","9848","2432","&#9784;","elianto","#FFFFF080"," "," ","1","&#10004","[1282.2999992370605]","1","0","0","","","","","","","",""
"pit-trial","11","154938","0.0-2.0-4.3-0.3","battery-v0.2","","""event"",""trial"",""time""
""fullscreenenter"",""1"",""4797""
","
","
","""event"",""trial"",""time""
""fullscreenenter"",""1"",""4797""
","
","","","550.3999996185303","","","13","9848","2432","&#9784;","elianto","#FFFFF080"," "," ","1","&#10004","[1411.7999992370605]","1","0","0","","","","","","","",""
"pit-trial","12","158300","0.0-2.0-4.4-0.4","battery-v0.2","","""event"",""trial"",""time""
""fullscreenenter"",""1"",""4797""
","
","
","""event"",""trial"",""time""
""fullscreenenter"",""1"",""4797""
","
","","","490.20000076293945","","","13","9848","2432","&#9784;","elianto","#FFFFF080"," "," ","1","&#10004","[1352.6999998092651]","1","0","0","","","","","","","",""
"pit-instructions","13","180543","0.0-2.0-5.0","battery-v0.2","","""event"",""trial"",""time""
""fullscreenenter"",""1"",""4797""
","
","
","""event"",""trial"",""time""
""fullscreenenter"",""1"",""4797""
","
","","[{""page_index"":0,""viewing_time"":6289.800000190735},{""page_index"":1,""viewing_time"":6077.199999809265},{""page_index"":2,""viewing_time"":4844.699999809265},{""page_index"":3,""viewing_time"":5027.699999809265}]","22239.89999961853","","","","","","","","","","","","","","","","","","","","","","","",""
"pit-trial","14","185411","0.0-2.0-6.0-0.0","battery-v0.2","","""event"",""trial"",""time""
""fullscreenenter"",""1"",""4797""
","
","
","""event"",""trial"",""time""
""fullscreenenter"",""1"",""4797""
","
","","","-1","","","13","9848","2432","&#9854;","elianto","#FFFFF080","-1","-1","1","&#10004","[]","0","0","1","","","","","","","",""
"pit-trial","15","190274","0.0-2.0-6.1-0.1","battery-v0.2","","""event"",""trial"",""time""
""fullscreenenter"",""1"",""4797""
","
","
","""event"",""trial"",""time""
""fullscreenenter"",""1"",""4797""
","
","","","-1","","","13","9848","2432","&#9854;","elianto","#FFFFF080","-1","-1","1","&#10004","[]","0","0","1","","","","","","","",""
"pit-trial","16","195137","0.0-2.0-6.2-0.2","battery-v0.2","","""event"",""trial"",""time""
""fullscreenenter"",""1"",""4797""
","
","
","""event"",""trial"",""time""
""fullscreenenter"",""1"",""4797""
","
","","","-1","","","13","9848","2432","&#9854;","elianto","#FFFFF080","-1","-1","1","&#10004","[]","0","0","1","","","","","","","",""
"pit-trial","17","200016","0.0-2.0-6.3-0.3","battery-v0.2","","""event"",""trial"",""time""
""fullscreenenter"",""1"",""4797""
","
","
","""event"",""trial"",""time""
""fullscreenenter"",""1"",""4797""
","
","","","-1","","","13","9848","2432","&#9854;","elianto","#FFFFF080","-1","-1","1","&#10004","[]","0","0","1","","","","","","","",""
"pit-trial","18","204894","0.0-2.0-6.4-0.4","battery-v0.2","","""event"",""trial"",""time""
""fullscreenenter"",""1"",""4797""
","
","
","""event"",""trial"",""time""
""fullscreenenter"",""1"",""4797""
","
","","","-1","","","13","9848","2432","&#9854;","elianto","#FFFFF080","-1","-1","1","&#10004","[]","0","0","1","","","","","","","",""
"pit-instructions","19","326434","0.0-2.0-7.0","battery-v0.2","","""event"",""trial"",""time""
""fullscreenenter"",""1"",""4797""
","
","
","""event"",""trial"",""time""
""fullscreenenter"",""1"",""4797""
","
","","[{""page_index"":0,""viewing_time"":5839.10000038147},{""page_index"":1,""viewing_time"":7671},{""page_index"":2,""viewing_time"":6875.800000190735},{""page_index"":3,""viewing_time"":6371.299999237061},{""page_index"":4,""viewing_time"":5886.400000572205},{""page_index"":5,""viewing_time"":5532.5},{""page_index"":6,""viewing_time"":6110.099999427795},{""page_index"":7,""viewing_time"":8922.20000076294},{""page_index"":8,""viewing_time"":7263.599999427795},{""page_index"":9,""viewing_time"":6561},{""page_index"":10,""viewing_time"":6709.900000572205},{""page_index"":11,""viewing_time"":4663.199999809265},{""page_index"":12,""viewing_time"":6778.39999961853},{""page_index"":13,""viewing_time"":7158.199999809265},{""page_index"":14,""viewing_time"":7494.60000038147},{""page_index"":15,""viewing_time"":6728.10000038147},{""page_index"":16,""viewing_time"":6260.099999427795},{""page_index"":17,""viewing_time"":8709.300000190735}]","121535.5","","","","","","","","","","","","","","","","","","","","","","","",""
"pit-trial","20","329768","0.0-2.0-8.0-0.0","battery-v0.2","","""event"",""trial"",""time""
""fullscreenenter"",""1"",""4797""
","
","
","""event"",""trial"",""time""
""fullscreenenter"",""1"",""4797""
","
","","","465.80000019073486","","","13","9848","2432","&#9776;","elianto","#3366ff99"," "," ","1","+10","[1316.5]","1","0","1","","","","","","","",""
"pit-trial","21","333014","0.0-2.0-8.0-1.0","battery-v0.2","","""event"",""trial"",""time""
""fullscreenenter"",""1"",""4797""
","
","
","""event"",""trial"",""time""
""fullscreenenter"",""1"",""4797""
","
","","","370.80000019073486","","","13","9848","2432","&#9776;","elianto","#3366ff99"," "," ","1","+10","[1233.6000003814697]","1","0","1","","","","","","","",""
"pit-trial","22","336254","0.0-2.0-8.0-2.0","battery-v0.2","","""event"",""trial"",""time""
""fullscreenenter"",""1"",""4797""
","
","
","""event"",""trial"",""time""
""fullscreenenter"",""1"",""4797""
","
","","","377.3999996185303","","","13","9848","2432","&#9776;","elianto","#3366ff99"," "," ","1","+10","[1227.8000001907349]","1","0","1","","","","","","","",""
"pit-trial","23","339553","0.0-2.0-8.0-3.0","battery-v0.2","","""event"",""trial"",""time""
""fullscreenenter"",""1"",""4797""
","
","
","""event"",""trial"",""time""
""fullscreenenter"",""1"",""4797""
","
","","","435.4000005722046","","","13","9848","2432","&#9776;","elianto","#3366ff99"," "," ","1","0","[1290.1000003814697]","1","0","1","","","","","","","",""
"pit-trial","24","344415","0.0-2.0-8.0-4.0","battery-v0.2","","""event"",""trial"",""time""
""fullscreenenter"",""1"",""4797""
","
","
","""event"",""trial"",""time""
""fullscreenenter"",""1"",""4797""
","
","","","-1","","","13","9848","2432","&#9776;","elianto","#3366ff99"," ","-1","0","0","[]","0","0","1","","","","","","","",""
"pit-trial","25","347585","0.0-2.0-8.1-0.1","battery-v0.2","","""event"",""trial"",""time""
""fullscreenenter"",""1"",""4797""
","
","
","""event"",""trial"",""time""
""fullscreenenter"",""1"",""4797""
","
","","","312.4000005722046","","","13","9848","2432","&#9776;","elianto","#3366ff99"," "," ","1","+10","[1164.3999996185303]","1","0","1","","","","","","","",""
"pit-trial","26","350931","0.0-2.0-8.1-1.1","battery-v0.2","","""event"",""trial"",""time""
""fullscreenenter"",""1"",""4797""
","
","
","""event"",""trial"",""time""
""fullscreenenter"",""1"",""4797""
","
","","","491.80000019073486","","","13","9848","2432","&#9776;","elianto","#3366ff99"," "," ","1","+10","[1341.6999998092651]","1","0","1","","","","","","","",""
"pit-trial","27","355792","0.0-2.0-8.1-2.1","battery-v0.2","","""event"",""trial"",""time""
""fullscreenenter"",""1"",""4797""
","
","
","""event"",""trial"",""time""
""fullscreenenter"",""1"",""4797""
","
","","","-1","","","13","9848","2432","&#9776;","elianto","#3366ff99"," ","-1","0","0","[]","0","0","1","","","","","","","",""
"pit-trial","28","360646","0.0-2.0-8.1-3.1","battery-v0.2","","""event"",""trial"",""time""
""fullscreenenter"",""1"",""4797""
","
","
","""event"",""trial"",""time""
""fullscreenenter"",""1"",""4797""
","
","","","-1","","","13","9848","2432","&#9776;","elianto","#3366ff99"," ","-1","0","+10","[]","0","0","1","","","","","","","",""
"pit-trial","29","363784","0.0-2.0-8.1-4.1","battery-v0.2","","""event"",""trial"",""time""
""fullscreenenter"",""1"",""4797""
","
","
","""event"",""trial"",""time""
""fullscreenenter"",""1"",""4797""
","
","","","283","","","13","9848","2432","&#9776;","elianto","#3366ff99"," "," ","1","+10","[1133.4000005722046]","1","0","1","","","","","","","",""
"pit-trial","30","367074","0.0-2.0-8.2-0.2","battery-v0.2","","""event"",""trial"",""time""
""fullscreenenter"",""1"",""4797""
","
","
","""event"",""trial"",""time""
""fullscreenenter"",""1"",""4797""
","
","","","433.3999996185303","","","13","9848","2432","&#9776;","elianto","#3366ff99"," "," ","1","+10","[1284.5]","1","0","1","","","","","","","",""
"pit-trial","31","371928","0.0-2.0-8.2-1.2","battery-v0.2","","""event"",""trial"",""time""
""fullscreenenter"",""1"",""4797""
","
","
","""event"",""trial"",""time""
""fullscreenenter"",""1"",""4797""
","
","","","-1","","","13","9848","2432","&#9776;","elianto","#3366ff99"," ","-1","0","0","[]","0","0","1","","","","","","","",""
"pit-trial","32","375217","0.0-2.0-8.2-2.2","battery-v0.2","","""event"",""trial"",""time""
""fullscreenenter"",""1"",""4797""
","
","
","""event"",""trial"",""time""
""fullscreenenter"",""1"",""4797""
","
","","","431.6000003814697","","","13","9848","2432","&#9776;","elianto","#3366ff99"," "," ","1","+10","[1284.1999998092651]","1","0","1","","","","","","","",""
"pit-trial","33","378373","0.0-2.0-8.2-3.2","battery-v0.2","","""event"",""trial"",""time""
""fullscreenenter"",""1"",""4797""
","
","
","""event"",""trial"",""time""
""fullscreenenter"",""1"",""4797""
","
","","","303.4000005722046","","","13","9848","2432","&#9776;","elianto","#3366ff99"," "," ","1","0","[1154]","1","0","1","","","","","","","",""
"pit-trial","34","381664","0.0-2.0-8.2-4.2","battery-v0.2","","""event"",""trial"",""time""
""fullscreenenter"",""1"",""4797""
","
","
","""event"",""trial"",""time""
""fullscreenenter"",""1"",""4797""
","
","","","435.8999996185303","","","13","9848","2432","&#9776;","elianto","#3366ff99"," "," ","1","+10","[1287.8999996185303]","1","0","1","","","","","","","",""
"call-function","35","381667","0.0-2.0-9.0","battery-v0.2","","""event"",""trial"",""time""
""fullscreenenter"",""1"",""4797""
","
","
","""event"",""trial"",""time""
""fullscreenenter"",""1"",""4797""
","
","","","","","","","","","","","","","","","","","","","","","","","","","","",""
"pit-instructions","36","425019","0.0-2.0-10.0","battery-v0.2","","""event"",""trial"",""time""
""fullscreenenter"",""1"",""4797""
","
","
","""event"",""trial"",""time""
""fullscreenenter"",""1"",""4797""
","
","","[{""page_index"":0,""viewing_time"":7846.199999809265},{""page_index"":1,""viewing_time"":8133.10000038147},{""page_index"":2,""viewing_time"":9333.39999961853},{""page_index"":3,""viewing_time"":8943.5},{""page_index"":4,""viewing_time"":9094.199999809265}]","43350.89999961853","","","","","","","","","","","","","","","","","","","","","","","",""
"pit-trial","37","428460","0.0-2.0-11.0-0.0","battery-v0.2","","""event"",""trial"",""time""
""fullscreenenter"",""1"",""4797""
","
","
","""event"",""trial"",""time""
""fullscreenenter"",""1"",""4797""
","
","","","582.2999992370605","","","13","9848","2432","&#9761;","elianto","#3366ff99","-1"," ","0","0","[1433.1000003814697]","1","0","2","","","","","","","",""
"pit-trial","38","433324","0.0-2.0-11.0-1.0","battery-v0.2","","""event"",""trial"",""time""
""fullscreenenter"",""1"",""4797""
","
","
","""event"",""trial"",""time""
""fullscreenenter"",""1"",""4797""
","
","","","-1","","","13","9848","2432","&#9761;","elianto","#3366ff99","-1","-1","1","+10","[]","0","0","2","","","","","","","",""
"pit-trial","39","436608","0.0-2.0-11.0-2.0","battery-v0.2","","""event"",""trial"",""time""
""fullscreenenter"",""1"",""4797""
","
","
","""event"",""trial"",""time""
""fullscreenenter"",""1"",""4797""
","
","","","417.1000003814697","","","13","9848","2432","&#9761;","elianto","#3366ff99","-1"," ","0","0","[1269.8000001907349]","1","0","2","","","","","","","",""
"pit-trial","40","439991","0.0-2.0-11.0-3.0","battery-v0.2","","""event"",""trial"",""time""
""fullscreenenter"",""1"",""4797""
","
","
","""event"",""trial"",""time""
""fullscreenenter"",""1"",""4797""
","
","","","515.5","","","13","9848","2432","&#9761;","elianto","#3366ff99","-1"," ","0","+10","[1379]","1","0","2","","","","","","","",""
"pit-trial","41","443227","0.0-2.0-11.0-4.0","battery-v0.2","","""event"",""trial"",""time""
""fullscreenenter"",""1"",""4797""
","
","
","""event"",""trial"",""time""
""fullscreenenter"",""1"",""4797""
","
","","","370.19999980926514","","","13","9848","2432","&#9761;","elianto","#3366ff99","-1"," ","0","0","[1224.6999998092651]","1","0","2","","","","","","","",""
"pit-trial","42","446748","0.0-2.0-11.1-0.1","battery-v0.2","","""event"",""trial"",""time""
""fullscreenenter"",""1"",""4797""
","
","
","""event"",""trial"",""time""
""fullscreenenter"",""1"",""4797""
","
","","","663","","","13","9848","2432","&#9761;","elianto","#3366ff99","-1"," ","0","0","[1516.6999998092651]","1","0","2","","","","","","","",""
"pit-trial","43","449947","0.0-2.0-11.1-1.1","battery-v0.2","","""event"",""trial"",""time""
""fullscreenenter"",""1"",""4797""
","
","
","""event"",""trial"",""time""
""fullscreenenter"",""1"",""4797""
","
","","","324","","","13","9848","2432","&#9761;","elianto","#3366ff99","-1"," ","0","0","[1187.5999994277954]","1","0","2","","","","","","","",""
"pit-trial","44","454805","0.0-2.0-11.1-2.1","battery-v0.2","","""event"",""trial"",""time""
""fullscreenenter"",""1"",""4797""
","
","
","""event"",""trial"",""time""
""fullscreenenter"",""1"",""4797""
","
","","","-1","","","13","9848","2432","&#9761;","elianto","#3366ff99","-1","-1","1","+10","[]","0","0","2","","","","","","","",""
"pit-trial","45","458056","0.0-2.0-11.1-3.1","battery-v0.2","","""event"",""trial"",""time""
""fullscreenenter"",""1"",""4797""
","
","
","""event"",""trial"",""time""
""fullscreenenter"",""1"",""4797""
","
","","","398.19999980926514","","","13","9848","2432","&#9761;","elianto","#3366ff99","-1"," ","0","+10","[1248.8000001907349]","1","0","2","","","","","","","",""
"pit-trial","46","461210","0.0-2.0-11.1-4.1","battery-v0.2","","""event"",""trial"",""time""
""fullscreenenter"",""1"",""4797""
","
","
","""event"",""trial"",""time""
""fullscreenenter"",""1"",""4797""
","
","","","300.30000019073486","","","13","9848","2432","&#9761;","elianto","#3366ff99","-1"," ","0","0","[1150.7999992370605]","1","0","2","","","","","","","",""
"pit-trial","47","466067","0.0-2.0-11.2-0.2","battery-v0.2","","""event"",""trial"",""time""
""fullscreenenter"",""1"",""4797""
","
","
","""event"",""trial"",""time""
""fullscreenenter"",""1"",""4797""
","
","","","-1","","","13","9848","2432","&#9761;","elianto","#3366ff99","-1","-1","1","+10","[]","0","0","2","","","","","","","",""
"pit-trial","48","469181","0.0-2.0-11.2-1.2","battery-v0.2","","""event"",""trial"",""time""
""fullscreenenter"",""1"",""4797""
","
","
","""event"",""trial"",""time""
""fullscreenenter"",""1"",""4797""
","
","","","260.69999980926514","","","13","9848","2432","&#9761;","elianto","#3366ff99","-1"," ","0","0","[1111.8999996185303]","1","0","2","","","","","","","",""
"pit-trial","49","472734","0.0-2.0-11.2-2.2","battery-v0.2","","""event"",""trial"",""time""
""fullscreenenter"",""1"",""4797""
","
","
","""event"",""trial"",""time""
""fullscreenenter"",""1"",""4797""
","
","","","699.5","","","13","9848","2432","&#9761;","elianto","#3366ff99","-1"," ","0","0","[1550.2000007629395]","1","0","2","","","","","","","",""
"pit-trial","50","475863","0.0-2.0-11.2-3.2","battery-v0.2","","""event"",""trial"",""time""
""fullscreenenter"",""1"",""4797""
","
","
","""event"",""trial"",""time""
""fullscreenenter"",""1"",""4797""
","
","","","275","","","13","9848","2432","&#9761;","elianto","#3366ff99","-1"," ","0","+10","[1125.6999998092651]","1","0","2","","","","","","","",""
"pit-trial","51","479516","0.0-2.0-11.2-4.2","battery-v0.2","","""event"",""trial"",""time""
""fullscreenenter"",""1"",""4797""
","
","
","""event"",""trial"",""time""
""fullscreenenter"",""1"",""4797""
","
","","","800.3000001907349","","","13","9848","2432","&#9761;","elianto","#3366ff99","-1"," ","0","0","[529.3000001907349,1650.5]","2","0","2","","","","","","","",""
"pit-trial","52","483115","0.0-2.0-11.3-0.3","battery-v0.2","","""event"",""trial"",""time""
""fullscreenenter"",""1"",""4797""
","
","
","""event"",""trial"",""time""
""fullscreenenter"",""1"",""4797""
","
","","","743.8000001907349","","","13","9848","2432","&#9761;","elianto","#3366ff99","-1"," ","0","0","[1594.1999998092651]","1","0","2","","","","","","","",""
"pit-trial","53","486424","0.0-2.0-11.3-1.3","battery-v0.2","","""event"",""trial"",""time""
""fullscreenenter"",""1"",""4797""
","
","
","""event"",""trial"",""time""
""fullscreenenter"",""1"",""4797""
","
","","","453.29999923706055","","","13","9848","2432","&#9761;","elianto","#3366ff99","-1"," ","0","0","[1304.6999998092651]","1","0","2","","","","","","","",""
"pit-trial","54","491278","0.0-2.0-11.3-2.3","battery-v0.2","","""event"",""trial"",""time""
""fullscreenenter"",""1"",""4797""
","
","
","""event"",""trial"",""time""
""fullscreenenter"",""1"",""4797""
","
","","","-1","","","13","9848","2432","&#9761;","elianto","#3366ff99","-1","-1","1","+10","[]","0","0","2","","","","","","","",""
"pit-trial","55","494576","0.0-2.0-11.3-3.3","battery-v0.2","","""event"",""trial"",""time""
""fullscreenenter"",""1"",""4797""
","
","
","""event"",""trial"",""time""
""fullscreenenter"",""1"",""4797""
","
","","","443.5999994277954","","","13","9848","2432","&#9761;","elianto","#3366ff99","-1"," ","0","+10","[1294.6999998092651]","1","0","2","","","","","","","",""
"pit-trial","56","497960","0.0-2.0-11.3-4.3","battery-v0.2","","""event"",""trial"",""time""
""fullscreenenter"",""1"",""4797""
","
","
","""event"",""trial"",""time""
""fullscreenenter"",""1"",""4797""
","
","","","530","","","13","9848","2432","&#9761;","elianto","#3366ff99","-1"," ","0","0","[1380.8000001907349]","1","0","2","","","","","","","",""
"call-function","57","497962","0.0-2.0-12.0","battery-v0.2","","""event"",""trial"",""time""
""fullscreenenter"",""1"",""4797""
","
","
","""event"",""trial"",""time""
""fullscreenenter"",""1"",""4797""
","
","","","","","","","","","","","","","","","","","","","","","","","","","","",""
"pit-instructions","58","551846","0.0-2.0-13.0","battery-v0.2","","""event"",""trial"",""time""
""fullscreenenter"",""1"",""4797""
","
","
","""event"",""trial"",""time""
""fullscreenenter"",""1"",""4797""
","
","","[{""page_index"":0,""viewing_time"":11481},{""page_index"":1,""viewing_time"":16799.5},{""page_index"":2,""viewing_time"":6091.800000190735},{""page_index"":3,""viewing_time"":13310.89999961853},{""page_index"":4,""viewing_time"":6197.5}]","53881.699999809265","","","","","","","","","","","","","","","","","","","","","","","",""
"pit-trial","59","555335","0.0-2.0-14.0-0.0","battery-v0.2","","""event"",""trial"",""time""
""fullscreenenter"",""1"",""4797""
","
","
","""event"",""trial"",""time""
""fullscreenenter"",""1"",""4797""
","
","","","623.3999996185303","","","13","9848","2432","&#9826;","elianto","#f73b6a7A","-1"," ","0","-10","[1480.6999998092651]","1","0","3","","","","","","","",""
"pit-trial","60","560200","0.0-2.0-14.0-1.0","battery-v0.2","","""event"",""trial"",""time""
""fullscreenenter"",""1"",""4797""
","
","
","""event"",""trial"",""time""
""fullscreenenter"",""1"",""4797""
","
","","","-1","","","13","9848","2432","&#9826;","elianto","#f73b6a7A","-1","-1","1","0","[]","0","0","3","","","","","","","",""
"pit-trial","61","563981","0.0-2.0-14.0-2.0","battery-v0.2","","""event"",""trial"",""time""
""fullscreenenter"",""1"",""4797""
","
","
","""event"",""trial"",""time""
""fullscreenenter"",""1"",""4797""
","
","","","925.9000005722046","","","13","9848","2432","&#9826;","elianto","#f73b6a7A","-1"," ","0","-10","[1776.0999994277954]","1","0","3","","","","","","","",""
"pit-trial","62","567178","0.0-2.0-14.0-3.0","battery-v0.2","","""event"",""trial"",""time""
""fullscreenenter"",""1"",""4797""
","
","
","""event"",""trial"",""time""
""fullscreenenter"",""1"",""4797""
","
","","","327.1000003814697","","","13","9848","2432","&#9826;","elianto","#f73b6a7A","-1"," ","0","0","[1189.9000005722046]","1","0","3","","","","","","","",""
"pit-trial","63","572052","0.0-2.0-14.0-4.0","battery-v0.2","","""event"",""trial"",""time""
""fullscreenenter"",""1"",""4797""
","
","
","""event"",""trial"",""time""
""fullscreenenter"",""1"",""4797""
","
","","","-1","","","13","9848","2432","&#9826;","elianto","#f73b6a7A","-1","-1","1","0","[]","0","0","3","","","","","","","",""
"pit-trial","64","576920","0.0-2.0-14.1-0.1","battery-v0.2","","""event"",""trial"",""time""
""fullscreenenter"",""1"",""4797""
","
","
","""event"",""trial"",""time""
""fullscreenenter"",""1"",""4797""
","
","","","-1","","","13","9848","2432","&#9826;","elianto","#f73b6a7A","-1","-1","1","0","[]","0","0","3","","","","","","","",""
"pit-trial","65","581788","0.0-2.0-14.1-1.1","battery-v0.2","","""event"",""trial"",""time""
""fullscreenenter"",""1"",""4797""
","
","
","""event"",""trial"",""time""
""fullscreenenter"",""1"",""4797""
","
","","","-1","","","13","9848","2432","&#9826;","elianto","#f73b6a7A","-1","-1","1","0","[]","0","0","3","","","","","","","",""
"pit-trial","66","586641","0.0-2.0-14.1-2.1","battery-v0.2","","""event"",""trial"",""time""
""fullscreenenter"",""1"",""4797""
","
","
","""event"",""trial"",""time""
""fullscreenenter"",""1"",""4797""
","
","","","-1","","","13","9848","2432","&#9826;","elianto","#f73b6a7A","-1","-1","1","0","[]","0","0","3","","","","","","","",""
"pit-trial","67","591496","0.0-2.0-14.1-3.1","battery-v0.2","","""event"",""trial"",""time""
""fullscreenenter"",""1"",""4797""
","
","
","""event"",""trial"",""time""
""fullscreenenter"",""1"",""4797""
","
","","","2000.6000003814697","","","13","9848","2432","&#9826;","elianto","#f73b6a7A","-1"," ","0","0","[2850.6000003814697]","1","0","3","","","","","","","",""
"pit-trial","68","594935","0.0-2.0-14.1-4.1","battery-v0.2","","""event"",""trial"",""time""
""fullscreenenter"",""1"",""4797""
","
","
","""event"",""trial"",""time""
""fullscreenenter"",""1"",""4797""
","
","","","584.8000001907349","","","13","9848","2432","&#9826;","elianto","#f73b6a7A","-1"," ","0","-10","[1435.6999998092651]","1","0","3","","","","","","","",""
"pit-trial","69","598399","0.0-2.0-14.2-0.2","battery-v0.2","","""event"",""trial"",""time""
""fullscreenenter"",""1"",""4797""
","
","
","""event"",""trial"",""time""
""fullscreenenter"",""1"",""4797""
","
","","","607.6000003814697","","","13","9848","2432","&#9826;","elianto","#f73b6a7A","-1"," ","0","-10","[1458.9000005722046]","1","0","3","","","","","","","",""
"pit-trial","70","603254","0.0-2.0-14.2-1.2","battery-v0.2","","""event"",""trial"",""time""
""fullscreenenter"",""1"",""4797""
","
","
","""event"",""trial"",""time""
""fullscreenenter"",""1"",""4797""
","
","","","-1","","","13","9848","2432","&#9826;","elianto","#f73b6a7A","-1","-1","1","0","[]","0","0","3","","","","","","","",""
"pit-trial","71","608107","0.0-2.0-14.2-2.2","battery-v0.2","","""event"",""trial"",""time""
""fullscreenenter"",""1"",""4797""
","
","
","""event"",""trial"",""time""
""fullscreenenter"",""1"",""4797""
","
","","","-1","","","13","9848","2432","&#9826;","elianto","#f73b6a7A","-1","-1","1","0","[]","0","0","3","","","","","","","",""
"pit-trial","72","612960","0.0-2.0-14.2-3.2","battery-v0.2","","""event"",""trial"",""time""
""fullscreenenter"",""1"",""4797""
","
","
","""event"",""trial"",""time""
""fullscreenenter"",""1"",""4797""
","
","","","-1","","","13","9848","2432","&#9826;","elianto","#f73b6a7A","-1","-1","1","-10","[]","0","0","3","","","","","","","",""
"pit-trial","73","617603","0.0-2.0-14.2-4.2","battery-v0.2","","""event"",""trial"",""time""
""fullscreenenter"",""1"",""4797""
","
","
","""event"",""trial"",""time""
""fullscreenenter"",""1"",""4797""
","
","","","1789.5999994277954","","","13","9848","2432","&#9826;","elianto","#f73b6a7A","-1"," ","0","-10","[2639.7999992370605]","1","0","3","","","","","","","",""
"pit-trial","74","620581","0.0-2.0-14.3-0.3","battery-v0.2","","""event"",""trial"",""time""
""fullscreenenter"",""1"",""4797""
","
","
","""event"",""trial"",""time""
""fullscreenenter"",""1"",""4797""
","
","","","122.40000057220459","","","13","9848","2432","&#9826;","elianto","#f73b6a7A","-1"," ","0","-10","[972.3000001907349]","1","0","3","","","","","","","",""
"pit-trial","75","623588","0.0-2.0-14.3-1.3","battery-v0.2","","""event"",""trial"",""time""
""fullscreenenter"",""1"",""4797""
","
","
","""event"",""trial"",""time""
""fullscreenenter"",""1"",""4797""
","
","","","154.0999994277954","","","13","9848","2432","&#9826;","elianto","#f73b6a7A","-1"," ","0","-10","[1004.1999998092651]","1","0","3","","","","","","","",""
"pit-trial","76","628441","0.0-2.0-14.3-2.3","battery-v0.2","","""event"",""trial"",""time""
""fullscreenenter"",""1"",""4797""
","
","
","""event"",""trial"",""time""
""fullscreenenter"",""1"",""4797""
","
","","","-1","","","13","9848","2432","&#9826;","elianto","#f73b6a7A","-1","-1","1","0","[]","0","0","3","","","","","","","",""
"pit-trial","77","633294","0.0-2.0-14.3-3.3","battery-v0.2","","""event"",""trial"",""time""
""fullscreenenter"",""1"",""4797""
","
","
","""event"",""trial"",""time""
""fullscreenenter"",""1"",""4797""
","
","","","-1","","","13","9848","2432","&#9826;","elianto","#f73b6a7A","-1","-1","1","-10","[]","0","0","3","","","","","","","",""
"pit-trial","78","636932","0.0-2.0-14.3-4.3","battery-v0.2","","""event"",""trial"",""time""
""fullscreenenter"",""1"",""4797""
","
","
","""event"",""trial"",""time""
""fullscreenenter"",""1"",""4797""
","
","","","784.5","","","13","9848","2432","&#9826;","elianto","#f73b6a7A","-1"," ","0","-10","[1635.3000001907349]","1","0","3","","","","","","","",""
"call-function","79","636935","0.0-2.0-15.0","battery-v0.2","","""event"",""trial"",""time""
""fullscreenenter"",""1"",""4797""
","
","
","""event"",""trial"",""time""
""fullscreenenter"",""1"",""4797""
","
","","","","","","","","","","","","","","","","","","","","","","","","","","",""
"pit-instructions","80","673145","0.0-2.0-16.0","battery-v0.2","","""event"",""trial"",""time""
""fullscreenenter"",""1"",""4797""
","
","
","""event"",""trial"",""time""
""fullscreenenter"",""1"",""4797""
","
","","[{""page_index"":0,""viewing_time"":11468},{""page_index"":1,""viewing_time"":14888.60000038147},{""page_index"":2,""viewing_time"":4517.39999961853},{""page_index"":3,""viewing_time"":5333}]","36208","","","","","","","","","","","","","","","","","","","","","","","",""
"pit-trial","81","676490","0.0-2.0-17.0-0.0","battery-v0.2","","""event"",""trial"",""time""
""fullscreenenter"",""1"",""4797""
","
","
","""event"",""trial"",""time""
""fullscreenenter"",""1"",""4797""
","
","","","476.30000019073486","","","13","9848","2432","&#9789;","elianto","#f73b6a7A"," "," ","1","0","[1329.6000003814697]","1","0","4","","","","","","","",""
"pit-trial","82","679720","0.0-2.0-17.0-1.0","battery-v0.2","","""event"",""trial"",""time""
""fullscreenenter"",""1"",""4797""
","
","
","""event"",""trial"",""time""
""fullscreenenter"",""1"",""4797""
","
","","","362.69999980926514","","","13","9848","2432","&#9789;","elianto","#f73b6a7A"," "," ","1","0","[1221.3999996185303]","1","0","4","","","","","","","",""
"pit-trial","83","682912","0.0-2.0-17.0-2.0","battery-v0.2","","""event"",""trial"",""time""
""fullscreenenter"",""1"",""4797""
","
","
","""event"",""trial"",""time""
""fullscreenenter"",""1"",""4797""
","
","","","325.5999994277954","","","13","9848","2432","&#9789;","elianto","#f73b6a7A"," "," ","1","0","[1181.6999998092651]","1","0","4","","","","","","","",""
"pit-trial","84","686140","0.0-2.0-17.0-3.0","battery-v0.2","","""event"",""trial"",""time""
""fullscreenenter"",""1"",""4797""
","
","
","""event"",""trial"",""time""
""fullscreenenter"",""1"",""4797""
","
","","","353.80000019073486","","","13","9848","2432","&#9789;","elianto","#f73b6a7A"," "," ","1","-10","[1215.3000001907349]","1","0","4","","","","","","","",""
"pit-trial","85","689073","0.0-2.0-17.0-4.0","battery-v0.2","","""event"",""trial"",""time""
""fullscreenenter"",""1"",""4797""
","
","
","""event"",""trial"",""time""
""fullscreenenter"",""1"",""4797""
","
","","","62.90000057220459","","","13","9848","2432","&#9789;","elianto","#f73b6a7A"," "," ","1","0","[927.1999998092651]","1","0","4","","","","","","","",""
"pit-trial","86","693011","0.0-2.0-17.1-0.1","battery-v0.2","","""event"",""trial"",""time""
""fullscreenenter"",""1"",""4797""
","
","
","""event"",""trial"",""time""
""fullscreenenter"",""1"",""4797""
","
","","","1067","","","13","9848","2432","&#9789;","elianto","#f73b6a7A"," "," ","1","0","[1927.8000001907349]","1","0","4","","","","","","","",""
"pit-trial","87","697888","0.0-2.0-17.1-1.1","battery-v0.2","","""event"",""trial"",""time""
""fullscreenenter"",""1"",""4797""
","
","
","""event"",""trial"",""time""
""fullscreenenter"",""1"",""4797""
","
","","","-1","","","13","9848","2432","&#9789;","elianto","#f73b6a7A"," ","-1","0","-10","[]","0","0","4","","","","","","","",""
"pit-trial","88","701409","0.0-2.0-17.1-2.1","battery-v0.2","","""event"",""trial"",""time""
""fullscreenenter"",""1"",""4797""
","
","
","""event"",""trial"",""time""
""fullscreenenter"",""1"",""4797""
","
","","","649.3999996185303","","","13","9848","2432","&#9789;","elianto","#f73b6a7A"," "," ","1","0","[1504.1999998092651]","1","0","4","","","","","","","",""
"pit-trial","89","704759","0.0-2.0-17.1-3.1","battery-v0.2","","""event"",""trial"",""time""
""fullscreenenter"",""1"",""4797""
","
","
","""event"",""trial"",""time""
""fullscreenenter"",""1"",""4797""
","
","","","483.1000003814697","","","13","9848","2432","&#9789;","elianto","#f73b6a7A"," "," ","1","-10","[1346.8999996185303]","1","0","4","","","","","","","",""
"pit-trial","90","708027","0.0-2.0-17.1-4.1","battery-v0.2","","""event"",""trial"",""time""
""fullscreenenter"",""1"",""4797""
","
","
","""event"",""trial"",""time""
""fullscreenenter"",""1"",""4797""
","
","","","414.30000019073486","","","13","9848","2432","&#9789;","elianto","#f73b6a7A"," "," ","1","0","[1264.9000005722046]","1","0","4","","","","","","","",""
"pit-trial","91","711303","0.0-2.0-17.2-0.2","battery-v0.2","","""event"",""trial"",""time""
""fullscreenenter"",""1"",""4797""
","
","
","""event"",""trial"",""time""
""fullscreenenter"",""1"",""4797""
","
","","","420.0999994277954","","","13","9848","2432","&#9789;","elianto","#f73b6a7A"," "," ","1","0","[1270.6999998092651]","1","0","4","","","","","","","",""
"pit-trial","92","716172","0.0-2.0-17.2-1.2","battery-v0.2","","""event"",""trial"",""time""
""fullscreenenter"",""1"",""4797""
","
","
","""event"",""trial"",""time""
""fullscreenenter"",""1"",""4797""
","
","","","-1","","","13","9848","2432","&#9789;","elianto","#f73b6a7A"," ","-1","0","-10","[3189.3999996185303]","1","0","4","","","","","","","",""
"pit-trial","93","721026","0.0-2.0-17.2-2.2","battery-v0.2","","""event"",""trial"",""time""
""fullscreenenter"",""1"",""4797""
","
","
","""event"",""trial"",""time""
""fullscreenenter"",""1"",""4797""
","
","","","-1","","","13","9848","2432","&#9789;","elianto","#f73b6a7A"," ","-1","0","-10","[3759.9000005722046]","1","0","4","","","","","","","",""
"pit-trial","94","725479","0.0-2.0-17.2-3.2","battery-v0.2","","""event"",""trial"",""time""
""fullscreenenter"",""1"",""4797""
","
","
","""event"",""trial"",""time""
""fullscreenenter"",""1"",""4797""
","
","","","1599.5999994277954","","","13","9848","2432","&#9789;","elianto","#f73b6a7A"," "," ","1","-10","[2449.5999994277954]","1","0","4","","","","","","","",""
"pit-trial","95","728679","0.0-2.0-17.2-4.2","battery-v0.2","","""event"",""trial"",""time""
""fullscreenenter"",""1"",""4797""
","
","
","""event"",""trial"",""time""
""fullscreenenter"",""1"",""4797""
","
","","","346.80000019073486","","","13","9848","2432","&#9789;","elianto","#f73b6a7A"," "," ","1","0","[1197.3000001907349]","1","0","4","","","","","","","",""
"pit-trial","96","731937","0.0-2.0-17.3-0.3","battery-v0.2","","""event"",""trial"",""time""
""fullscreenenter"",""1"",""4797""
","
","
","""event"",""trial"",""time""
""fullscreenenter"",""1"",""4797""
","
","","","403.80000019073486","","","13","9848","2432","&#9789;","elianto","#f73b6a7A"," "," ","1","0","[1254.6999998092651]","1","0","4","","","","","","","",""
"pit-trial","97","735409","0.0-2.0-17.3-1.3","battery-v0.2","","""event"",""trial"",""time""
""fullscreenenter"",""1"",""4797""
","
","
","""event"",""trial"",""time""
""fullscreenenter"",""1"",""4797""
","
","","","619.7999992370605","","","13","9848","2432","&#9789;","elianto","#f73b6a7A"," "," ","1","0","[1470.8000001907349]","1","0","4","","","","","","","",""
"pit-trial","98","738625","0.0-2.0-17.3-2.3","battery-v0.2","","""event"",""trial"",""time""
""fullscreenenter"",""1"",""4797""
","
","
","""event"",""trial"",""time""
""fullscreenenter"",""1"",""4797""
","
","","","360.5","","","13","9848","2432","&#9789;","elianto","#f73b6a7A"," "," ","1","0","[1211.3000001907349]","1","0","4","","","","","","","",""
"pit-trial","99","741746","0.0-2.0-17.3-3.3","battery-v0.2","","""event"",""trial"",""time""
""fullscreenenter"",""1"",""4797""
","
","
","""event"",""trial"",""time""
""fullscreenenter"",""1"",""4797""
","
","","","268.5","","","13","9848","2432","&#9789;","elianto","#f73b6a7A"," "," ","1","-10","[1118.3999996185303]","1","0","4","","","","","","","",""
"pit-trial","100","745295","0.0-2.0-17.3-4.3","battery-v0.2","","""event"",""trial"",""time""
""fullscreenenter"",""1"",""4797""
","
","
","""event"",""trial"",""time""
""fullscreenenter"",""1"",""4797""
","
","","","695.6000003814697","","","13","9848","2432","&#9789;","elianto","#f73b6a7A"," "," ","1","0","[1545.7999992370605]","1","0","4","","","","","","","",""
"call-function","101","745298","0.0-2.0-18.0","battery-v0.2","","""event"",""trial"",""time""
""fullscreenenter"",""1"",""4797""
","
","
","""event"",""trial"",""time""
""fullscreenenter"",""1"",""4797""
","
","","","","","","","","","","","","","","","","","","","","","","","","","","",""
"pit-instructions","102","822729","0.0-2.0-19.0","battery-v0.2","","""event"",""trial"",""time""
""fullscreenenter"",""1"",""4797""
","
","
","""event"",""trial"",""time""
""fullscreenenter"",""1"",""4797""
","
","","[{""page_index"":0,""viewing_time"":7959.599999427795},{""page_index"":1,""viewing_time"":7991.60000038147},{""page_index"":2,""viewing_time"":14157.300000190735},{""page_index"":3,""viewing_time"":8611},{""page_index"":4,""viewing_time"":8430.699999809265},{""page_index"":5,""viewing_time"":9170.599999427795},{""page_index"":6,""viewing_time"":9079.10000038147},{""page_index"":7,""viewing_time"":6874.39999961853},{""page_index"":8,""viewing_time"":5157.200000762939}]","77431.89999961853","","","","","","","","","","","","","","","","","","","","","","","",""
"pit-comprehension","103","829604","0.0-2.0-20.0-0.0","battery-v0.2","","""event"",""trial"",""time""
""fullscreenenter"",""1"",""4797""
","
","
","""event"",""trial"",""time""
""fullscreenenter"",""1"",""4797""
","
","","","6871.10000038147","[""SPACE""]","0","13","9848","2432","","","","","","","","","","","","","","","","","","",""
"pit-instructions","104","833475","0.0-2.0-20.0-1.0","battery-v0.2","","""event"",""trial"",""time""
""fullscreenenter"",""1"",""4797""
","
","
","""event"",""trial"",""time""
""fullscreenenter"",""1"",""4797""
","
","","[{""page_index"":0,""viewing_time"":3840.800000190735}]","3841.5999994277954","","","","","","","","","","","","","","","","","","","","","","","",""
"pit-comprehension","105","841788","0.0-2.0-21.0-0.0","battery-v0.2","","""event"",""trial"",""time""
""fullscreenenter"",""1"",""4797""
","
","
","""event"",""trial"",""time""
""fullscreenenter"",""1"",""4797""
","
","","","8309.300000190735","[""10""]","0","13","9848","2432","","","","","","","","","","","","","","","","","","",""
"pit-instructions","106","843903","0.0-2.0-21.0-1.0","battery-v0.2","","""event"",""trial"",""time""
""fullscreenenter"",""1"",""4797""
","
","
","""event"",""trial"",""time""
""fullscreenenter"",""1"",""4797""
","
","","[{""page_index"":0,""viewing_time"":2084.5}]","2084.800000190735","","","","","","","","","","","","","","","","","","","","","","","",""
"pit-comprehension","107","851699","0.0-2.0-22.0-0.0","battery-v0.2","","""event"",""trial"",""time""
""fullscreenenter"",""1"",""4797""
","
","
","""event"",""trial"",""time""
""fullscreenenter"",""1"",""4797""
","
","","","7792.599999427795","[""0""]","0","13","9848","2432","","","","","","","","","","","","","","","","","","",""
"pit-instructions","108","854920","0.0-2.0-22.0-1.0","battery-v0.2","","""event"",""trial"",""time""
""fullscreenenter"",""1"",""4797""
","
","
","""event"",""trial"",""time""
""fullscreenenter"",""1"",""4797""
","
","","[{""page_index"":0,""viewing_time"":3193.8999996185303}]","3194.699999809265","","","","","","","","","","","","","","","","","","","","","","","",""
"pit-comprehension","109","872081","0.0-2.0-23.0-0.0","battery-v0.2","","""event"",""trial"",""time""
""fullscreenenter"",""1"",""4797""
","
","
","""event"",""trial"",""time""
""fullscreenenter"",""1"",""4797""
","
","","","17156.5","[""True""]","0","13","9848","2432","","","","","","","","","","","","","","","","","","",""
"pit-instructions","110","874130","0.0-2.0-23.0-1.0","battery-v0.2","","""event"",""trial"",""time""
""fullscreenenter"",""1"",""4797""
","
","
","""event"",""trial"",""time""
""fullscreenenter"",""1"",""4797""
","
","","[{""page_index"":0,""viewing_time"":2022.1000003814697}]","2022.4000005722046","","","","","","","","","","","","","","","","","","","","","","","",""
"pit-comprehension","111","885298","0.0-2.0-24.0-0.0","battery-v0.2","","""event"",""trial"",""time""
""fullscreenenter"",""1"",""4797""
","
","
","""event"",""trial"",""time""
""fullscreenenter"",""1"",""4797""
","
","","","11165.39999961853","[""True""]","0","13","9848","2432","","","","","","","","","","","","","","","","","","",""
"pit-instructions","112","887138","0.0-2.0-24.0-1.0","battery-v0.2","","""event"",""trial"",""time""
""fullscreenenter"",""1"",""4797""
","
","
","""event"",""trial"",""time""
""fullscreenenter"",""1"",""4797""
","
","","[{""page_index"":0,""viewing_time"":1812.4000005722046}]","1812.9000005722046","","","","","","","","","","","","","","","","","","","","","","","",""
"pit-comprehension","113","896017","0.0-2.0-25.0-0.0","battery-v0.2","","""event"",""trial"",""time""
""fullscreenenter"",""1"",""4797""
","
","
","""event"",""trial"",""time""
""fullscreenenter"",""1"",""4797""
","
","","","8876.300000190735","[""True""]","0","13","9848","2432","","","","","","","","","","","","","","","","","","",""
"pit-instructions","114","897840","0.0-2.0-25.0-1.0","battery-v0.2","","""event"",""trial"",""time""
""fullscreenenter"",""1"",""4797""
","
","
","""event"",""trial"",""time""
""fullscreenenter"",""1"",""4797""
","
","","[{""page_index"":0,""viewing_time"":1798.6000003814697}]","1799.1999998092651","","","","","","","","","","","","","","","","","","","","","","","",""
"pit-comprehension","115","907105","0.0-2.0-26.0-0.0","battery-v0.2","","""event"",""trial"",""time""
""fullscreenenter"",""1"",""4797""
","
","
","""event"",""trial"",""time""
""fullscreenenter"",""1"",""4797""
","
","","","9261.099999427795","[""True""]","1","13","9848","2432","","","","","","","","","","","","","","","","","","",""
"pit-instructions","116","909948","0.0-2.0-26.0-1.0","battery-v0.2","","""event"",""trial"",""time""
""fullscreenenter"",""1"",""4797""
","
","
","""event"",""trial"",""time""
""fullscreenenter"",""1"",""4797""
","
","","[{""page_index"":0,""viewing_time"":2815.800000190735}]","2816.4000005722046","","","","","","","","","","","","","","","","","","","","","","","",""
"pit-instructions","117","911930","0.0-2.0-26.0-2.0-0.0","battery-v0.2","","""event"",""trial"",""time""
""fullscreenenter"",""1"",""4797""
","
","
","""event"",""trial"",""time""
""fullscreenenter"",""1"",""4797""
","
","","[{""page_index"":0,""viewing_time"":1979.4000005722046}]","1980.6000003814697","","","","","","","","","","","","","","","","","","","","","","","",""
"pit-comprehension","118","917033","0.0-2.0-26.1-0.1","battery-v0.2","","""event"",""trial"",""time""
""fullscreenenter"",""1"",""4797""
","
","
","""event"",""trial"",""time""
""fullscreenenter"",""1"",""4797""
","
","","","5100.700000762939","[""False""]","0","13","9848","2432","","","","","","","","","","","","","","","","","","",""
"pit-instructions","119","918816","0.0-2.0-26.1-1.1","battery-v0.2","","""event"",""trial"",""time""
""fullscreenenter"",""1"",""4797""
","
","
","""event"",""trial"",""time""
""fullscreenenter"",""1"",""4797""
","
","","[{""page_index"":0,""viewing_time"":1756.3000001907349}]","1756.5999994277954","","","","","","","","","","","","","","","","","","","","","","","",""
"pit-instructions","120","937437","0.0-3.0","battery-v0.2","","""event"",""trial"",""time""
""fullscreenenter"",""1"",""4797""
","
","
","""event"",""trial"",""time""
""fullscreenenter"",""1"",""4797""
","
","","[{""page_index"":0,""viewing_time"":6154.800000190735},{""page_index"":1,""viewing_time"":5538.699999809265},{""page_index"":2,""viewing_time"":6924.300000190735}]","18619","","","","","","","","","","","","","","","","","","","","","","","",""
"pit-trial","121","941147","0.0-4.0","battery-v0.2","","""event"",""trial"",""time""
""fullscreenenter"",""1"",""4797""
","
","
","""event"",""trial"",""time""
""fullscreenenter"",""1"",""4797""
","
","","","832.5","","","13","9848","2432","&#9730;","elianto","#3366ff99"," "," ","1","+10","[1694]","1","1","","","9848","1","1","1","win","go","0"
"pit-trial","122","945527","0.0-5.0","battery-v0.2","","""event"",""trial"",""time""
""fullscreenenter"",""1"",""4797""
","
","
","""event"",""trial"",""time""
""fullscreenenter"",""1"",""4797""
","
","","","1508.5999994277954","","","13","9848","2432","&#9728;","elianto","#f73b6a7A","-1"," ","0","0","[2362.5]","1","1","","","9848","2","0","4","lose","no-go","1"
"pit-trial","123","950395","0.0-6.0","battery-v0.2","","""event"",""trial"",""time""
""fullscreenenter"",""1"",""4797""
","
","
","""event"",""trial"",""time""
""fullscreenenter"",""1"",""4797""
","
","","","-1","","","13","9848","2432","&#9752;","elianto","#f73b6a7A"," ","-1","0","-10","[]","0","1","","","9848","3","3","3","lose","go","0"
"pit-trial","124","953994","0.0-7.0","battery-v0.2","","""event"",""trial"",""time""
""fullscreenenter"",""1"",""4797""
","
","
","""event"",""trial"",""time""
""fullscreenenter"",""1"",""4797""
","
","","","715.4000005722046","","","13","9848","2432","&#9733;","elianto","#3366ff99","-1"," ","0","0","[1579.9000005722046]","1","1","","","9848","4","2","2","win","no-go","0"
"pit-trial","125","957756","0.0-8.0","battery-v0.2","","""event"",""trial"",""time""
""fullscreenenter"",""1"",""4797""
","
","
","""event"",""trial"",""time""
""fullscreenenter"",""1"",""4797""
","
","","","887","","","13","9848","2432","&#9733;","elianto","#3366ff99","-1"," ","0","0","[1746.1000003814697]","1","1","","","9848","5","2","2","win","no-go","0"
"pit-trial","126","961887","0.0-9.0","battery-v0.2","","""event"",""trial"",""time""
""fullscreenenter"",""1"",""4797""
","
","
","""event"",""trial"",""time""
""fullscreenenter"",""1"",""4797""
","
","","","1258.3999996185303","","","13","9848","2432","&#9728;","elianto","#f73b6a7A","-1"," ","0","-10","[2114.199999809265]","1","1","","","9848","6","0","4","lose","no-go","0"
"pit-trial","127","966760","0.0-10.0","battery-v0.2","","""event"",""trial"",""time""
""fullscreenenter"",""1"",""4797""
","
","
","""event"",""trial"",""time""
""fullscreenenter"",""1"",""4797""
","
","","","-1","","","13","9848","2432","&#9752;","elianto","#f73b6a7A"," ","-1","0","-10","[]","0","1","","","9848","7","3","3","lose","go","0"
"pit-trial","128","970570","0.0-11.0","battery-v0.2","","""event"",""trial"",""time""
""fullscreenenter"",""1"",""4797""
","
","
","""event"",""trial"",""time""
""fullscreenenter"",""1"",""4797""
","
","","","957.3000001907349","","","13","9848","2432","&#9730;","elianto","#3366ff99"," "," ","1","+10","[1807.3999996185303]","1","1","","","9848","8","1","1","win","go","0"
"pit-trial","129","974879","0.0-12.0","battery-v0.2","","""event"",""trial"",""time""
""fullscreenenter"",""1"",""4797""
","
","
","""event"",""trial"",""time""
""fullscreenenter"",""1"",""4797""
","
","","","1457.5","","","13","9848","2432","&#9728;","elianto","#f73b6a7A","-1"," ","0","-10","[2307.800000190735]","1","1","","","9848","9","0","4","lose","no-go","0"
"pit-trial","130","979733","0.0-13.0","battery-v0.2","","""event"",""trial"",""time""
""fullscreenenter"",""1"",""4797""
","
","
","""event"",""trial"",""time""
""fullscreenenter"",""1"",""4797""
","
","","","-1","","","13","9848","2432","&#9752;","elianto","#f73b6a7A"," ","-1","0","-10","[]","0","1","","","9848","10","3","3","lose","go","0"
"pit-trial","131","983528","0.0-14.0","battery-v0.2","","""event"",""trial"",""time""
""fullscreenenter"",""1"",""4797""
","
","
","""event"",""trial"",""time""
""fullscreenenter"",""1"",""4797""
","
","","","940.8000001907349","","","13","9848","2432","&#9730;","elianto","#3366ff99"," "," ","1","0","[1791.3000001907349]","1","1","","","9848","11","1","1","win","go","1"
"pit-trial","132","988384","0.0-15.0","battery-v0.2","","""event"",""trial"",""time""
""fullscreenenter"",""1"",""4797""
","
","
","""event"",""trial"",""time""
""fullscreenenter"",""1"",""4797""
","
","","","-1","","","13","9848","2432","&#9733;","elianto","#3366ff99","-1","-1","1","+10","[]","0","1","","","9848","12","2","2","win","no-go","0"
"pit-trial","133","993030","0.0-16.0","battery-v0.2","","""event"",""trial"",""time""
""fullscreenenter"",""1"",""4797""
","
","
","""event"",""trial"",""time""
""fullscreenenter"",""1"",""4797""
","
","","","1792.6000003814697","","","13","9848","2432","&#9733;","elianto","#3366ff99","-1"," ","0","0","[2643.800000190735]","1","1","","","9848","13","2","2","win","no-go","0"
"pit-trial","134","997028","0.0-17.0","battery-v0.2","","""event"",""trial"",""time""
""fullscreenenter"",""1"",""4797""
","
","
","""event"",""trial"",""time""
""fullscreenenter"",""1"",""4797""
","
","","","1142.8000001907349","","","13","9848","2432","&#9752;","elianto","#f73b6a7A"," "," ","1","-10","[1994.8999996185303]","1","1","","","9848","14","3","3","lose","go","1"
"pit-trial","135","1001881","0.0-18.0","battery-v0.2","","""event"",""trial"",""time""
""fullscreenenter"",""1"",""4797""
","
","
","""event"",""trial"",""time""
""fullscreenenter"",""1"",""4797""
","
","","","-1","","","13","9848","2432","&#9728;","elianto","#f73b6a7A","-1","-1","1","0","[]","0","1","","","9848","15","0","4","lose","no-go","0"
"pit-trial","136","1006227","0.0-19.0","battery-v0.2","","""event"",""trial"",""time""
""fullscreenenter"",""1"",""4797""
","
","
","""event"",""trial"",""time""
""fullscreenenter"",""1"",""4797""
","
","","","1491.5","","","13","9848","2432","&#9730;","elianto","#3366ff99"," "," ","1","+10","[2342.300000190735]","1","1","","","9848","16","1","1","win","go","0"
"pit-trial","137","1009834","0.0-20.0","battery-v0.2","","""event"",""trial"",""time""
""fullscreenenter"",""1"",""4797""
","
","
","""event"",""trial"",""time""
""fullscreenenter"",""1"",""4797""
","
","","","754","","","13","9848","2432","&#9730;","elianto","#3366ff99"," "," ","1","+10","[1604.1999998092651]","1","1","","","9848","17","1","1","win","go","0"
"pit-trial","138","1013751","0.0-21.0","battery-v0.2","","""event"",""trial"",""time""
""fullscreenenter"",""1"",""4797""
","
","
","""event"",""trial"",""time""
""fullscreenenter"",""1"",""4797""
","
","","","1064.1000003814697","","","13","9848","2432","&#9752;","elianto","#f73b6a7A"," "," ","1","0","[1914.8000001907349]","1","1","","","9848","18","3","3","lose","go","0"
"pit-trial","139","1018606","0.0-22.0","battery-v0.2","","""event"",""trial"",""time""
""fullscreenenter"",""1"",""4797""
","
","
","""event"",""trial"",""time""
""fullscreenenter"",""1"",""4797""
","
","","","-1","","","13","9848","2432","&#9733;","elianto","#3366ff99","-1","-1","1","+10","[]","0","1","","","9848","19","2","2","win","no-go","0"
"pit-trial","140","1022504","0.0-23.0","battery-v0.2","","""event"",""trial"",""time""
""fullscreenenter"",""1"",""4797""
","
","
","""event"",""trial"",""time""
""fullscreenenter"",""1"",""4797""
","
","","","1042.1999998092651","","","13","9848","2432","&#9728;","elianto","#f73b6a7A","-1"," ","0","-10","[1893.1999998092651]","1","1","","","9848","20","0","4","lose","no-go","0"
"pit-instructions","141","1036516","0.0-24.0","battery-v0.2","","""event"",""trial"",""time""
""fullscreenenter"",""1"",""4797""
","
","
","""event"",""trial"",""time""
""fullscreenenter"",""1"",""4797""
","
","","[{""page_index"":0,""viewing_time"":7081.400000572205},{""page_index"":1,""viewing_time"":6927.699999809265}]","14009.800000190735","","","","","","","","","","","","","","","","","","","","","","","",""
"pit-trial","142","1040135","0.0-25.0","battery-v0.2","","""event"",""trial"",""time""
""fullscreenenter"",""1"",""4797""
","
","
","""event"",""trial"",""time""
""fullscreenenter"",""1"",""4797""
","
","","","762.9000005722046","","","13","9848","2432","w","elianto","#f73b6a7A","-1"," ","0","0","[1613.1000003814697]","1","2","","","9848","21","3","4","lose","no-go","1"
"pit-trial","143","1043927","0.0-26.0","battery-v0.2","","""event"",""trial"",""time""
""fullscreenenter"",""1"",""4797""
","
","
","""event"",""trial"",""time""
""fullscreenenter"",""1"",""4797""
","
","","","914.7000007629395","","","13","9848","2432","d","elianto","#3366ff99","-1"," ","0","0","[1776.5]","1","2","","","9848","22","1","2","win","no-go","0"
"pit-trial","144","1048626","0.0-27.0","battery-v0.2","","""event"",""trial"",""time""
""fullscreenenter"",""1"",""4797""
","
","
","""event"",""trial"",""time""
""fullscreenenter"",""1"",""4797""
","
","","","1835.6000003814697","","","13","9848","2432","j","elianto","#f73b6a7A"," "," ","1","0","[2685.699999809265]","1","2","","","9848","23","0","3","lose","go","0"
"pit-trial","145","1052492","0.0-28.0","battery-v0.2","","""event"",""trial"",""time""
""fullscreenenter"",""1"",""4797""
","
","
","""event"",""trial"",""time""
""fullscreenenter"",""1"",""4797""
","
","","","989.8000001907349","","","13","9848","2432","e","elianto","#f73b6a7A"," "," ","1","0","[1851.1999998092651]","1","2","","","9848","24","2","3","lose","go","0"
"pit-trial","146","1056059","0.0-29.0","battery-v0.2","","""event"",""trial"",""time""
""fullscreenenter"",""1"",""4797""
","
","
","""event"",""trial"",""time""
""fullscreenenter"",""1"",""4797""
","
","","","701.9000005722046","","","13","9848","2432","e","elianto","#f73b6a7A"," "," ","1","0","[1564.3999996185303]","1","2","","","9848","25","2","3","lose","go","0"
"pit-trial","147","1060925","0.0-30.0","battery-v0.2","","""event"",""trial"",""time""
""fullscreenenter"",""1"",""4797""
","
","
","""event"",""trial"",""time""
""fullscreenenter"",""1"",""4797""
","
","","","-1","","","13","9848","2432","w","elianto","#f73b6a7A","-1","-1","1","0","[3057]","1","2","","","9848","26","3","4","lose","no-go","0"
"pit-trial","148","1064545","0.0-31.0","battery-v0.2","","""event"",""trial"",""time""
""fullscreenenter"",""1"",""4797""
","
","
","""event"",""trial"",""time""
""fullscreenenter"",""1"",""4797""
","
","","","752.9000005722046","","","13","9848","2432","j","elianto","#f73b6a7A"," "," ","1","0","[1605]","1","2","","","9848","27","0","3","lose","go","0"
"pit-trial","149","1069398","0.0-32.0","battery-v0.2","","""event"",""trial"",""time""
""fullscreenenter"",""1"",""4797""
","
","
","""event"",""trial"",""time""
""fullscreenenter"",""1"",""4797""
","
","","","-1","","","13","9848","2432","d","elianto","#3366ff99","-1","-1","1","0","[]","0","2","","","9848","28","1","2","win","no-go","1"
"pit-trial","150","1074097","0.0-33.0","battery-v0.2","","""event"",""trial"",""time""
""fullscreenenter"",""1"",""4797""
","
","
","""event"",""trial"",""time""
""fullscreenenter"",""1"",""4797""
","
","","","1845.1999998092651","","","13","9848","2432","d","elianto","#3366ff99","-1"," ","0","0","[2696.199999809265]","1","2","","","9848","29","1","2","win","no-go","0"
"pit-trial","151","1077782","0.0-34.0","battery-v0.2","","""event"",""trial"",""time""
""fullscreenenter"",""1"",""4797""
","
","
","""event"",""trial"",""time""
""fullscreenenter"",""1"",""4797""
","
","","","832.5999994277954","","","13","9848","2432","j","elianto","#f73b6a7A"," "," ","1","0","[1682.5999994277954]","1","2","","","9848","30","0","3","lose","go","0"
"pit-trial","152","1081540","0.0-35.0","battery-v0.2","","""event"",""trial"",""time""
""fullscreenenter"",""1"",""4797""
","
","
","""event"",""trial"",""time""
""fullscreenenter"",""1"",""4797""
","
","","","903.0999994277954","","","13","9848","2432","w","elianto","#f73b6a7A","-1"," ","0","-10","[1754.5]","1","2","","","9848","31","3","4","lose","no-go","0"
"pit-trial","153","1085350","0.0-36.0","battery-v0.2","","""event"",""trial"",""time""
""fullscreenenter"",""1"",""4797""
","
","
","""event"",""trial"",""time""
""fullscreenenter"",""1"",""4797""
","
","","","956.5999994277954","","","13","9848","2432","e","elianto","#f73b6a7A"," "," ","1","0","[1807.3000001907349]","1","2","","","9848","32","2","3","lose","go","0"
"pit-trial","154","1088966","0.0-37.0","battery-v0.2","","""event"",""trial"",""time""
""fullscreenenter"",""1"",""4797""
","
","
","""event"",""trial"",""time""
""fullscreenenter"",""1"",""4797""
","
","","","762","","","13","9848","2432","e","elianto","#f73b6a7A"," "," ","1","0","[1612.5]","1","2","","","9848","33","2","3","lose","go","0"
"pit-trial","155","1092425","0.0-38.0","battery-v0.2","","""event"",""trial"",""time""
""fullscreenenter"",""1"",""4797""
","
","
","""event"",""trial"",""time""
""fullscreenenter"",""1"",""4797""
","
","","","604.3000001907349","","","13","9848","2432","j","elianto","#f73b6a7A"," "," ","1","0","[1454.8999996185303]","1","2","","","9848","34","0","3","lose","go","0"
"pit-trial","156","1097279","0.0-39.0","battery-v0.2","","""event"",""trial"",""time""
""fullscreenenter"",""1"",""4797""
","
","
","""event"",""trial"",""time""
""fullscreenenter"",""1"",""4797""
","
","","","-1","","","13","9848","2432","d","elianto","#3366ff99","-1","-1","1","+10","[]","0","2","","","9848","35","1","2","win","no-go","0"
"pit-trial","157","1102132","0.0-40.0","battery-v0.2","","""event"",""trial"",""time""
""fullscreenenter"",""1"",""4797""
","
","
","""event"",""trial"",""time""
""fullscreenenter"",""1"",""4797""
","
","","","-1","","","13","9848","2432","w","elianto","#f73b6a7A","-1","-1","1","-10","[2901.199999809265]","1","2","","","9848","36","3","4","lose","no-go","1"
"pit-trial","158","1105856","0.0-41.0","battery-v0.2","","""event"",""trial"",""time""
""fullscreenenter"",""1"",""4797""
","
","
","""event"",""trial"",""time""
""fullscreenenter"",""1"",""4797""
","
","","","867.9000005722046","","","13","9848","2432","e","elianto","#f73b6a7A"," "," ","1","0","[1718.9000005722046]","1","2","","","9848","37","2","3","lose","go","0"
"pit-trial","159","1109474","0.0-42.0","battery-v0.2","","""event"",""trial"",""time""
""fullscreenenter"",""1"",""4797""
","
","
","""event"",""trial"",""time""
""fullscreenenter"",""1"",""4797""
","
","","","763.2000007629395","","","13","9848","2432","w","elianto","#f73b6a7A","-1"," ","0","0","[1614.1999998092651]","1","2","","","9848","38","3","4","lose","no-go","1"
"pit-trial","160","1114329","0.0-43.0","battery-v0.2","","""event"",""trial"",""time""
""fullscreenenter"",""1"",""4797""
","
","
","""event"",""trial"",""time""
""fullscreenenter"",""1"",""4797""
","
","","","-1","","","13","9848","2432","d","elianto","#3366ff99","-1","-1","1","+10","[]","0","2","","","9848","39","1","2","win","no-go","0"
"pit-trial","161","1118123","0.0-44.0","battery-v0.2","","""event"",""trial"",""time""
""fullscreenenter"",""1"",""4797""
","
","
","""event"",""trial"",""time""
""fullscreenenter"",""1"",""4797""
","
","","","938.3000001907349","","","13","9848","2432","j","elianto","#f73b6a7A"," "," ","1","0","[1790]","1","2","","","9848","40","0","3","lose","go","0"
"pit-trial","162","1121632","0.0-45.0","battery-v0.2","","""event"",""trial"",""time""
""fullscreenenter"",""1"",""4797""
","
","
","""event"",""trial"",""time""
""fullscreenenter"",""1"",""4797""
","
","","","655.3000001907349","","","13","9848","2432","j","elianto","#f73b6a7A"," "," ","1","0","[1506.3999996185303]","1","2","","","9848","41","0","3","lose","go","0"
"pit-trial","163","1125281","0.0-46.0","battery-v0.2","","""event"",""trial"",""time""
""fullscreenenter"",""1"",""4797""
","
","
","""event"",""trial"",""time""
""fullscreenenter"",""1"",""4797""
","
","","","795.3000001907349","","","13","9848","2432","w","elianto","#f73b6a7A","-1"," ","0","-10","[1646.5]","1","2","","","9848","42","3","4","lose","no-go","0"
"pit-trial","164","1130136","0.0-47.0","battery-v0.2","","""event"",""trial"",""time""
""fullscreenenter"",""1"",""4797""
","
","
","""event"",""trial"",""time""
""fullscreenenter"",""1"",""4797""
","
","","","-1","","","13","9848","2432","d","elianto","#3366ff99","-1","-1","1","+10","[]","0","2","","","9848","43","1","2","win","no-go","0"
"pit-trial","165","1134002","0.0-48.0","battery-v0.2","","""event"",""trial"",""time""
""fullscreenenter"",""1"",""4797""
","
","
","""event"",""trial"",""time""
""fullscreenenter"",""1"",""4797""
","
","","","1010.6999998092651","","","13","9848","2432","e","elianto","#f73b6a7A"," "," ","1","0","[1862.5999994277954]","1","2","","","9848","44","2","3","lose","go","0"
"pit-trial","166","1137615","0.0-49.0","battery-v0.2","","""event"",""trial"",""time""
""fullscreenenter"",""1"",""4797""
","
","
","""event"",""trial"",""time""
""fullscreenenter"",""1"",""4797""
","
","","","759.8999996185303","","","13","9848","2432","j","elianto","#f73b6a7A"," "," ","1","0","[1610.3999996185303]","1","2","","","9848","45","0","3","lose","go","0"
"pit-trial","167","1141103","0.0-50.0","battery-v0.2","","""event"",""trial"",""time""
""fullscreenenter"",""1"",""4797""
","
","
","""event"",""trial"",""time""
""fullscreenenter"",""1"",""4797""
","
","","","633","","","13","9848","2432","e","elianto","#f73b6a7A"," "," ","1","0","[1484.1999998092651]","1","2","","","9848","46","2","3","lose","go","0"
"pit-trial","168","1145957","0.0-51.0","battery-v0.2","","""event"",""trial"",""time""
""fullscreenenter"",""1"",""4797""
","
","
","""event"",""trial"",""time""
""fullscreenenter"",""1"",""4797""
","
","","","-1","","","13","9848","2432","w","elianto","#f73b6a7A","-1","-1","1","0","[]","0","2","","","9848","47","3","4","lose","no-go","0"
"pit-trial","169","1150811","0.0-52.0","battery-v0.2","","""event"",""trial"",""time""
""fullscreenenter"",""1"",""4797""
","
","
","""event"",""trial"",""time""
""fullscreenenter"",""1"",""4797""
","
","","","-1","","","13","9848","2432","d","elianto","#3366ff99","-1","-1","1","+10","[]","0","2","","","9848","48","1","2","win","no-go","0"
"pit-trial","170","1154342","0.0-53.0","battery-v0.2","","""event"",""trial"",""time""
""fullscreenenter"",""1"",""4797""
","
","
","""event"",""trial"",""time""
""fullscreenenter"",""1"",""4797""
","
","","","676.8000001907349","","","13","9848","2432","e","elianto","#f73b6a7A"," "," ","1","0","[1527.3999996185303]","1","2","","","9848","49","2","3","lose","go","0"
"pit-trial","171","1159198","0.0-54.0","battery-v0.2","","""event"",""trial"",""time""
""fullscreenenter"",""1"",""4797""
","
","
","""event"",""trial"",""time""
""fullscreenenter"",""1"",""4797""
","
","","","-1","","","13","9848","2432","w","elianto","#f73b6a7A","-1","-1","1","0","[]","0","2","","","9848","50","3","4","lose","no-go","0"
"pit-trial","172","1162781","0.0-55.0","battery-v0.2","","""event"",""trial"",""time""
""fullscreenenter"",""1"",""4797""
","
","
","""event"",""trial"",""time""
""fullscreenenter"",""1"",""4797""
","
","","","730.4000005722046","","","13","9848","2432","j","elianto","#f73b6a7A"," "," ","1","0","[1581.2000007629395]","1","2","","","9848","51","0","3","lose","go","0"
"pit-trial","173","1167635","0.0-56.0","battery-v0.2","","""event"",""trial"",""time""
""fullscreenenter"",""1"",""4797""
","
","
","""event"",""trial"",""time""
""fullscreenenter"",""1"",""4797""
","
","","","-1","","","13","9848","2432","d","elianto","#3366ff99","-1","-1","1","+10","[]","0","2","","","9848","52","1","2","win","no-go","0"
"pit-trial","174","1171288","0.0-57.0","battery-v0.2","","""event"",""trial"",""time""
""fullscreenenter"",""1"",""4797""
","
","
","""event"",""trial"",""time""
""fullscreenenter"",""1"",""4797""
","
","","","798.3999996185303","","","13","9848","2432","j","elianto","#f73b6a7A"," "," ","1","0","[1649.6999998092651]","1","2","","","9848","53","0","3","lose","go","0"
"pit-trial","175","1176142","0.0-58.0","battery-v0.2","","""event"",""trial"",""time""
""fullscreenenter"",""1"",""4797""
","
","
","""event"",""trial"",""time""
""fullscreenenter"",""1"",""4797""
","
","","","-1","","","13","9848","2432","d","elianto","#3366ff99","-1","-1","1","+10","[]","0","2","","","9848","54","1","2","win","no-go","0"
"pit-trial","176","1179875","0.0-59.0","battery-v0.2","","""event"",""trial"",""time""
""fullscreenenter"",""1"",""4797""
","
","
","""event"",""trial"",""time""
""fullscreenenter"",""1"",""4797""
","
","","","879.8999996185303","","","13","9848","2432","e","elianto","#f73b6a7A"," "," ","1","0","[1730]","1","2","","","9848","55","2","3","lose","go","0"
"pit-trial","177","1184730","0.0-60.0","battery-v0.2","","""event"",""trial"",""time""
""fullscreenenter"",""1"",""4797""
","
","
","""event"",""trial"",""time""
""fullscreenenter"",""1"",""4797""
","
","","","-1","","","13","9848","2432","w","elianto","#f73b6a7A","-1","-1","1","0","[]","0","2","","","9848","56","3","4","lose","no-go","0"
"pit-trial","178","1189584","0.0-61.0","battery-v0.2","","""event"",""trial"",""time""
""fullscreenenter"",""1"",""4797""
","
","
","""event"",""trial"",""time""
""fullscreenenter"",""1"",""4797""
","
","","","-1","","","13","9848","2432","w","elianto","#f73b6a7A","-1","-1","1","0","[]","0","2","","","9848","57","3","4","lose","no-go","0"
"pit-trial","179","1193213","0.0-62.0","battery-v0.2","","""event"",""trial"",""time""
""fullscreenenter"",""1"",""4797""
","
","
","""event"",""trial"",""time""
""fullscreenenter"",""1"",""4797""
","
","","","775.4000005722046","","","13","9848","2432","e","elianto","#f73b6a7A"," "," ","1","-10","[1625.5]","1","2","","","9848","58","2","3","lose","go","1"
"pit-trial","180","1196905","0.0-63.0","battery-v0.2","","""event"",""trial"",""time""
""fullscreenenter"",""1"",""4797""
","
","
","""event"",""trial"",""time""
""fullscreenenter"",""1"",""4797""
","
","","","837.8999996185303","","","13","9848","2432","s","elianto","#3366ff99"," "," ","1","+10","[1688.8999996185303]","1","2","","","9848","59","4","1","win","go","0"
"pit-trial","181","1200861","0.0-64.0","battery-v0.2","","""event"",""trial"",""time""
""fullscreenenter"",""1"",""4797""
","
","
","""event"",""trial"",""time""
""fullscreenenter"",""1"",""4797""
","
","","","1102.6999998092651","","","13","9848","2432","j","elianto","#f73b6a7A"," "," ","1","0","[1953.3999996185303]","1","2","","","9848","60","0","3","lose","go","0"
"pit-trial","182","1204380","0.0-65.0","battery-v0.2","","""event"",""trial"",""time""
""fullscreenenter"",""1"",""4797""
","
","
","""event"",""trial"",""time""
""fullscreenenter"",""1"",""4797""
","
","","","664.2999992370605","","","13","9848","2432","e","elianto","#f73b6a7A"," "," ","1","0","[1515.0999994277954]","1","2","","","9848","61","2","3","lose","go","0"
"pit-trial","183","1209234","0.0-66.0","battery-v0.2","","""event"",""trial"",""time""
""fullscreenenter"",""1"",""4797""
","
","
","""event"",""trial"",""time""
""fullscreenenter"",""1"",""4797""
","
","","","-1","","","13","9848","2432","w","elianto","#f73b6a7A","-1","-1","1","-10","[]","0","2","","","9848","62","3","4","lose","no-go","1"
"pit-trial","184","1212961","0.0-67.0","battery-v0.2","","""event"",""trial"",""time""
""fullscreenenter"",""1"",""4797""
","
","
","""event"",""trial"",""time""
""fullscreenenter"",""1"",""4797""
","
","","","872.2000007629395","","","13","9848","2432","s","elianto","#3366ff99"," "," ","1","+10","[1723.3000001907349]","1","2","","","9848","63","4","1","win","go","0"
"pit-trial","185","1217815","0.0-68.0","battery-v0.2","","""event"",""trial"",""time""
""fullscreenenter"",""1"",""4797""
","
","
","""event"",""trial"",""time""
""fullscreenenter"",""1"",""4797""
","
","","","-1","","","13","9848","2432","d","elianto","#3366ff99","-1","-1","1","+10","[]","0","2","","","9848","64","1","2","win","no-go","0"
"pit-trial","186","1222669","0.0-69.0","battery-v0.2","","""event"",""trial"",""time""
""fullscreenenter"",""1"",""4797""
","
","
","""event"",""trial"",""time""
""fullscreenenter"",""1"",""4797""
","
","","","-1","","","13","9848","2432","w","elianto","#f73b6a7A","-1","-1","1","0","[]","0","2","","","9848","65","3","4","lose","no-go","0"
"pit-trial","187","1227425","0.0-70.0","battery-v0.2","","""event"",""trial"",""time""
""fullscreenenter"",""1"",""4797""
","
","
","""event"",""trial"",""time""
""fullscreenenter"",""1"",""4797""
","
","","","1901.6000003814697","","","13","9848","2432","s","elianto","#3366ff99"," "," ","1","+10","[2753.699999809265]","1","2","","","9848","66","4","1","win","go","0"
"pit-trial","188","1231543","0.0-71.0","battery-v0.2","","""event"",""trial"",""time""
""fullscreenenter"",""1"",""4797""
","
","
","""event"",""trial"",""time""
""fullscreenenter"",""1"",""4797""
","
","","","1263.6999998092651","","","13","9848","2432","p","elianto","#3366ff99","-1"," ","0","0","[2113.8999996185303]","1","2","","","9848","67","5","2","win","no-go","0"
"pit-trial","189","1236396","0.0-72.0","battery-v0.2","","""event"",""trial"",""time""
""fullscreenenter"",""1"",""4797""
","
","
","""event"",""trial"",""time""
""fullscreenenter"",""1"",""4797""
","
","","","-1","","","13","9848","2432","d","elianto","#3366ff99","-1","-1","1","+10","[]","0","2","","","9848","68","1","2","win","no-go","0"
"pit-trial","190","1240008","0.0-73.0","battery-v0.2","","""event"",""trial"",""time""
""fullscreenenter"",""1"",""4797""
","
","
","""event"",""trial"",""time""
""fullscreenenter"",""1"",""4797""
","
","","","757.4000005722046","","","13","9848","2432","e","elianto","#f73b6a7A"," "," ","1","0","[1608.1000003814697]","1","2","","","9848","69","2","3","lose","go","0"
"pit-trial","191","1243573","0.0-74.0","battery-v0.2","","""event"",""trial"",""time""
""fullscreenenter"",""1"",""4797""
","
","
","""event"",""trial"",""time""
""fullscreenenter"",""1"",""4797""
","
","","","712.5","","","13","9848","2432","p","elianto","#3366ff99","-1"," ","0","+10","[1563]","1","2","","","9848","70","5","2","win","no-go","1"
"pit-trial","192","1248427","0.0-75.0","battery-v0.2","","""event"",""trial"",""time""
""fullscreenenter"",""1"",""4797""
","
","
","""event"",""trial"",""time""
""fullscreenenter"",""1"",""4797""
","
","","","-1","","","13","9848","2432","d","elianto","#3366ff99","-1","-1","1","+10","[]","0","2","","","9848","71","1","2","win","no-go","0"
"pit-trial","193","1252872","0.0-76.0","battery-v0.2","","""event"",""trial"",""time""
""fullscreenenter"",""1"",""4797""
","
","
","""event"",""trial"",""time""
""fullscreenenter"",""1"",""4797""
","
","","","1591.3000001907349","","","13","9848","2432","s","elianto","#3366ff99"," "," ","1","+10","[2441.9000005722046]","1","2","","","9848","72","4","1","win","go","0"
"pit-trial","194","1256406","0.0-77.0","battery-v0.2","","""event"",""trial"",""time""
""fullscreenenter"",""1"",""4797""
","
","
","""event"",""trial"",""time""
""fullscreenenter"",""1"",""4797""
","
","","","679.5","","","13","9848","2432","p","elianto","#3366ff99","-1"," ","0","0","[1530.3999996185303]","1","2","","","9848","73","5","2","win","no-go","0"
"pit-trial","195","1260111","0.0-78.0","battery-v0.2","","""event"",""trial"",""time""
""fullscreenenter"",""1"",""4797""
","
","
","""event"",""trial"",""time""
""fullscreenenter"",""1"",""4797""
","
","","","849.8999996185303","","","13","9848","2432","s","elianto","#3366ff99"," "," ","1","+10","[1701.6999998092651]","1","2","","","9848","74","4","1","win","go","0"
"pit-trial","196","1264965","0.0-79.0","battery-v0.2","","""event"",""trial"",""time""
""fullscreenenter"",""1"",""4797""
","
","
","""event"",""trial"",""time""
""fullscreenenter"",""1"",""4797""
","
","","","-1","","","13","9848","2432","d","elianto","#3366ff99","-1","-1","1","+10","[]","0","2","","","9848","75","1","2","win","no-go","0"
"pit-trial","197","1269820","0.0-80.0","battery-v0.2","","""event"",""trial"",""time""
""fullscreenenter"",""1"",""4797""
","
","
","""event"",""trial"",""time""
""fullscreenenter"",""1"",""4797""
","
","","","-1","","","13","9848","2432","w","elianto","#f73b6a7A","-1","-1","1","-10","[]","0","2","","","9848","76","3","4","lose","no-go","1"
"pit-trial","198","1273647","0.0-81.0","battery-v0.2","","""event"",""trial"",""time""
""fullscreenenter"",""1"",""4797""
","
","
","""event"",""trial"",""time""
""fullscreenenter"",""1"",""4797""
","
","","","972.1999998092651","","","13","9848","2432","p","elianto","#3366ff99","-1"," ","0","0","[1823.1999998092651]","1","2","","","9848","77","5","2","win","no-go","0"
"pit-trial","199","1278501","0.0-82.0","battery-v0.2","","""event"",""trial"",""time""
""fullscreenenter"",""1"",""4797""
","
","
","""event"",""trial"",""time""
""fullscreenenter"",""1"",""4797""
","
","","","-1","","","13","9848","2432","w","elianto","#f73b6a7A","-1","-1","1","0","[]","0","2","","","9848","78","3","4","lose","no-go","0"
"pit-trial","200","1282393","0.0-83.0","battery-v0.2","","""event"",""trial"",""time""
""fullscreenenter"",""1"",""4797""
","
","
","""event"",""trial"",""time""
""fullscreenenter"",""1"",""4797""
","
","","","1040.1000003814697","","","13","9848","2432","s","elianto","#3366ff99"," "," ","1","0","[1890.3000001907349]","1","2","","","9848","79","4","1","win","go","1"
"pit-trial","201","1287248","0.0-84.0","battery-v0.2","","""event"",""trial"",""time""
""fullscreenenter"",""1"",""4797""
","
","
","""event"",""trial"",""time""
""fullscreenenter"",""1"",""4797""
","
","","","-1","","","13","9848","2432","s","elianto","#3366ff99"," ","-1","0","0","[]","0","2","","","9848","80","4","1","win","go","0"
"pit-trial","202","1290853","0.0-85.0","battery-v0.2","","""event"",""trial"",""time""
""fullscreenenter"",""1"",""4797""
","
","
","""event"",""trial"",""time""
""fullscreenenter"",""1"",""4797""
","
","","","751.6999998092651","","","13","9848","2432","p","elianto","#3366ff99","-1"," ","0","0","[1602]","1","2","","","9848","81","5","2","win","no-go","0"
"pit-trial","203","1294563","0.0-86.0","battery-v0.2","","""event"",""trial"",""time""
""fullscreenenter"",""1"",""4797""
","
","
","""event"",""trial"",""time""
""fullscreenenter"",""1"",""4797""
","
","","","856.8999996185303","","","13","9848","2432","a","elianto","#f73b6a7A","-1"," ","0","-10","[1707.6000003814697]","1","2","","","9848","82","7","4","lose","no-go","0"
"pit-trial","204","1298844","0.0-87.0","battery-v0.2","","""event"",""trial"",""time""
""fullscreenenter"",""1"",""4797""
","
","
","""event"",""trial"",""time""
""fullscreenenter"",""1"",""4797""
","
","","","1426.5","","","13","9848","2432","w","elianto","#f73b6a7A","-1"," ","0","-10","[2276.8999996185303]","1","2","","","9848","83","3","4","lose","no-go","0"
"pit-trial","205","1303261","0.0-88.0","battery-v0.2","","""event"",""trial"",""time""
""fullscreenenter"",""1"",""4797""
","
","
","""event"",""trial"",""time""
""fullscreenenter"",""1"",""4797""
","
","","","1563.0999994277954","","","13","9848","2432","s","elianto","#3366ff99"," "," ","1","+10","[2413.5]","1","2","","","9848","84","4","1","win","go","0"
"pit-trial","206","1307072","0.0-89.0","battery-v0.2","","""event"",""trial"",""time""
""fullscreenenter"",""1"",""4797""
","
","
","""event"",""trial"",""time""
""fullscreenenter"",""1"",""4797""
","
","","","958.3000001907349","","","13","9848","2432","p","elianto","#3366ff99","-1"," ","0","0","[1808.5]","1","2","","","9848","85","5","2","win","no-go","0"
"pit-trial","207","1311740","0.0-90.0","battery-v0.2","","""event"",""trial"",""time""
""fullscreenenter"",""1"",""4797""
","
","
","""event"",""trial"",""time""
""fullscreenenter"",""1"",""4797""
","
","","","1815.2999992370605","","","13","9848","2432","g","elianto","#f73b6a7A"," "," ","1","0","[2665.3999996185303]","1","2","","","9848","86","6","3","lose","go","0"
"pit-trial","208","1315901","0.0-91.0","battery-v0.2","","""event"",""trial"",""time""
""fullscreenenter"",""1"",""4797""
","
","
","""event"",""trial"",""time""
""fullscreenenter"",""1"",""4797""
","
","","","1306.1999998092651","","","13","9848","2432","a","elianto","#f73b6a7A","-1"," ","0","-10","[2156.3999996185303]","1","2","","","9848","87","7","4","lose","no-go","0"
"pit-trial","209","1319894","0.0-92.0","battery-v0.2","","""event"",""trial"",""time""
""fullscreenenter"",""1"",""4797""
","
","
","""event"",""trial"",""time""
""fullscreenenter"",""1"",""4797""
","
","","","1139.8000001907349","","","13","9848","2432","s","elianto","#3366ff99"," "," ","1","+10","[1990.1000003814697]","1","2","","","9848","88","4","1","win","go","0"
"pit-trial","210","1324180","0.0-93.0","battery-v0.2","","""event"",""trial"",""time""
""fullscreenenter"",""1"",""4797""
","
","
","""event"",""trial"",""time""
""fullscreenenter"",""1"",""4797""
","
","","","1430.5","","","13","9848","2432","p","elianto","#3366ff99","-1"," ","0","0","[2280.8999996185303]","1","2","","","9848","89","5","2","win","no-go","0"
"pit-trial","211","1328033","0.0-94.0","battery-v0.2","","""event"",""trial"",""time""
""fullscreenenter"",""1"",""4797""
","
","
","""event"",""trial"",""time""
""fullscreenenter"",""1"",""4797""
","
","","","1000.3999996185303","","","13","9848","2432","g","elianto","#f73b6a7A"," "," ","1","0","[1851.1000003814697]","1","2","","","9848","90","6","3","lose","go","0"
"pit-trial","212","1332726","0.0-95.0","battery-v0.2","","""event"",""trial"",""time""
""fullscreenenter"",""1"",""4797""
","
","
","""event"",""trial"",""time""
""fullscreenenter"",""1"",""4797""
","
","","","1838.0999994277954","","","13","9848","2432","a","elianto","#f73b6a7A","-1"," ","0","-10","[2689.199999809265]","1","2","","","9848","91","7","4","lose","no-go","0"
"pit-trial","213","1336641","0.0-96.0","battery-v0.2","","""event"",""trial"",""time""
""fullscreenenter"",""1"",""4797""
","
","
","""event"",""trial"",""time""
""fullscreenenter"",""1"",""4797""
","
","","","1060.8999996185303","","","13","9848","2432","s","elianto","#3366ff99"," "," ","1","+10","[1912]","1","2","","","9848","92","4","1","win","go","0"
"pit-trial","214","1340432","0.0-97.0","battery-v0.2","","""event"",""trial"",""time""
""fullscreenenter"",""1"",""4797""
","
","
","""event"",""trial"",""time""
""fullscreenenter"",""1"",""4797""
","
","","","938","","","13","9848","2432","a","elianto","#f73b6a7A","-1"," ","0","-10","[1789]","1","2","","","9848","93","7","4","lose","no-go","0"
"pit-trial","215","1344200","0.0-98.0","battery-v0.2","","""event"",""trial"",""time""
""fullscreenenter"",""1"",""4797""
","
","
","""event"",""trial"",""time""
""fullscreenenter"",""1"",""4797""
","
","","","913.6000003814697","","","13","9848","2432","p","elianto","#3366ff99","-1"," ","0","0","[1765.2000007629395]","1","2","","","9848","94","5","2","win","no-go","0"
"pit-trial","216","1348521","0.0-99.0","battery-v0.2","","""event"",""trial"",""time""
""fullscreenenter"",""1"",""4797""
","
","
","""event"",""trial"",""time""
""fullscreenenter"",""1"",""4797""
","
","","","1466.6000003814697","","","13","9848","2432","g","elianto","#f73b6a7A"," "," ","1","0","[2316.9000005722046]","1","2","","","9848","95","6","3","lose","go","0"
"pit-trial","217","1352920","0.0-100.0","battery-v0.2","","""event"",""trial"",""time""
""fullscreenenter"",""1"",""4797""
","
","
","""event"",""trial"",""time""
""fullscreenenter"",""1"",""4797""
","
","","","1545.8000001907349","","","13","9848","2432","l","elianto","#3366ff99"," "," ","1","0","[2396.5]","1","2","","","9848","96","8","1","win","go","1"
"pit-trial","218","1357303","0.0-101.0","battery-v0.2","","""event"",""trial"",""time""
""fullscreenenter"",""1"",""4797""
","
","
","""event"",""trial"",""time""
""fullscreenenter"",""1"",""4797""
","
","","","1528.6999998092651","","","13","9848","2432","a","elianto","#f73b6a7A","-1"," ","0","-10","[2379.7999992370605]","1","2","","","9848","97","7","4","lose","no-go","0"
"pit-trial","219","1361421","0.0-102.0","battery-v0.2","","""event"",""trial"",""time""
""fullscreenenter"",""1"",""4797""
","
","
","""event"",""trial"",""time""
""fullscreenenter"",""1"",""4797""
","
","","","1262","","","13","9848","2432","p","elianto","#3366ff99","-1"," ","0","0","[2113.8999996185303]","1","2","","","9848","98","5","2","win","no-go","0"
"pit-trial","220","1366135","0.0-103.0","battery-v0.2","","""event"",""trial"",""time""
""fullscreenenter"",""1"",""4797""
","
","
","""event"",""trial"",""time""
""fullscreenenter"",""1"",""4797""
","
","","","1860.1999998092651","","","13","9848","2432","g","elianto","#f73b6a7A"," "," ","1","-10","[2710.7999992370605]","1","2","","","9848","99","6","3","lose","go","1"
"pit-trial","221","1370989","0.0-104.0","battery-v0.2","","""event"",""trial"",""time""
""fullscreenenter"",""1"",""4797""
","
","
","""event"",""trial"",""time""
""fullscreenenter"",""1"",""4797""
","
","","","-1","","","13","9848","2432","l","elianto","#3366ff99"," ","-1","0","0","[]","0","2","","","9848","100","8","1","win","go","0"
"pit-trial","222","1374879","0.0-105.0","battery-v0.2","","""event"",""trial"",""time""
""fullscreenenter"",""1"",""4797""
","
","
","""event"",""trial"",""time""
""fullscreenenter"",""1"",""4797""
","
","","","1036.5","","","13","9848","2432","p","elianto","#3366ff99","-1"," ","0","0","[1886.6999998092651]","1","2","","","9848","101","5","2","win","no-go","0"
"pit-trial","223","1379595","0.0-106.0","battery-v0.2","","""event"",""trial"",""time""
""fullscreenenter"",""1"",""4797""
","
","
","""event"",""trial"",""time""
""fullscreenenter"",""1"",""4797""
","
","","","1861.9000005722046","","","13","9848","2432","l","elianto","#3366ff99"," "," ","1","+10","[2712.4000005722046]","1","2","","","9848","102","8","1","win","go","0"
"pit-trial","224","1384127","0.0-107.0","battery-v0.2","","""event"",""trial"",""time""
""fullscreenenter"",""1"",""4797""
","
","
","""event"",""trial"",""time""
""fullscreenenter"",""1"",""4797""
","
","","","1678.8000001907349","","","13","9848","2432","u","elianto","#3366ff99"," "," ","1","+10","[2529.2000007629395]","1","2","","","9848","103","9","1","win","go","0"
"pit-trial","225","1388981","0.0-108.0","battery-v0.2","","""event"",""trial"",""time""
""fullscreenenter"",""1"",""4797""
","
","
","""event"",""trial"",""time""
""fullscreenenter"",""1"",""4797""
","
","","","-1","","","13","9848","2432","a","elianto","#f73b6a7A","-1","-1","1","-10","[]","0","2","","","9848","104","7","4","lose","no-go","1"
"pit-trial","226","1393104","0.0-109.0","battery-v0.2","","""event"",""trial"",""time""
""fullscreenenter"",""1"",""4797""
","
","
","""event"",""trial"",""time""
""fullscreenenter"",""1"",""4797""
","
","","","1269.5999994277954","","","13","9848","2432","g","elianto","#f73b6a7A"," "," ","1","0","[2119.699999809265]","1","2","","","9848","105","6","3","lose","go","0"
"pit-trial","227","1396940","0.0-110.0","battery-v0.2","","""event"",""trial"",""time""
""fullscreenenter"",""1"",""4797""
","
","
","""event"",""trial"",""time""
""fullscreenenter"",""1"",""4797""
","
","","","981","","","13","9848","2432","u","elianto","#3366ff99"," "," ","1","+10","[1832.8000001907349]","1","2","","","9848","106","9","1","win","go","0"
"pit-trial","228","1401396","0.0-111.0","battery-v0.2","","""event"",""trial"",""time""
""fullscreenenter"",""1"",""4797""
","
","
","""event"",""trial"",""time""
""fullscreenenter"",""1"",""4797""
","
","","","1601.1999998092651","","","13","9848","2432","s","elianto","#3366ff99"," "," ","1","0","[2452]","1","2","","","9848","107","4","1","win","go","1"
"pit-trial","229","1405215","0.0-112.0","battery-v0.2","","""event"",""trial"",""time""
""fullscreenenter"",""1"",""4797""
","
","
","""event"",""trial"",""time""
""fullscreenenter"",""1"",""4797""
","
","","","964.6999998092651","","","13","9848","2432","l","elianto","#3366ff99"," "," ","1","+10","[1815]","1","2","","","9848","108","8","1","win","go","0"
"pit-trial","230","1409003","0.0-113.0","battery-v0.2","","""event"",""trial"",""time""
""fullscreenenter"",""1"",""4797""
","
","
","""event"",""trial"",""time""
""fullscreenenter"",""1"",""4797""
","
","","","933.8000001907349","","","13","9848","2432","u","elianto","#3366ff99"," "," ","1","0","[1784.6999998092651]","1","2","","","9848","109","9","1","win","go","1"
"pit-trial","231","1412799","0.0-114.0","battery-v0.2","","""event"",""trial"",""time""
""fullscreenenter"",""1"",""4797""
","
","
","""event"",""trial"",""time""
""fullscreenenter"",""1"",""4797""
","
","","","941.3999996185303","","","13","9848","2432","p","elianto","#3366ff99","-1"," ","0","0","[1792.2999992370605]","1","2","","","9848","110","5","2","win","no-go","0"
"pit-trial","232","1416442","0.0-115.0","battery-v0.2","","""event"",""trial"",""time""
""fullscreenenter"",""1"",""4797""
","
","
","""event"",""trial"",""time""
""fullscreenenter"",""1"",""4797""
","
","","","788.5","","","13","9848","2432","l","elianto","#3366ff99"," "," ","1","0","[1639.3000001907349]","1","2","","","9848","111","8","1","win","go","1"
"pit-trial","233","1421297","0.0-116.0","battery-v0.2","","""event"",""trial"",""time""
""fullscreenenter"",""1"",""4797""
","
","
","""event"",""trial"",""time""
""fullscreenenter"",""1"",""4797""
","
","","","-1","","","13","9848","2432","g","elianto","#f73b6a7A"," ","-1","0","0","[2938.699999809265,4329.39999961853,4434.799999237061,4826.699999809265]","4","2","","","9848","112","6","3","lose","go","1"
"pit-trial","234","1424802","0.0-117.0","battery-v0.2","","""event"",""trial"",""time""
""fullscreenenter"",""1"",""4797""
","
","
","""event"",""trial"",""time""
""fullscreenenter"",""1"",""4797""
","
","","","649.9000005722046","","","13","9848","2432","l","elianto","#3366ff99"," "," ","1","0","[150.19999980926514,290.5999994277954,455.19999980926514,596.5999994277954,676.3999996185303,1500.3999996185303]","6","2","","","9848","113","8","1","win","go","1"
"pit-trial","235","1428472","0.0-118.0","battery-v0.2","","""event"",""trial"",""time""
""fullscreenenter"",""1"",""4797""
","
","
","""event"",""trial"",""time""
""fullscreenenter"",""1"",""4797""
","
","","","815.2000007629395","","","13","9848","2432","u","elianto","#3366ff99"," "," ","1","+10","[1666.2000007629395]","1","2","","","9848","114","9","1","win","go","0"
"pit-trial","236","1432077","0.0-119.0","battery-v0.2","","""event"",""trial"",""time""
""fullscreenenter"",""1"",""4797""
","
","
","""event"",""trial"",""time""
""fullscreenenter"",""1"",""4797""
","
","","","751.5999994277954","","","13","9848","2432","g","elianto","#f73b6a7A"," "," ","1","0","[1601.9000005722046]","1","2","","","9848","115","6","3","lose","go","0"
"pit-trial","237","1436072","0.0-120.0","battery-v0.2","","""event"",""trial"",""time""
""fullscreenenter"",""1"",""4797""
","
","
","""event"",""trial"",""time""
""fullscreenenter"",""1"",""4797""
","
","","","1139.9000005722046","","","13","9848","2432","p","elianto","#3366ff99","-1"," ","0","0","[1990.8000001907349]","1","2","","","9848","116","5","2","win","no-go","0"
"pit-trial","238","1440926","0.0-121.0","battery-v0.2","","""event"",""trial"",""time""
""fullscreenenter"",""1"",""4797""
","
","
","""event"",""trial"",""time""
""fullscreenenter"",""1"",""4797""
","
","","","-1","","","13","9848","2432","p","elianto","#3366ff99","-1","-1","1","+10","[]","0","2","","","9848","117","5","2","win","no-go","0"
"pit-trial","239","1444669","0.0-122.0","battery-v0.2","","""event"",""trial"",""time""
""fullscreenenter"",""1"",""4797""
","
","
","""event"",""trial"",""time""
""fullscreenenter"",""1"",""4797""
","
","","","888.5999994277954","","","13","9848","2432","u","elianto","#3366ff99"," "," ","1","+10","[1739]","1","2","","","9848","118","9","1","win","go","0"
"pit-trial","240","1449522","0.0-123.0","battery-v0.2","","""event"",""trial"",""time""
""fullscreenenter"",""1"",""4797""
","
","
","""event"",""trial"",""time""
""fullscreenenter"",""1"",""4797""
","
","","","-1","","","13","9848","2432","g","elianto","#f73b6a7A"," ","-1","0","-10","[]","0","2","","","9848","119","6","3","lose","go","0"
"pit-trial","241","1453229","0.0-124.0","battery-v0.2","","""event"",""trial"",""time""
""fullscreenenter"",""1"",""4797""
","
","
","""event"",""trial"",""time""
""fullscreenenter"",""1"",""4797""
","
","","","852.1999998092651","","","13","9848","2432","l","elianto","#3366ff99"," "," ","1","+10","[1703.1999998092651]","1","2","","","9848","120","8","1","win","go","0"
"pit-trial","242","1457113","0.0-125.0","battery-v0.2","","""event"",""trial"",""time""
""fullscreenenter"",""1"",""4797""
","
","
","""event"",""trial"",""time""
""fullscreenenter"",""1"",""4797""
","
","","","1029.5","","","13","9848","2432","g","elianto","#f73b6a7A"," "," ","1","-10","[1880]","1","2","","","9848","121","6","3","lose","go","1"
"pit-trial","243","1461193","0.0-126.0","battery-v0.2","","""event"",""trial"",""time""
""fullscreenenter"",""1"",""4797""
","
","
","""event"",""trial"",""time""
""fullscreenenter"",""1"",""4797""
","
","","","1226.1000003814697","","","13","9848","2432","u","elianto","#3366ff99"," "," ","1","+10","[2076.300000190735]","1","2","","","9848","122","9","1","win","go","0"
"pit-trial","244","1465008","0.0-127.0","battery-v0.2","","""event"",""trial"",""time""
""fullscreenenter"",""1"",""4797""
","
","
","""event"",""trial"",""time""
""fullscreenenter"",""1"",""4797""
","
","","","961.1999998092651","","","13","9848","2432","a","elianto","#f73b6a7A","-1"," ","0","-10","[1811.6999998092651]","1","2","","","9848","123","7","4","lose","no-go","0"
"pit-trial","245","1468745","0.0-128.0","battery-v0.2","","""event"",""trial"",""time""
""fullscreenenter"",""1"",""4797""
","
","
","""event"",""trial"",""time""
""fullscreenenter"",""1"",""4797""
","
","","","882.1000003814697","","","13","9848","2432","l","elianto","#3366ff99"," "," ","1","+10","[1734]","1","2","","","9848","124","8","1","win","go","0"
"pit-trial","246","1473600","0.0-129.0","battery-v0.2","","""event"",""trial"",""time""
""fullscreenenter"",""1"",""4797""
","
","
","""event"",""trial"",""time""
""fullscreenenter"",""1"",""4797""
","
","","","-1","","","13","9848","2432","g","elianto","#f73b6a7A"," ","-1","0","-10","[]","0","2","","","9848","125","6","3","lose","go","0"
"pit-trial","247","1477371","0.0-130.0","battery-v0.2","","""event"",""trial"",""time""
""fullscreenenter"",""1"",""4797""
","
","
","""event"",""trial"",""time""
""fullscreenenter"",""1"",""4797""
","
","","","916","","","13","9848","2432","l","elianto","#3366ff99"," "," ","1","+10","[1768]","1","2","","","9848","126","8","1","win","go","0"
"pit-trial","248","1481256","0.0-131.0","battery-v0.2","","""event"",""trial"",""time""
""fullscreenenter"",""1"",""4797""
","
","
","""event"",""trial"",""time""
""fullscreenenter"",""1"",""4797""
","
","","","1032.0999994277954","","","13","9848","2432","u","elianto","#3366ff99"," "," ","1","+10","[1882.3000001907349]","1","2","","","9848","127","9","1","win","go","0"
"pit-trial","249","1485677","0.0-132.0","battery-v0.2","","""event"",""trial"",""time""
""fullscreenenter"",""1"",""4797""
","
","
","""event"",""trial"",""time""
""fullscreenenter"",""1"",""4797""
","
","","","1567.5","","","13","9848","2432","a","elianto","#f73b6a7A","-1"," ","0","-10","[2418.300000190735]","1","2","","","9848","128","7","4","lose","no-go","0"
"pit-trial","250","1489202","0.0-133.0","battery-v0.2","","""event"",""trial"",""time""
""fullscreenenter"",""1"",""4797""
","
","
","""event"",""trial"",""time""
""fullscreenenter"",""1"",""4797""
","
","","","668.6000003814697","","","13","9848","2432","l","elianto","#3366ff99"," "," ","1","+10","[1522.3000001907349]","1","2","","","9848","129","8","1","win","go","0"
"pit-trial","251","1493151","0.0-134.0","battery-v0.2","","""event"",""trial"",""time""
""fullscreenenter"",""1"",""4797""
","
","
","""event"",""trial"",""time""
""fullscreenenter"",""1"",""4797""
","
","","","1095.6000003814697","","","13","9848","2432","a","elianto","#f73b6a7A","-1"," ","0","0","[1945.9000005722046]","1","2","","","9848","130","7","4","lose","no-go","1"
"pit-trial","252","1496963","0.0-135.0","battery-v0.2","","""event"",""trial"",""time""
""fullscreenenter"",""1"",""4797""
","
","
","""event"",""trial"",""time""
""fullscreenenter"",""1"",""4797""
","
","","","957.3999996185303","","","13","9848","2432","u","elianto","#3366ff99"," "," ","1","+10","[1808.1999998092651]","1","2","","","9848","131","9","1","win","go","0"
"pit-trial","253","1501818","0.0-136.0","battery-v0.2","","""event"",""trial"",""time""
""fullscreenenter"",""1"",""4797""
","
","
","""event"",""trial"",""time""
""fullscreenenter"",""1"",""4797""
","
","","","-1","","","13","9848","2432","g","elianto","#f73b6a7A"," ","-1","0","-10","[]","0","2","","","9848","132","6","3","lose","go","0"
"pit-trial","254","1505560","0.0-137.0","battery-v0.2","","""event"",""trial"",""time""
""fullscreenenter"",""1"",""4797""
","
","
","""event"",""trial"",""time""
""fullscreenenter"",""1"",""4797""
","
","","","887.3000001907349","","","13","9848","2432","u","elianto","#3366ff99"," "," ","1","+10","[1737.8999996185303]","1","2","","","9848","133","9","1","win","go","0"
"pit-trial","255","1509325","0.0-138.0","battery-v0.2","","""event"",""trial"",""time""
""fullscreenenter"",""1"",""4797""
","
","
","""event"",""trial"",""time""
""fullscreenenter"",""1"",""4797""
","
","","","911.9000005722046","","","13","9848","2432","g","elianto","#f73b6a7A"," "," ","1","-10","[1762.8000001907349]","1","2","","","9848","134","6","3","lose","go","1"
"pit-trial","256","1513281","0.0-139.0","battery-v0.2","","""event"",""trial"",""time""
""fullscreenenter"",""1"",""4797""
","
","
","""event"",""trial"",""time""
""fullscreenenter"",""1"",""4797""
","
","","","1103.0999994277954","","","13","9848","2432","a","elianto","#f73b6a7A","-1"," ","0","-10","[1953.3999996185303]","1","2","","","9848","135","7","4","lose","no-go","0"
"pit-trial","257","1517011","0.0-140.0","battery-v0.2","","""event"",""trial"",""time""
""fullscreenenter"",""1"",""4797""
","
","
","""event"",""trial"",""time""
""fullscreenenter"",""1"",""4797""
","
","","","876.5","","","13","9848","2432","l","elianto","#3366ff99"," "," ","1","+10","[1727.3000001907349]","1","2","","","9848","136","8","1","win","go","0"
"pit-trial","258","1521487","0.0-141.0","battery-v0.2","","""event"",""trial"",""time""
""fullscreenenter"",""1"",""4797""
","
","
","""event"",""trial"",""time""
""fullscreenenter"",""1"",""4797""
","
","","","1623.3000001907349","","","13","9848","2432","g","elianto","#f73b6a7A"," "," ","1","0","[2473.800000190735]","1","2","","","9848","137","6","3","lose","go","0"
"pit-trial","259","1525279","0.0-142.0","battery-v0.2","","""event"",""trial"",""time""
""fullscreenenter"",""1"",""4797""
","
","
","""event"",""trial"",""time""
""fullscreenenter"",""1"",""4797""
","
","","","936.8000001907349","","","13","9848","2432","a","elianto","#f73b6a7A","-1"," ","0","-10","[1787.8000001907349]","1","2","","","9848","138","7","4","lose","no-go","0"
"pit-trial","260","1529106","0.0-143.0","battery-v0.2","","""event"",""trial"",""time""
""fullscreenenter"",""1"",""4797""
","
","
","""event"",""trial"",""time""
""fullscreenenter"",""1"",""4797""
","
","","","972.8000001907349","","","13","9848","2432","u","elianto","#3366ff99"," "," ","1","+10","[1823.5]","1","2","","","9848","139","9","1","win","go","0"
"pit-trial","261","1532758","0.0-144.0","battery-v0.2","","""event"",""trial"",""time""
""fullscreenenter"",""1"",""4797""
","
","
","""event"",""trial"",""time""
""fullscreenenter"",""1"",""4797""
","
","","","796.5999994277954","","","13","9848","2432","l","elianto","#3366ff99"," "," ","1","+10","[1647.1000003814697]","1","2","","","9848","140","8","1","win","go","0"
"pit-instructions","262","1635240","0.0-145.0","battery-v0.2","","""event"",""trial"",""time""
""fullscreenenter"",""1"",""4797""
","
","
","""event"",""trial"",""time""
""fullscreenenter"",""1"",""4797""
","
","","[{""page_index"":0,""viewing_time"":93483.19999980927},{""page_index"":1,""viewing_time"":8996.900000572205}]","102480.39999961853","","","","","","","","","","","","","","","","","","","","","","","",""
"pit-trial","263","1639035","0.0-146.0","battery-v0.2","","""event"",""trial"",""time""
""fullscreenenter"",""1"",""4797""
","
","
","""event"",""trial"",""time""
""fullscreenenter"",""1"",""4797""
","
","","","935.1000003814697","","","13","9848","2432","m","elianto","#f73b6a7A","-1"," ","0","-10","[1786.8999996185303]","1","3","","","9848","141","0","4","lose","no-go","0"
