"trial_type","trial_index","time_elapsed","internal_node_id","task_version","subject_id","interactions","blur_events","focus_events","fullscreenenter_events","fullscreenexit_events","success","view_history","rt","responses","num_errors","age","subject","participantId","rune","rune_set","hex","correct","choice","accuracy","outcome","keys","total_keys","block","practice","value","sub","trial","stimulus","robot","valence","action","sham"
"pavlovia","0","8","0.0-0.0","battery-v0.2","","""event"",""trial"",""time""
""fullscreenenter"",""1"",""2662""
","
","
","""event"",""trial"",""time""
""fullscreenenter"",""1"",""2662""
","
","","","","","","","","","","","","","","","","","","","","","","","","","","",""
"fullscreen","1","3662","0.0-1.0","battery-v0.2","","""event"",""trial"",""time""
""fullscreenenter"",""1"",""2662""
","
","
","""event"",""trial"",""time""
""fullscreenenter"",""1"",""2662""
","
","true","","","","","","","","","","","","","","","","","","","","","","","","","",""
"pit-instructions","2","11582","0.0-2.0-0.0","battery-v0.2","","""event"",""trial"",""time""
""fullscreenenter"",""1"",""2662""
","
","
","""event"",""trial"",""time""
""fullscreenenter"",""1"",""2662""
","
","","[{""page_index"":0,""viewing_time"":7916.700000000186}]","7917.100000000559","","","","","","","","","","","","","","","","","","","","","","","",""
"pit-comprehension","3","14610","0.0-2.0-1.0-0.0","battery-v0.2","","""event"",""trial"",""time""
""fullscreenenter"",""1"",""2662""
","
","
","""event"",""trial"",""time""
""fullscreenenter"",""1"",""2662""
","
","","","3024.7999999998137","[""shark""]","0","16","14247","5964","","","","","","","","","","","","","","","","","","",""
"pit-instructions","4","16109","0.0-2.0-1.0-1.0","battery-v0.2","","""event"",""trial"",""time""
""fullscreenenter"",""1"",""2662""
","
","
","""event"",""trial"",""time""
""fullscreenenter"",""1"",""2662""
","
","","[{""page_index"":0,""viewing_time"":1462}]","1462.2000000001863","","","","","","","","","","","","","","","","","","","","","","","",""
"pit-comprehension","5","24506","0.0-2.0-2.0-0.0","battery-v0.2","","""event"",""trial"",""time""
""fullscreenenter"",""1"",""2662""
","
","
","""event"",""trial"",""time""
""fullscreenenter"",""1"",""2662""
","
","","","8393.299999999814","[""tiger""]","0","16","14247","5964","","","","","","","","","","","","","","","","","","",""
"pit-instructions","6","25481","0.0-2.0-2.0-1.0","battery-v0.2","","""event"",""trial"",""time""
""fullscreenenter"",""1"",""2662""
","
","
","""event"",""trial"",""time""
""fullscreenenter"",""1"",""2662""
","
","","[{""page_index"":0,""viewing_time"":971.0999999996275}]","971.3999999994412","","","","","","","","","","","","","","","","","","","","","","","",""
"pit-instructions","7","169114","0.0-2.0-3.0","battery-v0.2","","""event"",""trial"",""time""
""fullscreenenter"",""1"",""2662""
","
","
","""event"",""trial"",""time""
""fullscreenenter"",""1"",""2662""
","
","","[{""page_index"":0,""viewing_time"":12137.100000000559},{""page_index"":1,""viewing_time"":7799.700000000186},{""page_index"":2,""viewing_time"":6792.199999999255},{""page_index"":3,""viewing_time"":5352},{""page_index"":4,""viewing_time"":10928.200000000186},{""page_index"":5,""viewing_time"":10119.700000000186},{""page_index"":6,""viewing_time"":5095.5},{""page_index"":7,""viewing_time"":38312.299999999814},{""page_index"":8,""viewing_time"":8695.600000000559},{""page_index"":9,""viewing_time"":9442},{""page_index"":10,""viewing_time"":9600.299999999814},{""page_index"":11,""viewing_time"":7432.0999999996275},{""page_index"":12,""viewing_time"":6246.5},{""page_index"":13,""viewing_time"":5673.200000000186}]","143627.10000000056","","","","","","","","","","","","","","","","","","","","","","","",""
"pit-trial","8","172235","0.0-2.0-4.0-0.0","battery-v0.2","","""event"",""trial"",""time""
""fullscreenenter"",""1"",""2662""
","
","
","""event"",""trial"",""time""
""fullscreenenter"",""1"",""2662""
","
","","","255.20000000018626","","","16","14247","5964","&#9784;","elianto","#FFFFF080"," "," ","1","&#10004","[1106.9000000003725,2466.2000000001863]","2","0","0","","","","","","","",""
"pit-trial","9","175783","0.0-2.0-4.1-0.1","battery-v0.2","","""event"",""trial"",""time""
""fullscreenenter"",""1"",""2662""
","
","
","""event"",""trial"",""time""
""fullscreenenter"",""1"",""2662""
","
","","","672.6000000005588","","","16","14247","5964","&#9784;","elianto","#FFFFF080"," "," ","1","&#10004","[1529.2999999998137]","1","0","0","","","","","","","",""
"pit-trial","10","179318","0.0-2.0-4.2-0.2","battery-v0.2","","""event"",""trial"",""time""
""fullscreenenter"",""1"",""2662""
","
","
","""event"",""trial"",""time""
""fullscreenenter"",""1"",""2662""
","
","","","669","","","16","14247","5964","&#9784;","elianto","#FFFFF080"," "," ","1","&#10004","[1526]","1","0","0","","","","","","","",""
"pit-trial","11","182652","0.0-2.0-4.3-0.3","battery-v0.2","","""event"",""trial"",""time""
""fullscreenenter"",""1"",""2662""
","
","
","""event"",""trial"",""time""
""fullscreenenter"",""1"",""2662""
","
","","","475.5","","","16","14247","5964","&#9784;","elianto","#FFFFF080"," "," ","1","&#10004","[1326.6000000005588]","1","0","0","","","","","","","",""
"pit-trial","12","186030","0.0-2.0-4.4-0.4","battery-v0.2","","""event"",""trial"",""time""
""fullscreenenter"",""1"",""2662""
","
","
","""event"",""trial"",""time""
""fullscreenenter"",""1"",""2662""
","
","","","510.79999999981374","","","16","14247","5964","&#9784;","elianto","#FFFFF080"," "," ","1","&#10004","[1360.9000000003725]","1","0","0","","","","","","","",""
"pit-instructions","13","221447","0.0-2.0-5.0","battery-v0.2","","""event"",""trial"",""time""
""fullscreenenter"",""1"",""2662""
","
","
","""event"",""trial"",""time""
""fullscreenenter"",""1"",""2662""
","
","","[{""page_index"":0,""viewing_time"":13891.299999999814},{""page_index"":1,""viewing_time"":8435.700000000186},{""page_index"":2,""viewing_time"":5432.0999999996275},{""page_index"":3,""viewing_time"":7652.200000000186}]","35411.5","","","","","","","","","","","","","","","","","","","","","","","",""
"pit-trial","14","226310","0.0-2.0-6.0-0.0","battery-v0.2","","""event"",""trial"",""time""
""fullscreenenter"",""1"",""2662""
","
","
","""event"",""trial"",""time""
""fullscreenenter"",""1"",""2662""
","
","","","-1","","","16","14247","5964","&#9854;","elianto","#FFFFF080","-1","-1","1","&#10004","[]","0","0","1","","","","","","","",""
"pit-trial","15","231184","0.0-2.0-6.1-0.1","battery-v0.2","","""event"",""trial"",""time""
""fullscreenenter"",""1"",""2662""
","
","
","""event"",""trial"",""time""
""fullscreenenter"",""1"",""2662""
","
","","","-1","","","16","14247","5964","&#9854;","elianto","#FFFFF080","-1","-1","1","&#10004","[]","0","0","1","","","","","","","",""
"pit-trial","16","236052","0.0-2.0-6.2-0.2","battery-v0.2","","""event"",""trial"",""time""
""fullscreenenter"",""1"",""2662""
","
","
","""event"",""trial"",""time""
""fullscreenenter"",""1"",""2662""
","
","","","-1","","","16","14247","5964","&#9854;","elianto","#FFFFF080","-1","-1","1","&#10004","[]","0","0","1","","","","","","","",""
"pit-trial","17","240929","0.0-2.0-6.3-0.3","battery-v0.2","","""event"",""trial"",""time""
""fullscreenenter"",""1"",""2662""
","
","
","""event"",""trial"",""time""
""fullscreenenter"",""1"",""2662""
","
","","","-1","","","16","14247","5964","&#9854;","elianto","#FFFFF080","-1","-1","1","&#10004","[]","0","0","1","","","","","","","",""
"pit-trial","18","245809","0.0-2.0-6.4-0.4","battery-v0.2","","""event"",""trial"",""time""
""fullscreenenter"",""1"",""2662""
","
","
","""event"",""trial"",""time""
""fullscreenenter"",""1"",""2662""
","
","","","-1","","","16","14247","5964","&#9854;","elianto","#FFFFF080","-1","-1","1","&#10004","[]","0","0","1","","","","","","","",""
"pit-instructions","19","471711","0.0-2.0-7.0","battery-v0.2","","""event"",""trial"",""time""
""fullscreenenter"",""1"",""2662""
","
","
","""event"",""trial"",""time""
""fullscreenenter"",""1"",""2662""
","
","","[{""page_index"":0,""viewing_time"":29697.299999999814},{""page_index"":1,""viewing_time"":40959.89999999944},{""page_index"":2,""viewing_time"":7187.300000000745},{""page_index"":3,""viewing_time"":9504.699999999255},{""page_index"":4,""viewing_time"":5091.800000000745},{""page_index"":5,""viewing_time"":8471.799999999814},{""page_index"":6,""viewing_time"":10419.5},{""page_index"":7,""viewing_time"":8144.5},{""page_index"":8,""viewing_time"":7300.399999999441},{""page_index"":9,""viewing_time"":17996.800000000745},{""page_index"":10,""viewing_time"":9150.599999999627},{""page_index"":11,""viewing_time"":10127.799999999814},{""page_index"":12,""viewing_time"":9544.600000000559},{""page_index"":13,""viewing_time"":11571.899999999441},{""page_index"":14,""viewing_time"":11872},{""page_index"":15,""viewing_time"":11691.400000000373},{""page_index"":16,""viewing_time"":8259.899999999441},{""page_index"":17,""viewing_time"":8904.400000000373}]","225897","","","","","","","","","","","","","","","","","","","","","","","",""
"pit-trial","20","476567","0.0-2.0-8.0-0.0","battery-v0.2","","""event"",""trial"",""time""
""fullscreenenter"",""1"",""2662""
","
","
","""event"",""trial"",""time""
""fullscreenenter"",""1"",""2662""
","
","","","-1","","","16","14247","5964","&#9776;","elianto","#3366ff99"," ","-1","0","0","[]","0","0","1","","","","","","","",""
"pit-trial","21","481430","0.0-2.0-8.0-1.0","battery-v0.2","","""event"",""trial"",""time""
""fullscreenenter"",""1"",""2662""
","
","
","""event"",""trial"",""time""
""fullscreenenter"",""1"",""2662""
","
","","","-1","","","16","14247","5964","&#9776;","elianto","#3366ff99"," ","-1","0","0","[]","0","0","1","","","","","","","",""
"pit-trial","22","484796","0.0-2.0-8.0-2.0","battery-v0.2","","""event"",""trial"",""time""
""fullscreenenter"",""1"",""2662""
","
","
","""event"",""trial"",""time""
""fullscreenenter"",""1"",""2662""
","
","","","500.5","","","16","14247","5964","&#9776;","elianto","#3366ff99"," "," ","1","+10","[1361.5999999996275]","1","0","1","","","","","","","",""
"pit-trial","23","487955","0.0-2.0-8.0-3.0","battery-v0.2","","""event"",""trial"",""time""
""fullscreenenter"",""1"",""2662""
","
","
","""event"",""trial"",""time""
""fullscreenenter"",""1"",""2662""
","
","","","286.6000000005588","","","16","14247","5964","&#9776;","elianto","#3366ff99"," "," ","1","0","[1145.2000000001863]","1","0","1","","","","","","","",""
"pit-trial","24","491211","0.0-2.0-8.0-4.0","battery-v0.2","","""event"",""trial"",""time""
""fullscreenenter"",""1"",""2662""
","
","
","""event"",""trial"",""time""
""fullscreenenter"",""1"",""2662""
","
","","","391.79999999981374","","","16","14247","5964","&#9776;","elianto","#3366ff99"," "," ","1","+10","[1243]","1","0","1","","","","","","","",""
"pit-trial","25","494734","0.0-2.0-8.1-0.1","battery-v0.2","","""event"",""trial"",""time""
""fullscreenenter"",""1"",""2662""
","
","
","""event"",""trial"",""time""
""fullscreenenter"",""1"",""2662""
","
","","","655.2000000001863","","","16","14247","5964","&#9776;","elianto","#3366ff99"," "," ","1","+10","[1507.0999999996275]","1","0","1","","","","","","","",""
"pit-trial","26","498127","0.0-2.0-8.1-1.1","battery-v0.2","","""event"",""trial"",""time""
""fullscreenenter"",""1"",""2662""
","
","
","""event"",""trial"",""time""
""fullscreenenter"",""1"",""2662""
","
","","","524.5999999996275","","","16","14247","5964","&#9776;","elianto","#3366ff99"," "," ","1","+10","[1385.2999999998137]","1","0","1","","","","","","","",""
"pit-trial","27","501240","0.0-2.0-8.1-2.1","battery-v0.2","","""event"",""trial"",""time""
""fullscreenenter"",""1"",""2662""
","
","
","""event"",""trial"",""time""
""fullscreenenter"",""1"",""2662""
","
","","","258.90000000037253","","","16","14247","5964","&#9776;","elianto","#3366ff99"," "," ","1","+10","[1109.2000000001863]","1","0","1","","","","","","","",""
"pit-trial","28","504448","0.0-2.0-8.1-3.1","battery-v0.2","","""event"",""trial"",""time""
""fullscreenenter"",""1"",""2662""
","
","
","""event"",""trial"",""time""
""fullscreenenter"",""1"",""2662""
","
","","","353.70000000018626","","","16","14247","5964","&#9776;","elianto","#3366ff99"," "," ","1","0","[1205]","1","0","1","","","","","","","",""
"pit-trial","29","507648","0.0-2.0-8.1-4.1","battery-v0.2","","""event"",""trial"",""time""
""fullscreenenter"",""1"",""2662""
","
","
","""event"",""trial"",""time""
""fullscreenenter"",""1"",""2662""
","
","","","345.5","","","16","14247","5964","&#9776;","elianto","#3366ff99"," "," ","1","+10","[1196.2999999998137]","1","0","1","","","","","","","",""
"pit-trial","30","510842","0.0-2.0-8.2-0.2","battery-v0.2","","""event"",""trial"",""time""
""fullscreenenter"",""1"",""2662""
","
","
","""event"",""trial"",""time""
""fullscreenenter"",""1"",""2662""
","
","","","337.30000000074506","","","16","14247","5964","&#9776;","elianto","#3366ff99"," "," ","1","+10","[1189.5999999996275]","1","0","1","","","","","","","",""
"pit-trial","31","513984","0.0-2.0-8.2-1.2","battery-v0.2","","""event"",""trial"",""time""
""fullscreenenter"",""1"",""2662""
","
","
","""event"",""trial"",""time""
""fullscreenenter"",""1"",""2662""
","
","","","286.3999999994412","","","16","14247","5964","&#9776;","elianto","#3366ff99"," "," ","1","+10","[1138.2999999998137,1508.5]","2","0","1","","","","","","","",""
"pit-trial","32","517160","0.0-2.0-8.2-2.2","battery-v0.2","","""event"",""trial"",""time""
""fullscreenenter"",""1"",""2662""
","
","
","""event"",""trial"",""time""
""fullscreenenter"",""1"",""2662""
","
","","","321.90000000037253","","","16","14247","5964","&#9776;","elianto","#3366ff99"," "," ","1","+10","[1171.8999999994412]","1","0","1","","","","","","","",""
"pit-trial","33","520521","0.0-2.0-8.2-3.2","battery-v0.2","","""event"",""trial"",""time""
""fullscreenenter"",""1"",""2662""
","
","
","""event"",""trial"",""time""
""fullscreenenter"",""1"",""2662""
","
","","","507.09999999962747","","","16","14247","5964","&#9776;","elianto","#3366ff99"," "," ","1","0","[1357.4000000003725]","1","0","1","","","","","","","",""
"pit-trial","34","523809","0.0-2.0-8.2-4.2","battery-v0.2","","""event"",""trial"",""time""
""fullscreenenter"",""1"",""2662""
","
","
","""event"",""trial"",""time""
""fullscreenenter"",""1"",""2662""
","
","","","433.40000000037253","","","16","14247","5964","&#9776;","elianto","#3366ff99"," "," ","1","+10","[1284.6000000005588]","1","0","1","","","","","","","",""
"call-function","35","523813","0.0-2.0-9.0","battery-v0.2","","""event"",""trial"",""time""
""fullscreenenter"",""1"",""2662""
","
","
","""event"",""trial"",""time""
""fullscreenenter"",""1"",""2662""
","
","","","","","","","","","","","","","","","","","","","","","","","","","","",""
"pit-instructions","36","567943","0.0-2.0-10.0","battery-v0.2","","""event"",""trial"",""time""
""fullscreenenter"",""1"",""2662""
","
","
","""event"",""trial"",""time""
""fullscreenenter"",""1"",""2662""
","
","","[{""page_index"":0,""viewing_time"":7807},{""page_index"":1,""viewing_time"":6811.5999999996275},{""page_index"":2,""viewing_time"":9192.799999999814},{""page_index"":3,""viewing_time"":11218.100000000559},{""page_index"":4,""viewing_time"":9097.899999999441}]","44127.799999999814","","","","","","","","","","","","","","","","","","","","","","","",""
"pit-trial","37","572806","0.0-2.0-11.0-0.0","battery-v0.2","","""event"",""trial"",""time""
""fullscreenenter"",""1"",""2662""
","
","
","""event"",""trial"",""time""
""fullscreenenter"",""1"",""2662""
","
","","","-1","","","16","14247","5964","&#9761;","elianto","#3366ff99","-1","-1","1","+10","[]","0","0","2","","","","","","","",""
"pit-trial","38","577676","0.0-2.0-11.0-1.0","battery-v0.2","","""event"",""trial"",""time""
""fullscreenenter"",""1"",""2662""
","
","
","""event"",""trial"",""time""
""fullscreenenter"",""1"",""2662""
","
","","","-1","","","16","14247","5964","&#9761;","elianto","#3366ff99","-1","-1","1","+10","[]","0","0","2","","","","","","","",""
"pit-trial","39","582545","0.0-2.0-11.0-2.0","battery-v0.2","","""event"",""trial"",""time""
""fullscreenenter"",""1"",""2662""
","
","
","""event"",""trial"",""time""
""fullscreenenter"",""1"",""2662""
","
","","","-1","","","16","14247","5964","&#9761;","elianto","#3366ff99","-1","-1","1","+10","[]","0","0","2","","","","","","","",""
"pit-trial","40","587424","0.0-2.0-11.0-3.0","battery-v0.2","","""event"",""trial"",""time""
""fullscreenenter"",""1"",""2662""
","
","
","""event"",""trial"",""time""
""fullscreenenter"",""1"",""2662""
","
","","","-1","","","16","14247","5964","&#9761;","elianto","#3366ff99","-1","-1","1","0","[]","0","0","2","","","","","","","",""
"pit-trial","41","592300","0.0-2.0-11.0-4.0","battery-v0.2","","""event"",""trial"",""time""
""fullscreenenter"",""1"",""2662""
","
","
","""event"",""trial"",""time""
""fullscreenenter"",""1"",""2662""
","
","","","-1","","","16","14247","5964","&#9761;","elianto","#3366ff99","-1","-1","1","+10","[]","0","0","2","","","","","","","",""
"pit-trial","42","597157","0.0-2.0-11.1-0.1","battery-v0.2","","""event"",""trial"",""time""
""fullscreenenter"",""1"",""2662""
","
","
","""event"",""trial"",""time""
""fullscreenenter"",""1"",""2662""
","
","","","-1","","","16","14247","5964","&#9761;","elianto","#3366ff99","-1","-1","1","+10","[]","0","0","2","","","","","","","",""
"pit-trial","43","602011","0.0-2.0-11.1-1.1","battery-v0.2","","""event"",""trial"",""time""
""fullscreenenter"",""1"",""2662""
","
","
","""event"",""trial"",""time""
""fullscreenenter"",""1"",""2662""
","
","","","-1","","","16","14247","5964","&#9761;","elianto","#3366ff99","-1","-1","1","+10","[]","0","0","2","","","","","","","",""
"pit-trial","44","606866","0.0-2.0-11.1-2.1","battery-v0.2","","""event"",""trial"",""time""
""fullscreenenter"",""1"",""2662""
","
","
","""event"",""trial"",""time""
""fullscreenenter"",""1"",""2662""
","
","","","-1","","","16","14247","5964","&#9761;","elianto","#3366ff99","-1","-1","1","+10","[]","0","0","2","","","","","","","",""
"pit-trial","45","611720","0.0-2.0-11.1-3.1","battery-v0.2","","""event"",""trial"",""time""
""fullscreenenter"",""1"",""2662""
","
","
","""event"",""trial"",""time""
""fullscreenenter"",""1"",""2662""
","
","","","-1","","","16","14247","5964","&#9761;","elianto","#3366ff99","-1","-1","1","0","[]","0","0","2","","","","","","","",""
"pit-trial","46","616575","0.0-2.0-11.1-4.1","battery-v0.2","","""event"",""trial"",""time""
""fullscreenenter"",""1"",""2662""
","
","
","""event"",""trial"",""time""
""fullscreenenter"",""1"",""2662""
","
","","","-1","","","16","14247","5964","&#9761;","elianto","#3366ff99","-1","-1","1","+10","[]","0","0","2","","","","","","","",""
"pit-trial","47","621431","0.0-2.0-11.2-0.2","battery-v0.2","","""event"",""trial"",""time""
""fullscreenenter"",""1"",""2662""
","
","
","""event"",""trial"",""time""
""fullscreenenter"",""1"",""2662""
","
","","","-1","","","16","14247","5964","&#9761;","elianto","#3366ff99","-1","-1","1","+10","[]","0","0","2","","","","","","","",""
"pit-trial","48","626283","0.0-2.0-11.2-1.2","battery-v0.2","","""event"",""trial"",""time""
""fullscreenenter"",""1"",""2662""
","
","
","""event"",""trial"",""time""
""fullscreenenter"",""1"",""2662""
","
","","","-1","","","16","14247","5964","&#9761;","elianto","#3366ff99","-1","-1","1","+10","[]","0","0","2","","","","","","","",""
"pit-trial","49","631137","0.0-2.0-11.2-2.2","battery-v0.2","","""event"",""trial"",""time""
""fullscreenenter"",""1"",""2662""
","
","
","""event"",""trial"",""time""
""fullscreenenter"",""1"",""2662""
","
","","","-1","","","16","14247","5964","&#9761;","elianto","#3366ff99","-1","-1","1","+10","[]","0","0","2","","","","","","","",""
"pit-trial","50","635993","0.0-2.0-11.2-3.2","battery-v0.2","","""event"",""trial"",""time""
""fullscreenenter"",""1"",""2662""
","
","
","""event"",""trial"",""time""
""fullscreenenter"",""1"",""2662""
","
","","","-1","","","16","14247","5964","&#9761;","elianto","#3366ff99","-1","-1","1","0","[]","0","0","2","","","","","","","",""
"pit-trial","51","640846","0.0-2.0-11.2-4.2","battery-v0.2","","""event"",""trial"",""time""
""fullscreenenter"",""1"",""2662""
","
","
","""event"",""trial"",""time""
""fullscreenenter"",""1"",""2662""
","
","","","-1","","","16","14247","5964","&#9761;","elianto","#3366ff99","-1","-1","1","+10","[]","0","0","2","","","","","","","",""
"pit-trial","52","645701","0.0-2.0-11.3-0.3","battery-v0.2","","""event"",""trial"",""time""
""fullscreenenter"",""1"",""2662""
","
","
","""event"",""trial"",""time""
""fullscreenenter"",""1"",""2662""
","
","","","-1","","","16","14247","5964","&#9761;","elianto","#3366ff99","-1","-1","1","+10","[]","0","0","2","","","","","","","",""
"pit-trial","53","650556","0.0-2.0-11.3-1.3","battery-v0.2","","""event"",""trial"",""time""
""fullscreenenter"",""1"",""2662""
","
","
","""event"",""trial"",""time""
""fullscreenenter"",""1"",""2662""
","
","","","-1","","","16","14247","5964","&#9761;","elianto","#3366ff99","-1","-1","1","+10","[]","0","0","2","","","","","","","",""
"pit-trial","54","655410","0.0-2.0-11.3-2.3","battery-v0.2","","""event"",""trial"",""time""
""fullscreenenter"",""1"",""2662""
","
","
","""event"",""trial"",""time""
""fullscreenenter"",""1"",""2662""
","
","","","-1","","","16","14247","5964","&#9761;","elianto","#3366ff99","-1","-1","1","+10","[]","0","0","2","","","","","","","",""
"pit-trial","55","660264","0.0-2.0-11.3-3.3","battery-v0.2","","""event"",""trial"",""time""
""fullscreenenter"",""1"",""2662""
","
","
","""event"",""trial"",""time""
""fullscreenenter"",""1"",""2662""
","
","","","-1","","","16","14247","5964","&#9761;","elianto","#3366ff99","-1","-1","1","0","[]","0","0","2","","","","","","","",""
"pit-trial","56","665119","0.0-2.0-11.3-4.3","battery-v0.2","","""event"",""trial"",""time""
""fullscreenenter"",""1"",""2662""
","
","
","""event"",""trial"",""time""
""fullscreenenter"",""1"",""2662""
","
","","","-1","","","16","14247","5964","&#9761;","elianto","#3366ff99","-1","-1","1","+10","[]","0","0","2","","","","","","","",""
"call-function","57","665122","0.0-2.0-12.0","battery-v0.2","","""event"",""trial"",""time""
""fullscreenenter"",""1"",""2662""
","
","
","""event"",""trial"",""time""
""fullscreenenter"",""1"",""2662""
","
","","","","","","","","","","","","","","","","","","","","","","","","","","",""
"pit-instructions","58","731542","0.0-2.0-13.0","battery-v0.2","","""event"",""trial"",""time""
""fullscreenenter"",""1"",""2662""
","
","
","""event"",""trial"",""time""
""fullscreenenter"",""1"",""2662""
","
","","[{""page_index"":0,""viewing_time"":22773.799999999814},{""page_index"":1,""viewing_time"":19528.099999999627},{""page_index"":2,""viewing_time"":6776.300000000745},{""page_index"":3,""viewing_time"":12080},{""page_index"":4,""viewing_time"":5259.699999999255}]","66418.20000000019","","","","","","","","","","","","","","","","","","","","","","","",""
"pit-trial","59","736413","0.0-2.0-14.0-0.0","battery-v0.2","","""event"",""trial"",""time""
""fullscreenenter"",""1"",""2662""
","
","
","""event"",""trial"",""time""
""fullscreenenter"",""1"",""2662""
","
","","","-1","","","16","14247","5964","&#9826;","elianto","#f73b6a7A","-1","-1","1","0","[]","0","0","3","","","","","","","",""
"pit-trial","60","741281","0.0-2.0-14.0-1.0","battery-v0.2","","""event"",""trial"",""time""
""fullscreenenter"",""1"",""2662""
","
","
","""event"",""trial"",""time""
""fullscreenenter"",""1"",""2662""
","
","","","-1","","","16","14247","5964","&#9826;","elianto","#f73b6a7A","-1","-1","1","0","[]","0","0","3","","","","","","","",""
"pit-trial","61","744504","0.0-2.0-14.0-2.0","battery-v0.2","","""event"",""trial"",""time""
""fullscreenenter"",""1"",""2662""
","
","
","""event"",""trial"",""time""
""fullscreenenter"",""1"",""2662""
","
","","","351.79999999981374","","","16","14247","5964","&#9826;","elianto","#f73b6a7A","-1"," ","0","-10","[1207]","1","0","3","","","","","","","",""
"pit-trial","62","749381","0.0-2.0-14.0-3.0","battery-v0.2","","""event"",""trial"",""time""
""fullscreenenter"",""1"",""2662""
","
","
","""event"",""trial"",""time""
""fullscreenenter"",""1"",""2662""
","
","","","-1","","","16","14247","5964","&#9826;","elianto","#f73b6a7A","-1","-1","1","-10","[]","0","0","3","","","","","","","",""
"pit-trial","63","754247","0.0-2.0-14.0-4.0","battery-v0.2","","""event"",""trial"",""time""
""fullscreenenter"",""1"",""2662""
","
","
","""event"",""trial"",""time""
""fullscreenenter"",""1"",""2662""
","
","","","-1","","","16","14247","5964","&#9826;","elianto","#f73b6a7A","-1","-1","1","0","[]","0","0","3","","","","","","","",""
"pit-trial","64","759126","0.0-2.0-14.1-0.1","battery-v0.2","","""event"",""trial"",""time""
""fullscreenenter"",""1"",""2662""
","
","
","""event"",""trial"",""time""
""fullscreenenter"",""1"",""2662""
","
","","","-1","","","16","14247","5964","&#9826;","elianto","#f73b6a7A","-1","-1","1","0","[]","0","0","3","","","","","","","",""
"pit-trial","65","763981","0.0-2.0-14.1-1.1","battery-v0.2","","""event"",""trial"",""time""
""fullscreenenter"",""1"",""2662""
","
","
","""event"",""trial"",""time""
""fullscreenenter"",""1"",""2662""
","
","","","-1","","","16","14247","5964","&#9826;","elianto","#f73b6a7A","-1","-1","1","0","[]","0","0","3","","","","","","","",""
"pit-trial","66","768834","0.0-2.0-14.1-2.1","battery-v0.2","","""event"",""trial"",""time""
""fullscreenenter"",""1"",""2662""
","
","
","""event"",""trial"",""time""
""fullscreenenter"",""1"",""2662""
","
","","","-1","","","16","14247","5964","&#9826;","elianto","#f73b6a7A","-1","-1","1","0","[]","0","0","3","","","","","","","",""
"pit-trial","67","773696","0.0-2.0-14.1-3.1","battery-v0.2","","""event"",""trial"",""time""
""fullscreenenter"",""1"",""2662""
","
","
","""event"",""trial"",""time""
""fullscreenenter"",""1"",""2662""
","
","","","-1","","","16","14247","5964","&#9826;","elianto","#f73b6a7A","-1","-1","1","-10","[]","0","0","3","","","","","","","",""
"pit-trial","68","778549","0.0-2.0-14.1-4.1","battery-v0.2","","""event"",""trial"",""time""
""fullscreenenter"",""1"",""2662""
","
","
","""event"",""trial"",""time""
""fullscreenenter"",""1"",""2662""
","
","","","-1","","","16","14247","5964","&#9826;","elianto","#f73b6a7A","-1","-1","1","0","[]","0","0","3","","","","","","","",""
"pit-trial","69","783405","0.0-2.0-14.2-0.2","battery-v0.2","","""event"",""trial"",""time""
""fullscreenenter"",""1"",""2662""
","
","
","""event"",""trial"",""time""
""fullscreenenter"",""1"",""2662""
","
","","","-1","","","16","14247","5964","&#9826;","elianto","#f73b6a7A","-1","-1","1","0","[]","0","0","3","","","","","","","",""
"pit-trial","70","788260","0.0-2.0-14.2-1.2","battery-v0.2","","""event"",""trial"",""time""
""fullscreenenter"",""1"",""2662""
","
","
","""event"",""trial"",""time""
""fullscreenenter"",""1"",""2662""
","
","","","-1","","","16","14247","5964","&#9826;","elianto","#f73b6a7A","-1","-1","1","0","[]","0","0","3","","","","","","","",""
"pit-trial","71","793116","0.0-2.0-14.2-2.2","battery-v0.2","","""event"",""trial"",""time""
""fullscreenenter"",""1"",""2662""
","
","
","""event"",""trial"",""time""
""fullscreenenter"",""1"",""2662""
","
","","","-1","","","16","14247","5964","&#9826;","elianto","#f73b6a7A","-1","-1","1","0","[]","0","0","3","","","","","","","",""
"pit-trial","72","797972","0.0-2.0-14.2-3.2","battery-v0.2","","""event"",""trial"",""time""
""fullscreenenter"",""1"",""2662""
","
","
","""event"",""trial"",""time""
""fullscreenenter"",""1"",""2662""
","
","","","-1","","","16","14247","5964","&#9826;","elianto","#f73b6a7A","-1","-1","1","-10","[]","0","0","3","","","","","","","",""
"pit-trial","73","802827","0.0-2.0-14.2-4.2","battery-v0.2","","""event"",""trial"",""time""
""fullscreenenter"",""1"",""2662""
","
","
","""event"",""trial"",""time""
""fullscreenenter"",""1"",""2662""
","
","","","-1","","","16","14247","5964","&#9826;","elianto","#f73b6a7A","-1","-1","1","0","[]","0","0","3","","","","","","","",""
"pit-trial","74","807683","0.0-2.0-14.3-0.3","battery-v0.2","","""event"",""trial"",""time""
""fullscreenenter"",""1"",""2662""
","
","
","""event"",""trial"",""time""
""fullscreenenter"",""1"",""2662""
","
","","","-1","","","16","14247","5964","&#9826;","elianto","#f73b6a7A","-1","-1","1","0","[]","0","0","3","","","","","","","",""
"pit-trial","75","812537","0.0-2.0-14.3-1.3","battery-v0.2","","""event"",""trial"",""time""
""fullscreenenter"",""1"",""2662""
","
","
","""event"",""trial"",""time""
""fullscreenenter"",""1"",""2662""
","
","","","-1","","","16","14247","5964","&#9826;","elianto","#f73b6a7A","-1","-1","1","0","[]","0","0","3","","","","","","","",""
"pit-trial","76","817391","0.0-2.0-14.3-2.3","battery-v0.2","","""event"",""trial"",""time""
""fullscreenenter"",""1"",""2662""
","
","
","""event"",""trial"",""time""
""fullscreenenter"",""1"",""2662""
","
","","","-1","","","16","14247","5964","&#9826;","elianto","#f73b6a7A","-1","-1","1","0","[]","0","0","3","","","","","","","",""
"pit-trial","77","822244","0.0-2.0-14.3-3.3","battery-v0.2","","""event"",""trial"",""time""
""fullscreenenter"",""1"",""2662""
","
","
","""event"",""trial"",""time""
""fullscreenenter"",""1"",""2662""
","
","","","-1","","","16","14247","5964","&#9826;","elianto","#f73b6a7A","-1","-1","1","-10","[]","0","0","3","","","","","","","",""
"pit-trial","78","827098","0.0-2.0-14.3-4.3","battery-v0.2","","""event"",""trial"",""time""
""fullscreenenter"",""1"",""2662""
","
","
","""event"",""trial"",""time""
""fullscreenenter"",""1"",""2662""
","
","","","-1","","","16","14247","5964","&#9826;","elianto","#f73b6a7A","-1","-1","1","0","[]","0","0","3","","","","","","","",""
"call-function","79","827101","0.0-2.0-15.0","battery-v0.2","","""event"",""trial"",""time""
""fullscreenenter"",""1"",""2662""
","
","
","""event"",""trial"",""time""
""fullscreenenter"",""1"",""2662""
","
","","","","","","","","","","","","","","","","","","","","","","","","","","",""
"pit-instructions","80","883430","0.0-2.0-16.0","battery-v0.2","","""event"",""trial"",""time""
""fullscreenenter"",""1"",""2662""
","
","
","""event"",""trial"",""time""
""fullscreenenter"",""1"",""2662""
","
","","[{""page_index"":0,""viewing_time"":30475.699999999255},{""page_index"":1,""viewing_time"":16167.600000000559},{""page_index"":2,""viewing_time"":4060},{""page_index"":3,""viewing_time"":5624.200000000186}]","56328","","","","","","","","","","","","","","","","","","","","","","","",""
"pit-trial","81","887164","0.0-2.0-17.0-0.0","battery-v0.2","","""event"",""trial"",""time""
""fullscreenenter"",""1"",""2662""
","
","
","""event"",""trial"",""time""
""fullscreenenter"",""1"",""2662""
","
","","","869.2000000001863","","","16","14247","5964","&#9789;","elianto","#f73b6a7A"," "," ","1","0","[1719.8999999994412]","1","0","4","","","","","","","",""
"pit-trial","82","890258","0.0-2.0-17.0-1.0","battery-v0.2","","""event"",""trial"",""time""
""fullscreenenter"",""1"",""2662""
","
","
","""event"",""trial"",""time""
""fullscreenenter"",""1"",""2662""
","
","","","227.8999999994412","","","16","14247","5964","&#9789;","elianto","#f73b6a7A"," "," ","1","0","[1078.7999999998137]","1","0","4","","","","","","","",""
"pit-trial","83","893397","0.0-2.0-17.0-2.0","battery-v0.2","","""event"",""trial"",""time""
""fullscreenenter"",""1"",""2662""
","
","
","""event"",""trial"",""time""
""fullscreenenter"",""1"",""2662""
","
","","","270.1000000005588","","","16","14247","5964","&#9789;","elianto","#f73b6a7A"," "," ","1","0","[1121.5999999996275]","1","0","4","","","","","","","",""
"pit-trial","84","896375","0.0-2.0-17.0-3.0","battery-v0.2","","""event"",""trial"",""time""
""fullscreenenter"",""1"",""2662""
","
","
","""event"",""trial"",""time""
""fullscreenenter"",""1"",""2662""
","
","","","109.79999999981374","","","16","14247","5964","&#9789;","elianto","#f73b6a7A"," "," ","1","-10","[967.7000000001863]","1","0","4","","","","","","","",""
"pit-trial","85","899537","0.0-2.0-17.0-4.0","battery-v0.2","","""event"",""trial"",""time""
""fullscreenenter"",""1"",""2662""
","
","
","""event"",""trial"",""time""
""fullscreenenter"",""1"",""2662""
","
","","","283.8999999994412","","","16","14247","5964","&#9789;","elianto","#f73b6a7A"," "," ","1","0","[1143]","1","0","4","","","","","","","",""
"pit-trial","86","902729","0.0-2.0-17.1-0.1","battery-v0.2","","""event"",""trial"",""time""
""fullscreenenter"",""1"",""2662""
","
","
","""event"",""trial"",""time""
""fullscreenenter"",""1"",""2662""
","
","","","336.5","","","16","14247","5964","&#9789;","elianto","#f73b6a7A"," "," ","1","0","[1187]","1","0","4","","","","","","","",""
"pit-trial","87","905737","0.0-2.0-17.1-1.1","battery-v0.2","","""event"",""trial"",""time""
""fullscreenenter"",""1"",""2662""
","
","
","""event"",""trial"",""time""
""fullscreenenter"",""1"",""2662""
","
","","","146.90000000037253","","","16","14247","5964","&#9789;","elianto","#f73b6a7A"," "," ","1","0","[997.5999999996275]","1","0","4","","","","","","","",""
"pit-trial","88","908943","0.0-2.0-17.1-2.1","battery-v0.2","","""event"",""trial"",""time""
""fullscreenenter"",""1"",""2662""
","
","
","""event"",""trial"",""time""
""fullscreenenter"",""1"",""2662""
","
","","","347.20000000018626","","","16","14247","5964","&#9789;","elianto","#f73b6a7A"," "," ","1","0","[1201.2000000001863]","1","0","4","","","","","","","",""
"pit-trial","89","912123","0.0-2.0-17.1-3.1","battery-v0.2","","""event"",""trial"",""time""
""fullscreenenter"",""1"",""2662""
","
","
","""event"",""trial"",""time""
""fullscreenenter"",""1"",""2662""
","
","","","318.40000000037253","","","16","14247","5964","&#9789;","elianto","#f73b6a7A"," "," ","1","-10","[1168.8999999994412]","1","0","4","","","","","","","",""
"pit-trial","90","915295","0.0-2.0-17.1-4.1","battery-v0.2","","""event"",""trial"",""time""
""fullscreenenter"",""1"",""2662""
","
","
","""event"",""trial"",""time""
""fullscreenenter"",""1"",""2662""
","
","","","319.20000000018626","","","16","14247","5964","&#9789;","elianto","#f73b6a7A"," "," ","1","0","[1169.4000000003725]","1","0","4","","","","","","","",""
"pit-trial","91","918544","0.0-2.0-17.2-0.2","battery-v0.2","","""event"",""trial"",""time""
""fullscreenenter"",""1"",""2662""
","
","
","""event"",""trial"",""time""
""fullscreenenter"",""1"",""2662""
","
","","","393.29999999981374","","","16","14247","5964","&#9789;","elianto","#f73b6a7A"," "," ","1","0","[1243.699999999255]","1","0","4","","","","","","","",""
"pit-trial","92","921608","0.0-2.0-17.2-1.2","battery-v0.2","","""event"",""trial"",""time""
""fullscreenenter"",""1"",""2662""
","
","
","""event"",""trial"",""time""
""fullscreenenter"",""1"",""2662""
","
","","","208.29999999981374","","","16","14247","5964","&#9789;","elianto","#f73b6a7A"," "," ","1","0","[1059.8999999994412]","1","0","4","","","","","","","",""
"pit-trial","93","924648","0.0-2.0-17.2-2.2","battery-v0.2","","""event"",""trial"",""time""
""fullscreenenter"",""1"",""2662""
","
","
","""event"",""trial"",""time""
""fullscreenenter"",""1"",""2662""
","
","","","187.1000000005588","","","16","14247","5964","&#9789;","elianto","#f73b6a7A"," "," ","1","0","[1038.199999999255]","1","0","4","","","","","","","",""
"pit-trial","94","927880","0.0-2.0-17.2-3.2","battery-v0.2","","""event"",""trial"",""time""
""fullscreenenter"",""1"",""2662""
","
","
","""event"",""trial"",""time""
""fullscreenenter"",""1"",""2662""
","
","","","376.8999999994412","","","16","14247","5964","&#9789;","elianto","#f73b6a7A"," "," ","1","-10","[1228]","1","0","4","","","","","","","",""
"pit-trial","95","930863","0.0-2.0-17.2-4.2","battery-v0.2","","""event"",""trial"",""time""
""fullscreenenter"",""1"",""2662""
","
","
","""event"",""trial"",""time""
""fullscreenenter"",""1"",""2662""
","
","","","128.70000000018626","","","16","14247","5964","&#9789;","elianto","#f73b6a7A"," "," ","1","0","[978.6999999992549]","1","0","4","","","","","","","",""
"pit-trial","96","934111","0.0-2.0-17.3-0.3","battery-v0.2","","""event"",""trial"",""time""
""fullscreenenter"",""1"",""2662""
","
","
","""event"",""trial"",""time""
""fullscreenenter"",""1"",""2662""
","
","","","393","","","16","14247","5964","&#9789;","elianto","#f73b6a7A"," "," ","1","0","[1243.2000000001863]","1","0","4","","","","","","","",""
"pit-trial","97","937423","0.0-2.0-17.3-1.3","battery-v0.2","","""event"",""trial"",""time""
""fullscreenenter"",""1"",""2662""
","
","
","""event"",""trial"",""time""
""fullscreenenter"",""1"",""2662""
","
","","","459.59999999962747","","","16","14247","5964","&#9789;","elianto","#f73b6a7A"," "," ","1","0","[1310]","1","0","4","","","","","","","",""
"pit-trial","98","940440","0.0-2.0-17.3-2.3","battery-v0.2","","""event"",""trial"",""time""
""fullscreenenter"",""1"",""2662""
","
","
","""event"",""trial"",""time""
""fullscreenenter"",""1"",""2662""
","
","","","162.90000000037253","","","16","14247","5964","&#9789;","elianto","#f73b6a7A"," "," ","1","0","[1013.0999999996275,2588.899999999441]","2","0","4","","","","","","","",""
"pit-trial","99","943815","0.0-2.0-17.3-3.3","battery-v0.2","","""event"",""trial"",""time""
""fullscreenenter"",""1"",""2662""
","
","
","""event"",""trial"",""time""
""fullscreenenter"",""1"",""2662""
","
","","","521.3999999994412","","","16","14247","5964","&#9789;","elianto","#f73b6a7A"," "," ","1","-10","[1372,2422.800000000745]","2","0","4","","","","","","","",""
"pit-trial","100","947038","0.0-2.0-17.3-4.3","battery-v0.2","","""event"",""trial"",""time""
""fullscreenenter"",""1"",""2662""
","
","
","""event"",""trial"",""time""
""fullscreenenter"",""1"",""2662""
","
","","","368.70000000018626","","","16","14247","5964","&#9789;","elianto","#f73b6a7A"," "," ","1","0","[1219.7000000001863]","1","0","4","","","","","","","",""
"call-function","101","947041","0.0-2.0-18.0","battery-v0.2","","""event"",""trial"",""time""
""fullscreenenter"",""1"",""2662""
","
","
","""event"",""trial"",""time""
""fullscreenenter"",""1"",""2662""
","
","","","","","","","","","","","","","","","","","","","","","","","","","","",""
"pit-instructions","102","1065941","0.0-2.0-19.0","battery-v0.2","","""event"",""trial"",""time""
""fullscreenenter"",""1"",""2662""
","
","
","""event"",""trial"",""time""
""fullscreenenter"",""1"",""2662""
","
","","[{""page_index"":0,""viewing_time"":13774.799999999814},{""page_index"":1,""viewing_time"":7772.299999999814},{""page_index"":2,""viewing_time"":14003.400000000373},{""page_index"":3,""viewing_time"":7176.0999999996275},{""page_index"":4,""viewing_time"":19644.300000000745},{""page_index"":5,""viewing_time"":8543.299999999814},{""page_index"":6,""viewing_time"":8500.200000000186},{""page_index"":7,""viewing_time"":34195.5},{""page_index"":8,""viewing_time"":5287.799999999814}]","118898","","","","","","","","","","","","","","","","","","","","","","","",""
"pit-comprehension","103","1070522","0.0-2.0-20.0-0.0","battery-v0.2","","""event"",""trial"",""time""
""fullscreenenter"",""1"",""2662""
","
","
","""event"",""trial"",""time""
""fullscreenenter"",""1"",""2662""
","
","","","4578.299999999814","[""SPACE""]","0","16","14247","5964","","","","","","","","","","","","","","","","","","",""
"pit-instructions","104","1073905","0.0-2.0-20.0-1.0","battery-v0.2","","""event"",""trial"",""time""
""fullscreenenter"",""1"",""2662""
","
","
","""event"",""trial"",""time""
""fullscreenenter"",""1"",""2662""
","
","","[{""page_index"":0,""viewing_time"":3320.5}]","3320.899999999441","","","","","","","","","","","","","","","","","","","","","","","",""
"pit-comprehension","105","1080354","0.0-2.0-21.0-0.0","battery-v0.2","","""event"",""trial"",""time""
""fullscreenenter"",""1"",""2662""
","
","
","""event"",""trial"",""time""
""fullscreenenter"",""1"",""2662""
","
","","","6445.399999999441","[""10""]","0","16","14247","5964","","","","","","","","","","","","","","","","","","",""
"pit-instructions","106","1087057","0.0-2.0-21.0-1.0","battery-v0.2","","""event"",""trial"",""time""
""fullscreenenter"",""1"",""2662""
","
","
","""event"",""trial"",""time""
""fullscreenenter"",""1"",""2662""
","
","","[{""page_index"":0,""viewing_time"":6659.799999999814}]","6660.200000000186","","","","","","","","","","","","","","","","","","","","","","","",""
"pit-comprehension","107","1094622","0.0-2.0-22.0-0.0","battery-v0.2","","""event"",""trial"",""time""
""fullscreenenter"",""1"",""2662""
","
","
","""event"",""trial"",""time""
""fullscreenenter"",""1"",""2662""
","
","","","7560.699999999255","[""0""]","0","16","14247","5964","","","","","","","","","","","","","","","","","","",""
"pit-instructions","108","1098170","0.0-2.0-22.0-1.0","battery-v0.2","","""event"",""trial"",""time""
""fullscreenenter"",""1"",""2662""
","
","
","""event"",""trial"",""time""
""fullscreenenter"",""1"",""2662""
","
","","[{""page_index"":0,""viewing_time"":3502.9000000003725}]","3503.4000000003725","","","","","","","","","","","","","","","","","","","","","","","",""
"pit-comprehension","109","1108778","0.0-2.0-23.0-0.0","battery-v0.2","","""event"",""trial"",""time""
""fullscreenenter"",""1"",""2662""
","
","
","""event"",""trial"",""time""
""fullscreenenter"",""1"",""2662""
","
","","","10604.600000000559","[""True""]","0","16","14247","5964","","","","","","","","","","","","","","","","","","",""
"pit-instructions","110","1110525","0.0-2.0-23.0-1.0","battery-v0.2","","""event"",""trial"",""time""
""fullscreenenter"",""1"",""2662""
","
","
","""event"",""trial"",""time""
""fullscreenenter"",""1"",""2662""
","
","","[{""page_index"":0,""viewing_time"":1701.2000000001863}]","1701.6000000005588","","","","","","","","","","","","","","","","","","","","","","","",""
"pit-comprehension","111","1118218","0.0-2.0-24.0-0.0","battery-v0.2","","""event"",""trial"",""time""
""fullscreenenter"",""1"",""2662""
","
","
","""event"",""trial"",""time""
""fullscreenenter"",""1"",""2662""
","
","","","7689.5","[""True""]","0","16","14247","5964","","","","","","","","","","","","","","","","","","",""
"pit-instructions","112","1119833","0.0-2.0-24.0-1.0","battery-v0.2","","""event"",""trial"",""time""
""fullscreenenter"",""1"",""2662""
","
","
","""event"",""trial"",""time""
""fullscreenenter"",""1"",""2662""
","
","","[{""page_index"":0,""viewing_time"":1585.5}]","1585.699999999255","","","","","","","","","","","","","","","","","","","","","","","",""
"pit-comprehension","113","1128109","0.0-2.0-25.0-0.0","battery-v0.2","","""event"",""trial"",""time""
""fullscreenenter"",""1"",""2662""
","
","
","""event"",""trial"",""time""
""fullscreenenter"",""1"",""2662""
","
","","","8274.400000000373","[""True""]","0","16","14247","5964","","","","","","","","","","","","","","","","","","",""
"pit-instructions","114","1130479","0.0-2.0-25.0-1.0","battery-v0.2","","""event"",""trial"",""time""
""fullscreenenter"",""1"",""2662""
","
","
","""event"",""trial"",""time""
""fullscreenenter"",""1"",""2662""
","
","","[{""page_index"":0,""viewing_time"":2327.9000000003725}]","2328.100000000559","","","","","","","","","","","","","","","","","","","","","","","",""
"pit-comprehension","115","1135512","0.0-2.0-26.0-0.0","battery-v0.2","","""event"",""trial"",""time""
""fullscreenenter"",""1"",""2662""
","
","
","""event"",""trial"",""time""
""fullscreenenter"",""1"",""2662""
","
","","","5029.5999999996275","[""False""]","0","16","14247","5964","","","","","","","","","","","","","","","","","","",""
"pit-instructions","116","1144527","0.0-2.0-26.0-1.0","battery-v0.2","","""event"",""trial"",""time""
""fullscreenenter"",""1"",""2662""
","
","
","""event"",""trial"",""time""
""fullscreenenter"",""1"",""2662""
","
","","[{""page_index"":0,""viewing_time"":8973.100000000559}]","8973.299999999814","","","","","","","","","","","","","","","","","","","","","","","",""
"pit-instructions","117","1168652","0.0-3.0","battery-v0.2","","""event"",""trial"",""time""
""fullscreenenter"",""1"",""2662""
","
","
","""event"",""trial"",""time""
""fullscreenenter"",""1"",""2662""
","
","","[{""page_index"":0,""viewing_time"":4738.200000000186},{""page_index"":1,""viewing_time"":7571.4000000003725},{""page_index"":2,""viewing_time"":11812.299999999814}]","24122.10000000056","","","","","","","","","","","","","","","","","","","","","","","",""
"pit-trial","118","1172757","0.0-4.0","battery-v0.2","","""event"",""trial"",""time""
""fullscreenenter"",""1"",""2662""
","
","
","""event"",""trial"",""time""
""fullscreenenter"",""1"",""2662""
","
","","","1238.199999999255","","","16","14247","5964","&#9752;","elianto","#f73b6a7A"," "," ","1","0","[2099.7999999998137]","1","1","","","14247","1","3","3","lose","go","0"
"pit-trial","119","1177628","0.0-5.0","battery-v0.2","","""event"",""trial"",""time""
""fullscreenenter"",""1"",""2662""
","
","
","""event"",""trial"",""time""
""fullscreenenter"",""1"",""2662""
","
","","","-1","","","16","14247","5964","&#9728;","elianto","#f73b6a7A","-1","-1","1","0","[]","0","1","","","14247","2","0","4","lose","no-go","0"
"pit-trial","120","1181487","0.0-6.0","battery-v0.2","","""event"",""trial"",""time""
""fullscreenenter"",""1"",""2662""
","
","
","""event"",""trial"",""time""
""fullscreenenter"",""1"",""2662""
","
","","","985.2999999998137","","","16","14247","5964","&#9733;","elianto","#3366ff99","-1"," ","0","0","[1847.0999999996275]","1","1","","","14247","3","2","2","win","no-go","0"
"pit-trial","121","1185137","0.0-7.0","battery-v0.2","","""event"",""trial"",""time""
""fullscreenenter"",""1"",""2662""
","
","
","""event"",""trial"",""time""
""fullscreenenter"",""1"",""2662""
","
","","","793.3000000007451","","","16","14247","5964","&#9730;","elianto","#3366ff99"," "," ","1","+10","[1646.1000000005588]","1","1","","","14247","4","1","1","win","go","0"
"pit-trial","122","1189354","0.0-8.0","battery-v0.2","","""event"",""trial"",""time""
""fullscreenenter"",""1"",""2662""
","
","
","""event"",""trial"",""time""
""fullscreenenter"",""1"",""2662""
","
","","","1339.5","","","16","14247","5964","&#9752;","elianto","#f73b6a7A"," "," ","1","0","[2202.5999999996275]","1","1","","","14247","5","3","3","lose","go","0"
"pit-trial","123","1193286","0.0-9.0","battery-v0.2","","""event"",""trial"",""time""
""fullscreenenter"",""1"",""2662""
","
","
","""event"",""trial"",""time""
""fullscreenenter"",""1"",""2662""
","
","","","1063.3999999994412","","","16","14247","5964","&#9730;","elianto","#3366ff99"," "," ","1","0","[1913.7999999998137]","1","1","","","14247","6","1","1","win","go","1"
"pit-trial","124","1198141","0.0-10.0","battery-v0.2","","""event"",""trial"",""time""
""fullscreenenter"",""1"",""2662""
","
","
","""event"",""trial"",""time""
""fullscreenenter"",""1"",""2662""
","
","","","-1","","","16","14247","5964","&#9728;","elianto","#f73b6a7A","-1","-1","1","0","[]","0","1","","","14247","7","0","4","lose","no-go","0"
"pit-trial","125","1202999","0.0-11.0","battery-v0.2","","""event"",""trial"",""time""
""fullscreenenter"",""1"",""2662""
","
","
","""event"",""trial"",""time""
""fullscreenenter"",""1"",""2662""
","
","","","-1","","","16","14247","5964","&#9733;","elianto","#3366ff99","-1","-1","1","+10","[]","0","1","","","14247","8","2","2","win","no-go","0"
"pit-trial","126","1207853","0.0-12.0","battery-v0.2","","""event"",""trial"",""time""
""fullscreenenter"",""1"",""2662""
","
","
","""event"",""trial"",""time""
""fullscreenenter"",""1"",""2662""
","
","","","-1","","","16","14247","5964","&#9728;","elianto","#f73b6a7A","-1","-1","1","0","[]","0","1","","","14247","9","0","4","lose","no-go","0"
"pit-trial","127","1211672","0.0-13.0","battery-v0.2","","""event"",""trial"",""time""
""fullscreenenter"",""1"",""2662""
","
","
","""event"",""trial"",""time""
""fullscreenenter"",""1"",""2662""
","
","","","963.1000000005588","","","16","14247","5964","&#9752;","elianto","#f73b6a7A"," "," ","1","-10","[1815]","1","1","","","14247","10","3","3","lose","go","1"
"pit-trial","128","1216527","0.0-14.0","battery-v0.2","","""event"",""trial"",""time""
""fullscreenenter"",""1"",""2662""
","
","
","""event"",""trial"",""time""
""fullscreenenter"",""1"",""2662""
","
","","","-1","","","16","14247","5964","&#9733;","elianto","#3366ff99","-1","-1","1","+10","[]","0","1","","","14247","11","2","2","win","no-go","0"
"pit-trial","129","1220022","0.0-15.0","battery-v0.2","","""event"",""trial"",""time""
""fullscreenenter"",""1"",""2662""
","
","
","""event"",""trial"",""time""
""fullscreenenter"",""1"",""2662""
","
","","","641.8000000007451","","","16","14247","5964","&#9730;","elianto","#3366ff99"," "," ","1","+10","[1492.2000000001863,2003.8999999994412]","2","1","","","14247","12","1","1","win","go","0"
"pit-trial","130","1223857","0.0-16.0","battery-v0.2","","""event"",""trial"",""time""
""fullscreenenter"",""1"",""2662""
","
","
","""event"",""trial"",""time""
""fullscreenenter"",""1"",""2662""
","
","","","980.1000000005588","","","16","14247","5964","&#9752;","elianto","#f73b6a7A"," "," ","1","0","[1830.7000000001863]","1","1","","","14247","13","3","3","lose","go","0"
"pit-trial","131","1228712","0.0-17.0","battery-v0.2","","""event"",""trial"",""time""
""fullscreenenter"",""1"",""2662""
","
","
","""event"",""trial"",""time""
""fullscreenenter"",""1"",""2662""
","
","","","-1","","","16","14247","5964","&#9728;","elianto","#f73b6a7A","-1","-1","1","-10","[]","0","1","","","14247","14","0","4","lose","no-go","1"
"pit-trial","132","1232480","0.0-18.0","battery-v0.2","","""event"",""trial"",""time""
""fullscreenenter"",""1"",""2662""
","
","
","""event"",""trial"",""time""
""fullscreenenter"",""1"",""2662""
","
","","","904.4000000003725","","","16","14247","5964","&#9730;","elianto","#3366ff99"," "," ","1","+10","[1755]","1","1","","","14247","15","1","1","win","go","0"
"pit-trial","133","1237335","0.0-19.0","battery-v0.2","","""event"",""trial"",""time""
""fullscreenenter"",""1"",""2662""
","
","
","""event"",""trial"",""time""
""fullscreenenter"",""1"",""2662""
","
","","","-1","","","16","14247","5964","&#9733;","elianto","#3366ff99","-1","-1","1","+10","[]","0","1","","","14247","16","2","2","win","no-go","0"
"pit-trial","134","1240912","0.0-20.0","battery-v0.2","","""event"",""trial"",""time""
""fullscreenenter"",""1"",""2662""
","
","
","""event"",""trial"",""time""
""fullscreenenter"",""1"",""2662""
","
","","","722.5999999996275","","","16","14247","5964","&#9730;","elianto","#3366ff99"," "," ","1","+10","[1572.7999999998137]","1","1","","","14247","17","1","1","win","go","0"
"pit-trial","135","1245767","0.0-21.0","battery-v0.2","","""event"",""trial"",""time""
""fullscreenenter"",""1"",""2662""
","
","
","""event"",""trial"",""time""
""fullscreenenter"",""1"",""2662""
","
","","","-1","","","16","14247","5964","&#9733;","elianto","#3366ff99","-1","-1","1","+10","[]","0","1","","","14247","18","2","2","win","no-go","0"
"pit-trial","136","1250013","0.0-22.0","battery-v0.2","","""event"",""trial"",""time""
""fullscreenenter"",""1"",""2662""
","
","
","""event"",""trial"",""time""
""fullscreenenter"",""1"",""2662""
","
","","","1392.1000000005588","","","16","14247","5964","&#9752;","elianto","#f73b6a7A"," "," ","1","0","[2242.399999999441]","1","1","","","14247","19","3","3","lose","go","0"
"pit-trial","137","1254868","0.0-23.0","battery-v0.2","","""event"",""trial"",""time""
""fullscreenenter"",""1"",""2662""
","
","
","""event"",""trial"",""time""
""fullscreenenter"",""1"",""2662""
","
","","","-1","","","16","14247","5964","&#9728;","elianto","#f73b6a7A","-1","-1","1","-10","[]","0","1","","","14247","20","0","4","lose","no-go","1"
"pit-instructions","138","1306360","0.0-24.0","battery-v0.2","","""event"",""trial"",""time""
""fullscreenenter"",""1"",""2662""
","
","
","""event"",""trial"",""time""
""fullscreenenter"",""1"",""2662""
","
","","[{""page_index"":0,""viewing_time"":34373.5},{""page_index"":1,""viewing_time"":17115.699999999255}]","51489.5","","","","","","","","","","","","","","","","","","","","","","","",""
"pit-trial","139","1310190","0.0-25.0","battery-v0.2","","""event"",""trial"",""time""
""fullscreenenter"",""1"",""2662""
","
","
","""event"",""trial"",""time""
""fullscreenenter"",""1"",""2662""
","
","","","957.7000000001863","","","16","14247","5964","m","elianto","#f73b6a7A","-1"," ","0","-10","[1812.4000000003725]","1","2","","","14247","21","0","4","lose","no-go","0"
"pit-trial","140","1313920","0.0-26.0","battery-v0.2","","""event"",""trial"",""time""
""fullscreenenter"",""1"",""2662""
","
","
","""event"",""trial"",""time""
""fullscreenenter"",""1"",""2662""
","
","","","863.5999999996275","","","16","14247","5964","y","elianto","#f73b6a7A","-1"," ","0","-10","[1716.2000000001863]","1","2","","","14247","22","2","4","lose","no-go","0"
"pit-trial","141","1318056","0.0-27.0","battery-v0.2","","""event"",""trial"",""time""
""fullscreenenter"",""1"",""2662""
","
","
","""event"",""trial"",""time""
""fullscreenenter"",""1"",""2662""
","
","","","1276.699999999255","","","16","14247","5964","h","elianto","#f73b6a7A"," "," ","1","0","[2129.2999999998137]","1","2","","","14247","23","3","3","lose","go","0"
"pit-trial","142","1321935","0.0-28.0","battery-v0.2","","""event"",""trial"",""time""
""fullscreenenter"",""1"",""2662""
","
","
","""event"",""trial"",""time""
""fullscreenenter"",""1"",""2662""
","
","","","1014.9000000003725","","","16","14247","5964","r","elianto","#3366ff99"," "," ","1","+10","[1865.4000000003725]","1","2","","","14247","24","1","1","win","go","0"
"pit-trial","143","1326794","0.0-29.0","battery-v0.2","","""event"",""trial"",""time""
""fullscreenenter"",""1"",""2662""
","
","
","""event"",""trial"",""time""
""fullscreenenter"",""1"",""2662""
","
","","","-1","","","16","14247","5964","m","elianto","#f73b6a7A","-1","-1","1","0","[]","0","2","","","14247","25","0","4","lose","no-go","0"
"pit-trial","144","1331649","0.0-30.0","battery-v0.2","","""event"",""trial"",""time""
""fullscreenenter"",""1"",""2662""
","
","
","""event"",""trial"",""time""
""fullscreenenter"",""1"",""2662""
","
","","","-1","","","16","14247","5964","y","elianto","#f73b6a7A","-1","-1","1","0","[]","0","2","","","14247","26","2","4","lose","no-go","0"
"pit-trial","145","1335279","0.0-31.0","battery-v0.2","","""event"",""trial"",""time""
""fullscreenenter"",""1"",""2662""
","
","
","""event"",""trial"",""time""
""fullscreenenter"",""1"",""2662""
","
","","","775.3999999994412","","","16","14247","5964","r","elianto","#3366ff99"," "," ","1","0","[1625.699999999255]","1","2","","","14247","27","1","1","win","go","1"
"pit-trial","146","1338822","0.0-32.0","battery-v0.2","","""event"",""trial"",""time""
""fullscreenenter"",""1"",""2662""
","
","
","""event"",""trial"",""time""
""fullscreenenter"",""1"",""2662""
","
","","","687.9000000003725","","","16","14247","5964","h","elianto","#f73b6a7A"," "," ","1","0","[1539]","1","2","","","14247","28","3","3","lose","go","0"
"pit-trial","147","1342388","0.0-33.0","battery-v0.2","","""event"",""trial"",""time""
""fullscreenenter"",""1"",""2662""
","
","
","""event"",""trial"",""time""
""fullscreenenter"",""1"",""2662""
","
","","","712.7000000001863","","","16","14247","5964","h","elianto","#f73b6a7A"," "," ","1","0","[1562.9000000003725]","1","2","","","14247","29","3","3","lose","go","0"
"pit-trial","148","1347243","0.0-34.0","battery-v0.2","","""event"",""trial"",""time""
""fullscreenenter"",""1"",""2662""
","
","
","""event"",""trial"",""time""
""fullscreenenter"",""1"",""2662""
","
","","","-1","","","16","14247","5964","y","elianto","#f73b6a7A","-1","-1","1","0","[]","0","2","","","14247","30","2","4","lose","no-go","0"
"pit-trial","149","1350999","0.0-35.0","battery-v0.2","","""event"",""trial"",""time""
""fullscreenenter"",""1"",""2662""
","
","
","""event"",""trial"",""time""
""fullscreenenter"",""1"",""2662""
","
","","","902.5","","","16","14247","5964","r","elianto","#3366ff99"," "," ","1","+10","[1753]","1","2","","","14247","31","1","1","win","go","0"
"pit-trial","150","1355854","0.0-36.0","battery-v0.2","","""event"",""trial"",""time""
""fullscreenenter"",""1"",""2662""
","
","
","""event"",""trial"",""time""
""fullscreenenter"",""1"",""2662""
","
","","","-1","","","16","14247","5964","m","elianto","#f73b6a7A","-1","-1","1","-10","[]","0","2","","","14247","32","0","4","lose","no-go","1"
"pit-trial","151","1360712","0.0-37.0","battery-v0.2","","""event"",""trial"",""time""
""fullscreenenter"",""1"",""2662""
","
","
","""event"",""trial"",""time""
""fullscreenenter"",""1"",""2662""
","
","","","-1","","","16","14247","5964","y","elianto","#f73b6a7A","-1","-1","1","-10","[]","0","2","","","14247","33","2","4","lose","no-go","1"
"pit-trial","152","1364319","0.0-38.0","battery-v0.2","","""event"",""trial"",""time""
""fullscreenenter"",""1"",""2662""
","
","
","""event"",""trial"",""time""
""fullscreenenter"",""1"",""2662""
","
","","","751.3999999994412","","","16","14247","5964","h","elianto","#f73b6a7A"," "," ","1","0","[1603.7999999998137]","1","2","","","14247","34","3","3","lose","go","0"
"pit-trial","153","1369173","0.0-39.0","battery-v0.2","","""event"",""trial"",""time""
""fullscreenenter"",""1"",""2662""
","
","
","""event"",""trial"",""time""
""fullscreenenter"",""1"",""2662""
","
","","","-1","","","16","14247","5964","m","elianto","#f73b6a7A","-1","-1","1","-10","[]","0","2","","","14247","35","0","4","lose","no-go","1"
"pit-trial","154","1372774","0.0-40.0","battery-v0.2","","""event"",""trial"",""time""
""fullscreenenter"",""1"",""2662""
","
","
","""event"",""trial"",""time""
""fullscreenenter"",""1"",""2662""
","
","","","746.0999999996275","","","16","14247","5964","r","elianto","#3366ff99"," "," ","1","+10","[1597]","1","2","","","14247","36","1","1","win","go","0"
"pit-trial","155","1376663","0.0-41.0","battery-v0.2","","""event"",""trial"",""time""
""fullscreenenter"",""1"",""2662""
","
","
","""event"",""trial"",""time""
""fullscreenenter"",""1"",""2662""
","
","","","1034.8999999994412","","","16","14247","5964","h","elianto","#f73b6a7A"," "," ","1","0","[1885.4000000003725]","1","2","","","14247","37","3","3","lose","go","0"
"pit-trial","156","1380382","0.0-42.0","battery-v0.2","","""event"",""trial"",""time""
""fullscreenenter"",""1"",""2662""
","
","
","""event"",""trial"",""time""
""fullscreenenter"",""1"",""2662""
","
","","","862.5999999996275","","","16","14247","5964","m","elianto","#f73b6a7A","-1"," ","0","-10","[1715.4000000003725]","1","2","","","14247","38","0","4","lose","no-go","0"
"pit-trial","157","1383814","0.0-43.0","battery-v0.2","","""event"",""trial"",""time""
""fullscreenenter"",""1"",""2662""
","
","
","""event"",""trial"",""time""
""fullscreenenter"",""1"",""2662""
","
","","","575.9000000003725","","","16","14247","5964","r","elianto","#3366ff99"," "," ","1","+10","[1427.4000000003725]","1","2","","","14247","39","1","1","win","go","0"
"pit-trial","158","1388668","0.0-44.0","battery-v0.2","","""event"",""trial"",""time""
""fullscreenenter"",""1"",""2662""
","
","
","""event"",""trial"",""time""
""fullscreenenter"",""1"",""2662""
","
","","","-1","","","16","14247","5964","y","elianto","#f73b6a7A","-1","-1","1","0","[]","0","2","","","14247","40","2","4","lose","no-go","0"
"pit-trial","159","1392201","0.0-45.0","battery-v0.2","","""event"",""trial"",""time""
""fullscreenenter"",""1"",""2662""
","
","
","""event"",""trial"",""time""
""fullscreenenter"",""1"",""2662""
","
","","","676.7000000001863","","","16","14247","5964","h","elianto","#f73b6a7A"," "," ","1","0","[1529.2999999998137]","1","2","","","14247","41","3","3","lose","go","0"
"pit-trial","160","1396518","0.0-46.0","battery-v0.2","","""event"",""trial"",""time""
""fullscreenenter"",""1"",""2662""
","
","
","""event"",""trial"",""time""
""fullscreenenter"",""1"",""2662""
","
","","","1462.5","","","16","14247","5964","m","elianto","#f73b6a7A","-1"," ","0","-10","[2312.899999999441]","1","2","","","14247","42","0","4","lose","no-go","0"
"pit-trial","161","1399990","0.0-47.0","battery-v0.2","","""event"",""trial"",""time""
""fullscreenenter"",""1"",""2662""
","
","
","""event"",""trial"",""time""
""fullscreenenter"",""1"",""2662""
","
","","","618","","","16","14247","5964","r","elianto","#3366ff99"," "," ","1","+10","[1468.5999999996275]","1","2","","","14247","43","1","1","win","go","0"
"pit-trial","162","1404845","0.0-48.0","battery-v0.2","","""event"",""trial"",""time""
""fullscreenenter"",""1"",""2662""
","
","
","""event"",""trial"",""time""
""fullscreenenter"",""1"",""2662""
","
","","","-1","","","16","14247","5964","y","elianto","#f73b6a7A","-1","-1","1","0","[]","0","2","","","14247","44","2","4","lose","no-go","0"
"pit-trial","163","1409165","0.0-49.0","battery-v0.2","","""event"",""trial"",""time""
""fullscreenenter"",""1"",""2662""
","
","
","""event"",""trial"",""time""
""fullscreenenter"",""1"",""2662""
","
","","","1466.2999999998137","","","16","14247","5964","z","elianto","#3366ff99","-1"," ","0","0","[2316.7999999998137]","1","2","","","14247","45","4","2","win","no-go","0"
"pit-trial","164","1414019","0.0-50.0","battery-v0.2","","""event"",""trial"",""time""
""fullscreenenter"",""1"",""2662""
","
","
","""event"",""trial"",""time""
""fullscreenenter"",""1"",""2662""
","
","","","-1","","","16","14247","5964","y","elianto","#f73b6a7A","-1","-1","1","0","[]","0","2","","","14247","46","2","4","lose","no-go","0"
"pit-trial","165","1418874","0.0-51.0","battery-v0.2","","""event"",""trial"",""time""
""fullscreenenter"",""1"",""2662""
","
","
","""event"",""trial"",""time""
""fullscreenenter"",""1"",""2662""
","
","","","-1","","","16","14247","5964","m","elianto","#f73b6a7A","-1","-1","1","0","[]","0","2","","","14247","47","0","4","lose","no-go","0"
"pit-trial","166","1422791","0.0-52.0","battery-v0.2","","""event"",""trial"",""time""
""fullscreenenter"",""1"",""2662""
","
","
","""event"",""trial"",""time""
""fullscreenenter"",""1"",""2662""
","
","","","1061.9000000003725","","","16","14247","5964","h","elianto","#f73b6a7A"," "," ","1","-10","[1912.6000000005588]","1","2","","","14247","48","3","3","lose","go","1"
"pit-trial","167","1426573","0.0-53.0","battery-v0.2","","""event"",""trial"",""time""
""fullscreenenter"",""1"",""2662""
","
","
","""event"",""trial"",""time""
""fullscreenenter"",""1"",""2662""
","
","","","926.5999999996275","","","16","14247","5964","r","elianto","#3366ff99"," "," ","1","+10","[1778.0999999996275]","1","2","","","14247","49","1","1","win","go","0"
"pit-trial","168","1431427","0.0-54.0","battery-v0.2","","""event"",""trial"",""time""
""fullscreenenter"",""1"",""2662""
","
","
","""event"",""trial"",""time""
""fullscreenenter"",""1"",""2662""
","
","","","-1","","","16","14247","5964","m","elianto","#f73b6a7A","-1","-1","1","0","[]","0","2","","","14247","50","0","4","lose","no-go","0"
"pit-trial","169","1435128","0.0-55.0","battery-v0.2","","""event"",""trial"",""time""
""fullscreenenter"",""1"",""2662""
","
","
","""event"",""trial"",""time""
""fullscreenenter"",""1"",""2662""
","
","","","846","","","16","14247","5964","h","elianto","#f73b6a7A"," "," ","1","0","[1696.7999999998137]","1","2","","","14247","51","3","3","lose","go","0"
"pit-trial","170","1439982","0.0-56.0","battery-v0.2","","""event"",""trial"",""time""
""fullscreenenter"",""1"",""2662""
","
","
","""event"",""trial"",""time""
""fullscreenenter"",""1"",""2662""
","
","","","-1","","","16","14247","5964","z","elianto","#3366ff99","-1","-1","1","0","[]","0","2","","","14247","52","4","2","win","no-go","1"
"pit-trial","171","1444837","0.0-57.0","battery-v0.2","","""event"",""trial"",""time""
""fullscreenenter"",""1"",""2662""
","
","
","""event"",""trial"",""time""
""fullscreenenter"",""1"",""2662""
","
","","","-1","","","16","14247","5964","y","elianto","#f73b6a7A","-1","-1","1","0","[]","0","2","","","14247","53","2","4","lose","no-go","0"
"pit-trial","172","1448847","0.0-58.0","battery-v0.2","","""event"",""trial"",""time""
""fullscreenenter"",""1"",""2662""
","
","
","""event"",""trial"",""time""
""fullscreenenter"",""1"",""2662""
","
","","","1155.2000000001863","","","16","14247","5964","r","elianto","#3366ff99"," "," ","1","+10","[2006.2000000001863]","1","2","","","14247","54","1","1","win","go","0"
"pit-trial","173","1453703","0.0-59.0","battery-v0.2","","""event"",""trial"",""time""
""fullscreenenter"",""1"",""2662""
","
","
","""event"",""trial"",""time""
""fullscreenenter"",""1"",""2662""
","
","","","-1","","","16","14247","5964","m","elianto","#f73b6a7A","-1","-1","1","0","[]","0","2","","","14247","55","0","4","lose","no-go","0"
"pit-trial","174","1458557","0.0-60.0","battery-v0.2","","""event"",""trial"",""time""
""fullscreenenter"",""1"",""2662""
","
","
","""event"",""trial"",""time""
""fullscreenenter"",""1"",""2662""
","
","","","-1","","","16","14247","5964","z","elianto","#3366ff99","-1","-1","1","+10","[2873.7999999998137]","1","2","","","14247","56","4","2","win","no-go","0"
"pit-trial","175","1463413","0.0-61.0","battery-v0.2","","""event"",""trial"",""time""
""fullscreenenter"",""1"",""2662""
","
","
","""event"",""trial"",""time""
""fullscreenenter"",""1"",""2662""
","
","","","-1","","","16","14247","5964","m","elianto","#f73b6a7A","-1","-1","1","0","[]","0","2","","","14247","57","0","4","lose","no-go","0"
"pit-trial","176","1467137","0.0-62.0","battery-v0.2","","""event"",""trial"",""time""
""fullscreenenter"",""1"",""2662""
","
","
","""event"",""trial"",""time""
""fullscreenenter"",""1"",""2662""
","
","","","869.2000000001863","","","16","14247","5964","h","elianto","#f73b6a7A"," "," ","1","0","[1719.5]","1","2","","","14247","58","3","3","lose","go","0"
"pit-trial","177","1470805","0.0-63.0","battery-v0.2","","""event"",""trial"",""time""
""fullscreenenter"",""1"",""2662""
","
","
","""event"",""trial"",""time""
""fullscreenenter"",""1"",""2662""
","
","","","813.5","","","16","14247","5964","r","elianto","#3366ff99"," "," ","1","0","[1664.5]","1","2","","","14247","59","1","1","win","go","1"
"pit-trial","178","1474493","0.0-64.0","battery-v0.2","","""event"",""trial"",""time""
""fullscreenenter"",""1"",""2662""
","
","
","""event"",""trial"",""time""
""fullscreenenter"",""1"",""2662""
","
","","","834.0999999996275","","","16","14247","5964","z","elianto","#3366ff99","-1"," ","0","0","[1684.4000000003725]","1","2","","","14247","60","4","2","win","no-go","0"
"pit-trial","179","1478191","0.0-65.0","battery-v0.2","","""event"",""trial"",""time""
""fullscreenenter"",""1"",""2662""
","
","
","""event"",""trial"",""time""
""fullscreenenter"",""1"",""2662""
","
","","","843.2999999998137","","","16","14247","5964","z","elianto","#3366ff99","-1"," ","0","0","[1693.3999999994412]","1","2","","","14247","61","4","2","win","no-go","0"
"pit-trial","180","1483046","0.0-66.0","battery-v0.2","","""event"",""trial"",""time""
""fullscreenenter"",""1"",""2662""
","
","
","""event"",""trial"",""time""
""fullscreenenter"",""1"",""2662""
","
","","","-1","","","16","14247","5964","y","elianto","#f73b6a7A","-1","-1","1","0","[]","0","2","","","14247","62","2","4","lose","no-go","0"
"pit-trial","181","1487160","0.0-67.0","battery-v0.2","","""event"",""trial"",""time""
""fullscreenenter"",""1"",""2662""
","
","
","""event"",""trial"",""time""
""fullscreenenter"",""1"",""2662""
","
","","","1259.7000000001863","","","16","14247","5964","r","elianto","#3366ff99"," "," ","1","+10","[2110.399999999441]","1","2","","","14247","63","1","1","win","go","0"
"pit-trial","182","1491143","0.0-68.0","battery-v0.2","","""event"",""trial"",""time""
""fullscreenenter"",""1"",""2662""
","
","
","""event"",""trial"",""time""
""fullscreenenter"",""1"",""2662""
","
","","","1127.7000000001863","","","16","14247","5964","h","elianto","#f73b6a7A"," "," ","1","0","[1979.2999999998137]","1","2","","","14247","64","3","3","lose","go","0"
"pit-trial","183","1495293","0.0-69.0","battery-v0.2","","""event"",""trial"",""time""
""fullscreenenter"",""1"",""2662""
","
","
","""event"",""trial"",""time""
""fullscreenenter"",""1"",""2662""
","
","","","1296.6000000005588","","","16","14247","5964","r","elianto","#3366ff99"," "," ","1","+10","[2146.699999999255]","1","2","","","14247","65","1","1","win","go","0"
"pit-trial","184","1500147","0.0-70.0","battery-v0.2","","""event"",""trial"",""time""
""fullscreenenter"",""1"",""2662""
","
","
","""event"",""trial"",""time""
""fullscreenenter"",""1"",""2662""
","
","","","-1","","","16","14247","5964","y","elianto","#f73b6a7A","-1","-1","1","0","[]","0","2","","","14247","66","2","4","lose","no-go","0"
"pit-trial","185","1505016","0.0-71.0","battery-v0.2","","""event"",""trial"",""time""
""fullscreenenter"",""1"",""2662""
","
","
","""event"",""trial"",""time""
""fullscreenenter"",""1"",""2662""
","
","","","-1","","","16","14247","5964","z","elianto","#3366ff99","-1","-1","1","+10","[]","0","2","","","14247","67","4","2","win","no-go","0"
"pit-trial","186","1508952","0.0-72.0","battery-v0.2","","""event"",""trial"",""time""
""fullscreenenter"",""1"",""2662""
","
","
","""event"",""trial"",""time""
""fullscreenenter"",""1"",""2662""
","
","","","1072.3999999994412","","","16","14247","5964","h","elianto","#f73b6a7A"," "," ","1","0","[1922.5]","1","2","","","14247","68","3","3","lose","go","0"
"pit-trial","187","1513509","0.0-73.0","battery-v0.2","","""event"",""trial"",""time""
""fullscreenenter"",""1"",""2662""
","
","
","""event"",""trial"",""time""
""fullscreenenter"",""1"",""2662""
","
","","","1702.7999999998137","","","16","14247","5964","r","elianto","#3366ff99"," "," ","1","+10","[2553.5]","1","2","","","14247","69","1","1","win","go","0"
"pit-trial","188","1518364","0.0-74.0","battery-v0.2","","""event"",""trial"",""time""
""fullscreenenter"",""1"",""2662""
","
","
","""event"",""trial"",""time""
""fullscreenenter"",""1"",""2662""
","
","","","-1","","","16","14247","5964","z","elianto","#3366ff99","-1","-1","1","+10","[]","0","2","","","14247","70","4","2","win","no-go","0"
"pit-trial","189","1522694","0.0-75.0","battery-v0.2","","""event"",""trial"",""time""
""fullscreenenter"",""1"",""2662""
","
","
","""event"",""trial"",""time""
""fullscreenenter"",""1"",""2662""
","
","","","1476.2000000001863","","","16","14247","5964","c","elianto","#3366ff99"," "," ","1","0","[2326.600000000559]","1","2","","","14247","71","5","1","win","go","1"
"pit-trial","190","1526541","0.0-76.0","battery-v0.2","","""event"",""trial"",""time""
""fullscreenenter"",""1"",""2662""
","
","
","""event"",""trial"",""time""
""fullscreenenter"",""1"",""2662""
","
","","","992.9000000003725","","","16","14247","5964","h","elianto","#f73b6a7A"," "," ","1","0","[1843.7999999998137]","1","2","","","14247","72","3","3","lose","go","0"
"pit-trial","191","1530054","0.0-77.0","battery-v0.2","","""event"",""trial"",""time""
""fullscreenenter"",""1"",""2662""
","
","
","""event"",""trial"",""time""
""fullscreenenter"",""1"",""2662""
","
","","","658.3999999994412","","","16","14247","5964","c","elianto","#3366ff99"," "," ","1","+10","[1508.5]","1","2","","","14247","73","5","1","win","go","0"
"pit-trial","192","1533751","0.0-78.0","battery-v0.2","","""event"",""trial"",""time""
""fullscreenenter"",""1"",""2662""
","
","
","""event"",""trial"",""time""
""fullscreenenter"",""1"",""2662""
","
","","","837.6000000005588","","","16","14247","5964","h","elianto","#f73b6a7A"," "," ","1","0","[1692.6000000005588]","1","2","","","14247","74","3","3","lose","go","0"
"pit-trial","193","1537638","0.0-79.0","battery-v0.2","","""event"",""trial"",""time""
""fullscreenenter"",""1"",""2662""
","
","
","""event"",""trial"",""time""
""fullscreenenter"",""1"",""2662""
","
","","","1033.9000000003725","","","16","14247","5964","r","elianto","#3366ff99"," "," ","1","0","[1883.7999999998137]","1","2","","","14247","75","1","1","win","go","1"
"pit-trial","194","1542493","0.0-80.0","battery-v0.2","","""event"",""trial"",""time""
""fullscreenenter"",""1"",""2662""
","
","
","""event"",""trial"",""time""
""fullscreenenter"",""1"",""2662""
","
","","","-1","","","16","14247","5964","z","elianto","#3366ff99","-1","-1","1","0","[]","0","2","","","14247","76","4","2","win","no-go","1"
"pit-trial","195","1547347","0.0-81.0","battery-v0.2","","""event"",""trial"",""time""
""fullscreenenter"",""1"",""2662""
","
","
","""event"",""trial"",""time""
""fullscreenenter"",""1"",""2662""
","
","","","-1","","","16","14247","5964","z","elianto","#3366ff99","-1","-1","1","+10","[]","0","2","","","14247","77","4","2","win","no-go","0"
"pit-trial","196","1552203","0.0-82.0","battery-v0.2","","""event"",""trial"",""time""
""fullscreenenter"",""1"",""2662""
","
","
","""event"",""trial"",""time""
""fullscreenenter"",""1"",""2662""
","
","","","-1","","","16","14247","5964","b","elianto","#f73b6a7A","-1","-1","1","-10","[2857.2999999998137]","1","2","","","14247","78","6","4","lose","no-go","1"
"pit-trial","197","1556382","0.0-83.0","battery-v0.2","","""event"",""trial"",""time""
""fullscreenenter"",""1"",""2662""
","
","
","""event"",""trial"",""time""
""fullscreenenter"",""1"",""2662""
","
","","","1323.9000000003725","","","16","14247","5964","c","elianto","#3366ff99"," "," ","1","+10","[2175.300000000745]","1","2","","","14247","79","5","1","win","go","0"
"pit-trial","198","1560086","0.0-84.0","battery-v0.2","","""event"",""trial"",""time""
""fullscreenenter"",""1"",""2662""
","
","
","""event"",""trial"",""time""
""fullscreenenter"",""1"",""2662""
","
","","","848.7000000001863","","","16","14247","5964","h","elianto","#f73b6a7A"," "," ","1","0","[1699.6000000005588]","1","2","","","14247","80","3","3","lose","go","0"
"pit-trial","199","1564940","0.0-85.0","battery-v0.2","","""event"",""trial"",""time""
""fullscreenenter"",""1"",""2662""
","
","
","""event"",""trial"",""time""
""fullscreenenter"",""1"",""2662""
","
","","","-1","","","16","14247","5964","z","elianto","#3366ff99","-1","-1","1","0","[]","0","2","","","14247","81","4","2","win","no-go","1"
"pit-trial","200","1569795","0.0-86.0","battery-v0.2","","""event"",""trial"",""time""
""fullscreenenter"",""1"",""2662""
","
","
","""event"",""trial"",""time""
""fullscreenenter"",""1"",""2662""
","
","","","-1","","","16","14247","5964","b","elianto","#f73b6a7A","-1","-1","1","-10","[]","0","2","","","14247","82","6","4","lose","no-go","1"
"pit-trial","201","1574650","0.0-87.0","battery-v0.2","","""event"",""trial"",""time""
""fullscreenenter"",""1"",""2662""
","
","
","""event"",""trial"",""time""
""fullscreenenter"",""1"",""2662""
","
","","","-1","","","16","14247","5964","t","elianto","#f73b6a7A"," ","-1","0","0","[]","0","2","","","14247","83","7","3","lose","go","1"
"pit-trial","202","1578511","0.0-88.0","battery-v0.2","","""event"",""trial"",""time""
""fullscreenenter"",""1"",""2662""
","
","
","""event"",""trial"",""time""
""fullscreenenter"",""1"",""2662""
","
","","","1006.3999999994412","","","16","14247","5964","c","elianto","#3366ff99"," "," ","1","0","[1857.2999999998137]","1","2","","","14247","84","5","1","win","go","1"
"pit-trial","203","1583365","0.0-89.0","battery-v0.2","","""event"",""trial"",""time""
""fullscreenenter"",""1"",""2662""
","
","
","""event"",""trial"",""time""
""fullscreenenter"",""1"",""2662""
","
","","","-1","","","16","14247","5964","b","elianto","#f73b6a7A","-1","-1","1","0","[]","0","2","","","14247","85","6","4","lose","no-go","0"
"pit-trial","204","1588219","0.0-90.0","battery-v0.2","","""event"",""trial"",""time""
""fullscreenenter"",""1"",""2662""
","
","
","""event"",""trial"",""time""
""fullscreenenter"",""1"",""2662""
","
","","","-1","","","16","14247","5964","z","elianto","#3366ff99","-1","-1","1","+10","[]","0","2","","","14247","86","4","2","win","no-go","0"
"pit-trial","205","1592943","0.0-91.0","battery-v0.2","","""event"",""trial"",""time""
""fullscreenenter"",""1"",""2662""
","
","
","""event"",""trial"",""time""
""fullscreenenter"",""1"",""2662""
","
","","","1869.4000000003725","","","16","14247","5964","t","elianto","#f73b6a7A"," "," ","1","0","[2719.9000000003725]","1","2","","","14247","87","7","3","lose","go","0"
"pit-trial","206","1596790","0.0-92.0","battery-v0.2","","""event"",""trial"",""time""
""fullscreenenter"",""1"",""2662""
","
","
","""event"",""trial"",""time""
""fullscreenenter"",""1"",""2662""
","
","","","993.6000000005588","","","16","14247","5964","c","elianto","#3366ff99"," "," ","1","+10","[1844]","1","2","","","14247","88","5","1","win","go","0"
"pit-trial","207","1601644","0.0-93.0","battery-v0.2","","""event"",""trial"",""time""
""fullscreenenter"",""1"",""2662""
","
","
","""event"",""trial"",""time""
""fullscreenenter"",""1"",""2662""
","
","","","-1","","","16","14247","5964","b","elianto","#f73b6a7A","-1","-1","1","0","[]","0","2","","","14247","89","6","4","lose","no-go","0"
"pit-trial","208","1606511","0.0-94.0","battery-v0.2","","""event"",""trial"",""time""
""fullscreenenter"",""1"",""2662""
","
","
","""event"",""trial"",""time""
""fullscreenenter"",""1"",""2662""
","
","","","-1","","","16","14247","5964","z","elianto","#3366ff99","-1","-1","1","+10","[]","0","2","","","14247","90","4","2","win","no-go","0"
"pit-trial","209","1610511","0.0-95.0","battery-v0.2","","""event"",""trial"",""time""
""fullscreenenter"",""1"",""2662""
","
","
","""event"",""trial"",""time""
""fullscreenenter"",""1"",""2662""
","
","","","1145.1000000005588","","","16","14247","5964","c","elianto","#3366ff99"," "," ","1","+10","[1996.0999999996275]","1","2","","","14247","91","5","1","win","go","0"
"pit-trial","210","1614165","0.0-96.0","battery-v0.2","","""event"",""trial"",""time""
""fullscreenenter"",""1"",""2662""
","
","
","""event"",""trial"",""time""
""fullscreenenter"",""1"",""2662""
","
","","","802.1000000005588","","","16","14247","5964","t","elianto","#f73b6a7A"," "," ","1","0","[1652.2999999998137]","1","2","","","14247","92","7","3","lose","go","0"
"pit-trial","211","1619022","0.0-97.0","battery-v0.2","","""event"",""trial"",""time""
""fullscreenenter"",""1"",""2662""
","
","
","""event"",""trial"",""time""
""fullscreenenter"",""1"",""2662""
","
","","","-1","","","16","14247","5964","b","elianto","#f73b6a7A","-1","-1","1","0","[]","0","2","","","14247","93","6","4","lose","no-go","0"
"pit-trial","212","1622720","0.0-98.0","battery-v0.2","","""event"",""trial"",""time""
""fullscreenenter"",""1"",""2662""
","
","
","""event"",""trial"",""time""
""fullscreenenter"",""1"",""2662""
","
","","","845","","","16","14247","5964","c","elianto","#3366ff99"," "," ","1","+10","[1695.2000000001863]","1","2","","","14247","94","5","1","win","go","0"
"pit-trial","213","1626797","0.0-99.0","battery-v0.2","","""event"",""trial"",""time""
""fullscreenenter"",""1"",""2662""
","
","
","""event"",""trial"",""time""
""fullscreenenter"",""1"",""2662""
","
","","","1222.2999999998137","","","16","14247","5964","t","elianto","#f73b6a7A"," "," ","1","-10","[2073.2000000001863]","1","2","","","14247","95","7","3","lose","go","1"
"pit-trial","214","1631652","0.0-100.0","battery-v0.2","","""event"",""trial"",""time""
""fullscreenenter"",""1"",""2662""
","
","
","""event"",""trial"",""time""
""fullscreenenter"",""1"",""2662""
","
","","","-1","","","16","14247","5964","f","elianto","#3366ff99","-1","-1","1","0","[3212.4000000003725]","1","2","","","14247","96","8","2","win","no-go","1"
"pit-trial","215","1635087","0.0-101.0","battery-v0.2","","""event"",""trial"",""time""
""fullscreenenter"",""1"",""2662""
","
","
","""event"",""trial"",""time""
""fullscreenenter"",""1"",""2662""
","
","","","580.2000000001863","","","16","14247","5964","c","elianto","#3366ff99"," "," ","1","0","[1431.6000000005588]","1","2","","","14247","97","5","1","win","go","1"
"pit-trial","216","1639943","0.0-102.0","battery-v0.2","","""event"",""trial"",""time""
""fullscreenenter"",""1"",""2662""
","
","
","""event"",""trial"",""time""
""fullscreenenter"",""1"",""2662""
","
","","","-1","","","16","14247","5964","f","elianto","#3366ff99","-1","-1","1","+10","[]","0","2","","","14247","98","8","2","win","no-go","0"
"pit-trial","217","1643607","0.0-103.0","battery-v0.2","","""event"",""trial"",""time""
""fullscreenenter"",""1"",""2662""
","
","
","""event"",""trial"",""time""
""fullscreenenter"",""1"",""2662""
","
","","","809.6000000005588","","","16","14247","5964","t","elianto","#f73b6a7A"," "," ","1","0","[1659.699999999255]","1","2","","","14247","99","7","3","lose","go","0"
"pit-trial","218","1648462","0.0-104.0","battery-v0.2","","""event"",""trial"",""time""
""fullscreenenter"",""1"",""2662""
","
","
","""event"",""trial"",""time""
""fullscreenenter"",""1"",""2662""
","
","","","-1","","","16","14247","5964","b","elianto","#f73b6a7A","-1","-1","1","-10","[]","0","2","","","14247","100","6","4","lose","no-go","1"
"pit-trial","219","1652485","0.0-105.0","battery-v0.2","","""event"",""trial"",""time""
""fullscreenenter"",""1"",""2662""
","
","
","""event"",""trial"",""time""
""fullscreenenter"",""1"",""2662""
","
","","","1155.7000000001863","","","16","14247","5964","c","elianto","#3366ff99"," "," ","1","+10","[2006.2999999998137]","1","2","","","14247","101","5","1","win","go","0"
"pit-trial","220","1657340","0.0-106.0","battery-v0.2","","""event"",""trial"",""time""
""fullscreenenter"",""1"",""2662""
","
","
","""event"",""trial"",""time""
""fullscreenenter"",""1"",""2662""
","
","","","-1","","","16","14247","5964","n","elianto","#3366ff99","-1","-1","1","+10","[2923.699999999255]","1","2","","","14247","102","9","2","win","no-go","0"
"pit-trial","221","1661806","0.0-107.0","battery-v0.2","","""event"",""trial"",""time""
""fullscreenenter"",""1"",""2662""
","
","
","""event"",""trial"",""time""
""fullscreenenter"",""1"",""2662""
","
","","","1612.2999999998137","","","16","14247","5964","f","elianto","#3366ff99","-1"," ","0","0","[2462.7999999998137,3142.600000000559,3383.2000000001863,3581.7000000001863,3775.7999999998137,3934.7999999998137]","6","2","","","14247","103","8","2","win","no-go","0"
"pit-trial","222","1666661","0.0-108.0","battery-v0.2","","""event"",""trial"",""time""
""fullscreenenter"",""1"",""2662""
","
","
","""event"",""trial"",""time""
""fullscreenenter"",""1"",""2662""
","
","","","-1","","","16","14247","5964","b","elianto","#f73b6a7A","-1","-1","1","0","[]","0","2","","","14247","104","6","4","lose","no-go","0"
"pit-trial","223","1670445","0.0-109.0","battery-v0.2","","""event"",""trial"",""time""
""fullscreenenter"",""1"",""2662""
","
","
","""event"",""trial"",""time""
""fullscreenenter"",""1"",""2662""
","
","","","930.7000000001863","","","16","14247","5964","c","elianto","#3366ff99"," "," ","1","+10","[1780.7999999998137]","1","2","","","14247","105","5","1","win","go","0"
"pit-trial","224","1675299","0.0-110.0","battery-v0.2","","""event"",""trial"",""time""
""fullscreenenter"",""1"",""2662""
","
","
","""event"",""trial"",""time""
""fullscreenenter"",""1"",""2662""
","
","","","-1","","","16","14247","5964","f","elianto","#3366ff99","-1","-1","1","+10","[]","0","2","","","14247","106","8","2","win","no-go","0"
"pit-trial","225","1680154","0.0-111.0","battery-v0.2","","""event"",""trial"",""time""
""fullscreenenter"",""1"",""2662""
","
","
","""event"",""trial"",""time""
""fullscreenenter"",""1"",""2662""
","
","","","-1","","","16","14247","5964","n","elianto","#3366ff99","-1","-1","1","+10","[]","0","2","","","14247","107","9","2","win","no-go","0"
"pit-trial","226","1685009","0.0-112.0","battery-v0.2","","""event"",""trial"",""time""
""fullscreenenter"",""1"",""2662""
","
","
","""event"",""trial"",""time""
""fullscreenenter"",""1"",""2662""
","
","","","-1","","","16","14247","5964","b","elianto","#f73b6a7A","-1","-1","1","0","[]","0","2","","","14247","108","6","4","lose","no-go","0"
"pit-trial","227","1688502","0.0-113.0","battery-v0.2","","""event"",""trial"",""time""
""fullscreenenter"",""1"",""2662""
","
","
","""event"",""trial"",""time""
""fullscreenenter"",""1"",""2662""
","
","","","639.4000000003725","","","16","14247","5964","c","elianto","#3366ff99"," "," ","1","+10","[1489.6000000005588]","1","2","","","14247","109","5","1","win","go","0"
"pit-trial","228","1692158","0.0-114.0","battery-v0.2","","""event"",""trial"",""time""
""fullscreenenter"",""1"",""2662""
","
","
","""event"",""trial"",""time""
""fullscreenenter"",""1"",""2662""
","
","","","800.9000000003725","","","16","14247","5964","n","elianto","#3366ff99","-1"," ","0","0","[1652.0999999996275]","1","2","","","14247","110","9","2","win","no-go","0"
"pit-trial","229","1697012","0.0-115.0","battery-v0.2","","""event"",""trial"",""time""
""fullscreenenter"",""1"",""2662""
","
","
","""event"",""trial"",""time""
""fullscreenenter"",""1"",""2662""
","
","","","-1","","","16","14247","5964","b","elianto","#f73b6a7A","-1","-1","1","-10","[]","0","2","","","14247","111","6","4","lose","no-go","1"
"pit-trial","230","1700656","0.0-116.0","battery-v0.2","","""event"",""trial"",""time""
""fullscreenenter"",""1"",""2662""
","
","
","""event"",""trial"",""time""
""fullscreenenter"",""1"",""2662""
","
","","","788.6000000005588","","","16","14247","5964","f","elianto","#3366ff99","-1"," ","0","+10","[1639.7000000001863]","1","2","","","14247","112","8","2","win","no-go","1"
"pit-trial","231","1705508","0.0-117.0","battery-v0.2","","""event"",""trial"",""time""
""fullscreenenter"",""1"",""2662""
","
","
","""event"",""trial"",""time""
""fullscreenenter"",""1"",""2662""
","
","","","-1","","","16","14247","5964","f","elianto","#3366ff99","-1","-1","1","+10","[]","0","2","","","14247","113","8","2","win","no-go","0"
"pit-trial","232","1709285","0.0-118.0","battery-v0.2","","""event"",""trial"",""time""
""fullscreenenter"",""1"",""2662""
","
","
","""event"",""trial"",""time""
""fullscreenenter"",""1"",""2662""
","
","","","921.9000000003725","","","16","14247","5964","t","elianto","#f73b6a7A"," "," ","1","0","[1772.6000000005588]","1","2","","","14247","114","7","3","lose","go","0"
"pit-trial","233","1713006","0.0-119.0","battery-v0.2","","""event"",""trial"",""time""
""fullscreenenter"",""1"",""2662""
","
","
","""event"",""trial"",""time""
""fullscreenenter"",""1"",""2662""
","
","","","868.0999999996275","","","16","14247","5964","n","elianto","#3366ff99","-1"," ","0","+10","[1718.4000000003725]","1","2","","","14247","115","9","2","win","no-go","1"
"pit-trial","234","1716436","0.0-120.0","battery-v0.2","","""event"",""trial"",""time""
""fullscreenenter"",""1"",""2662""
","
","
","""event"",""trial"",""time""
""fullscreenenter"",""1"",""2662""
","
","","","575.2999999998137","","","16","14247","5964","c","elianto","#3366ff99"," "," ","1","+10","[1426.4000000003725]","1","2","","","14247","116","5","1","win","go","0"
"pit-trial","235","1721292","0.0-121.0","battery-v0.2","","""event"",""trial"",""time""
""fullscreenenter"",""1"",""2662""
","
","
","""event"",""trial"",""time""
""fullscreenenter"",""1"",""2662""
","
","","","-1","","","16","14247","5964","f","elianto","#3366ff99","-1","-1","1","+10","[]","0","2","","","14247","117","8","2","win","no-go","0"
"pit-trial","236","1726147","0.0-122.0","battery-v0.2","","""event"",""trial"",""time""
""fullscreenenter"",""1"",""2662""
","
","
","""event"",""trial"",""time""
""fullscreenenter"",""1"",""2662""
","
","","","-1","","","16","14247","5964","b","elianto","#f73b6a7A","-1","-1","1","0","[]","0","2","","","14247","118","6","4","lose","no-go","0"
"pit-trial","237","1730342","0.0-123.0","battery-v0.2","","""event"",""trial"",""time""
""fullscreenenter"",""1"",""2662""
","
","
","""event"",""trial"",""time""
""fullscreenenter"",""1"",""2662""
","
","","","1341.2000000001863","","","16","14247","5964","n","elianto","#3366ff99","-1"," ","0","0","[2191.9000000003725]","1","2","","","14247","119","9","2","win","no-go","0"
"pit-trial","238","1733949","0.0-124.0","battery-v0.2","","""event"",""trial"",""time""
""fullscreenenter"",""1"",""2662""
","
","
","""event"",""trial"",""time""
""fullscreenenter"",""1"",""2662""
","
","","","747.0999999996275","","","16","14247","5964","c","elianto","#3366ff99"," "," ","1","+10","[1603.7999999998137]","1","2","","","14247","120","5","1","win","go","0"
"pit-trial","239","1737453","0.0-125.0","battery-v0.2","","""event"",""trial"",""time""
""fullscreenenter"",""1"",""2662""
","
","
","""event"",""trial"",""time""
""fullscreenenter"",""1"",""2662""
","
","","","649.1999999992549","","","16","14247","5964","c","elianto","#3366ff99"," "," ","1","0","[1500.199999999255]","1","2","","","14247","121","5","1","win","go","1"
"pit-trial","240","1741135","0.0-126.0","battery-v0.2","","""event"",""trial"",""time""
""fullscreenenter"",""1"",""2662""
","
","
","""event"",""trial"",""time""
""fullscreenenter"",""1"",""2662""
","
","","","827.2999999998137","","","16","14247","5964","n","elianto","#3366ff99","-1"," ","0","0","[1678.1000000005588]","1","2","","","14247","122","9","2","win","no-go","0"
"pit-trial","241","1745141","0.0-127.0","battery-v0.2","","""event"",""trial"",""time""
""fullscreenenter"",""1"",""2662""
","
","
","""event"",""trial"",""time""
""fullscreenenter"",""1"",""2662""
","
","","","1151.7000000001863","","","16","14247","5964","t","elianto","#f73b6a7A"," "," ","1","0","[2002.699999999255]","1","2","","","14247","123","7","3","lose","go","0"
"pit-trial","242","1749997","0.0-128.0","battery-v0.2","","""event"",""trial"",""time""
""fullscreenenter"",""1"",""2662""
","
","
","""event"",""trial"",""time""
""fullscreenenter"",""1"",""2662""
","
","","","-1","","","16","14247","5964","f","elianto","#3366ff99","-1","-1","1","0","[]","0","2","","","14247","124","8","2","win","no-go","1"
"pit-trial","243","1754852","0.0-129.0","battery-v0.2","","""event"",""trial"",""time""
""fullscreenenter"",""1"",""2662""
","
","
","""event"",""trial"",""time""
""fullscreenenter"",""1"",""2662""
","
","","","-1","","","16","14247","5964","n","elianto","#3366ff99","-1","-1","1","+10","[]","0","2","","","14247","125","9","2","win","no-go","0"
"pit-trial","244","1759706","0.0-130.0","battery-v0.2","","""event"",""trial"",""time""
""fullscreenenter"",""1"",""2662""
","
","
","""event"",""trial"",""time""
""fullscreenenter"",""1"",""2662""
","
","","","-1","","","16","14247","5964","b","elianto","#f73b6a7A","-1","-1","1","0","[]","0","2","","","14247","126","6","4","lose","no-go","0"
"pit-trial","245","1764558","0.0-131.0","battery-v0.2","","""event"",""trial"",""time""
""fullscreenenter"",""1"",""2662""
","
","
","""event"",""trial"",""time""
""fullscreenenter"",""1"",""2662""
","
","","","-1","","","16","14247","5964","f","elianto","#3366ff99","-1","-1","1","0","[]","0","2","","","14247","127","8","2","win","no-go","1"
"pit-trial","246","1768641","0.0-132.0","battery-v0.2","","""event"",""trial"",""time""
""fullscreenenter"",""1"",""2662""
","
","
","""event"",""trial"",""time""
""fullscreenenter"",""1"",""2662""
","
","","","1229","","","16","14247","5964","t","elianto","#f73b6a7A"," "," ","1","0","[2080.300000000745]","1","2","","","14247","128","7","3","lose","go","0"
"pit-trial","247","1773495","0.0-133.0","battery-v0.2","","""event"",""trial"",""time""
""fullscreenenter"",""1"",""2662""
","
","
","""event"",""trial"",""time""
""fullscreenenter"",""1"",""2662""
","
","","","-1","","","16","14247","5964","b","elianto","#f73b6a7A","-1","-1","1","0","[]","0","2","","","14247","129","6","4","lose","no-go","0"
"pit-trial","248","1777949","0.0-134.0","battery-v0.2","","""event"",""trial"",""time""
""fullscreenenter"",""1"",""2662""
","
","
","""event"",""trial"",""time""
""fullscreenenter"",""1"",""2662""
","
","","","1598.1000000005588","","","16","14247","5964","t","elianto","#f73b6a7A"," "," ","1","0","[2449.5999999996275]","1","2","","","14247","130","7","3","lose","go","0"
"pit-trial","249","1782804","0.0-135.0","battery-v0.2","","""event"",""trial"",""time""
""fullscreenenter"",""1"",""2662""
","
","
","""event"",""trial"",""time""
""fullscreenenter"",""1"",""2662""
","
","","","-1","","","16","14247","5964","f","elianto","#3366ff99","-1","-1","1","0","[]","0","2","","","14247","131","8","2","win","no-go","1"
"pit-trial","250","1787656","0.0-136.0","battery-v0.2","","""event"",""trial"",""time""
""fullscreenenter"",""1"",""2662""
","
","
","""event"",""trial"",""time""
""fullscreenenter"",""1"",""2662""
","
","","","-1","","","16","14247","5964","n","elianto","#3366ff99","-1","-1","1","+10","[3031.600000000559]","1","2","","","14247","132","9","2","win","no-go","0"
"pit-trial","251","1792514","0.0-137.0","battery-v0.2","","""event"",""trial"",""time""
""fullscreenenter"",""1"",""2662""
","
","
","""event"",""trial"",""time""
""fullscreenenter"",""1"",""2662""
","
","","","-1","","","16","14247","5964","f","elianto","#3366ff99","-1","-1","1","0","[]","0","2","","","14247","133","8","2","win","no-go","1"
"pit-trial","252","1797367","0.0-138.0","battery-v0.2","","""event"",""trial"",""time""
""fullscreenenter"",""1"",""2662""
","
","
","""event"",""trial"",""time""
""fullscreenenter"",""1"",""2662""
","
","","","-1","","","16","14247","5964","n","elianto","#3366ff99","-1","-1","1","+10","[]","0","2","","","14247","134","9","2","win","no-go","0"
"pit-trial","253","1801171","0.0-139.0","battery-v0.2","","""event"",""trial"",""time""
""fullscreenenter"",""1"",""2662""
","
","
","""event"",""trial"",""time""
""fullscreenenter"",""1"",""2662""
","
","","","950.0999999996275","","","16","14247","5964","t","elianto","#f73b6a7A"," "," ","1","0","[1801.0999999996275,2256.2999999998137,2520.2000000001863]","3","2","","","14247","135","7","3","lose","go","0"
"pit-trial","254","1806024","0.0-140.0","battery-v0.2","","""event"",""trial"",""time""
""fullscreenenter"",""1"",""2662""
","
","
","""event"",""trial"",""time""
""fullscreenenter"",""1"",""2662""
","
","","","-1","","","16","14247","5964","b","elianto","#f73b6a7A","-1","-1","1","0","[]","0","2","","","14247","136","6","4","lose","no-go","0"
"pit-trial","255","1809955","0.0-141.0","battery-v0.2","","""event"",""trial"",""time""
""fullscreenenter"",""1"",""2662""
","
","
","""event"",""trial"",""time""
""fullscreenenter"",""1"",""2662""
","
","","","1076.7999999998137","","","16","14247","5964","t","elianto","#f73b6a7A"," "," ","1","0","[1927.300000000745]","1","2","","","14247","137","7","3","lose","go","0"
"pit-trial","256","1814821","0.0-142.0","battery-v0.2","","""event"",""trial"",""time""
""fullscreenenter"",""1"",""2662""
","
","
","""event"",""trial"",""time""
""fullscreenenter"",""1"",""2662""
","
","","","-1","","","16","14247","5964","b","elianto","#f73b6a7A","-1","-1","1","0","[]","0","2","","","14247","138","6","4","lose","no-go","0"
"pit-trial","257","1819675","0.0-143.0","battery-v0.2","","""event"",""trial"",""time""
""fullscreenenter"",""1"",""2662""
","
","
","""event"",""trial"",""time""
""fullscreenenter"",""1"",""2662""
","
","","","-1","","","16","14247","5964","f","elianto","#3366ff99","-1","-1","1","+10","[]","0","2","","","14247","139","8","2","win","no-go","0"
"pit-trial","258","1824530","0.0-144.0","battery-v0.2","","""event"",""trial"",""time""
""fullscreenenter"",""1"",""2662""
","
","
","""event"",""trial"",""time""
""fullscreenenter"",""1"",""2662""
","
","","","-1","","","16","14247","5964","n","elianto","#3366ff99","-1","-1","1","+10","[]","0","2","","","14247","140","9","2","win","no-go","0"
"pit-instructions","259","1988627","0.0-145.0","battery-v0.2","","""event"",""trial"",""time""
""fullscreenenter"",""1"",""2662""
","
","
","""event"",""trial"",""time""
""fullscreenenter"",""1"",""2662""
","
","","[{""page_index"":0,""viewing_time"":151624.90000000037},{""page_index"":1,""viewing_time"":12467.399999999441}]","164092.60000000056","","","","","","","","","","","","","","","","","","","","","","","",""
"pit-trial","260","1992728","0.0-146.0","battery-v0.2","","""event"",""trial"",""time""
""fullscreenenter"",""1"",""2662""
","
","
","""event"",""trial"",""time""
""fullscreenenter"",""1"",""2662""
","
","","","1232.300000000745","","","16","14247","5964","e","elianto","#f73b6a7A"," "," ","1","0","[2085]","1","3","","","14247","141","2","3","lose","go","0"
"pit-trial","261","1997593","0.0-147.0","battery-v0.2","","""event"",""trial"",""time""
""fullscreenenter"",""1"",""2662""
","
","
","""event"",""trial"",""time""
""fullscreenenter"",""1"",""2662""
","
","","","-1","","","16","14247","5964","j","elianto","#f73b6a7A"," ","-1","0","-10","[]","0","3","","","14247","142","0","3","lose","go","0"
"pit-trial","262","2001570","0.0-148.0","battery-v0.2","","""event"",""trial"",""time""
""fullscreenenter"",""1"",""2662""
","
","
","""event"",""trial"",""time""
""fullscreenenter"",""1"",""2662""
","
","","","1100.8999999994412","","","16","14247","5964","d","elianto","#3366ff99","-1"," ","0","0","[1961.1000000005588]","1","3","","","14247","143","1","2","win","no-go","0"
"pit-trial","263","2006438","0.0-149.0","battery-v0.2","","""event"",""trial"",""time""
""fullscreenenter"",""1"",""2662""
","
","
","""event"",""trial"",""time""
""fullscreenenter"",""1"",""2662""
","
","","","-1","","","16","14247","5964","w","elianto","#f73b6a7A","-1","-1","1","-10","[]","0","3","","","14247","144","3","4","lose","no-go","1"
"pit-trial","264","2010297","0.0-150.0","battery-v0.2","","""event"",""trial"",""time""
""fullscreenenter"",""1"",""2662""
","
","
","""event"",""trial"",""time""
""fullscreenenter"",""1"",""2662""
","
","","","987.1000000005588","","","16","14247","5964","d","elianto","#3366ff99","-1"," ","0","0","[1842.2000000001863]","1","3","","","14247","145","1","2","win","no-go","0"
"pit-trial","265","2015158","0.0-151.0","battery-v0.2","","""event"",""trial"",""time""
""fullscreenenter"",""1"",""2662""
","
","
","""event"",""trial"",""time""
""fullscreenenter"",""1"",""2662""
","
","","","-1","","","16","14247","5964","e","elianto","#f73b6a7A"," ","-1","0","-10","[]","0","3","","","14247","146","2","3","lose","go","0"
"pit-trial","266","2020013","0.0-152.0","battery-v0.2","","""event"",""trial"",""time""
