"trial_type","trial_index","time_elapsed","internal_node_id","task_version","subject_id","interactions","blur_events","focus_events","fullscreenenter_events","fullscreenexit_events","success","view_history","rt","responses","num_errors","age","subject","participantId","rune","rune_set","hex","correct","choice","accuracy","outcome","keys","total_keys","block","practice","value","sub","trial","stimulus","robot","valence","action","sham"
"pavlovia","0","47","0.0-0.0","battery-v0.2","","""event"",""trial"",""time""
""fullscreenenter"",""1"",""5508""
","
","
","""event"",""trial"",""time""
""fullscreenenter"",""1"",""5508""
","
","","","","","","","","","","","","","","","","","","","","","","","","","","",""
"fullscreen","1","6380","0.0-1.0","battery-v0.2","","""event"",""trial"",""time""
""fullscreenenter"",""1"",""5508""
","
","
","""event"",""trial"",""time""
""fullscreenenter"",""1"",""5508""
","
","true","","","","","","","","","","","","","","","","","","","","","","","","","",""
"pit-instructions","2","16068","0.0-2.0-0.0","battery-v0.2","","""event"",""trial"",""time""
""fullscreenenter"",""1"",""5508""
","
","
","""event"",""trial"",""time""
""fullscreenenter"",""1"",""5508""
","
","","[{""page_index"":0,""viewing_time"":9682.200000000186}]","9682.700000000186","","","","","","","","","","","","","","","","","","","","","","","",""
"pit-comprehension","3","20924","0.0-2.0-1.0-0.0","battery-v0.2","","""event"",""trial"",""time""
""fullscreenenter"",""1"",""5508""
","
","
","""event"",""trial"",""time""
""fullscreenenter"",""1"",""5508""
","
","","","4848.899999999907","[""shark""]","0","23","10848","5052","","","","","","","","","","","","","","","","","","",""
"pit-instructions","4","23207","0.0-2.0-1.0-1.0","battery-v0.2","","""event"",""trial"",""time""
""fullscreenenter"",""1"",""5508""
","
","
","""event"",""trial"",""time""
""fullscreenenter"",""1"",""5508""
","
","","[{""page_index"":0,""viewing_time"":2216.1999999999534}]","2216.6999999999534","","","","","","","","","","","","","","","","","","","","","","","",""
"pit-comprehension","5","27678","0.0-2.0-2.0-0.0","battery-v0.2","","""event"",""trial"",""time""
""fullscreenenter"",""1"",""5508""
","
","
","""event"",""trial"",""time""
""fullscreenenter"",""1"",""5508""
","
","","","4463.300000000047","[""tiger""]","0","23","10848","5052","","","","","","","","","","","","","","","","","","",""
"pit-instructions","6","29535","0.0-2.0-2.0-1.0","battery-v0.2","","""event"",""trial"",""time""
""fullscreenenter"",""1"",""5508""
","
","
","""event"",""trial"",""time""
""fullscreenenter"",""1"",""5508""
","
","","[{""page_index"":0,""viewing_time"":1846.1999999999534}]","1846.6999999999534","","","","","","","","","","","","","","","","","","","","","","","",""
"pit-instructions","7","153018","0.0-2.0-3.0","battery-v0.2","","""event"",""trial"",""time""
""fullscreenenter"",""1"",""5508""
","
","
","""event"",""trial"",""time""
""fullscreenenter"",""1"",""5508""
","
","","[{""page_index"":0,""viewing_time"":10424.399999999907},{""page_index"":1,""viewing_time"":7509.700000000186},{""page_index"":2,""viewing_time"":8961},{""page_index"":3,""viewing_time"":8429.199999999953},{""page_index"":4,""viewing_time"":12395.199999999953},{""page_index"":5,""viewing_time"":6864.5},{""page_index"":6,""viewing_time"":8318.5},{""page_index"":7,""viewing_time"":8102.100000000093},{""page_index"":8,""viewing_time"":6783},{""page_index"":9,""viewing_time"":11742.399999999907},{""page_index"":10,""viewing_time"":9808.300000000047},{""page_index"":11,""viewing_time"":9164.300000000047},{""page_index"":12,""viewing_time"":8213.699999999953},{""page_index"":13,""viewing_time"":6761.59999999986}]","123478.5","","","","","","","","","","","","","","","","","","","","","","","",""
"pit-trial","8","157898","0.0-2.0-4.0-0.0","battery-v0.2","","""event"",""trial"",""time""
""fullscreenenter"",""1"",""5508""
","
","
","""event"",""trial"",""time""
""fullscreenenter"",""1"",""5508""
","
","","","-1","","","23","10848","5052","&#9784;","elianto","#FFFFF080"," ","-1","0","&#10060","[816.7999999998137,3016.2999999998137]","2","0","0","","","","","","","",""
"pit-trial","9","161092","0.0-2.0-4.1-0.1","battery-v0.2","","""event"",""trial"",""time""
""fullscreenenter"",""1"",""5508""
","
","
","""event"",""trial"",""time""
""fullscreenenter"",""1"",""5508""
","
","","","320.5999999998603","","","23","10848","5052","&#9784;","elianto","#FFFFF080"," "," ","1","&#10004","[1171.0999999998603]","1","0","0","","","","","","","",""
"pit-trial","10","164211","0.0-2.0-4.2-0.2","battery-v0.2","","""event"",""trial"",""time""
""fullscreenenter"",""1"",""5508""
","
","
","""event"",""trial"",""time""
""fullscreenenter"",""1"",""5508""
","
","","","255.80000000004657","","","23","10848","5052","&#9784;","elianto","#FFFFF080"," "," ","1","&#10004","[1106.3999999999069]","1","0","0","","","","","","","",""
"pit-trial","11","167213","0.0-2.0-4.3-0.3","battery-v0.2","","""event"",""trial"",""time""
""fullscreenenter"",""1"",""5508""
","
","
","""event"",""trial"",""time""
""fullscreenenter"",""1"",""5508""
","
","","","134.30000000004657","","","23","10848","5052","&#9784;","elianto","#FFFFF080"," "," ","1","&#10004","[989.8000000000466]","1","0","0","","","","","","","",""
"pit-trial","12","170213","0.0-2.0-4.4-0.4","battery-v0.2","","""event"",""trial"",""time""
""fullscreenenter"",""1"",""5508""
","
","
","""event"",""trial"",""time""
""fullscreenenter"",""1"",""5508""
","
","","","124.80000000004657","","","23","10848","5052","&#9784;","elianto","#FFFFF080"," "," ","1","&#10004","[975.3999999999069]","1","0","0","","","","","","","",""
"pit-instructions","13","212705","0.0-2.0-5.0","battery-v0.2","","""event"",""trial"",""time""
""fullscreenenter"",""1"",""5508""
","
","
","""event"",""trial"",""time""
""fullscreenenter"",""1"",""5508""
","
","","[{""page_index"":0,""viewing_time"":24848.90000000014},{""page_index"":1,""viewing_time"":6070.5},{""page_index"":2,""viewing_time"":5664.199999999953},{""page_index"":3,""viewing_time"":5894.899999999907}]","42478.90000000014","","","","","","","","","","","","","","","","","","","","","","","",""
"pit-trial","14","217582","0.0-2.0-6.0-0.0","battery-v0.2","","""event"",""trial"",""time""
""fullscreenenter"",""1"",""5508""
","
","
","""event"",""trial"",""time""
""fullscreenenter"",""1"",""5508""
","
","","","-1","","","23","10848","5052","&#9854;","elianto","#FFFFF080","-1","-1","1","&#10004","[]","0","0","1","","","","","","","",""
"pit-trial","15","222473","0.0-2.0-6.1-0.1","battery-v0.2","","""event"",""trial"",""time""
""fullscreenenter"",""1"",""5508""
","
","
","""event"",""trial"",""time""
""fullscreenenter"",""1"",""5508""
","
","","","-1","","","23","10848","5052","&#9854;","elianto","#FFFFF080","-1","-1","1","&#10004","[]","0","0","1","","","","","","","",""
"pit-trial","16","227353","0.0-2.0-6.2-0.2","battery-v0.2","","""event"",""trial"",""time""
""fullscreenenter"",""1"",""5508""
","
","
","""event"",""trial"",""time""
""fullscreenenter"",""1"",""5508""
","
","","","-1","","","23","10848","5052","&#9854;","elianto","#FFFFF080","-1","-1","1","&#10004","[]","0","0","1","","","","","","","",""
"pit-trial","17","232233","0.0-2.0-6.3-0.3","battery-v0.2","","""event"",""trial"",""time""
""fullscreenenter"",""1"",""5508""
","
","
","""event"",""trial"",""time""
""fullscreenenter"",""1"",""5508""
","
","","","-1","","","23","10848","5052","&#9854;","elianto","#FFFFF080","-1","-1","1","&#10004","[]","0","0","1","","","","","","","",""
"pit-trial","18","237112","0.0-2.0-6.4-0.4","battery-v0.2","","""event"",""trial"",""time""
""fullscreenenter"",""1"",""5508""
","
","
","""event"",""trial"",""time""
""fullscreenenter"",""1"",""5508""
","
","","","-1","","","23","10848","5052","&#9854;","elianto","#FFFFF080","-1","-1","1","&#10004","[]","0","0","1","","","","","","","",""
"pit-instructions","19","449591","0.0-2.0-7.0","battery-v0.2","","""event"",""trial"",""time""
""fullscreenenter"",""1"",""5508""
","
","
","""event"",""trial"",""time""
""fullscreenenter"",""1"",""5508""
","
","","[{""page_index"":0,""viewing_time"":26134.699999999953},{""page_index"":1,""viewing_time"":8554.5},{""page_index"":2,""viewing_time"":13883.5},{""page_index"":3,""viewing_time"":16031.300000000047},{""page_index"":4,""viewing_time"":5947.59999999986},{""page_index"":5,""viewing_time"":13356.800000000047},{""page_index"":6,""viewing_time"":5635.300000000047},{""page_index"":7,""viewing_time"":8127.399999999907},{""page_index"":8,""viewing_time"":7067.600000000093},{""page_index"":9,""viewing_time"":18328.699999999953},{""page_index"":10,""viewing_time"":8118.40000000014},{""page_index"":11,""viewing_time"":8386.899999999907},{""page_index"":12,""viewing_time"":15253},{""page_index"":13,""viewing_time"":8474.800000000047},{""page_index"":14,""viewing_time"":8837.899999999907},{""page_index"":15,""viewing_time"":22159.600000000093},{""page_index"":16,""viewing_time"":8124.300000000047},{""page_index"":17,""viewing_time"":10052.59999999986}]","212475.3999999999","","","","","","","","","","","","","","","","","","","","","","","",""
"pit-trial","20","452991","0.0-2.0-8.0-0.0","battery-v0.2","","""event"",""trial"",""time""
""fullscreenenter"",""1"",""5508""
","
","
","""event"",""trial"",""time""
""fullscreenenter"",""1"",""5508""
","
","","","530.8000000000466","","","23","10848","5052","&#9776;","elianto","#3366ff99"," "," ","1","+10","[1382.1000000000931]","1","0","1","","","","","","","",""
"pit-trial","21","456247","0.0-2.0-8.0-1.0","battery-v0.2","","""event"",""trial"",""time""
""fullscreenenter"",""1"",""5508""
","
","
","""event"",""trial"",""time""
""fullscreenenter"",""1"",""5508""
","
","","","384.19999999995343","","","23","10848","5052","&#9776;","elianto","#3366ff99"," "," ","1","+10","[1234.8999999999069]","1","0","1","","","","","","","",""
"pit-trial","22","459377","0.0-2.0-8.0-2.0","battery-v0.2","","""event"",""trial"",""time""
""fullscreenenter"",""1"",""5508""
","
","
","""event"",""trial"",""time""
""fullscreenenter"",""1"",""5508""
","
","","","255.39999999990687","","","23","10848","5052","&#9776;","elianto","#3366ff99"," "," ","1","+10","[1112.9000000001397]","1","0","1","","","","","","","",""
"pit-trial","23","462457","0.0-2.0-8.0-3.0","battery-v0.2","","""event"",""trial"",""time""
""fullscreenenter"",""1"",""5508""
","
","
","""event"",""trial"",""time""
""fullscreenenter"",""1"",""5508""
","
","","","221.39999999990687","","","23","10848","5052","&#9776;","elianto","#3366ff99"," "," ","1","0","[1071.7000000001863]","1","0","1","","","","","","","",""
"pit-trial","24","465598","0.0-2.0-8.0-4.0","battery-v0.2","","""event"",""trial"",""time""
""fullscreenenter"",""1"",""5508""
","
","
","""event"",""trial"",""time""
""fullscreenenter"",""1"",""5508""
","
","","","276.60000000009313","","","23","10848","5052","&#9776;","elianto","#3366ff99"," "," ","1","+10","[1127.1000000000931]","1","0","1","","","","","","","",""
"pit-trial","25","468603","0.0-2.0-8.1-0.1","battery-v0.2","","""event"",""trial"",""time""
""fullscreenenter"",""1"",""5508""
","
","
","""event"",""trial"",""time""
""fullscreenenter"",""1"",""5508""
","
","","","138.9000000001397","","","23","10848","5052","&#9776;","elianto","#3366ff99"," "," ","1","+10","[993.4000000001397]","1","0","1","","","","","","","",""
"pit-trial","26","471807","0.0-2.0-8.1-1.1","battery-v0.2","","""event"",""trial"",""time""
""fullscreenenter"",""1"",""5508""
","
","
","""event"",""trial"",""time""
""fullscreenenter"",""1"",""5508""
","
","","","344.5","","","23","10848","5052","&#9776;","elianto","#3366ff99"," "," ","1","+10","[1195]","1","0","1","","","","","","","",""
"pit-trial","27","475041","0.0-2.0-8.1-2.1","battery-v0.2","","""event"",""trial"",""time""
""fullscreenenter"",""1"",""5508""
","
","
","""event"",""trial"",""time""
""fullscreenenter"",""1"",""5508""
","
","","","362.19999999995343","","","23","10848","5052","&#9776;","elianto","#3366ff99"," "," ","1","+10","[1216.5]","1","0","1","","","","","","","",""
"pit-trial","28","478273","0.0-2.0-8.1-3.1","battery-v0.2","","""event"",""trial"",""time""
""fullscreenenter"",""1"",""5508""
","
","
","""event"",""trial"",""time""
""fullscreenenter"",""1"",""5508""
","
","","","369.60000000009313","","","23","10848","5052","&#9776;","elianto","#3366ff99"," "," ","1","0","[1222.2000000001863]","1","0","1","","","","","","","",""
"pit-trial","29","481563","0.0-2.0-8.1-4.1","battery-v0.2","","""event"",""trial"",""time""
""fullscreenenter"",""1"",""5508""
","
","
","""event"",""trial"",""time""
""fullscreenenter"",""1"",""5508""
","
","","","436.10000000009313","","","23","10848","5052","&#9776;","elianto","#3366ff99"," "," ","1","+10","[1286.8000000000466]","1","0","1","","","","","","","",""
"pit-trial","30","484830","0.0-2.0-8.2-0.2","battery-v0.2","","""event"",""trial"",""time""
""fullscreenenter"",""1"",""5508""
","
","
","""event"",""trial"",""time""
""fullscreenenter"",""1"",""5508""
","
","","","410.5","","","23","10848","5052","&#9776;","elianto","#3366ff99"," "," ","1","+10","[1262.2999999998137]","1","0","1","","","","","","","",""
"pit-trial","31","488278","0.0-2.0-8.2-1.2","battery-v0.2","","""event"",""trial"",""time""
""fullscreenenter"",""1"",""5508""
","
","
","""event"",""trial"",""time""
""fullscreenenter"",""1"",""5508""
","
","","","593.2000000001863","","","23","10848","5052","&#9776;","elianto","#3366ff99"," "," ","1","+10","[1444]","1","0","1","","","","","","","",""
"pit-trial","32","491392","0.0-2.0-8.2-2.2","battery-v0.2","","""event"",""trial"",""time""
""fullscreenenter"",""1"",""5508""
","
","
","""event"",""trial"",""time""
""fullscreenenter"",""1"",""5508""
","
","","","260.10000000009313","","","23","10848","5052","&#9776;","elianto","#3366ff99"," "," ","1","+10","[1110.4000000001397]","1","0","1","","","","","","","",""
"pit-trial","33","494438","0.0-2.0-8.2-3.2","battery-v0.2","","""event"",""trial"",""time""
""fullscreenenter"",""1"",""5508""
","
","
","""event"",""trial"",""time""
""fullscreenenter"",""1"",""5508""
","
","","","191.30000000004657","","","23","10848","5052","&#9776;","elianto","#3366ff99"," "," ","1","0","[1042.1999999999534]","1","0","1","","","","","","","",""
"pit-trial","34","497578","0.0-2.0-8.2-4.2","battery-v0.2","","""event"",""trial"",""time""
""fullscreenenter"",""1"",""5508""
","
","
","""event"",""trial"",""time""
""fullscreenenter"",""1"",""5508""
","
","","","286.5","","","23","10848","5052","&#9776;","elianto","#3366ff99"," "," ","1","+10","[1136.5]","1","0","1","","","","","","","",""
"call-function","35","497582","0.0-2.0-9.0","battery-v0.2","","""event"",""trial"",""time""
""fullscreenenter"",""1"",""5508""
","
","
","""event"",""trial"",""time""
""fullscreenenter"",""1"",""5508""
","
","","","","","","","","","","","","","","","","","","","","","","","","","","",""
"pit-instructions","36","549098","0.0-2.0-10.0","battery-v0.2","","""event"",""trial"",""time""
""fullscreenenter"",""1"",""5508""
","
","
","""event"",""trial"",""time""
""fullscreenenter"",""1"",""5508""
","
","","[{""page_index"":0,""viewing_time"":7498.5},{""page_index"":1,""viewing_time"":9602.600000000093},{""page_index"":2,""viewing_time"":12159.699999999953},{""page_index"":3,""viewing_time"":13323.600000000093},{""page_index"":4,""viewing_time"":8925.5}]","51510.700000000186","","","","","","","","","","","","","","","","","","","","","","","",""
"pit-trial","37","552276","0.0-2.0-11.0-0.0","battery-v0.2","","""event"",""trial"",""time""
""fullscreenenter"",""1"",""5508""
","
","
","""event"",""trial"",""time""
""fullscreenenter"",""1"",""5508""
","
","","","314","","","23","10848","5052","&#9761;","elianto","#3366ff99","-1"," ","0","0","[1165]","1","0","2","","","","","","","",""
"pit-trial","38","557147","0.0-2.0-11.0-1.0","battery-v0.2","","""event"",""trial"",""time""
""fullscreenenter"",""1"",""5508""
","
","
","""event"",""trial"",""time""
""fullscreenenter"",""1"",""5508""
","
","","","-1","","","23","10848","5052","&#9761;","elianto","#3366ff99","-1","-1","1","+10","[]","0","0","2","","","","","","","",""
"pit-trial","39","560681","0.0-2.0-11.0-2.0","battery-v0.2","","""event"",""trial"",""time""
""fullscreenenter"",""1"",""5508""
","
","
","""event"",""trial"",""time""
""fullscreenenter"",""1"",""5508""
","
","","","667.5","","","23","10848","5052","&#9761;","elianto","#3366ff99","-1"," ","0","0","[1527.2999999998137]","1","0","2","","","","","","","",""
"pit-trial","40","563967","0.0-2.0-11.0-3.0","battery-v0.2","","""event"",""trial"",""time""
""fullscreenenter"",""1"",""5508""
","
","
","""event"",""trial"",""time""
""fullscreenenter"",""1"",""5508""
","
","","","429.60000000009313","","","23","10848","5052","&#9761;","elianto","#3366ff99","-1"," ","0","+10","[1282.1999999999534]","1","0","2","","","","","","","",""
"pit-trial","41","568846","0.0-2.0-11.0-4.0","battery-v0.2","","""event"",""trial"",""time""
""fullscreenenter"",""1"",""5508""
","
","
","""event"",""trial"",""time""
""fullscreenenter"",""1"",""5508""
","
","","","-1","","","23","10848","5052","&#9761;","elianto","#3366ff99","-1","-1","1","+10","[]","0","0","2","","","","","","","",""
"pit-trial","42","573721","0.0-2.0-11.1-0.1","battery-v0.2","","""event"",""trial"",""time""
""fullscreenenter"",""1"",""5508""
","
","
","""event"",""trial"",""time""
""fullscreenenter"",""1"",""5508""
","
","","","-1","","","23","10848","5052","&#9761;","elianto","#3366ff99","-1","-1","1","+10","[3327.3000000000466]","1","0","2","","","","","","","",""
"pit-trial","43","578601","0.0-2.0-11.1-1.1","battery-v0.2","","""event"",""trial"",""time""
""fullscreenenter"",""1"",""5508""
","
","
","""event"",""trial"",""time""
""fullscreenenter"",""1"",""5508""
","
","","","-1","","","23","10848","5052","&#9761;","elianto","#3366ff99","-1","-1","1","+10","[3452.600000000093]","1","0","2","","","","","","","",""
"pit-trial","44","581970","0.0-2.0-11.1-2.1","battery-v0.2","","""event"",""trial"",""time""
""fullscreenenter"",""1"",""5508""
","
","
","""event"",""trial"",""time""
""fullscreenenter"",""1"",""5508""
","
","","","514.5","","","23","10848","5052","&#9761;","elianto","#3366ff99","-1"," ","0","0","[1364.8000000000466]","1","0","2","","","","","","","",""
"pit-trial","45","585178","0.0-2.0-11.1-3.1","battery-v0.2","","""event"",""trial"",""time""
""fullscreenenter"",""1"",""5508""
","
","
","""event"",""trial"",""time""
""fullscreenenter"",""1"",""5508""
","
","","","352.69999999995343","","","23","10848","5052","&#9761;","elianto","#3366ff99","-1"," ","0","+10","[1203.9000000001397]","1","0","2","","","","","","","",""
"pit-trial","46","590032","0.0-2.0-11.1-4.1","battery-v0.2","","""event"",""trial"",""time""
""fullscreenenter"",""1"",""5508""
","
","
","""event"",""trial"",""time""
""fullscreenenter"",""1"",""5508""
","
","","","-1","","","23","10848","5052","&#9761;","elianto","#3366ff99","-1","-1","1","+10","[]","0","0","2","","","","","","","",""
"pit-trial","47","593240","0.0-2.0-11.2-0.2","battery-v0.2","","""event"",""trial"",""time""
""fullscreenenter"",""1"",""5508""
","
","
","""event"",""trial"",""time""
""fullscreenenter"",""1"",""5508""
","
","","","349.5","","","23","10848","5052","&#9761;","elianto","#3366ff99","-1"," ","0","0","[1201.1999999999534]","1","0","2","","","","","","","",""
"pit-trial","48","596396","0.0-2.0-11.2-1.2","battery-v0.2","","""event"",""trial"",""time""
""fullscreenenter"",""1"",""5508""
","
","
","""event"",""trial"",""time""
""fullscreenenter"",""1"",""5508""
","
","","","299.4000000001397","","","23","10848","5052","&#9761;","elianto","#3366ff99","-1"," ","0","0","[1152.5]","1","0","2","","","","","","","",""
"pit-trial","49","599944","0.0-2.0-11.2-2.2","battery-v0.2","","""event"",""trial"",""time""
""fullscreenenter"",""1"",""5508""
","
","
","""event"",""trial"",""time""
""fullscreenenter"",""1"",""5508""
","
","","","692.1000000000931","","","23","10848","5052","&#9761;","elianto","#3366ff99","-1"," ","0","0","[1543.9000000001397]","1","0","2","","","","","","","",""
"pit-trial","50","603249","0.0-2.0-11.2-3.2","battery-v0.2","","""event"",""trial"",""time""
""fullscreenenter"",""1"",""5508""
","
","
","""event"",""trial"",""time""
""fullscreenenter"",""1"",""5508""
","
","","","449.80000000004657","","","23","10848","5052","&#9761;","elianto","#3366ff99","-1"," ","0","+10","[1301.1999999999534]","1","0","2","","","","","","","",""
"pit-trial","51","608104","0.0-2.0-11.2-4.2","battery-v0.2","","""event"",""trial"",""time""
""fullscreenenter"",""1"",""5508""
","
","
","""event"",""trial"",""time""
""fullscreenenter"",""1"",""5508""
","
","","","-1","","","23","10848","5052","&#9761;","elianto","#3366ff99","-1","-1","1","+10","[]","0","0","2","","","","","","","",""
"pit-trial","52","612958","0.0-2.0-11.3-0.3","battery-v0.2","","""event"",""trial"",""time""
""fullscreenenter"",""1"",""5508""
","
","
","""event"",""trial"",""time""
""fullscreenenter"",""1"",""5508""
","
","","","-1","","","23","10848","5052","&#9761;","elianto","#3366ff99","-1","-1","1","+10","[]","0","0","2","","","","","","","",""
"pit-trial","53","617812","0.0-2.0-11.3-1.3","battery-v0.2","","""event"",""trial"",""time""
""fullscreenenter"",""1"",""5508""
","
","
","""event"",""trial"",""time""
""fullscreenenter"",""1"",""5508""
","
","","","-1","","","23","10848","5052","&#9761;","elianto","#3366ff99","-1","-1","1","+10","[]","0","0","2","","","","","","","",""
"pit-trial","54","622666","0.0-2.0-11.3-2.3","battery-v0.2","","""event"",""trial"",""time""
""fullscreenenter"",""1"",""5508""
","
","
","""event"",""trial"",""time""
""fullscreenenter"",""1"",""5508""
","
","","","-1","","","23","10848","5052","&#9761;","elianto","#3366ff99","-1","-1","1","+10","[]","0","0","2","","","","","","","",""
"pit-trial","55","625819","0.0-2.0-11.3-3.3","battery-v0.2","","""event"",""trial"",""time""
""fullscreenenter"",""1"",""5508""
","
","
","""event"",""trial"",""time""
""fullscreenenter"",""1"",""5508""
","
","","","298.19999999995343","","","23","10848","5052","&#9761;","elianto","#3366ff99","-1"," ","0","+10","[1149]","1","0","2","","","","","","","",""
"pit-trial","56","630675","0.0-2.0-11.3-4.3","battery-v0.2","","""event"",""trial"",""time""
""fullscreenenter"",""1"",""5508""
","
","
","""event"",""trial"",""time""
""fullscreenenter"",""1"",""5508""
","
","","","-1","","","23","10848","5052","&#9761;","elianto","#3366ff99","-1","-1","1","+10","[3438.399999999907]","1","0","2","","","","","","","",""
"call-function","57","630679","0.0-2.0-12.0","battery-v0.2","","""event"",""trial"",""time""
""fullscreenenter"",""1"",""5508""
","
","
","""event"",""trial"",""time""
""fullscreenenter"",""1"",""5508""
","
","","","","","","","","","","","","","","","","","","","","","","","","","","",""
"pit-instructions","58","688645","0.0-2.0-13.0","battery-v0.2","","""event"",""trial"",""time""
""fullscreenenter"",""1"",""5508""
","
","
","""event"",""trial"",""time""
""fullscreenenter"",""1"",""5508""
","
","","[{""page_index"":0,""viewing_time"":6957.40000000014},{""page_index"":1,""viewing_time"":16699.499999999767},{""page_index"":2,""viewing_time"":6985.4000000003725},{""page_index"":3,""viewing_time"":21947.899999999907},{""page_index"":4,""viewing_time"":5373.799999999814}]","57964.39999999991","","","","","","","","","","","","","","","","","","","","","","","",""
"pit-trial","59","693519","0.0-2.0-14.0-0.0","battery-v0.2","","""event"",""trial"",""time""
""fullscreenenter"",""1"",""5508""
","
","
","""event"",""trial"",""time""
""fullscreenenter"",""1"",""5508""
","
","","","-1","","","23","10848","5052","&#9826;","elianto","#f73b6a7A","-1","-1","1","0","[]","0","0","3","","","","","","","",""
"pit-trial","60","698398","0.0-2.0-14.0-1.0","battery-v0.2","","""event"",""trial"",""time""
""fullscreenenter"",""1"",""5508""
","
","
","""event"",""trial"",""time""
""fullscreenenter"",""1"",""5508""
","
","","","-1","","","23","10848","5052","&#9826;","elianto","#f73b6a7A","-1","-1","1","0","[]","0","0","3","","","","","","","",""
"pit-trial","61","703269","0.0-2.0-14.0-2.0","battery-v0.2","","""event"",""trial"",""time""
""fullscreenenter"",""1"",""5508""
","
","
","""event"",""trial"",""time""
""fullscreenenter"",""1"",""5508""
","
","","","-1","","","23","10848","5052","&#9826;","elianto","#f73b6a7A","-1","-1","1","0","[]","0","0","3","","","","","","","",""
"pit-trial","62","708157","0.0-2.0-14.0-3.0","battery-v0.2","","""event"",""trial"",""time""
""fullscreenenter"",""1"",""5508""
","
","
","""event"",""trial"",""time""
""fullscreenenter"",""1"",""5508""
","
","","","-1","","","23","10848","5052","&#9826;","elianto","#f73b6a7A","-1","-1","1","-10","[]","0","0","3","","","","","","","",""
"pit-trial","63","713024","0.0-2.0-14.0-4.0","battery-v0.2","","""event"",""trial"",""time""
""fullscreenenter"",""1"",""5508""
","
","
","""event"",""trial"",""time""
""fullscreenenter"",""1"",""5508""
","
","","","-1","","","23","10848","5052","&#9826;","elianto","#f73b6a7A","-1","-1","1","0","[]","0","0","3","","","","","","","",""
"pit-trial","64","716464","0.0-2.0-14.1-0.1","battery-v0.2","","""event"",""trial"",""time""
""fullscreenenter"",""1"",""5508""
","
","
","""event"",""trial"",""time""
""fullscreenenter"",""1"",""5508""
","
","","","579.0999999996275","","","23","10848","5052","&#9826;","elianto","#f73b6a7A","-1"," ","0","-10","[1433]","1","0","3","","","","","","","",""
"pit-trial","65","721318","0.0-2.0-14.1-1.1","battery-v0.2","","""event"",""trial"",""time""
""fullscreenenter"",""1"",""5508""
","
","
","""event"",""trial"",""time""
""fullscreenenter"",""1"",""5508""
","
","","","-1","","","23","10848","5052","&#9826;","elianto","#f73b6a7A","-1","-1","1","0","[]","0","0","3","","","","","","","",""
"pit-trial","66","726173","0.0-2.0-14.1-2.1","battery-v0.2","","""event"",""trial"",""time""
""fullscreenenter"",""1"",""5508""
","
","
","""event"",""trial"",""time""
""fullscreenenter"",""1"",""5508""
","
","","","-1","","","23","10848","5052","&#9826;","elianto","#f73b6a7A","-1","-1","1","0","[]","0","0","3","","","","","","","",""
"pit-trial","67","731028","0.0-2.0-14.1-3.1","battery-v0.2","","""event"",""trial"",""time""
""fullscreenenter"",""1"",""5508""
","
","
","""event"",""trial"",""time""
""fullscreenenter"",""1"",""5508""
","
","","","-1","","","23","10848","5052","&#9826;","elianto","#f73b6a7A","-1","-1","1","-10","[]","0","0","3","","","","","","","",""
"pit-trial","68","735884","0.0-2.0-14.1-4.1","battery-v0.2","","""event"",""trial"",""time""
""fullscreenenter"",""1"",""5508""
","
","
","""event"",""trial"",""time""
""fullscreenenter"",""1"",""5508""
","
","","","-1","","","23","10848","5052","&#9826;","elianto","#f73b6a7A","-1","-1","1","0","[]","0","0","3","","","","","","","",""
"pit-trial","69","740740","0.0-2.0-14.2-0.2","battery-v0.2","","""event"",""trial"",""time""
""fullscreenenter"",""1"",""5508""
","
","
","""event"",""trial"",""time""
""fullscreenenter"",""1"",""5508""
","
","","","-1","","","23","10848","5052","&#9826;","elianto","#f73b6a7A","-1","-1","1","0","[]","0","0","3","","","","","","","",""
"pit-trial","70","745594","0.0-2.0-14.2-1.2","battery-v0.2","","""event"",""trial"",""time""
""fullscreenenter"",""1"",""5508""
","
","
","""event"",""trial"",""time""
""fullscreenenter"",""1"",""5508""
","
","","","-1","","","23","10848","5052","&#9826;","elianto","#f73b6a7A","-1","-1","1","0","[]","0","0","3","","","","","","","",""
"pit-trial","71","750449","0.0-2.0-14.2-2.2","battery-v0.2","","""event"",""trial"",""time""
""fullscreenenter"",""1"",""5508""
","
","
","""event"",""trial"",""time""
""fullscreenenter"",""1"",""5508""
","
","","","-1","","","23","10848","5052","&#9826;","elianto","#f73b6a7A","-1","-1","1","0","[]","0","0","3","","","","","","","",""
"pit-trial","72","755304","0.0-2.0-14.2-3.2","battery-v0.2","","""event"",""trial"",""time""
""fullscreenenter"",""1"",""5508""
","
","
","""event"",""trial"",""time""
""fullscreenenter"",""1"",""5508""
","
","","","-1","","","23","10848","5052","&#9826;","elianto","#f73b6a7A","-1","-1","1","-10","[]","0","0","3","","","","","","","",""
"pit-trial","73","760159","0.0-2.0-14.2-4.2","battery-v0.2","","""event"",""trial"",""time""
""fullscreenenter"",""1"",""5508""
","
","
","""event"",""trial"",""time""
""fullscreenenter"",""1"",""5508""
","
","","","-1","","","23","10848","5052","&#9826;","elianto","#f73b6a7A","-1","-1","1","0","[]","0","0","3","","","","","","","",""
"pit-trial","74","765014","0.0-2.0-14.3-0.3","battery-v0.2","","""event"",""trial"",""time""
""fullscreenenter"",""1"",""5508""
","
","
","""event"",""trial"",""time""
""fullscreenenter"",""1"",""5508""
","
","","","-1","","","23","10848","5052","&#9826;","elianto","#f73b6a7A","-1","-1","1","0","[]","0","0","3","","","","","","","",""
"pit-trial","75","769868","0.0-2.0-14.3-1.3","battery-v0.2","","""event"",""trial"",""time""
""fullscreenenter"",""1"",""5508""
","
","
","""event"",""trial"",""time""
""fullscreenenter"",""1"",""5508""
","
","","","-1","","","23","10848","5052","&#9826;","elianto","#f73b6a7A","-1","-1","1","0","[]","0","0","3","","","","","","","",""
"pit-trial","76","774722","0.0-2.0-14.3-2.3","battery-v0.2","","""event"",""trial"",""time""
""fullscreenenter"",""1"",""5508""
","
","
","""event"",""trial"",""time""
""fullscreenenter"",""1"",""5508""
","
","","","-1","","","23","10848","5052","&#9826;","elianto","#f73b6a7A","-1","-1","1","0","[]","0","0","3","","","","","","","",""
"pit-trial","77","779575","0.0-2.0-14.3-3.3","battery-v0.2","","""event"",""trial"",""time""
""fullscreenenter"",""1"",""5508""
","
","
","""event"",""trial"",""time""
""fullscreenenter"",""1"",""5508""
","
","","","-1","","","23","10848","5052","&#9826;","elianto","#f73b6a7A","-1","-1","1","-10","[]","0","0","3","","","","","","","",""
"pit-trial","78","784429","0.0-2.0-14.3-4.3","battery-v0.2","","""event"",""trial"",""time""
""fullscreenenter"",""1"",""5508""
","
","
","""event"",""trial"",""time""
""fullscreenenter"",""1"",""5508""
","
","","","-1","","","23","10848","5052","&#9826;","elianto","#f73b6a7A","-1","-1","1","0","[]","0","0","3","","","","","","","",""
"call-function","79","784433","0.0-2.0-15.0","battery-v0.2","","""event"",""trial"",""time""
""fullscreenenter"",""1"",""5508""
","
","
","""event"",""trial"",""time""
""fullscreenenter"",""1"",""5508""
","
","","","","","","","","","","","","","","","","","","","","","","","","","","",""
"pit-instructions","80","1100481","0.0-2.0-16.0","battery-v0.2","","""event"",""trial"",""time""
""fullscreenenter"",""1"",""5508""
","
","
","""event"",""trial"",""time""
""fullscreenenter"",""1"",""5508""
","
","","[{""page_index"":0,""viewing_time"":296306.6000000001},{""page_index"":1,""viewing_time"":9987.100000000093},{""page_index"":2,""viewing_time"":4880},{""page_index"":3,""viewing_time"":4871.699999999721}]","316045.8999999999","","","","","","","","","","","","","","","","","","","","","","","",""
"pit-trial","81","1105351","0.0-2.0-17.0-0.0","battery-v0.2","","""event"",""trial"",""time""
""fullscreenenter"",""1"",""5508""
","
","
","""event"",""trial"",""time""
""fullscreenenter"",""1"",""5508""
","
","","","-1","","","23","10848","5052","&#9789;","elianto","#f73b6a7A"," ","-1","0","-10","[]","0","0","4","","","","","","","",""
"pit-trial","82","1110231","0.0-2.0-17.0-1.0","battery-v0.2","","""event"",""trial"",""time""
""fullscreenenter"",""1"",""5508""
","
","
","""event"",""trial"",""time""
""fullscreenenter"",""1"",""5508""
","
","","","-1","","","23","10848","5052","&#9789;","elianto","#f73b6a7A"," ","-1","0","-10","[]","0","0","4","","","","","","","",""
"pit-trial","83","1115101","0.0-2.0-17.0-2.0","battery-v0.2","","""event"",""trial"",""time""
""fullscreenenter"",""1"",""5508""
","
","
","""event"",""trial"",""time""
""fullscreenenter"",""1"",""5508""
","
","","","-1","","","23","10848","5052","&#9789;","elianto","#f73b6a7A"," ","-1","0","-10","[]","0","0","4","","","","","","","",""
"pit-trial","84","1119976","0.0-2.0-17.0-3.0","battery-v0.2","","""event"",""trial"",""time""
""fullscreenenter"",""1"",""5508""
","
","
","""event"",""trial"",""time""
""fullscreenenter"",""1"",""5508""
","
","","","-1","","","23","10848","5052","&#9789;","elianto","#f73b6a7A"," ","-1","0","0","[]","0","0","4","","","","","","","",""
"pit-trial","85","1124851","0.0-2.0-17.0-4.0","battery-v0.2","","""event"",""trial"",""time""
""fullscreenenter"",""1"",""5508""
","
","
","""event"",""trial"",""time""
""fullscreenenter"",""1"",""5508""
","
","","","-1","","","23","10848","5052","&#9789;","elianto","#f73b6a7A"," ","-1","0","-10","[]","0","0","4","","","","","","","",""
"pit-trial","86","1129732","0.0-2.0-17.1-0.1","battery-v0.2","","""event"",""trial"",""time""
""fullscreenenter"",""1"",""5508""
","
","
","""event"",""trial"",""time""
""fullscreenenter"",""1"",""5508""
","
","","","-1","","","23","10848","5052","&#9789;","elianto","#f73b6a7A"," ","-1","0","-10","[]","0","0","4","","","","","","","",""
"pit-trial","87","1134586","0.0-2.0-17.1-1.1","battery-v0.2","","""event"",""trial"",""time""
""fullscreenenter"",""1"",""5508""
","
","
","""event"",""trial"",""time""
""fullscreenenter"",""1"",""5508""
","
","","","-1","","","23","10848","5052","&#9789;","elianto","#f73b6a7A"," ","-1","0","-10","[]","0","0","4","","","","","","","",""
"pit-trial","88","1139441","0.0-2.0-17.1-2.1","battery-v0.2","","""event"",""trial"",""time""
""fullscreenenter"",""1"",""5508""
","
","
","""event"",""trial"",""time""
""fullscreenenter"",""1"",""5508""
","
","","","-1","","","23","10848","5052","&#9789;","elianto","#f73b6a7A"," ","-1","0","-10","[]","0","0","4","","","","","","","",""
"pit-trial","89","1144295","0.0-2.0-17.1-3.1","battery-v0.2","","""event"",""trial"",""time""
""fullscreenenter"",""1"",""5508""
","
","
","""event"",""trial"",""time""
""fullscreenenter"",""1"",""5508""
","
","","","-1","","","23","10848","5052","&#9789;","elianto","#f73b6a7A"," ","-1","0","0","[]","0","0","4","","","","","","","",""
"pit-trial","90","1149150","0.0-2.0-17.1-4.1","battery-v0.2","","""event"",""trial"",""time""
""fullscreenenter"",""1"",""5508""
","
","
","""event"",""trial"",""time""
""fullscreenenter"",""1"",""5508""
","
","","","-1","","","23","10848","5052","&#9789;","elianto","#f73b6a7A"," ","-1","0","-10","[]","0","0","4","","","","","","","",""
"pit-trial","91","1154007","0.0-2.0-17.2-0.2","battery-v0.2","","""event"",""trial"",""time""
""fullscreenenter"",""1"",""5508""
","
","
","""event"",""trial"",""time""
""fullscreenenter"",""1"",""5508""
","
","","","-1","","","23","10848","5052","&#9789;","elianto","#f73b6a7A"," ","-1","0","-10","[]","0","0","4","","","","","","","",""
"pit-trial","92","1158864","0.0-2.0-17.2-1.2","battery-v0.2","","""event"",""trial"",""time""
""fullscreenenter"",""1"",""5508""
","
","
","""event"",""trial"",""time""
""fullscreenenter"",""1"",""5508""
","
","","","-1","","","23","10848","5052","&#9789;","elianto","#f73b6a7A"," ","-1","0","-10","[]","0","0","4","","","","","","","",""
"pit-trial","93","1163720","0.0-2.0-17.2-2.2","battery-v0.2","","""event"",""trial"",""time""
""fullscreenenter"",""1"",""5508""
","
","
","""event"",""trial"",""time""
""fullscreenenter"",""1"",""5508""
","
","","","-1","","","23","10848","5052","&#9789;","elianto","#f73b6a7A"," ","-1","0","-10","[]","0","0","4","","","","","","","",""
"pit-trial","94","1168574","0.0-2.0-17.2-3.2","battery-v0.2","","""event"",""trial"",""time""
""fullscreenenter"",""1"",""5508""
","
","
","""event"",""trial"",""time""
""fullscreenenter"",""1"",""5508""
","
","","","-1","","","23","10848","5052","&#9789;","elianto","#f73b6a7A"," ","-1","0","0","[]","0","0","4","","","","","","","",""
"pit-trial","95","1173430","0.0-2.0-17.2-4.2","battery-v0.2","","""event"",""trial"",""time""
""fullscreenenter"",""1"",""5508""
","
","
","""event"",""trial"",""time""
""fullscreenenter"",""1"",""5508""
","
","","","-1","","","23","10848","5052","&#9789;","elianto","#f73b6a7A"," ","-1","0","-10","[]","0","0","4","","","","","","","",""
"pit-trial","96","1178285","0.0-2.0-17.3-0.3","battery-v0.2","","""event"",""trial"",""time""
""fullscreenenter"",""1"",""5508""
","
","
","""event"",""trial"",""time""
""fullscreenenter"",""1"",""5508""
","
","","","-1","","","23","10848","5052","&#9789;","elianto","#f73b6a7A"," ","-1","0","-10","[]","0","0","4","","","","","","","",""
"pit-trial","97","1183141","0.0-2.0-17.3-1.3","battery-v0.2","","""event"",""trial"",""time""
""fullscreenenter"",""1"",""5508""
","
","
","""event"",""trial"",""time""
""fullscreenenter"",""1"",""5508""
","
","","","-1","","","23","10848","5052","&#9789;","elianto","#f73b6a7A"," ","-1","0","-10","[]","0","0","4","","","","","","","",""
"pit-trial","98","1187997","0.0-2.0-17.3-2.3","battery-v0.2","","""event"",""trial"",""time""
""fullscreenenter"",""1"",""5508""
","
","
","""event"",""trial"",""time""
""fullscreenenter"",""1"",""5508""
","
","","","-1","","","23","10848","5052","&#9789;","elianto","#f73b6a7A"," ","-1","0","-10","[]","0","0","4","","","","","","","",""
"pit-trial","99","1192850","0.0-2.0-17.3-3.3","battery-v0.2","","""event"",""trial"",""time""
""fullscreenenter"",""1"",""5508""
","
","
","""event"",""trial"",""time""
""fullscreenenter"",""1"",""5508""
","
","","","-1","","","23","10848","5052","&#9789;","elianto","#f73b6a7A"," ","-1","0","0","[]","0","0","4","","","","","","","",""
"pit-trial","100","1197704","0.0-2.0-17.3-4.3","battery-v0.2","","""event"",""trial"",""time""
""fullscreenenter"",""1"",""5508""
","
","
","""event"",""trial"",""time""
""fullscreenenter"",""1"",""5508""
","
","","","-1","","","23","10848","5052","&#9789;","elianto","#f73b6a7A"," ","-1","0","-10","[]","0","0","4","","","","","","","",""
"call-function","101","1197707","0.0-2.0-18.0","battery-v0.2","","""event"",""trial"",""time""
""fullscreenenter"",""1"",""5508""
","
","
","""event"",""trial"",""time""
""fullscreenenter"",""1"",""5508""
","
","","","","","","","","","","","","","","","","","","","","","","","","","","",""
"pit-instructions","102","1476585","0.0-2.0-19.0","battery-v0.2","","""event"",""trial"",""time""
""fullscreenenter"",""1"",""5508""
","
","
","""event"",""trial"",""time""
""fullscreenenter"",""1"",""5508""
","
","","[{""page_index"":0,""viewing_time"":8413.099999999627},{""page_index"":1,""viewing_time"":13813.900000000373},{""page_index"":2,""viewing_time"":174767.59999999963},{""page_index"":3,""viewing_time"":8563.80000000028},{""page_index"":4,""viewing_time"":17294.600000000093},{""page_index"":5,""viewing_time"":34618.59999999963},{""page_index"":6,""viewing_time"":8705.200000000186},{""page_index"":7,""viewing_time"":7140.600000000093},{""page_index"":8,""viewing_time"":5559.899999999907}]","278877.8999999999","","","","","","","","","","","","","","","","","","","","","","","",""
"pit-comprehension","103","1482918","0.0-2.0-20.0-0.0","battery-v0.2","","""event"",""trial"",""time""
""fullscreenenter"",""1"",""5508""
","
","
","""event"",""trial"",""time""
""fullscreenenter"",""1"",""5508""
","
","","","6324.399999999907","[""SPACE""]","0","23","10848","5052","","","","","","","","","","","","","","","","","","",""
"pit-instructions","104","1487528","0.0-2.0-20.0-1.0","battery-v0.2","","""event"",""trial"",""time""
""fullscreenenter"",""1"",""5508""
","
","
","""event"",""trial"",""time""
""fullscreenenter"",""1"",""5508""
","
","","[{""page_index"":0,""viewing_time"":4488.399999999907}]","4488.899999999907","","","","","","","","","","","","","","","","","","","","","","","",""
"pit-comprehension","105","1495416","0.0-2.0-21.0-0.0","battery-v0.2","","""event"",""trial"",""time""
""fullscreenenter"",""1"",""5508""
","
","
","""event"",""trial"",""time""
""fullscreenenter"",""1"",""5508""
","
","","","7881.100000000093","[""10""]","0","23","10848","5052","","","","","","","","","","","","","","","","","","",""
"pit-instructions","106","1499810","0.0-2.0-21.0-1.0","battery-v0.2","","""event"",""trial"",""time""
""fullscreenenter"",""1"",""5508""
","
","
","""event"",""trial"",""time""
""fullscreenenter"",""1"",""5508""
","
","","[{""page_index"":0,""viewing_time"":4329.0999999996275}]","4329.5","","","","","","","","","","","","","","","","","","","","","","","",""
"pit-comprehension","107","1506956","0.0-2.0-22.0-0.0","battery-v0.2","","""event"",""trial"",""time""
""fullscreenenter"",""1"",""5508""
","
","
","""event"",""trial"",""time""
""fullscreenenter"",""1"",""5508""
","
","","","7140.700000000186","[""0""]","0","23","10848","5052","","","","","","","","","","","","","","","","","","",""
"pit-instructions","108","1512484","0.0-2.0-22.0-1.0","battery-v0.2","","""event"",""trial"",""time""
""fullscreenenter"",""1"",""5508""
","
","
","""event"",""trial"",""time""
""fullscreenenter"",""1"",""5508""
","
","","[{""page_index"":0,""viewing_time"":5467.5}]","5468.300000000279","","","","","","","","","","","","","","","","","","","","","","","",""
"pit-comprehension","109","1524529","0.0-2.0-23.0-0.0","battery-v0.2","","""event"",""trial"",""time""
""fullscreenenter"",""1"",""5508""
","
","
","""event"",""trial"",""time""
""fullscreenenter"",""1"",""5508""
","
","","","12039.100000000093","[""False""]","1","23","10848","5052","","","","","","","","","","","","","","","","","","",""
"pit-instructions","110","1532029","0.0-2.0-23.0-1.0","battery-v0.2","","""event"",""trial"",""time""
""fullscreenenter"",""1"",""5508""
","
","
","""event"",""trial"",""time""
""fullscreenenter"",""1"",""5508""
","
","","[{""page_index"":0,""viewing_time"":7444.200000000186}]","7444.799999999814","","","","","","","","","","","","","","","","","","","","","","","",""
"pit-instructions","111","1533178","0.0-2.0-23.0-2.0-0.0","battery-v0.2","","""event"",""trial"",""time""
""fullscreenenter"",""1"",""5508""
","
","
","""event"",""trial"",""time""
""fullscreenenter"",""1"",""5508""
","
","","[{""page_index"":0,""viewing_time"":1144.1000000000931}]","1144.6000000000931","","","","","","","","","","","","","","","","","","","","","","","",""
"pit-comprehension","112","1541916","0.0-2.0-23.1-0.1","battery-v0.2","","""event"",""trial"",""time""
""fullscreenenter"",""1"",""5508""
","
","
","""event"",""trial"",""time""
""fullscreenenter"",""1"",""5508""
","
","","","8734.399999999907","[""True""]","0","23","10848","5052","","","","","","","","","","","","","","","","","","",""
"pit-instructions","113","1545718","0.0-2.0-23.1-1.1","battery-v0.2","","""event"",""trial"",""time""
""fullscreenenter"",""1"",""5508""
","
","
","""event"",""trial"",""time""
""fullscreenenter"",""1"",""5508""
","
","","[{""page_index"":0,""viewing_time"":3743.899999999907}]","3744.600000000093","","","","","","","","","","","","","","","","","","","","","","","",""
"pit-comprehension","114","1589916","0.0-2.0-24.0-0.0","battery-v0.2","","""event"",""trial"",""time""
""fullscreenenter"",""1"",""5508""
","
","
","""event"",""trial"",""time""
""fullscreenenter"",""1"",""5508""
","
","","","44191.700000000186","[""True""]","0","23","10848","5052","","","","","","","","","","","","","","","","","","",""
"pit-instructions","115","1591954","0.0-2.0-24.0-1.0","battery-v0.2","","""event"",""trial"",""time""
""fullscreenenter"",""1"",""5508""
","
","
","""event"",""trial"",""time""
""fullscreenenter"",""1"",""5508""
","
","","[{""page_index"":0,""viewing_time"":1975.8000000002794}]","1976.2000000001863","","","","","","","","","","","","","","","","","","","","","","","",""
"pit-comprehension","116","1599983","0.0-2.0-25.0-0.0","battery-v0.2","","""event"",""trial"",""time""
""fullscreenenter"",""1"",""5508""
","
","
","""event"",""trial"",""time""
""fullscreenenter"",""1"",""5508""
","
","","","8021.4000000003725","[""True""]","0","23","10848","5052","","","","","","","","","","","","","","","","","","",""
"pit-instructions","117","1601791","0.0-2.0-25.0-1.0","battery-v0.2","","""event"",""trial"",""time""
""fullscreenenter"",""1"",""5508""
","
","
","""event"",""trial"",""time""
""fullscreenenter"",""1"",""5508""
","
","","[{""page_index"":0,""viewing_time"":1746.7999999998137}]","1747.5","","","","","","","","","","","","","","","","","","","","","","","",""
"pit-comprehension","118","1610449","0.0-2.0-26.0-0.0","battery-v0.2","","""event"",""trial"",""time""
""fullscreenenter"",""1"",""5508""
","
","
","""event"",""trial"",""time""
""fullscreenenter"",""1"",""5508""
","
","","","8652","[""True""]","1","23","10848","5052","","","","","","","","","","","","","","","","","","",""
"pit-instructions","119","1613184","0.0-2.0-26.0-1.0","battery-v0.2","","""event"",""trial"",""time""
""fullscreenenter"",""1"",""5508""
","
","
","""event"",""trial"",""time""
""fullscreenenter"",""1"",""5508""
","
","","[{""page_index"":0,""viewing_time"":2670.600000000093}]","2671.100000000093","","","","","","","","","","","","","","","","","","","","","","","",""
"pit-instructions","120","1614540","0.0-2.0-26.0-2.0-0.0","battery-v0.2","","""event"",""trial"",""time""
""fullscreenenter"",""1"",""5508""
","
","
","""event"",""trial"",""time""
""fullscreenenter"",""1"",""5508""
","
","","[{""page_index"":0,""viewing_time"":1352.3999999999069}]","1353.1000000000931","","","","","","","","","","","","","","","","","","","","","","","",""
"pit-comprehension","121","1619291","0.0-2.0-26.1-0.1","battery-v0.2","","""event"",""trial"",""time""
""fullscreenenter"",""1"",""5508""
","
","
","""event"",""trial"",""time""
""fullscreenenter"",""1"",""5508""
","
","","","4747.100000000093","[""False""]","0","23","10848","5052","","","","","","","","","","","","","","","","","","",""
"pit-instructions","122","1620735","0.0-2.0-26.1-1.1","battery-v0.2","","""event"",""trial"",""time""
""fullscreenenter"",""1"",""5508""
","
","
","""event"",""trial"",""time""
""fullscreenenter"",""1"",""5508""
","
","","[{""page_index"":0,""viewing_time"":1374.5}]","1375.1000000000931","","","","","","","","","","","","","","","","","","","","","","","",""
"pit-instructions","123","1638612","0.0-3.0","battery-v0.2","","""event"",""trial"",""time""
""fullscreenenter"",""1"",""5508""
","
","
","""event"",""trial"",""time""
""fullscreenenter"",""1"",""5508""
","
","","[{""page_index"":0,""viewing_time"":4050.2999999998137},{""page_index"":1,""viewing_time"":6003.600000000093},{""page_index"":2,""viewing_time"":7819.300000000279}]","17873.600000000093","","","","","","","","","","","","","","","","","","","","","","","",""
"pit-trial","124","1642091","0.0-4.0","battery-v0.2","","""event"",""trial"",""time""
""fullscreenenter"",""1"",""5508""
","
","
","""event"",""trial"",""time""
""fullscreenenter"",""1"",""5508""
","
","","","617.5","","","23","10848","5052","&#9728;","elianto","#f73b6a7A","-1"," ","0","-10","[1468.2000000001863]","1","1","","","10848","1","0","4","lose","no-go","0"
"pit-trial","125","1645437","0.0-5.0","battery-v0.2","","""event"",""trial"",""time""
""fullscreenenter"",""1"",""5508""
","
","
","""event"",""trial"",""time""
""fullscreenenter"",""1"",""5508""
","
","","","472.3000000002794","","","23","10848","5052","&#9752;","elianto","#f73b6a7A"," "," ","1","0","[1329.5]","1","1","","","10848","2","3","3","lose","go","0"
"pit-trial","126","1648881","0.0-6.0","battery-v0.2","","""event"",""trial"",""time""
""fullscreenenter"",""1"",""5508""
","
","
","""event"",""trial"",""time""
""fullscreenenter"",""1"",""5508""
","
","","","574.7999999998137","","","23","10848","5052","&#9733;","elianto","#3366ff99","-1"," ","0","0","[1434.7000000001863]","1","1","","","10848","3","2","2","win","no-go","0"
"pit-trial","127","1652251","0.0-7.0","battery-v0.2","","""event"",""trial"",""time""
""fullscreenenter"",""1"",""5508""
","
","
","""event"",""trial"",""time""
""fullscreenenter"",""1"",""5508""
","
","","","511.70000000018626","","","23","10848","5052","&#9730;","elianto","#3366ff99"," "," ","1","+10","[1364.7000000001863]","1","1","","","10848","4","1","1","win","go","0"
"pit-trial","128","1655887","0.0-8.0","battery-v0.2","","""event"",""trial"",""time""
""fullscreenenter"",""1"",""5508""
","
","
","""event"",""trial"",""time""
""fullscreenenter"",""1"",""5508""
","
","","","773.5","","","23","10848","5052","&#9752;","elianto","#f73b6a7A"," "," ","1","0","[1629.5999999996275]","1","1","","","10848","5","3","3","lose","go","0"
"pit-trial","129","1660757","0.0-9.0","battery-v0.2","","""event"",""trial"",""time""
""fullscreenenter"",""1"",""5508""
","
","
","""event"",""trial"",""time""
""fullscreenenter"",""1"",""5508""
","
","","","-1","","","23","10848","5052","&#9728;","elianto","#f73b6a7A","-1","-1","1","0","[]","0","1","","","10848","6","0","4","lose","no-go","0"
"pit-trial","130","1664244","0.0-10.0","battery-v0.2","","""event"",""trial"",""time""
""fullscreenenter"",""1"",""5508""
","
","
","""event"",""trial"",""time""
""fullscreenenter"",""1"",""5508""
","
","","","616.1000000000931","","","23","10848","5052","&#9730;","elianto","#3366ff99"," "," ","1","+10","[1467.5]","1","1","","","10848","7","1","1","win","go","0"
"pit-trial","131","1667694","0.0-11.0","battery-v0.2","","""event"",""trial"",""time""
""fullscreenenter"",""1"",""5508""
","
","
","""event"",""trial"",""time""
""fullscreenenter"",""1"",""5508""
","
","","","594.3999999999069","","","23","10848","5052","&#9733;","elianto","#3366ff99","-1"," ","0","+10","[1444.9000000003725]","1","1","","","10848","8","2","2","win","no-go","1"
"pit-trial","132","1672057","0.0-12.0","battery-v0.2","","""event"",""trial"",""time""
""fullscreenenter"",""1"",""5508""
","
","
","""event"",""trial"",""time""
""fullscreenenter"",""1"",""5508""
","
","","","1507.5999999996275","","","23","10848","5052","&#9728;","elianto","#f73b6a7A","-1"," ","0","-10","[2358.100000000093]","1","1","","","10848","9","0","4","lose","no-go","0"
"pit-trial","133","1675419","0.0-13.0","battery-v0.2","","""event"",""trial"",""time""
""fullscreenenter"",""1"",""5508""
","
","
","""event"",""trial"",""time""
""fullscreenenter"",""1"",""5508""
","
","","","505.39999999990687","","","23","10848","5052","&#9733;","elianto","#3366ff99","-1"," ","0","0","[1356.3999999999069]","1","1","","","10848","10","2","2","win","no-go","0"
"pit-trial","134","1679079","0.0-14.0","battery-v0.2","","""event"",""trial"",""time""
""fullscreenenter"",""1"",""5508""
","
","
","""event"",""trial"",""time""
""fullscreenenter"",""1"",""5508""
","
","","","805.2000000001863","","","23","10848","5052","&#9730;","elianto","#3366ff99"," "," ","1","+10","[1655.2999999998137]","1","1","","","10848","11","1","1","win","go","0"
"pit-trial","135","1683935","0.0-15.0","battery-v0.2","","""event"",""trial"",""time""
""fullscreenenter"",""1"",""5508""
","
","
","""event"",""trial"",""time""
""fullscreenenter"",""1"",""5508""
","
","","","-1","","","23","10848","5052","&#9752;","elianto","#f73b6a7A"," ","-1","0","-10","[]","0","1","","","10848","12","3","3","lose","go","0"
"pit-trial","136","1687329","0.0-16.0","battery-v0.2","","""event"",""trial"",""time""
""fullscreenenter"",""1"",""5508""
","
","
","""event"",""trial"",""time""
""fullscreenenter"",""1"",""5508""
","
","","","537","","","23","10848","5052","&#9730;","elianto","#3366ff99"," "," ","1","+10","[1387.8999999999069]","1","1","","","10848","13","1","1","win","go","0"
"pit-trial","137","1690785","0.0-17.0","battery-v0.2","","""event"",""trial"",""time""
""fullscreenenter"",""1"",""5508""
","
","
","""event"",""trial"",""time""
""fullscreenenter"",""1"",""5508""
","
","","","594","","","23","10848","5052","&#9733;","elianto","#3366ff99","-1"," ","0","0","[1452]","1","1","","","10848","14","2","2","win","no-go","0"
"pit-trial","138","1695642","0.0-18.0","battery-v0.2","","""event"",""trial"",""time""
""fullscreenenter"",""1"",""5508""
","
","
","""event"",""trial"",""time""
""fullscreenenter"",""1"",""5508""
","
","","","-1","","","23","10848","5052","&#9752;","elianto","#f73b6a7A"," ","-1","0","-10","[]","0","1","","","10848","15","3","3","lose","go","0"
"pit-trial","139","1700499","0.0-19.0","battery-v0.2","","""event"",""trial"",""time""
""fullscreenenter"",""1"",""5508""
","
","
","""event"",""trial"",""time""
""fullscreenenter"",""1"",""5508""
","
","","","-1","","","23","10848","5052","&#9728;","elianto","#f73b6a7A","-1","-1","1","0","[]","0","1","","","10848","16","0","4","lose","no-go","0"
"pit-trial","140","1705356","0.0-20.0","battery-v0.2","","""event"",""trial"",""time""
""fullscreenenter"",""1"",""5508""
","
","
","""event"",""trial"",""time""
""fullscreenenter"",""1"",""5508""
","
","","","-1","","","23","10848","5052","&#9752;","elianto","#f73b6a7A"," ","-1","0","-10","[]","0","1","","","10848","17","3","3","lose","go","0"
"pit-trial","141","1708862","0.0-21.0","battery-v0.2","","""event"",""trial"",""time""
""fullscreenenter"",""1"",""5508""
","
","
","""event"",""trial"",""time""
""fullscreenenter"",""1"",""5508""
","
","","","637.3999999999069","","","23","10848","5052","&#9733;","elianto","#3366ff99","-1"," ","0","+10","[1487.6999999997206]","1","1","","","10848","18","2","2","win","no-go","1"
"pit-trial","142","1713719","0.0-22.0","battery-v0.2","","""event"",""trial"",""time""
""fullscreenenter"",""1"",""5508""
","
","
","""event"",""trial"",""time""
""fullscreenenter"",""1"",""5508""
","
","","","-1","","","23","10848","5052","&#9728;","elianto","#f73b6a7A","-1","-1","1","0","[]","0","1","","","10848","19","0","4","lose","no-go","0"
"pit-trial","143","1717155","0.0-23.0","battery-v0.2","","""event"",""trial"",""time""
""fullscreenenter"",""1"",""5508""
","
","
","""event"",""trial"",""time""
""fullscreenenter"",""1"",""5508""
","
","","","581.5","","","23","10848","5052","&#9730;","elianto","#3366ff99"," "," ","1","0","[1431.8000000002794]","1","1","","","10848","20","1","1","win","go","1"
"pit-instructions","144","1732260","0.0-24.0","battery-v0.2","","""event"",""trial"",""time""
""fullscreenenter"",""1"",""5508""
","
","
","""event"",""trial"",""time""
""fullscreenenter"",""1"",""5508""
","
","","[{""page_index"":0,""viewing_time"":7204.100000000093},{""page_index"":1,""viewing_time"":7893.299999999814}]","15097.80000000028","","","","","","","","","","","","","","","","","","","","","","","",""
"pit-trial","145","1735926","0.0-25.0","battery-v0.2","","""event"",""trial"",""time""
""fullscreenenter"",""1"",""5508""
","
","
","""event"",""trial"",""time""
""fullscreenenter"",""1"",""5508""
","
","","","786.6000000000931","","","23","10848","5052","t","elianto","#f73b6a7A","-1"," ","0","-10","[1644.7000000001863]","1","2","","","10848","21","2","4","lose","no-go","0"
"pit-trial","146","1739261","0.0-26.0","battery-v0.2","","""event"",""trial"",""time""
""fullscreenenter"",""1"",""5508""
","
","
","""event"",""trial"",""time""
""fullscreenenter"",""1"",""5508""
","
","","","456.60000000009313","","","23","10848","5052","f","elianto","#3366ff99"," "," ","1","0","[1315.7000000001863]","1","2","","","10848","22","1","1","win","go","1"
"pit-trial","147","1744137","0.0-27.0","battery-v0.2","","""event"",""trial"",""time""
""fullscreenenter"",""1"",""5508""
","
","
","""event"",""trial"",""time""
""fullscreenenter"",""1"",""5508""
","
","","","-1","","","23","10848","5052","n","elianto","#f73b6a7A","-1","-1","1","0","[]","0","2","","","10848","23","0","4","lose","no-go","0"
"pit-trial","148","1749027","0.0-28.0","battery-v0.2","","""event"",""trial"",""time""
""fullscreenenter"",""1"",""5508""
","
","
","""event"",""trial"",""time""
""fullscreenenter"",""1"",""5508""
","
","","","-1","","","23","10848","5052","b","elianto","#f73b6a7A"," ","-1","0","0","[]","0","2","","","10848","24","3","3","lose","go","1"
"pit-trial","149","1753891","0.0-29.0","battery-v0.2","","""event"",""trial"",""time""
""fullscreenenter"",""1"",""5508""
","
","
","""event"",""trial"",""time""
""fullscreenenter"",""1"",""5508""
","
","","","-1","","","23","10848","5052","n","elianto","#f73b6a7A","-1","-1","1","0","[]","0","2","","","10848","25","0","4","lose","no-go","0"
"pit-trial","150","1757235","0.0-30.0","battery-v0.2","","""event"",""trial"",""time""
""fullscreenenter"",""1"",""5508""
","
","
","""event"",""trial"",""time""
""fullscreenenter"",""1"",""5508""
","
","","","475.39999999990687","","","23","10848","5052","f","elianto","#3366ff99"," "," ","1","0","[1326]","1","2","","","10848","26","1","1","win","go","1"
"pit-trial","151","1762107","0.0-31.0","battery-v0.2","","""event"",""trial"",""time""
""fullscreenenter"",""1"",""5508""
","
","
","""event"",""trial"",""time""
""fullscreenenter"",""1"",""5508""
","
","","","-1","","","23","10848","5052","t","elianto","#f73b6a7A","-1","-1","1","0","[]","0","2","","","10848","27","2","4","lose","no-go","0"
"pit-trial","152","1766965","0.0-32.0","battery-v0.2","","""event"",""trial"",""time""
""fullscreenenter"",""1"",""5508""
","
","
","""event"",""trial"",""time""
""fullscreenenter"",""1"",""5508""
","
","","","-1","","","23","10848","5052","b","elianto","#f73b6a7A"," ","-1","0","-10","[]","0","2","","","10848","28","3","3","lose","go","0"
"pit-trial","153","1770302","0.0-33.0","battery-v0.2","","""event"",""trial"",""time""
""fullscreenenter"",""1"",""5508""
","
","
","""event"",""trial"",""time""
""fullscreenenter"",""1"",""5508""
","
","","","481.20000000018626","","","23","10848","5052","f","elianto","#3366ff99"," "," ","1","+10","[1332]","1","2","","","10848","29","1","1","win","go","0"
"pit-trial","154","1775159","0.0-34.0","battery-v0.2","","""event"",""trial"",""time""
""fullscreenenter"",""1"",""5508""
","
","
","""event"",""trial"",""time""
""fullscreenenter"",""1"",""5508""
","
","","","-1","","","23","10848","5052","t","elianto","#f73b6a7A","-1","-1","1","0","[]","0","2","","","10848","30","2","4","lose","no-go","0"
"pit-trial","155","1780016","0.0-35.0","battery-v0.2","","""event"",""trial"",""time""
""fullscreenenter"",""1"",""5508""
","
","
","""event"",""trial"",""time""
""fullscreenenter"",""1"",""5508""
","
","","","-1","","","23","10848","5052","n","elianto","#f73b6a7A","-1","-1","1","-10","[]","0","2","","","10848","31","0","4","lose","no-go","1"
"pit-trial","156","1784874","0.0-36.0","battery-v0.2","","""event"",""trial"",""time""
""fullscreenenter"",""1"",""5508""
","
","
","""event"",""trial"",""time""
""fullscreenenter"",""1"",""5508""
","
","","","-1","","","23","10848","5052","b","elianto","#f73b6a7A"," ","-1","0","-10","[]","0","2","","","10848","32","3","3","lose","go","0"
"pit-trial","157","1789734","0.0-37.0","battery-v0.2","","""event"",""trial"",""time""
""fullscreenenter"",""1"",""5508""
","
","
","""event"",""trial"",""time""
""fullscreenenter"",""1"",""5508""
","
","","","-1","","","23","10848","5052","b","elianto","#f73b6a7A"," ","-1","0","-10","[]","0","2","","","10848","33","3","3","lose","go","0"
"pit-trial","158","1794590","0.0-38.0","battery-v0.2","","""event"",""trial"",""time""
""fullscreenenter"",""1"",""5508""
","
","
","""event"",""trial"",""time""
""fullscreenenter"",""1"",""5508""
","
","","","-1","","","23","10848","5052","n","elianto","#f73b6a7A","-1","-1","1","0","[]","0","2","","","10848","34","0","4","lose","no-go","0"
"pit-trial","159","1797911","0.0-39.0","battery-v0.2","","""event"",""trial"",""time""
""fullscreenenter"",""1"",""5508""
","
","
","""event"",""trial"",""time""
""fullscreenenter"",""1"",""5508""
","
","","","460.79999999981374","","","23","10848","5052","f","elianto","#3366ff99"," "," ","1","0","[1315.7000000001863]","1","2","","","10848","35","1","1","win","go","1"
"pit-trial","160","1802767","0.0-40.0","battery-v0.2","","""event"",""trial"",""time""
""fullscreenenter"",""1"",""5508""
","
","
","""event"",""trial"",""time""
""fullscreenenter"",""1"",""5508""
","
","","","-1","","","23","10848","5052","t","elianto","#f73b6a7A","-1","-1","1","0","[]","0","2","","","10848","36","2","4","lose","no-go","0"
"pit-trial","161","1806129","0.0-41.0","battery-v0.2","","""event"",""trial"",""time""
""fullscreenenter"",""1"",""5508""
","
","
","""event"",""trial"",""time""
""fullscreenenter"",""1"",""5508""
","
","","","505.89999999990687","","","23","10848","5052","f","elianto","#3366ff99"," "," ","1","+10","[1356.6000000000931]","1","2","","","10848","37","1","1","win","go","0"
"pit-trial","162","1810985","0.0-42.0","battery-v0.2","","""event"",""trial"",""time""
""fullscreenenter"",""1"",""5508""
","
","
","""event"",""trial"",""time""
""fullscreenenter"",""1"",""5508""
","
","","","-1","","","23","10848","5052","t","elianto","#f73b6a7A","-1","-1","1","0","[]","0","2","","","10848","38","2","4","lose","no-go","0"
"pit-trial","163","1815842","0.0-43.0","battery-v0.2","","""event"",""trial"",""time""
""fullscreenenter"",""1"",""5508""
","
","
","""event"",""trial"",""time""
""fullscreenenter"",""1"",""5508""
","
","","","-1","","","23","10848","5052","n","elianto","#f73b6a7A","-1","-1","1","0","[]","0","2","","","10848","39","0","4","lose","no-go","0"
"pit-trial","164","1820699","0.0-44.0","battery-v0.2","","""event"",""trial"",""time""
""fullscreenenter"",""1"",""5508""
","
","
","""event"",""trial"",""time""
""fullscreenenter"",""1"",""5508""
","
","","","-1","","","23","10848","5052","b","elianto","#f73b6a7A"," ","-1","0","-10","[]","0","2","","","10848","40","3","3","lose","go","0"
"pit-trial","165","1823987","0.0-45.0","battery-v0.2","","""event"",""trial"",""time""
""fullscreenenter"",""1"",""5508""
","
","
","""event"",""trial"",""time""
""fullscreenenter"",""1"",""5508""
","
","","","431","","","23","10848","5052","f","elianto","#3366ff99"," "," ","1","0","[1282.9000000003725]","1","2","","","10848","41","1","1","win","go","1"
"pit-trial","166","1828843","0.0-46.0","battery-v0.2","","""event"",""trial"",""time""
""fullscreenenter"",""1"",""5508""
","
","
","""event"",""trial"",""time""
""fullscreenenter"",""1"",""5508""
","
","","","-1","","","23","10848","5052","n","elianto","#f73b6a7A","-1","-1","1","0","[]","0","2","","","10848","42","0","4","lose","no-go","0"
"pit-trial","167","1833700","0.0-47.0","battery-v0.2","","""event"",""trial"",""time""
""fullscreenenter"",""1"",""5508""
","
","
","""event"",""trial"",""time""
""fullscreenenter"",""1"",""5508""
","
","","","-1","","","23","10848","5052","t","elianto","#f73b6a7A","-1","-1","1","-10","[]","0","2","","","10848","43","2","4","lose","no-go","1"
"pit-trial","168","1838558","0.0-48.0","battery-v0.2","","""event"",""trial"",""time""
""fullscreenenter"",""1"",""5508""
","
","
","""event"",""trial"",""time""
""fullscreenenter"",""1"",""5508""
","
","","","-1","","","23","10848","5052","b","elianto","#f73b6a7A"," ","-1","0","-10","[]","0","2","","","10848","44","3","3","lose","go","0"
"pit-trial","169","1841943","0.0-49.0","battery-v0.2","","""event"",""trial"",""time""
""fullscreenenter"",""1"",""5508""
","
","
","""event"",""trial"",""time""
""fullscreenenter"",""1"",""5508""
","
","","","529.6000000000931","","","23","10848","5052","c","elianto","#3366ff99","-1"," ","0","0","[1379.8999999999069]","1","2","","","10848","45","4","2","win","no-go","0"
"pit-trial","170","1846800","0.0-50.0","battery-v0.2","","""event"",""trial"",""time""
""fullscreenenter"",""1"",""5508""
","
","
","""event"",""trial"",""time""
""fullscreenenter"",""1"",""5508""
","
","","","-1","","","23","10848","5052","n","elianto","#f73b6a7A","-1","-1","1","0","[]","0","2","","","10848","46","0","4","lose","no-go","0"
"pit-trial","171","1851656","0.0-51.0","battery-v0.2","","""event"",""trial"",""time""
""fullscreenenter"",""1"",""5508""
","
","
","""event"",""trial"",""time""
""fullscreenenter"",""1"",""5508""
","
","","","-1","","","23","10848","5052","t","elianto","#f73b6a7A","-1","-1","1","0","[]","0","2","","","10848","47","2","4","lose","no-go","0"
"pit-trial","172","1856514","0.0-52.0","battery-v0.2","","""event"",""trial"",""time""
""fullscreenenter"",""1"",""5508""
","
","
","""event"",""trial"",""time""
""fullscreenenter"",""1"",""5508""
","
","","","-1","","","23","10848","5052","b","elianto","#f73b6a7A"," ","-1","0","-10","[]","0","2","","","10848","48","3","3","lose","go","0"
"pit-trial","173","1859877","0.0-53.0","battery-v0.2","","""event"",""trial"",""time""
""fullscreenenter"",""1"",""5508""
","
","
","""event"",""trial"",""time""
""fullscreenenter"",""1"",""5508""
","
","","","507.79999999981374","","","23","10848","5052","c","elianto","#3366ff99","-1"," ","0","0","[1358]","1","2","","","10848","49","4","2","win","no-go","0"
"pit-trial","174","1864734","0.0-54.0","battery-v0.2","","""event"",""trial"",""time""
""fullscreenenter"",""1"",""5508""
","
","
","""event"",""trial"",""time""
""fullscreenenter"",""1"",""5508""
","
","","","-1","","","23","10848","5052","b","elianto","#f73b6a7A"," ","-1","0","-10","[]","0","2","","","10848","50","3","3","lose","go","0"
"pit-trial","175","1869590","0.0-55.0","battery-v0.2","","""event"",""trial"",""time""
""fullscreenenter"",""1"",""5508""
","
","
","""event"",""trial"",""time""
""fullscreenenter"",""1"",""5508""
","
","","","-1","","","23","10848","5052","n","elianto","#f73b6a7A","-1","-1","1","0","[]","0","2","","","10848","51","0","4","lose","no-go","0"
"pit-trial","176","1872878","0.0-56.0","battery-v0.2","","""event"",""trial"",""time""
""fullscreenenter"",""1"",""5508""
","
","
","""event"",""trial"",""time""
""fullscreenenter"",""1"",""5508""
","
","","","432.20000000018626","","","23","10848","5052","f","elianto","#3366ff99"," "," ","1","+10","[1282.4000000003725]","1","2","","","10848","52","1","1","win","go","0"
"pit-trial","177","1877735","0.0-57.0","battery-v0.2","","""event"",""trial"",""time""
""fullscreenenter"",""1"",""5508""
","
","
","""event"",""trial"",""time""
""fullscreenenter"",""1"",""5508""
","
","","","-1","","","23","10848","5052","n","elianto","#f73b6a7A","-1","-1","1","0","[]","0","2","","","10848","53","0","4","lose","no-go","0"
"pit-trial","178","1882591","0.0-58.0","battery-v0.2","","""event"",""trial"",""time""
""fullscreenenter"",""1"",""5508""
","
","
","""event"",""trial"",""time""
""fullscreenenter"",""1"",""5508""
","
","","","-1","","","23","10848","5052","t","elianto","#f73b6a7A","-1","-1","1","0","[]","0","2","","","10848","54","2","4","lose","no-go","0"
"pit-trial","179","1886042","0.0-59.0","battery-v0.2","","""event"",""trial"",""time""
""fullscreenenter"",""1"",""5508""
","
","
","""event"",""trial"",""time""
""fullscreenenter"",""1"",""5508""
","
","","","596.5999999996275","","","23","10848","5052","c","elianto","#3366ff99","-1"," ","0","0","[1446.8999999999069]","1","2","","","10848","55","4","2","win","no-go","0"
"pit-trial","180","1889501","0.0-60.0","battery-v0.2","","""event"",""trial"",""time""
""fullscreenenter"",""1"",""5508""
","
","
","""event"",""trial"",""time""
""fullscreenenter"",""1"",""5508""
","
","","","597.3999999999069","","","23","10848","5052","f","elianto","#3366ff99"," "," ","1","+10","[1447.5]","1","2","","","10848","56","1","1","win","go","0"
"pit-trial","181","1894357","0.0-61.0","battery-v0.2","","""event"",""trial"",""time""
""fullscreenenter"",""1"",""5508""
","
","
","""event"",""trial"",""time""
""fullscreenenter"",""1"",""5508""
","
","","","-1","","","23","10848","5052","b","elianto","#f73b6a7A"," ","-1","0","-10","[]","0","2","","","10848","57","3","3","lose","go","0"
"pit-trial","182","1897666","0.0-62.0","battery-v0.2","","""event"",""trial"",""time""
""fullscreenenter"",""1"",""5508""
","
","
","""event"",""trial"",""time""
""fullscreenenter"",""1"",""5508""
","
","","","449.89999999990687","","","23","10848","5052","f","elianto","#3366ff99"," "," ","1","+10","[1303.7000000001863]","1","2","","","10848","58","1","1","win","go","0"
"pit-trial","183","1901145","0.0-63.0","battery-v0.2","","""event"",""trial"",""time""
""fullscreenenter"",""1"",""5508""
","
","
","""event"",""trial"",""time""
""fullscreenenter"",""1"",""5508""
","
","","","621.1000000000931","","","23","10848","5052","c","elianto","#3366ff99","-1"," ","0","0","[1473]","1","2","","","10848","59","4","2","win","no-go","0"
"pit-trial","184","1906001","0.0-64.0","battery-v0.2","","""event"",""trial"",""time""
""fullscreenenter"",""1"",""5508""
","
","
","""event"",""trial"",""time""
""fullscreenenter"",""1"",""5508""
","
","","","-1","","","23","10848","5052","n","elianto","#f73b6a7A","-1","-1","1","0","[]","0","2","","","10848","60","0","4","lose","no-go","0"
"pit-trial","185","1909377","0.0-65.0","battery-v0.2","","""event"",""trial"",""time""
""fullscreenenter"",""1"",""5508""
","
","
","""event"",""trial"",""time""
""fullscreenenter"",""1"",""5508""
","
","","","516.2999999998137","","","23","10848","5052","c","elianto","#3366ff99","-1"," ","0","0","[1371.2999999998137]","1","2","","","10848","61","4","2","win","no-go","0"
"pit-trial","186","1914232","0.0-66.0","battery-v0.2","","""event"",""trial"",""time""
""fullscreenenter"",""1"",""5508""
","
","
","""event"",""trial"",""time""
""fullscreenenter"",""1"",""5508""
","
","","","-1","","","23","10848","5052","b","elianto","#f73b6a7A"," ","-1","0","-10","[]","0","2","","","10848","62","3","3","lose","go","0"
"pit-trial","187","1917534","0.0-67.0","battery-v0.2","","""event"",""trial"",""time""
""fullscreenenter"",""1"",""5508""
","
","
","""event"",""trial"",""time""
""fullscreenenter"",""1"",""5508""
","
","","","442.60000000009313","","","23","10848","5052","f","elianto","#3366ff99"," "," ","1","+10","[1296.3000000002794]","1","2","","","10848","63","1","1","win","go","0"
"pit-trial","188","1922390","0.0-68.0","battery-v0.2","","""event"",""trial"",""time""
""fullscreenenter"",""1"",""5508""
","
","
","""event"",""trial"",""time""
""fullscreenenter"",""1"",""5508""
","
","","","-1","","","23","10848","5052","t","elianto","#f73b6a7A","-1","-1","1","0","[]","0","2","","","10848","64","2","4","lose","no-go","0"
"pit-trial","189","1925713","0.0-69.0","battery-v0.2","","""event"",""trial"",""time""
""fullscreenenter"",""1"",""5508""
","
","
","""event"",""trial"",""time""
""fullscreenenter"",""1"",""5508""
","
","","","466.79999999981374","","","23","10848","5052","c","elianto","#3366ff99","-1"," ","0","0","[1317.1999999997206]","1","2","","","10848","65","4","2","win","no-go","0"
"pit-trial","190","1930569","0.0-70.0","battery-v0.2","","""event"",""trial"",""time""
""fullscreenenter"",""1"",""5508""
","
","
","""event"",""trial"",""time""
""fullscreenenter"",""1"",""5508""
","
","","","-1","","","23","10848","5052","b","elianto","#f73b6a7A"," ","-1","0","-10","[]","0","2","","","10848","66","3","3","lose","go","0"
"pit-trial","191","1933929","0.0-71.0","battery-v0.2","","""event"",""trial"",""time""
""fullscreenenter"",""1"",""5508""
","
","
","""event"",""trial"",""time""
""fullscreenenter"",""1"",""5508""
","
","","","503.70000000018626","","","23","10848","5052","f","elianto","#3366ff99"," "," ","1","+10","[1354.2999999998137]","1","2","","","10848","67","1","1","win","go","0"
"pit-trial","192","1938093","0.0-72.0","battery-v0.2","","""event"",""trial"",""time""
""fullscreenenter"",""1"",""5508""
","
","
","""event"",""trial"",""time""
""fullscreenenter"",""1"",""5508""
","
","","","1308.6000000000931","","","23","10848","5052","t","elianto","#f73b6a7A","-1"," ","0","-10","[2159.8000000002794]","1","2","","","10848","68","2","4","lose","no-go","0"
"pit-trial","193","1941411","0.0-73.0","battery-v0.2","","""event"",""trial"",""time""
""fullscreenenter"",""1"",""5508""
","
","
","""event"",""trial"",""time""
""fullscreenenter"",""1"",""5508""
","
","","","461.29999999981374","","","23","10848","5052","f","elianto","#3366ff99"," "," ","1","+10","[1312.8999999999069]","1","2","","","10848","69","1","1","win","go","0"
"pit-trial","194","1944773","0.0-74.0","battery-v0.2","","""event"",""trial"",""time""
""fullscreenenter"",""1"",""5508""
","
","
","""event"",""trial"",""time""
""fullscreenenter"",""1"",""5508""
","
","","","498.09999999962747","","","23","10848","5052","c","elianto","#3366ff99","-1"," ","0","0","[1349]","1","2","","","10848","70","4","2","win","no-go","0"
"pit-trial","195","1949629","0.0-75.0","battery-v0.2","","""event"",""trial"",""time""
""fullscreenenter"",""1"",""5508""
","
","
","""event"",""trial"",""time""
""fullscreenenter"",""1"",""5508""
","
","","","-1","","","23","10848","5052","b","elianto","#f73b6a7A"," ","-1","0","-10","[]","0","2","","","10848","71","3","3","lose","go","0"
"pit-trial","196","1952971","0.0-76.0","battery-v0.2","","""event"",""trial"",""time""
""fullscreenenter"",""1"",""5508""
","
","
","""event"",""trial"",""time""
""fullscreenenter"",""1"",""5508""
","
","","","481.29999999981374","","","23","10848","5052","z","elianto","#3366ff99"," "," ","1","+10","[1336.7000000001863]","1","2","","","10848","72","5","1","win","go","0"
"pit-trial","197","1956381","0.0-77.0","battery-v0.2","","""event"",""trial"",""time""
""fullscreenenter"",""1"",""5508""
","
","
","""event"",""trial"",""time""
""fullscreenenter"",""1"",""5508""
","
","","","553.5","","","23","10848","5052","f","elianto","#3366ff99"," "," ","1","+10","[1404.6999999997206]","1","2","","","10848","73","1","1","win","go","0"
"pit-trial","198","1959700","0.0-78.0","battery-v0.2","","""event"",""trial"",""time""
""fullscreenenter"",""1"",""5508""
","
","
","""event"",""trial"",""time""
""fullscreenenter"",""1"",""5508""
","
","","","463.79999999981374","","","23","10848","5052","c","elianto","#3366ff99","-1"," ","0","0","[1313.8999999999069]","1","2","","","10848","74","4","2","win","no-go","0"
"pit-trial","199","1964555","0.0-79.0","battery-v0.2","","""event"",""trial"",""time""
""fullscreenenter"",""1"",""5508""
","
","
","""event"",""trial"",""time""
""fullscreenenter"",""1"",""5508""
","
","","","-1","","","23","10848","5052","b","elianto","#f73b6a7A"," ","-1","0","-10","[]","0","2","","","10848","75","3","3","lose","go","0"
"pit-trial","200","1967968","0.0-80.0","battery-v0.2","","""event"",""trial"",""time""
""fullscreenenter"",""1"",""5508""
","
","
","""event"",""trial"",""time""
""fullscreenenter"",""1"",""5508""
","
","","","553.8999999999069","","","23","10848","5052","z","elianto","#3366ff99"," "," ","1","0","[1408.6000000000931]","1","2","","","10848","76","5","1","win","go","1"
"pit-trial","201","1972825","0.0-81.0","battery-v0.2","","""event"",""trial"",""time""
""fullscreenenter"",""1"",""5508""
","
","
","""event"",""trial"",""time""
""fullscreenenter"",""1"",""5508""
","
","","","-1","","","23","10848","5052","h","elianto","#f73b6a7A","-1","-1","1","-10","[]","0","2","","","10848","77","6","4","lose","no-go","1"
"pit-trial","202","1976144","0.0-82.0","battery-v0.2","","""event"",""trial"",""time""
""fullscreenenter"",""1"",""5508""
","
","
","""event"",""trial"",""time""
""fullscreenenter"",""1"",""5508""
","
","","","463.1999999997206","","","23","10848","5052","c","elianto","#3366ff99","-1"," ","0","0","[1313.7999999998137]","1","2","","","10848","78","4","2","win","no-go","0"
"pit-trial","203","1981000","0.0-83.0","battery-v0.2","","""event"",""trial"",""time""
""fullscreenenter"",""1"",""5508""
","
","
","""event"",""trial"",""time""
""fullscreenenter"",""1"",""5508""
","
","","","-1","","","23","10848","5052","b","elianto","#f73b6a7A"," ","-1","0","-10","[]","0","2","","","10848","79","3","3","lose","go","0"
"pit-trial","204","1984330","0.0-84.0","battery-v0.2","","""event"",""trial"",""time""
""fullscreenenter"",""1"",""5508""
","
","
","""event"",""trial"",""time""
""fullscreenenter"",""1"",""5508""
","
","","","473","","","23","10848","5052","z","elianto","#3366ff99"," "," ","1","+10","[1324.3999999999069]","1","2","","","10848","80","5","1","win","go","0"
"pit-trial","205","1989186","0.0-85.0","battery-v0.2","","""event"",""trial"",""time""
""fullscreenenter"",""1"",""5508""
","
","
","""event"",""trial"",""time""
""fullscreenenter"",""1"",""5508""
","
","","","-1","","","23","10848","5052","h","elianto","#f73b6a7A","-1","-1","1","0","[]","0","2","","","10848","81","6","4","lose","no-go","0"
"pit-trial","206","1992537","0.0-86.0","battery-v0.2","","""event"",""trial"",""time""
""fullscreenenter"",""1"",""5508""
","
","
","""event"",""trial"",""time""
""fullscreenenter"",""1"",""5508""
","
","","","495.29999999981374","","","23","10848","5052","c","elianto","#3366ff99","-1"," ","0","0","[1346.1000000000931]","1","2","","","10848","82","4","2","win","no-go","0"
"pit-trial","207","1995860","0.0-87.0","battery-v0.2","","""event"",""trial"",""time""
""fullscreenenter"",""1"",""5508""
","
","
","""event"",""trial"",""time""
""fullscreenenter"",""1"",""5508""
","
","","","466.89999999990687","","","23","10848","5052","z","elianto","#3366ff99"," "," ","1","+10","[1317.7000000001863]","1","2","","","10848","83","5","1","win","go","0"
"pit-trial","208","2000717","0.0-88.0","battery-v0.2","","""event"",""trial"",""time""
""fullscreenenter"",""1"",""5508""
","
","
","""event"",""trial"",""time""
""fullscreenenter"",""1"",""5508""
","
","","","-1","","","23","10848","5052","y","elianto","#f73b6a7A"," ","-1","0","-10","[]","0","2","","","10848","84","7","3","lose","go","0"
"pit-trial","209","2005575","0.0-89.0","battery-v0.2","","""event"",""trial"",""time""
""fullscreenenter"",""1"",""5508""
","
","
","""event"",""trial"",""time""
""fullscreenenter"",""1"",""5508""
","
","","","-1","","","23","10848","5052","h","elianto","#f73b6a7A","-1","-1","1","0","[]","0","2","","","10848","85","6","4","lose","no-go","0"
"pit-trial","210","2010445","0.0-90.0","battery-v0.2","","""event"",""trial"",""time""
""fullscreenenter"",""1"",""5508""
","
","
","""event"",""trial"",""time""
""fullscreenenter"",""1"",""5508""
","
","","","-1","","","23","10848","5052","y","elianto","#f73b6a7A"," ","-1","0","-10","[]","0","2","","","10848","86","7","3","lose","go","0"
"pit-trial","211","2013767","0.0-91.0","battery-v0.2","","""event"",""trial"",""time""
""fullscreenenter"",""1"",""5508""
","
","
","""event"",""trial"",""time""
""fullscreenenter"",""1"",""5508""
","
","","","460","","","23","10848","5052","c","elianto","#3366ff99","-1"," ","0","0","[1311.8999999999069]","1","2","","","10848","87","4","2","win","no-go","0"
"pit-trial","212","2017122","0.0-92.0","battery-v0.2","","""event"",""trial"",""time""
""fullscreenenter"",""1"",""5508""
","
","
","""event"",""trial"",""time""
""fullscreenenter"",""1"",""5508""
","
","","","497.3000000002794","","","23","10848","5052","z","elianto","#3366ff99"," "," ","1","+10","[1349]","1","2","","","10848","88","5","1","win","go","0"
"pit-trial","213","2020507","0.0-93.0","battery-v0.2","","""event"",""trial"",""time""
""fullscreenenter"",""1"",""5508""
","
","
","""event"",""trial"",""time""
""fullscreenenter"",""1"",""5508""
","
","","","529.6000000000931","","","23","10848","5052","z","elianto","#3366ff99"," "," ","1","+10","[1380.5999999996275]","1","2","","","10848","89","5","1","win","go","0"
"pit-trial","214","2025363","0.0-94.0","battery-v0.2","","""event"",""trial"",""time""
""fullscreenenter"",""1"",""5508""
","
","
","""event"",""trial"",""time""
""fullscreenenter"",""1"",""5508""
","
","","","-1","","","23","10848","5052","y","elianto","#f73b6a7A"," ","-1","0","0","[]","0","2","","","10848","90","7","3","lose","go","1"
"pit-trial","215","2028743","0.0-95.0","battery-v0.2","","""event"",""trial"",""time""
""fullscreenenter"",""1"",""5508""
","
","
","""event"",""trial"",""time""
""fullscreenenter"",""1"",""5508""
","
","","","523.5","","","23","10848","5052","c","elianto","#3366ff99","-1"," ","0","0","[1374.2000000001863]","1","2","","","10848","91","4","2","win","no-go","0"
"pit-trial","216","2033600","0.0-96.0","battery-v0.2","","""event"",""trial"",""time""
""fullscreenenter"",""1"",""5508""
","
","
","""event"",""trial"",""time""
""fullscreenenter"",""1"",""5508""
","
","","","-1","","","23","10848","5052","h","elianto","#f73b6a7A","-1","-1","1","-10","[]","0","2","","","10848","92","6","4","lose","no-go","1"
"pit-trial","217","2037123","0.0-97.0","battery-v0.2","","""event"",""trial"",""time""
""fullscreenenter"",""1"",""5508""
","
","
","""event"",""trial"",""time""
""fullscreenenter"",""1"",""5508""
","
","","","667.2000000001863","","","23","10848","5052","r","elianto","#3366ff99","-1"," ","0","0","[1517.9000000003725]","1","2","","","10848","93","8","2","win","no-go","0"
"pit-trial","218","2040449","0.0-98.0","battery-v0.2","","""event"",""trial"",""time""
""fullscreenenter"",""1"",""5508""
","
","
","""event"",""trial"",""time""
""fullscreenenter"",""1"",""5508""
","
","","","469.29999999981374","","","23","10848","5052","z","elianto","#3366ff99"," "," ","1","+10","[1320.0999999996275]","1","2","","","10848","94","5","1","win","go","0"
"pit-trial","219","2045305","0.0-99.0","battery-v0.2","","""event"",""trial"",""time""
""fullscreenenter"",""1"",""5508""
","
","
","""event"",""trial"",""time""
""fullscreenenter"",""1"",""5508""
","
","","","-1","","","23","10848","5052","y","elianto","#f73b6a7A"," ","-1","0","-10","[]","0","2","","","10848","95","7","3","lose","go","0"
"pit-trial","220","2050161","0.0-100.0","battery-v0.2","","""event"",""trial"",""time""
""fullscreenenter"",""1"",""5508""
","
","
","""event"",""trial"",""time""
""fullscreenenter"",""1"",""5508""
","
","","","-1","","","23","10848","5052","h","elianto","#f73b6a7A","-1","-1","1","0","[]","0","2","","","10848","96","6","4","lose","no-go","0"
"pit-trial","221","2055018","0.0-101.0","battery-v0.2","","""event"",""trial"",""time""
""fullscreenenter"",""1"",""5508""
","
","
","""event"",""trial"",""time""
""fullscreenenter"",""1"",""5508""
","
","","","-1","","","23","10848","5052","h","elianto","#f73b6a7A","-1","-1","1","0","[]","0","2","","","10848","97","6","4","lose","no-go","0"
"pit-trial","222","2058425","0.0-102.0","battery-v0.2","","""event"",""trial"",""time""
""fullscreenenter"",""1"",""5508""
","
","
","""event"",""trial"",""time""
""fullscreenenter"",""1"",""5508""
","
","","","552","","","23","10848","5052","z","elianto","#3366ff99"," "," ","1","0","[1402.8999999999069]","1","2","","","10848","98","5","1","win","go","1"
"pit-trial","223","2061783","0.0-103.0","battery-v0.2","","""event"",""trial"",""time""
""fullscreenenter"",""1"",""5508""
","
","
","""event"",""trial"",""time""
""fullscreenenter"",""1"",""5508""
","
","","","497.89999999990687","","","23","10848","5052","r","elianto","#3366ff99","-1"," ","0","0","[1351.0999999996275]","1","2","","","10848","99","8","2","win","no-go","0"
"pit-trial","224","2066639","0.0-104.0","battery-v0.2","","""event"",""trial"",""time""
""fullscreenenter"",""1"",""5508""
","
","
","""event"",""trial"",""time""
""fullscreenenter"",""1"",""5508""
","
","","","-1","","","23","10848","5052","y","elianto","#f73b6a7A"," ","-1","0","0","[]","0","2","","","10848","100","7","3","lose","go","1"
"pit-trial","225","2071495","0.0-105.0","battery-v0.2","","""event"",""trial"",""time""
""fullscreenenter"",""1"",""5508""
","
","
","""event"",""trial"",""time""
""fullscreenenter"",""1"",""5508""
","
","","","-1","","","23","10848","5052","h","elianto","#f73b6a7A","-1","-1","1","0","[]","0","2","","","10848","101","6","4","lose","no-go","0"
"pit-trial","226","2074984","0.0-106.0","battery-v0.2","","""event"",""trial"",""time""
""fullscreenenter"",""1"",""5508""
","
","
","""event"",""trial"",""time""
""fullscreenenter"",""1"",""5508""
","
","","","634","","","23","10848","5052","m","elianto","#3366ff99","-1"," ","0","0","[1484.1999999997206]","1","2","","","10848","102","9","2","win","no-go","0"
"pit-trial","227","2078399","0.0-107.0","battery-v0.2","","""event"",""trial"",""time""
""fullscreenenter"",""1"",""5508""
","
","
","""event"",""trial"",""time""
""fullscreenenter"",""1"",""5508""
","
","","","551.2999999998137","","","23","10848","5052","z","elianto","#3366ff99"," "," ","1","+10","[1404.6000000000931]","1","2","","","10848","103","5","1","win","go","0"
"pit-trial","228","2083255","0.0-108.0","battery-v0.2","","""event"",""trial"",""time""
""fullscreenenter"",""1"",""5508""
","
","
","""event"",""trial"",""time""
""fullscreenenter"",""1"",""5508""
","
","","","-1","","","23","10848","5052","r","elianto","#3366ff99","-1","-1","1","+10","[]","0","2","","","10848","104","8","2","win","no-go","0"
"pit-trial","229","2088113","0.0-109.0","battery-v0.2","","""event"",""trial"",""time""
""fullscreenenter"",""1"",""5508""
","
","
","""event"",""trial"",""time""
""fullscreenenter"",""1"",""5508""
","
","","","-1","","","23","10848","5052","h","elianto","#f73b6a7A","-1","-1","1","0","[]","0","2","","","10848","105","6","4","lose","no-go","0"
"pit-trial","230","2091479","0.0-110.0","battery-v0.2","","""event"",""trial"",""time""
""fullscreenenter"",""1"",""5508""
","
","
","""event"",""trial"",""time""
""fullscreenenter"",""1"",""5508""
","
","","","507","","","23","10848","5052","z","elianto","#3366ff99"," "," ","1","+10","[1358.8000000002794]","1","2","","","10848","106","5","1","win","go","0"
"pit-trial","231","2095765","0.0-111.0","battery-v0.2","","""event"",""trial"",""time""
""fullscreenenter"",""1"",""5508""
","
","
","""event"",""trial"",""time""
""fullscreenenter"",""1"",""5508""
","
","","","1431.9000000003725","","","23","10848","5052","r","elianto","#3366ff99","-1"," ","0","0","[2282]","1","2","","","10848","107","8","2","win","no-go","0"
"pit-trial","232","2099172","0.0-112.0","battery-v0.2","","""event"",""trial"",""time""
""fullscreenenter"",""1"",""5508""
","
","
","""event"",""trial"",""time""
""fullscreenenter"",""1"",""5508""
","
","","","551.5","","","23","10848","5052","m","elianto","#3366ff99","-1"," ","0","+10","[1401.7999999998137]","1","2","","","10848","108","9","2","win","no-go","1"
"pit-trial","233","2102593","0.0-113.0","battery-v0.2","","""event"",""trial"",""time""
""fullscreenenter"",""1"",""5508""
","
","
","""event"",""trial"",""time""
""fullscreenenter"",""1"",""5508""
","
","","","561.3999999999069","","","23","10848","5052","r","elianto","#3366ff99","-1"," ","0","0","[1415.1999999997206]","1","2","","","10848","109","8","2","win","no-go","0"
"pit-trial","234","2105913","0.0-114.0","battery-v0.2","","""event"",""trial"",""time""
""fullscreenenter"",""1"",""5508""
","
","
","""event"",""trial"",""time""
""fullscreenenter"",""1"",""5508""
","
","","","464.60000000009313","","","23","10848","5052","m","elianto","#3366ff99","-1"," ","0","0","[1315.1000000000931]","1","2","","","10848","110","9","2","win","no-go","0"
"pit-trial","235","2109326","0.0-115.0","battery-v0.2","","""event"",""trial"",""time""
""fullscreenenter"",""1"",""5508""
","
","
","""event"",""trial"",""time""
""fullscreenenter"",""1"",""5508""
","
","","","555.8999999999069","","","23","10848","5052","z","elianto","#3366ff99"," "," ","1","0","[1407]","1","2","","","10848","111","5","1","win","go","1"
"pit-trial","236","2114182","0.0-116.0","battery-v0.2","","""event"",""trial"",""time""
""fullscreenenter"",""1"",""5508""
","
","
","""event"",""trial"",""time""
""fullscreenenter"",""1"",""5508""
","
","","","-1","","","23","10848","5052","h","elianto","#f73b6a7A","-1","-1","1","0","[]","0","2","","","10848","112","6","4","lose","no-go","0"
"pit-trial","237","2117619","0.0-117.0","battery-v0.2","","""event"",""trial"",""time""
""fullscreenenter"",""1"",""5508""
","
","
","""event"",""trial"",""time""
""fullscreenenter"",""1"",""5508""
","
","","","576.6000000000931","","","23","10848","5052","r","elianto","#3366ff99","-1"," ","0","0","[1431]","1","2","","","10848","113","8","2","win","no-go","0"
"pit-trial","238","2121091","0.0-118.0","battery-v0.2","","""event"",""trial"",""time""
""fullscreenenter"",""1"",""5508""
","
","
","""event"",""trial"",""time""
""fullscreenenter"",""1"",""5508""
","
","","","615.1000000000931","","","23","10848","5052","m","elianto","#3366ff99","-1"," ","0","0","[1466.3999999999069]","1","2","","","10848","114","9","2","win","no-go","0"
"pit-trial","239","2125947","0.0-119.0","battery-v0.2","","""event"",""trial"",""time""
""fullscreenenter"",""1"",""5508""
","
","
","""event"",""trial"",""time""
""fullscreenenter"",""1"",""5508""
","
","","","-1","","","23","10848","5052","y","elianto","#f73b6a7A"," ","-1","0","-10","[]","0","2","","","10848","115","7","3","lose","go","0"
"pit-trial","240","2129363","0.0-120.0","battery-v0.2","","""event"",""trial"",""time""
""fullscreenenter"",""1"",""5508""
","
","
","""event"",""trial"",""time""
""fullscreenenter"",""1"",""5508""
","
","","","560.2999999998137","","","23","10848","5052","z","elianto","#3366ff99"," "," ","1","+10","[1411.0999999996275]","1","2","","","10848","116","5","1","win","go","0"
"pit-trial","241","2134219","0.0-121.0","battery-v0.2","","""event"",""trial"",""time""
""fullscreenenter"",""1"",""5508""
","
","
","""event"",""trial"",""time""
""fullscreenenter"",""1"",""5508""
","
","","","-1","","","23","10848","5052","r","elianto","#3366ff99","-1","-1","1","0","[]","0","2","","","10848","117","8","2","win","no-go","1"
"pit-trial","242","2137627","0.0-122.0","battery-v0.2","","""event"",""trial"",""time""
""fullscreenenter"",""1"",""5508""
","
","
","""event"",""trial"",""time""
""fullscreenenter"",""1"",""5508""
","
","","","552.7000000001863","","","23","10848","5052","m","elianto","#3366ff99","-1"," ","0","0","[1403.3999999999069]","1","2","","","10848","118","9","2","win","no-go","0"
"pit-trial","243","2141008","0.0-123.0","battery-v0.2","","""event"",""trial"",""time""
""fullscreenenter"",""1"",""5508""
","
","
","""event"",""trial"",""time""
""fullscreenenter"",""1"",""5508""
","
","","","524.3999999999069","","","23","10848","5052","z","elianto","#3366ff99"," "," ","1","+10","[1374.8999999999069]","1","2","","","10848","119","5","1","win","go","0"
"pit-trial","244","2145865","0.0-124.0","battery-v0.2","","""event"",""trial"",""time""
""fullscreenenter"",""1"",""5508""
","
","
","""event"",""trial"",""time""
""fullscreenenter"",""1"",""5508""
","
","","","-1","","","23","10848","5052","h","elianto","#f73b6a7A","-1","-1","1","0","[]","0","2","","","10848","120","6","4","lose","no-go","0"
"pit-trial","245","2150723","0.0-125.0","battery-v0.2","","""event"",""trial"",""time""
""fullscreenenter"",""1"",""5508""
","
","
","""event"",""trial"",""time""
""fullscreenenter"",""1"",""5508""
","
","","","-1","","","23","10848","5052","y","elianto","#f73b6a7A"," ","-1","0","0","[]","0","2","","","10848","121","7","3","lose","go","1"
"pit-trial","246","2154076","0.0-126.0","battery-v0.2","","""event"",""trial"",""time""
""fullscreenenter"",""1"",""5508""
","
","
","""event"",""trial"",""time""
""fullscreenenter"",""1"",""5508""
","
","","","493.79999999981374","","","23","10848","5052","m","elianto","#3366ff99","-1"," ","0","0","[1348.3999999999069]","1","2","","","10848","122","9","2","win","no-go","0"
"pit-trial","247","2157528","0.0-127.0","battery-v0.2","","""event"",""trial"",""time""
""fullscreenenter"",""1"",""5508""
","
","
","""event"",""trial"",""time""
""fullscreenenter"",""1"",""5508""
","
","","","591.3000000002794","","","23","10848","5052","r","elianto","#3366ff99","-1"," ","0","0","[1446.3999999999069]","1","2","","","10848","123","8","2","win","no-go","0"
"pit-trial","248","2160955","0.0-128.0","battery-v0.2","","""event"",""trial"",""time""
""fullscreenenter"",""1"",""5508""
","
","
","""event"",""trial"",""time""
""fullscreenenter"",""1"",""5508""
","
","","","570.1000000000931","","","23","10848","5052","z","elianto","#3366ff99"," "," ","1","+10","[1421.7999999998137]","1","2","","","10848","124","5","1","win","go","0"
"pit-trial","249","2165809","0.0-129.0","battery-v0.2","","""event"",""trial"",""time""
""fullscreenenter"",""1"",""5508""
","
","
","""event"",""trial"",""time""
""fullscreenenter"",""1"",""5508""
","
","","","-1","","","23","10848","5052","h","elianto","#f73b6a7A","-1","-1","1","0","[]","0","2","","","10848","125","6","4","lose","no-go","0"
"pit-trial","250","2170665","0.0-130.0","battery-v0.2","","""event"",""trial"",""time""
""fullscreenenter"",""1"",""5508""
","
","
","""event"",""trial"",""time""
""fullscreenenter"",""1"",""5508""
","
","","","-1","","","23","10848","5052","y","elianto","#f73b6a7A"," ","-1","0","-10","[]","0","2","","","10848","126","7","3","lose","go","0"
"pit-trial","251","2175294","0.0-131.0","battery-v0.2","","""event"",""trial"",""time""
""fullscreenenter"",""1"",""5508""
","
","
","""event"",""trial"",""time""
""fullscreenenter"",""1"",""5508""
","
","","","1773.7999999998137","","","23","10848","5052","r","elianto","#3366ff99","-1"," ","0","0","[2624]","1","2","","","10848","127","8","2","win","no-go","0"
"pit-trial","252","2178670","0.0-132.0","battery-v0.2","","""event"",""trial"",""time""
""fullscreenenter"",""1"",""5508""
","
","
","""event"",""trial"",""time""
""fullscreenenter"",""1"",""5508""
","
","","","520","","","23","10848","5052","m","elianto","#3366ff99","-1"," ","0","0","[1370.8000000002794]","1","2","","","10848","128","9","2","win","no-go","0"
"pit-trial","253","2183536","0.0-133.0","battery-v0.2","","""event"",""trial"",""time""
""fullscreenenter"",""1"",""5508""
","
","
","""event"",""trial"",""time""
""fullscreenenter"",""1"",""5508""
","
","","","-1","","","23","10848","5052","y","elianto","#f73b6a7A"," ","-1","0","-10","[]","0","2","","","10848","129","7","3","lose","go","0"
"pit-trial","254","2186935","0.0-134.0","battery-v0.2","","""event"",""trial"",""time""
""fullscreenenter"",""1"",""5508""
","
","
","""event"",""trial"",""time""
""fullscreenenter"",""1"",""5508""
","
","","","533.8999999999069","","","23","10848","5052","r","elianto","#3366ff99","-1"," ","0","0","[1384.1000000000931]","1","2","","","10848","130","8","2","win","no-go","0"
"pit-trial","255","2191791","0.0-135.0","battery-v0.2","","""event"",""trial"",""time""
""fullscreenenter"",""1"",""5508""
","
","
","""event"",""trial"",""time""
""fullscreenenter"",""1"",""5508""
","
","","","-1","","","23","10848","5052","h","elianto","#f73b6a7A","-1","-1","1","-10","[]","0","2","","","10848","131","6","4","lose","no-go","1"
"pit-trial","256","2195116","0.0-136.0","battery-v0.2","","""event"",""trial"",""time""
""fullscreenenter"",""1"",""5508""
","
","
","""event"",""trial"",""time""
""fullscreenenter"",""1"",""5508""
","
","","","465.90000000037253","","","23","10848","5052","m","elianto","#3366ff99","-1"," ","0","0","[1320.2000000001863]","1","2","","","10848","132","9","2","win","no-go","0"
"pit-trial","257","2199972","0.0-137.0","battery-v0.2","","""event"",""trial"",""time""
""fullscreenenter"",""1"",""5508""
","
","
","""event"",""trial"",""time""
""fullscreenenter"",""1"",""5508""
","
","","","-1","","","23","10848","5052","r","elianto","#3366ff99","-1","-1","1","+10","[]","0","2","","","10848","133","8","2","win","no-go","0"
"pit-trial","258","2204831","0.0-138.0","battery-v0.2","","""event"",""trial"",""time""
""fullscreenenter"",""1"",""5508""
","
","
","""event"",""trial"",""time""
""fullscreenenter"",""1"",""5508""
","
","","","-1","","","23","10848","5052","h","elianto","#f73b6a7A","-1","-1","1","0","[]","0","2","","","10848","134","6","4","lose","no-go","0"
"pit-trial","259","2208219","0.0-139.0","battery-v0.2","","""event"",""trial"",""time""
""fullscreenenter"",""1"",""5508""
","
","
","""event"",""trial"",""time""
""fullscreenenter"",""1"",""5508""
","
","","","531.2999999998137","","","23","10848","5052","m","elianto","#3366ff99","-1"," ","0","+10","[1382.2999999998137]","1","2","","","10848","135","9","2","win","no-go","1"
"pit-trial","260","2213075","0.0-140.0","battery-v0.2","","""event"",""trial"",""time""
""fullscreenenter"",""1"",""5508""
","
","
","""event"",""trial"",""time""
""fullscreenenter"",""1"",""5508""
","
","","","-1","","","23","10848","5052","y","elianto","#f73b6a7A"," ","-1","0","-10","[]","0","2","","","10848","136","7","3","lose","go","0"
"pit-trial","261","2217932","0.0-141.0","battery-v0.2","","""event"",""trial"",""time""
""fullscreenenter"",""1"",""5508""
","
","
","""event"",""trial"",""time""
""fullscreenenter"",""1"",""5508""
","
","","","-1","","","23","10848","5052","h","elianto","#f73b6a7A","-1","-1","1","0","[]","0","2","","","10848","137","6","4","lose","no-go","0"
"pit-trial","262","2221247","0.0-142.0","battery-v0.2","","""event"",""trial"",""time""
""fullscreenenter"",""1"",""5508""
","
","
","""event"",""trial"",""time""
""fullscreenenter"",""1"",""5508""
","
","","","457.89999999990687","","","23","10848","5052","r","elianto","#3366ff99","-1"," ","0","+10","[1311.0999999996275]","1","2","","","10848","138","8","2","win","no-go","1"
"pit-trial","263","2226102","0.0-143.0","battery-v0.2","","""event"",""trial"",""time""
""fullscreenenter"",""1"",""5508""
","
","
","""event"",""trial"",""time""
""fullscreenenter"",""1"",""5508""
","
","","","-1","","","23","10848","5052","y","elianto","#f73b6a7A"," ","-1","0","-10","[]","0","2","","","10848","139","7","3","lose","go","0"
"pit-trial","264","2230957","0.0-144.0","battery-v0.2","","""event"",""trial"",""time""
""fullscreenenter"",""1"",""5508""
""blur"",""265"",""2496586""
""focus"",""265"",""2504002""
","""event"",""trial"",""time""
""blur"",""265"",""2496586""
","""event"",""trial"",""time""
""focus"",""265"",""2504002""
","""event"",""trial"",""time""
""fullscreenenter"",""1"",""5508""
","
","","","-1","","","23","10848","5052","m","elianto","#3366ff99","-1","-1","1","+10","[3050.600000000093]","1","2","","","10848","140","9","2","win","no-go","0"
"pit-instructions","265","3130922","0.0-145.0","battery-v0.2","","""event"",""trial"",""time""
""fullscreenenter"",""1"",""5508""
""blur"",""265"",""2496586""
""focus"",""265"",""2504002""
","""event"",""trial"",""time""
""blur"",""265"",""2496586""
","""event"",""trial"",""time""
""focus"",""265"",""2504002""
","""event"",""trial"",""time""
""fullscreenenter"",""1"",""5508""
","
","","[{""page_index"":0,""viewing_time"":662816.3999999999},{""page_index"":1,""viewing_time"":237144.59999999963}]","899961.4999999995","","","","","","","","","","","","","","","","","","","","","","","",""
"pit-trial","266","3134828","0.0-146.0","battery-v0.2","","""event"",""trial"",""time""
""fullscreenenter"",""1"",""5508""
""blur"",""265"",""2496586""
""focus"",""265"",""2504002""
","""event"",""trial"",""time""
""blur"",""265"",""2496586""
","""event"",""trial"",""time""
