"trial_type","trial_index","time_elapsed","internal_node_id","task_version","subject_id","interactions","blur_events","focus_events","fullscreenenter_events","fullscreenexit_events","success","view_history","rt","responses","num_errors","age","subject","participantId","rune","rune_set","hex","correct","choice","accuracy","outcome","keys","total_keys","block","practice","value","sub","trial","stimulus","robot","valence","action","sham"
"pavlovia","0","12","0.0-0.0","battery-v0.2","","""event"",""trial"",""time""
""fullscreenenter"",""1"",""2931""
","
","
","""event"",""trial"",""time""
""fullscreenenter"",""1"",""2931""
","
","","","","","","","","","","","","","","","","","","","","","","","","","","",""
"fullscreen","1","3928","0.0-1.0","battery-v0.2","","""event"",""trial"",""time""
""fullscreenenter"",""1"",""2931""
","
","
","""event"",""trial"",""time""
""fullscreenenter"",""1"",""2931""
","
","true","","","","","","","","","","","","","","","","","","","","","","","","","",""
"pit-instructions","2","8178","0.0-2.0-0.0","battery-v0.2","","""event"",""trial"",""time""
""fullscreenenter"",""1"",""2931""
","
","
","""event"",""trial"",""time""
""fullscreenenter"",""1"",""2931""
","
","","[{""page_index"":0,""viewing_time"":4246.10000000149}]","4246.29999999702","","","","","","","","","","","","","","","","","","","","","","","",""
"pit-comprehension","3","22143","0.0-2.0-1.0-0.0","battery-v0.2","","""event"",""trial"",""time""
""fullscreenenter"",""1"",""2931""
","
","
","""event"",""trial"",""time""
""fullscreenenter"",""1"",""2931""
","
","","","13962.10000000149","[""fish""]","1","12","13300","5743","","","","","","","","","","","","","","","","","","",""
"pit-instructions","4","25062","0.0-2.0-1.0-1.0","battery-v0.2","","""event"",""trial"",""time""
""fullscreenenter"",""1"",""2931""
","
","
","""event"",""trial"",""time""
""fullscreenenter"",""1"",""2931""
","
","","[{""page_index"":0,""viewing_time"":2915.39999999851}]","2915.60000000149","","","","","","","","","","","","","","","","","","","","","","","",""
"pit-instructions","5","26264","0.0-2.0-1.0-2.0-0.0","battery-v0.2","","""event"",""trial"",""time""
""fullscreenenter"",""1"",""2931""
","
","
","""event"",""trial"",""time""
""fullscreenenter"",""1"",""2931""
","
","","[{""page_index"":0,""viewing_time"":1200.1000000014901}]","1200.3000000044703","","","","","","","","","","","","","","","","","","","","","","","",""
"pit-comprehension","6","30452","0.0-2.0-1.1-0.1","battery-v0.2","","""event"",""trial"",""time""
""fullscreenenter"",""1"",""2931""
","
","
","""event"",""trial"",""time""
""fullscreenenter"",""1"",""2931""
","
","","","4186.39999999851","[""shark""]","0","12","13300","5743","","","","","","","","","","","","","","","","","","",""
"pit-instructions","7","31470","0.0-2.0-1.1-1.1","battery-v0.2","","""event"",""trial"",""time""
""fullscreenenter"",""1"",""2931""
","
","
","""event"",""trial"",""time""
""fullscreenenter"",""1"",""2931""
","
","","[{""page_index"":0,""viewing_time"":1015.2000000029802}]","1015.2999999970198","","","","","","","","","","","","","","","","","","","","","","","",""
"pit-comprehension","8","44267","0.0-2.0-2.0-0.0","battery-v0.2","","""event"",""trial"",""time""
""fullscreenenter"",""1"",""2931""
","
","
","""event"",""trial"",""time""
""fullscreenenter"",""1"",""2931""
","
","","","12795.60000000149","[""tiger""]","0","12","13300","5743","","","","","","","","","","","","","","","","","","",""
"pit-instructions","9","45702","0.0-2.0-2.0-1.0","battery-v0.2","","""event"",""trial"",""time""
""fullscreenenter"",""1"",""2931""
","
","
","""event"",""trial"",""time""
""fullscreenenter"",""1"",""2931""
","
","","[{""page_index"":0,""viewing_time"":1432.3000000044703}]","1432.5","","","","","","","","","","","","","","","","","","","","","","","",""
"pit-instructions","10","144444","0.0-2.0-3.0","battery-v0.2","","""event"",""trial"",""time""
""fullscreenenter"",""1"",""2931""
","
","
","""event"",""trial"",""time""
""fullscreenenter"",""1"",""2931""
","
","","[{""page_index"":0,""viewing_time"":8006.60000000149},{""page_index"":1,""viewing_time"":6390.0999999940395},{""page_index"":2,""viewing_time"":7742.10000000149},{""page_index"":3,""viewing_time"":6257.20000000298},{""page_index"":4,""viewing_time"":5956.60000000149},{""page_index"":5,""viewing_time"":5139.19999999553},{""page_index"":6,""viewing_time"":7224.5},{""page_index"":7,""viewing_time"":6206.60000000149},{""page_index"":8,""viewing_time"":6657.29999999702},{""page_index"":9,""viewing_time"":9777.5},{""page_index"":10,""viewing_time"":9010},{""page_index"":11,""viewing_time"":8426.10000000149},{""page_index"":12,""viewing_time"":6850.30000000447},{""page_index"":13,""viewing_time"":5095.89999999851}]","98740.19999999553","","","","","","","","","","","","","","","","","","","","","","","",""
"pit-trial","11","148078","0.0-2.0-4.0-0.0","battery-v0.2","","""event"",""trial"",""time""
""fullscreenenter"",""1"",""2931""
","
","
","""event"",""trial"",""time""
""fullscreenenter"",""1"",""2931""
","
","","","780.2999999970198","","","12","13300","5743","&#9784;","elianto","#FFFFF080"," "," ","1","&#10004","[1631.3000000044703]","1","0","0","","","","","","","",""
"pit-trial","12","151885","0.0-2.0-4.1-0.1","battery-v0.2","","""event"",""trial"",""time""
""fullscreenenter"",""1"",""2931""
","
","
","""event"",""trial"",""time""
""fullscreenenter"",""1"",""2931""
","
","","","953.2000000029802","","","12","13300","5743","&#9784;","elianto","#FFFFF080"," "," ","1","&#10004","[84.5,1804.5]","2","0","0","","","","","","","",""
"pit-trial","13","155525","0.0-2.0-4.2-0.2","battery-v0.2","","""event"",""trial"",""time""
""fullscreenenter"",""1"",""2931""
","
","
","""event"",""trial"",""time""
""fullscreenenter"",""1"",""2931""
","
","","","785.9000000059605","","","12","13300","5743","&#9784;","elianto","#FFFFF080"," "," ","1","&#10004","[1636.7000000029802]","1","0","0","","","","","","","",""
"pit-trial","14","159078","0.0-2.0-4.3-0.3","battery-v0.2","","""event"",""trial"",""time""
""fullscreenenter"",""1"",""2931""
","
","
","""event"",""trial"",""time""
""fullscreenenter"",""1"",""2931""
","
","","","697.1000000014901","","","12","13300","5743","&#9784;","elianto","#FFFFF080"," "," ","1","&#10004","[1549.1000000014901]","1","0","0","","","","","","","",""
"pit-trial","15","162717","0.0-2.0-4.4-0.4","battery-v0.2","","""event"",""trial"",""time""
""fullscreenenter"",""1"",""2931""
","
","
","""event"",""trial"",""time""
""fullscreenenter"",""1"",""2931""
","
","","","784.5","","","12","13300","5743","&#9784;","elianto","#FFFFF080"," "," ","1","&#10004","[1636.3999999985099]","1","0","0","","","","","","","",""
"pit-instructions","16","184004","0.0-2.0-5.0","battery-v0.2","","""event"",""trial"",""time""
""fullscreenenter"",""1"",""2931""
","
","
","""event"",""trial"",""time""
""fullscreenenter"",""1"",""2931""
","
","","[{""page_index"":0,""viewing_time"":4566.10000000149},{""page_index"":1,""viewing_time"":5572.69999999553},{""page_index"":2,""viewing_time"":4571.70000000298},{""page_index"":3,""viewing_time"":6573.79999999702}]","21284.5","","","","","","","","","","","","","","","","","","","","","","","",""
"pit-trial","17","188859","0.0-2.0-6.0-0.0","battery-v0.2","","""event"",""trial"",""time""
""fullscreenenter"",""1"",""2931""
","
","
","""event"",""trial"",""time""
""fullscreenenter"",""1"",""2931""
","
","","","-1","","","12","13300","5743","&#9854;","elianto","#FFFFF080","-1","-1","1","&#10004","[]","0","0","1","","","","","","","",""
"pit-trial","18","193716","0.0-2.0-6.1-0.1","battery-v0.2","","""event"",""trial"",""time""
""fullscreenenter"",""1"",""2931""
","
","
","""event"",""trial"",""time""
""fullscreenenter"",""1"",""2931""
","
","","","-1","","","12","13300","5743","&#9854;","elianto","#FFFFF080","-1","-1","1","&#10004","[]","0","0","1","","","","","","","",""
"pit-trial","19","198575","0.0-2.0-6.2-0.2","battery-v0.2","","""event"",""trial"",""time""
""fullscreenenter"",""1"",""2931""
","
","
","""event"",""trial"",""time""
""fullscreenenter"",""1"",""2931""
","
","","","-1","","","12","13300","5743","&#9854;","elianto","#FFFFF080","-1","-1","1","&#10004","[]","0","0","1","","","","","","","",""
"pit-trial","20","203433","0.0-2.0-6.3-0.3","battery-v0.2","","""event"",""trial"",""time""
""fullscreenenter"",""1"",""2931""
","
","
","""event"",""trial"",""time""
""fullscreenenter"",""1"",""2931""
","
","","","-1","","","12","13300","5743","&#9854;","elianto","#FFFFF080","-1","-1","1","&#10004","[]","0","0","1","","","","","","","",""
"pit-trial","21","208292","0.0-2.0-6.4-0.4","battery-v0.2","","""event"",""trial"",""time""
""fullscreenenter"",""1"",""2931""
","
","
","""event"",""trial"",""time""
""fullscreenenter"",""1"",""2931""
","
","","","-1","","","12","13300","5743","&#9854;","elianto","#FFFFF080","-1","-1","1","&#10004","[]","0","0","1","","","","","","","",""
"pit-instructions","22","322156","0.0-2.0-7.0","battery-v0.2","","""event"",""trial"",""time""
""fullscreenenter"",""1"",""2931""
","
","
","""event"",""trial"",""time""
""fullscreenenter"",""1"",""2931""
","
","","[{""page_index"":0,""viewing_time"":6243.10000000149},{""page_index"":1,""viewing_time"":7124.80000000447},{""page_index"":2,""viewing_time"":5989.5999999940395},{""page_index"":3,""viewing_time"":6707.4000000059605},{""page_index"":4,""viewing_time"":5422.5},{""page_index"":5,""viewing_time"":5322.79999999702},{""page_index"":6,""viewing_time"":4488.10000000149},{""page_index"":7,""viewing_time"":7358.39999999851},{""page_index"":8,""viewing_time"":6474.29999999702},{""page_index"":9,""viewing_time"":6189.30000000447},{""page_index"":10,""viewing_time"":7408.79999999702},{""page_index"":11,""viewing_time"":4204},{""page_index"":12,""viewing_time"":7091.70000000298},{""page_index"":13,""viewing_time"":6973.79999999702},{""page_index"":14,""viewing_time"":7291.80000000447},{""page_index"":15,""viewing_time"":6090.0999999940395},{""page_index"":16,""viewing_time"":6423.60000000149},{""page_index"":17,""viewing_time"":7057.60000000149}]","113862","","","","","","","","","","","","","","","","","","","","","","","",""
"pit-trial","23","325750","0.0-2.0-8.0-0.0","battery-v0.2","","""event"",""trial"",""time""
""fullscreenenter"",""1"",""2931""
","
","
","""event"",""trial"",""time""
""fullscreenenter"",""1"",""2931""
","
","","","739.5","","","12","13300","5743","&#9776;","elianto","#3366ff99"," "," ","1","+10","[1590]","1","0","1","","","","","","","",""
"pit-trial","24","329471","0.0-2.0-8.0-1.0","battery-v0.2","","""event"",""trial"",""time""
""fullscreenenter"",""1"",""2931""
","
","
","""event"",""trial"",""time""
""fullscreenenter"",""1"",""2931""
","
","","","863.4000000059605","","","12","13300","5743","&#9776;","elianto","#3366ff99"," "," ","1","+10","[1715.8000000044703]","1","0","1","","","","","","","",""
"pit-trial","25","332791","0.0-2.0-8.0-2.0","battery-v0.2","","""event"",""trial"",""time""
""fullscreenenter"",""1"",""2931""
","
","
","""event"",""trial"",""time""
""fullscreenenter"",""1"",""2931""
","
","","","462.6000000014901","","","12","13300","5743","&#9776;","elianto","#3366ff99"," "," ","1","+10","[1314.9000000059605]","1","0","1","","","","","","","",""
"pit-trial","26","336112","0.0-2.0-8.0-3.0","battery-v0.2","","""event"",""trial"",""time""
""fullscreenenter"",""1"",""2931""
","
","
","""event"",""trial"",""time""
""fullscreenenter"",""1"",""2931""
","
","","","462.19999999552965","","","12","13300","5743","&#9776;","elianto","#3366ff99"," "," ","1","0","[1314.5]","1","0","1","","","","","","","",""
"pit-trial","27","339583","0.0-2.0-8.0-4.0","battery-v0.2","","""event"",""trial"",""time""
""fullscreenenter"",""1"",""2931""
","
","
","""event"",""trial"",""time""
""fullscreenenter"",""1"",""2931""
","
","","","611.7000000029802","","","12","13300","5743","&#9776;","elianto","#3366ff99"," "," ","1","+10","[1466]","1","0","1","","","","","","","",""
"pit-trial","28","343060","0.0-2.0-8.1-0.1","battery-v0.2","","""event"",""trial"",""time""
""fullscreenenter"",""1"",""2931""
","
","
","""event"",""trial"",""time""
""fullscreenenter"",""1"",""2931""
","
","","","623.2000000029802","","","12","13300","5743","&#9776;","elianto","#3366ff99"," "," ","1","+10","[1474.2000000029802]","1","0","1","","","","","","","",""
"pit-trial","29","346396","0.0-2.0-8.1-1.1","battery-v0.2","","""event"",""trial"",""time""
""fullscreenenter"",""1"",""2931""
","
","
","""event"",""trial"",""time""
""fullscreenenter"",""1"",""2931""
","
","","","483","","","12","13300","5743","&#9776;","elianto","#3366ff99"," "," ","1","+10","[1333.6999999955297]","1","0","1","","","","","","","",""
"pit-trial","30","350262","0.0-2.0-8.1-2.1","battery-v0.2","","""event"",""trial"",""time""
""fullscreenenter"",""1"",""2931""
","
","
","""event"",""trial"",""time""
""fullscreenenter"",""1"",""2931""
","
","","","1011.6000000014901","","","12","13300","5743","&#9776;","elianto","#3366ff99"," "," ","1","+10","[1862.3000000044703]","1","0","1","","","","","","","",""
"pit-trial","31","354108","0.0-2.0-8.1-3.1","battery-v0.2","","""event"",""trial"",""time""
""fullscreenenter"",""1"",""2931""
","
","
","""event"",""trial"",""time""
""fullscreenenter"",""1"",""2931""
","
","","","992.7000000029802","","","12","13300","5743","&#9776;","elianto","#3366ff99"," "," ","1","0","[1843.5]","1","0","1","","","","","","","",""
"pit-trial","32","357819","0.0-2.0-8.1-4.1","battery-v0.2","","""event"",""trial"",""time""
""fullscreenenter"",""1"",""2931""
","
","
","""event"",""trial"",""time""
""fullscreenenter"",""1"",""2931""
","
","","","857.6999999955297","","","12","13300","5743","&#9776;","elianto","#3366ff99"," "," ","1","+10","[1708.1999999955297]","1","0","1","","","","","","","",""
"pit-trial","33","361655","0.0-2.0-8.2-0.2","battery-v0.2","","""event"",""trial"",""time""
""fullscreenenter"",""1"",""2931""
","
","
","""event"",""trial"",""time""
""fullscreenenter"",""1"",""2931""
","
","","","978.5","","","12","13300","5743","&#9776;","elianto","#3366ff99"," "," ","1","+10","[1830.1000000014901]","1","0","1","","","","","","","",""
"pit-trial","34","365063","0.0-2.0-8.2-1.2","battery-v0.2","","""event"",""trial"",""time""
""fullscreenenter"",""1"",""2931""
","
","
","""event"",""trial"",""time""
""fullscreenenter"",""1"",""2931""
","
","","","550.1000000014901","","","12","13300","5743","&#9776;","elianto","#3366ff99"," "," ","1","+10","[1402.6000000014901]","1","0","1","","","","","","","",""
"pit-trial","35","368957","0.0-2.0-8.2-2.2","battery-v0.2","","""event"",""trial"",""time""
""fullscreenenter"",""1"",""2931""
","
","
","""event"",""trial"",""time""
""fullscreenenter"",""1"",""2931""
","
","","","1040.2999999970198","","","12","13300","5743","&#9776;","elianto","#3366ff99"," "," ","1","+10","[1891]","1","0","1","","","","","","","",""
"pit-trial","36","372119","0.0-2.0-8.2-3.2","battery-v0.2","","""event"",""trial"",""time""
""fullscreenenter"",""1"",""2931""
","
","
","""event"",""trial"",""time""
""fullscreenenter"",""1"",""2931""
","
","","","303.1000000014901","","","12","13300","5743","&#9776;","elianto","#3366ff99"," "," ","1","0","[1155.7999999970198]","1","0","1","","","","","","","",""
"pit-trial","37","375807","0.0-2.0-8.2-4.2","battery-v0.2","","""event"",""trial"",""time""
""fullscreenenter"",""1"",""2931""
","
","
","""event"",""trial"",""time""
""fullscreenenter"",""1"",""2931""
","
","","","831.4000000059605","","","12","13300","5743","&#9776;","elianto","#3366ff99"," "," ","1","+10","[1681.8000000044703]","1","0","1","","","","","","","",""
"call-function","38","375809","0.0-2.0-9.0","battery-v0.2","","""event"",""trial"",""time""
""fullscreenenter"",""1"",""2931""
","
","
","""event"",""trial"",""time""
""fullscreenenter"",""1"",""2931""
","
","","","","","","","","","","","","","","","","","","","","","","","","","","",""
"pit-instructions","39","421665","0.0-2.0-10.0","battery-v0.2","","""event"",""trial"",""time""
""fullscreenenter"",""1"",""2931""
","
","
","""event"",""trial"",""time""
""fullscreenenter"",""1"",""2931""
","
","","[{""page_index"":0,""viewing_time"":7730.5},{""page_index"":1,""viewing_time"":7074.39999999851},{""page_index"":2,""viewing_time"":9293.60000000149},{""page_index"":3,""viewing_time"":14233.5},{""page_index"":4,""viewing_time"":7523.89999999851}]","45856.20000000298","","","","","","","","","","","","","","","","","","","","","","","",""
"pit-trial","40","426520","0.0-2.0-11.0-0.0","battery-v0.2","","""event"",""trial"",""time""
""fullscreenenter"",""1"",""2931""
","
","
","""event"",""trial"",""time""
""fullscreenenter"",""1"",""2931""
","
","","","-1","","","12","13300","5743","&#9761;","elianto","#3366ff99","-1","-1","1","+10","[]","0","0","2","","","","","","","",""
"pit-trial","41","431379","0.0-2.0-11.0-1.0","battery-v0.2","","""event"",""trial"",""time""
""fullscreenenter"",""1"",""2931""
","
","
","""event"",""trial"",""time""
""fullscreenenter"",""1"",""2931""
","
","","","-1","","","12","13300","5743","&#9761;","elianto","#3366ff99","-1","-1","1","+10","[]","0","0","2","","","","","","","",""
"pit-trial","42","436238","0.0-2.0-11.0-2.0","battery-v0.2","","""event"",""trial"",""time""
""fullscreenenter"",""1"",""2931""
","
","
","""event"",""trial"",""time""
""fullscreenenter"",""1"",""2931""
","
","","","-1","","","12","13300","5743","&#9761;","elianto","#3366ff99","-1","-1","1","+10","[]","0","0","2","","","","","","","",""
"pit-trial","43","441096","0.0-2.0-11.0-3.0","battery-v0.2","","""event"",""trial"",""time""
""fullscreenenter"",""1"",""2931""
","
","
","""event"",""trial"",""time""
""fullscreenenter"",""1"",""2931""
","
","","","-1","","","12","13300","5743","&#9761;","elianto","#3366ff99","-1","-1","1","0","[]","0","0","2","","","","","","","",""
"pit-trial","44","445957","0.0-2.0-11.0-4.0","battery-v0.2","","""event"",""trial"",""time""
""fullscreenenter"",""1"",""2931""
","
","
","""event"",""trial"",""time""
""fullscreenenter"",""1"",""2931""
","
","","","-1","","","12","13300","5743","&#9761;","elianto","#3366ff99","-1","-1","1","+10","[]","0","0","2","","","","","","","",""
"pit-trial","45","450811","0.0-2.0-11.1-0.1","battery-v0.2","","""event"",""trial"",""time""
""fullscreenenter"",""1"",""2931""
","
","
","""event"",""trial"",""time""
""fullscreenenter"",""1"",""2931""
","
","","","-1","","","12","13300","5743","&#9761;","elianto","#3366ff99","-1","-1","1","+10","[]","0","0","2","","","","","","","",""
"pit-trial","46","455661","0.0-2.0-11.1-1.1","battery-v0.2","","""event"",""trial"",""time""
""fullscreenenter"",""1"",""2931""
","
","
","""event"",""trial"",""time""
""fullscreenenter"",""1"",""2931""
","
","","","-1","","","12","13300","5743","&#9761;","elianto","#3366ff99","-1","-1","1","+10","[]","0","0","2","","","","","","","",""
"pit-trial","47","460517","0.0-2.0-11.1-2.1","battery-v0.2","","""event"",""trial"",""time""
""fullscreenenter"",""1"",""2931""
","
","
","""event"",""trial"",""time""
""fullscreenenter"",""1"",""2931""
","
","","","-1","","","12","13300","5743","&#9761;","elianto","#3366ff99","-1","-1","1","+10","[]","0","0","2","","","","","","","",""
"pit-trial","48","465373","0.0-2.0-11.1-3.1","battery-v0.2","","""event"",""trial"",""time""
""fullscreenenter"",""1"",""2931""
","
","
","""event"",""trial"",""time""
""fullscreenenter"",""1"",""2931""
","
","","","-1","","","12","13300","5743","&#9761;","elianto","#3366ff99","-1","-1","1","0","[]","0","0","2","","","","","","","",""
"pit-trial","49","470230","0.0-2.0-11.1-4.1","battery-v0.2","","""event"",""trial"",""time""
""fullscreenenter"",""1"",""2931""
","
","
","""event"",""trial"",""time""
""fullscreenenter"",""1"",""2931""
","
","","","-1","","","12","13300","5743","&#9761;","elianto","#3366ff99","-1","-1","1","+10","[]","0","0","2","","","","","","","",""
"pit-trial","50","475086","0.0-2.0-11.2-0.2","battery-v0.2","","""event"",""trial"",""time""
""fullscreenenter"",""1"",""2931""
","
","
","""event"",""trial"",""time""
""fullscreenenter"",""1"",""2931""
","
","","","-1","","","12","13300","5743","&#9761;","elianto","#3366ff99","-1","-1","1","+10","[]","0","0","2","","","","","","","",""
"pit-trial","51","479946","0.0-2.0-11.2-1.2","battery-v0.2","","""event"",""trial"",""time""
""fullscreenenter"",""1"",""2931""
","
","
","""event"",""trial"",""time""
""fullscreenenter"",""1"",""2931""
","
","","","-1","","","12","13300","5743","&#9761;","elianto","#3366ff99","-1","-1","1","+10","[]","0","0","2","","","","","","","",""
"pit-trial","52","484804","0.0-2.0-11.2-2.2","battery-v0.2","","""event"",""trial"",""time""
""fullscreenenter"",""1"",""2931""
","
","
","""event"",""trial"",""time""
""fullscreenenter"",""1"",""2931""
","
","","","-1","","","12","13300","5743","&#9761;","elianto","#3366ff99","-1","-1","1","+10","[]","0","0","2","","","","","","","",""
"pit-trial","53","489662","0.0-2.0-11.2-3.2","battery-v0.2","","""event"",""trial"",""time""
""fullscreenenter"",""1"",""2931""
","
","
","""event"",""trial"",""time""
""fullscreenenter"",""1"",""2931""
","
","","","-1","","","12","13300","5743","&#9761;","elianto","#3366ff99","-1","-1","1","0","[]","0","0","2","","","","","","","",""
"pit-trial","54","494520","0.0-2.0-11.2-4.2","battery-v0.2","","""event"",""trial"",""time""
""fullscreenenter"",""1"",""2931""
","
","
","""event"",""trial"",""time""
""fullscreenenter"",""1"",""2931""
","
","","","-1","","","12","13300","5743","&#9761;","elianto","#3366ff99","-1","-1","1","+10","[]","0","0","2","","","","","","","",""
"pit-trial","55","499379","0.0-2.0-11.3-0.3","battery-v0.2","","""event"",""trial"",""time""
""fullscreenenter"",""1"",""2931""
","
","
","""event"",""trial"",""time""
""fullscreenenter"",""1"",""2931""
","
","","","-1","","","12","13300","5743","&#9761;","elianto","#3366ff99","-1","-1","1","+10","[]","0","0","2","","","","","","","",""
"pit-trial","56","504237","0.0-2.0-11.3-1.3","battery-v0.2","","""event"",""trial"",""time""
""fullscreenenter"",""1"",""2931""
","
","
","""event"",""trial"",""time""
""fullscreenenter"",""1"",""2931""
","
","","","-1","","","12","13300","5743","&#9761;","elianto","#3366ff99","-1","-1","1","+10","[]","0","0","2","","","","","","","",""
"pit-trial","57","509096","0.0-2.0-11.3-2.3","battery-v0.2","","""event"",""trial"",""time""
""fullscreenenter"",""1"",""2931""
","
","
","""event"",""trial"",""time""
""fullscreenenter"",""1"",""2931""
","
","","","-1","","","12","13300","5743","&#9761;","elianto","#3366ff99","-1","-1","1","+10","[]","0","0","2","","","","","","","",""
"pit-trial","58","513955","0.0-2.0-11.3-3.3","battery-v0.2","","""event"",""trial"",""time""
""fullscreenenter"",""1"",""2931""
","
","
","""event"",""trial"",""time""
""fullscreenenter"",""1"",""2931""
","
","","","-1","","","12","13300","5743","&#9761;","elianto","#3366ff99","-1","-1","1","0","[]","0","0","2","","","","","","","",""
"pit-trial","59","518812","0.0-2.0-11.3-4.3","battery-v0.2","","""event"",""trial"",""time""
""fullscreenenter"",""1"",""2931""
","
","
","""event"",""trial"",""time""
""fullscreenenter"",""1"",""2931""
","
","","","-1","","","12","13300","5743","&#9761;","elianto","#3366ff99","-1","-1","1","+10","[]","0","0","2","","","","","","","",""
"call-function","60","518814","0.0-2.0-12.0","battery-v0.2","","""event"",""trial"",""time""
""fullscreenenter"",""1"",""2931""
","
","
","""event"",""trial"",""time""
""fullscreenenter"",""1"",""2931""
","
","","","","","","","","","","","","","","","","","","","","","","","","","","",""
"pit-instructions","61","552205","0.0-2.0-13.0","battery-v0.2","","""event"",""trial"",""time""
""fullscreenenter"",""1"",""2931""
","
","
","""event"",""trial"",""time""
""fullscreenenter"",""1"",""2931""
","
","","[{""page_index"":0,""viewing_time"":6195.19999999553},{""page_index"":1,""viewing_time"":7424.60000000149},{""page_index"":2,""viewing_time"":3086.89999999851},{""page_index"":3,""viewing_time"":11563},{""page_index"":4,""viewing_time"":5122.30000000447}]","33392.19999999553","","","","","","","","","","","","","","","","","","","","","","","",""
"pit-trial","62","555656","0.0-2.0-14.0-0.0","battery-v0.2","","""event"",""trial"",""time""
""fullscreenenter"",""1"",""2931""
","
","
","""event"",""trial"",""time""
""fullscreenenter"",""1"",""2931""
","
","","","596.4000000059605","","","12","13300","5743","&#9826;","elianto","#f73b6a7A","-1"," ","0","-10","[1447.5]","1","0","3","","","","","","","",""
"pit-trial","63","558721","0.0-2.0-14.0-1.0","battery-v0.2","","""event"",""trial"",""time""
""fullscreenenter"",""1"",""2931""
","
","
","""event"",""trial"",""time""
""fullscreenenter"",""1"",""2931""
","
","","","209.5","","","12","13300","5743","&#9826;","elianto","#f73b6a7A","-1"," ","0","-10","[1060.9000000059605]","1","0","3","","","","","","","",""
"pit-trial","64","563580","0.0-2.0-14.0-2.0","battery-v0.2","","""event"",""trial"",""time""
""fullscreenenter"",""1"",""2931""
","
","
","""event"",""trial"",""time""
""fullscreenenter"",""1"",""2931""
","
","","","-1","","","12","13300","5743","&#9826;","elianto","#f73b6a7A","-1","-1","1","0","[]","0","0","3","","","","","","","",""
"pit-trial","65","568437","0.0-2.0-14.0-3.0","battery-v0.2","","""event"",""trial"",""time""
""fullscreenenter"",""1"",""2931""
","
","
","""event"",""trial"",""time""
""fullscreenenter"",""1"",""2931""
","
","","","-1","","","12","13300","5743","&#9826;","elianto","#f73b6a7A","-1","-1","1","-10","[]","0","0","3","","","","","","","",""
"pit-trial","66","573292","0.0-2.0-14.0-4.0","battery-v0.2","","""event"",""trial"",""time""
""fullscreenenter"",""1"",""2931""
","
","
","""event"",""trial"",""time""
""fullscreenenter"",""1"",""2931""
","
","","","-1","","","12","13300","5743","&#9826;","elianto","#f73b6a7A","-1","-1","1","0","[]","0","0","3","","","","","","","",""
"pit-trial","67","578150","0.0-2.0-14.1-0.1","battery-v0.2","","""event"",""trial"",""time""
""fullscreenenter"",""1"",""2931""
","
","
","""event"",""trial"",""time""
""fullscreenenter"",""1"",""2931""
","
","","","-1","","","12","13300","5743","&#9826;","elianto","#f73b6a7A","-1","-1","1","0","[]","0","0","3","","","","","","","",""
"pit-trial","68","583010","0.0-2.0-14.1-1.1","battery-v0.2","","""event"",""trial"",""time""
""fullscreenenter"",""1"",""2931""
","
","
","""event"",""trial"",""time""
""fullscreenenter"",""1"",""2931""
","
","","","-1","","","12","13300","5743","&#9826;","elianto","#f73b6a7A","-1","-1","1","0","[]","0","0","3","","","","","","","",""
"pit-trial","69","587869","0.0-2.0-14.1-2.1","battery-v0.2","","""event"",""trial"",""time""
""fullscreenenter"",""1"",""2931""
","
","
","""event"",""trial"",""time""
""fullscreenenter"",""1"",""2931""
","
","","","-1","","","12","13300","5743","&#9826;","elianto","#f73b6a7A","-1","-1","1","0","[]","0","0","3","","","","","","","",""
"pit-trial","70","592728","0.0-2.0-14.1-3.1","battery-v0.2","","""event"",""trial"",""time""
""fullscreenenter"",""1"",""2931""
","
","
","""event"",""trial"",""time""
""fullscreenenter"",""1"",""2931""
","
","","","-1","","","12","13300","5743","&#9826;","elianto","#f73b6a7A","-1","-1","1","-10","[]","0","0","3","","","","","","","",""
"pit-trial","71","597587","0.0-2.0-14.1-4.1","battery-v0.2","","""event"",""trial"",""time""
""fullscreenenter"",""1"",""2931""
","
","
","""event"",""trial"",""time""
""fullscreenenter"",""1"",""2931""
","
","","","-1","","","12","13300","5743","&#9826;","elianto","#f73b6a7A","-1","-1","1","0","[]","0","0","3","","","","","","","",""
"pit-trial","72","602445","0.0-2.0-14.2-0.2","battery-v0.2","","""event"",""trial"",""time""
""fullscreenenter"",""1"",""2931""
","
","
","""event"",""trial"",""time""
""fullscreenenter"",""1"",""2931""
","
","","","-1","","","12","13300","5743","&#9826;","elianto","#f73b6a7A","-1","-1","1","0","[]","0","0","3","","","","","","","",""
"pit-trial","73","607304","0.0-2.0-14.2-1.2","battery-v0.2","","""event"",""trial"",""time""
""fullscreenenter"",""1"",""2931""
","
","
","""event"",""trial"",""time""
""fullscreenenter"",""1"",""2931""
","
","","","-1","","","12","13300","5743","&#9826;","elianto","#f73b6a7A","-1","-1","1","0","[]","0","0","3","","","","","","","",""
"pit-trial","74","612163","0.0-2.0-14.2-2.2","battery-v0.2","","""event"",""trial"",""time""
""fullscreenenter"",""1"",""2931""
","
","
","""event"",""trial"",""time""
""fullscreenenter"",""1"",""2931""
","
","","","-1","","","12","13300","5743","&#9826;","elianto","#f73b6a7A","-1","-1","1","0","[]","0","0","3","","","","","","","",""
"pit-trial","75","617022","0.0-2.0-14.2-3.2","battery-v0.2","","""event"",""trial"",""time""
""fullscreenenter"",""1"",""2931""
","
","
","""event"",""trial"",""time""
""fullscreenenter"",""1"",""2931""
","
","","","-1","","","12","13300","5743","&#9826;","elianto","#f73b6a7A","-1","-1","1","-10","[]","0","0","3","","","","","","","",""
"pit-trial","76","621880","0.0-2.0-14.2-4.2","battery-v0.2","","""event"",""trial"",""time""
""fullscreenenter"",""1"",""2931""
","
","
","""event"",""trial"",""time""
""fullscreenenter"",""1"",""2931""
","
","","","-1","","","12","13300","5743","&#9826;","elianto","#f73b6a7A","-1","-1","1","0","[]","0","0","3","","","","","","","",""
"pit-trial","77","626739","0.0-2.0-14.3-0.3","battery-v0.2","","""event"",""trial"",""time""
""fullscreenenter"",""1"",""2931""
","
","
","""event"",""trial"",""time""
""fullscreenenter"",""1"",""2931""
","
","","","-1","","","12","13300","5743","&#9826;","elianto","#f73b6a7A","-1","-1","1","0","[]","0","0","3","","","","","","","",""
"pit-trial","78","631598","0.0-2.0-14.3-1.3","battery-v0.2","","""event"",""trial"",""time""
""fullscreenenter"",""1"",""2931""
","
","
","""event"",""trial"",""time""
""fullscreenenter"",""1"",""2931""
","
","","","-1","","","12","13300","5743","&#9826;","elianto","#f73b6a7A","-1","-1","1","0","[]","0","0","3","","","","","","","",""
"pit-trial","79","636456","0.0-2.0-14.3-2.3","battery-v0.2","","""event"",""trial"",""time""
""fullscreenenter"",""1"",""2931""
","
","
","""event"",""trial"",""time""
""fullscreenenter"",""1"",""2931""
","
","","","-1","","","12","13300","5743","&#9826;","elianto","#f73b6a7A","-1","-1","1","0","[]","0","0","3","","","","","","","",""
"pit-trial","80","641315","0.0-2.0-14.3-3.3","battery-v0.2","","""event"",""trial"",""time""
""fullscreenenter"",""1"",""2931""
","
","
","""event"",""trial"",""time""
""fullscreenenter"",""1"",""2931""
","
","","","-1","","","12","13300","5743","&#9826;","elianto","#f73b6a7A","-1","-1","1","-10","[]","0","0","3","","","","","","","",""
"pit-trial","81","645607","0.0-2.0-14.3-4.3","battery-v0.2","","""event"",""trial"",""time""
""fullscreenenter"",""1"",""2931""
","
","
","""event"",""trial"",""time""
""fullscreenenter"",""1"",""2931""
","
","","","1438.7999999970198","","","12","13300","5743","&#9826;","elianto","#f73b6a7A","-1"," ","0","-10","[2289.5]","1","0","3","","","","","","","",""
"call-function","82","645609","0.0-2.0-15.0","battery-v0.2","","""event"",""trial"",""time""
""fullscreenenter"",""1"",""2931""
","
","
","""event"",""trial"",""time""
""fullscreenenter"",""1"",""2931""
","
","","","","","","","","","","","","","","","","","","","","","","","","","","",""
"pit-instructions","83","673521","0.0-2.0-16.0","battery-v0.2","","""event"",""trial"",""time""
""fullscreenenter"",""1"",""2931""
","
","
","""event"",""trial"",""time""
""fullscreenenter"",""1"",""2931""
","
","","[{""page_index"":0,""viewing_time"":7724.10000000149},{""page_index"":1,""viewing_time"":10711.29999999702},{""page_index"":2,""viewing_time"":4505},{""page_index"":3,""viewing_time"":4972.10000000149}]","27912.69999999553","","","","","","","","","","","","","","","","","","","","","","","",""
"pit-trial","84","676816","0.0-2.0-17.0-0.0","battery-v0.2","","""event"",""trial"",""time""
""fullscreenenter"",""1"",""2931""
","
","
","""event"",""trial"",""time""
""fullscreenenter"",""1"",""2931""
","
","","","439.5","","","12","13300","5743","&#9789;","elianto","#f73b6a7A"," "," ","1","0","[1290.4000000059605]","1","0","4","","","","","","","",""
"pit-trial","85","680055","0.0-2.0-17.0-1.0","battery-v0.2","","""event"",""trial"",""time""
""fullscreenenter"",""1"",""2931""
","
","
","""event"",""trial"",""time""
""fullscreenenter"",""1"",""2931""
","
","","","384.5","","","12","13300","5743","&#9789;","elianto","#f73b6a7A"," "," ","1","0","[1235.6999999955297]","1","0","4","","","","","","","",""
"pit-trial","86","684016","0.0-2.0-17.0-2.0","battery-v0.2","","""event"",""trial"",""time""
""fullscreenenter"",""1"",""2931""
","
","
","""event"",""trial"",""time""
""fullscreenenter"",""1"",""2931""
","
","","","1106.3999999985099","","","12","13300","5743","&#9789;","elianto","#f73b6a7A"," "," ","1","0","[1956.6999999955297]","1","0","4","","","","","","","",""
"pit-trial","87","687178","0.0-2.0-17.0-3.0","battery-v0.2","","""event"",""trial"",""time""
""fullscreenenter"",""1"",""2931""
","
","
","""event"",""trial"",""time""
""fullscreenenter"",""1"",""2931""
","
","","","304.70000000298023","","","12","13300","5743","&#9789;","elianto","#f73b6a7A"," "," ","1","-10","[1155.3999999985099]","1","0","4","","","","","","","",""
"pit-trial","88","690481","0.0-2.0-17.0-4.0","battery-v0.2","","""event"",""trial"",""time""
""fullscreenenter"",""1"",""2931""
","
","
","""event"",""trial"",""time""
""fullscreenenter"",""1"",""2931""
","
","","","446.90000000596046","","","12","13300","5743","&#9789;","elianto","#f73b6a7A"," "," ","1","0","[1297.8000000044703]","1","0","4","","","","","","","",""
"pit-trial","89","693610","0.0-2.0-17.1-0.1","battery-v0.2","","""event"",""trial"",""time""
""fullscreenenter"",""1"",""2931""
","
","
","""event"",""trial"",""time""
""fullscreenenter"",""1"",""2931""
","
","","","271.1000000014901","","","12","13300","5743","&#9789;","elianto","#f73b6a7A"," "," ","1","0","[1122.1000000014901]","1","0","4","","","","","","","",""
"pit-trial","90","696663","0.0-2.0-17.1-1.1","battery-v0.2","","""event"",""trial"",""time""
""fullscreenenter"",""1"",""2931""
","
","
","""event"",""trial"",""time""
""fullscreenenter"",""1"",""2931""
","
","","","198.80000000447035","","","12","13300","5743","&#9789;","elianto","#f73b6a7A"," "," ","1","0","[1049.7000000029802]","1","0","4","","","","","","","",""
"pit-trial","91","699705","0.0-2.0-17.1-2.1","battery-v0.2","","""event"",""trial"",""time""
""fullscreenenter"",""1"",""2931""
","
","
","""event"",""trial"",""time""
""fullscreenenter"",""1"",""2931""
","
","","","185.69999999552965","","","12","13300","5743","&#9789;","elianto","#f73b6a7A"," "," ","1","0","[1036.4000000059605]","1","0","4","","","","","","","",""
"pit-trial","92","703118","0.0-2.0-17.1-3.1","battery-v0.2","","""event"",""trial"",""time""
""fullscreenenter"",""1"",""2931""
","
","
","""event"",""trial"",""time""
""fullscreenenter"",""1"",""2931""
","
","","","558.6000000014901","","","12","13300","5743","&#9789;","elianto","#f73b6a7A"," "," ","1","-10","[427.20000000298023,1411]","2","0","4","","","","","","","",""
"pit-trial","93","706342","0.0-2.0-17.1-4.1","battery-v0.2","","""event"",""trial"",""time""
""fullscreenenter"",""1"",""2931""
","
","
","""event"",""trial"",""time""
""fullscreenenter"",""1"",""2931""
","
","","","369.8999999985099","","","12","13300","5743","&#9789;","elianto","#f73b6a7A"," "," ","1","0","[1221.1000000014901]","1","0","4","","","","","","","",""
"pit-trial","94","709407","0.0-2.0-17.2-0.2","battery-v0.2","","""event"",""trial"",""time""
""fullscreenenter"",""1"",""2931""
","
","
","""event"",""trial"",""time""
""fullscreenenter"",""1"",""2931""
","
","","","210.39999999850988","","","12","13300","5743","&#9789;","elianto","#f73b6a7A"," "," ","1","0","[436.70000000298023,1061]","2","0","4","","","","","","","",""
"pit-trial","95","712501","0.0-2.0-17.2-1.2","battery-v0.2","","""event"",""trial"",""time""
""fullscreenenter"",""1"",""2931""
","
","
","""event"",""trial"",""time""
""fullscreenenter"",""1"",""2931""
","
","","","240.80000000447035","","","12","13300","5743","&#9789;","elianto","#f73b6a7A"," "," ","1","0","[1092.3000000044703]","1","0","4","","","","","","","",""
"pit-trial","96","716170","0.0-2.0-17.2-2.2","battery-v0.2","","""event"",""trial"",""time""
""fullscreenenter"",""1"",""2931""
","
","
","""event"",""trial"",""time""
""fullscreenenter"",""1"",""2931""
","
","","","809.7999999970198","","","12","13300","5743","&#9789;","elianto","#f73b6a7A"," "," ","1","0","[575.0999999940395,1662.2999999970198,3582.39999999851]","3","0","4","","","","","","","",""
"pit-trial","97","720512","0.0-2.0-17.2-3.2","battery-v0.2","","""event"",""trial"",""time""
""fullscreenenter"",""1"",""2931""
","
","
","""event"",""trial"",""time""
""fullscreenenter"",""1"",""2931""
","
","","","1485.5","","","12","13300","5743","&#9789;","elianto","#f73b6a7A"," "," ","1","-10","[2337.9000000059605]","1","0","4","","","","","","","",""
"pit-trial","98","723745","0.0-2.0-17.2-4.2","battery-v0.2","","""event"",""trial"",""time""
""fullscreenenter"",""1"",""2931""
","
","
","""event"",""trial"",""time""
""fullscreenenter"",""1"",""2931""
","
","","","375.29999999701977","","","12","13300","5743","&#9789;","elianto","#f73b6a7A"," "," ","1","0","[1227.5999999940395]","1","0","4","","","","","","","",""
"pit-trial","99","726775","0.0-2.0-17.3-0.3","battery-v0.2","","""event"",""trial"",""time""
""fullscreenenter"",""1"",""2931""
","
","
","""event"",""trial"",""time""
""fullscreenenter"",""1"",""2931""
","
","","","173.89999999850988","","","12","13300","5743","&#9789;","elianto","#f73b6a7A"," "," ","1","0","[1025.7000000029802]","1","0","4","","","","","","","",""
"pit-trial","100","729870","0.0-2.0-17.3-1.3","battery-v0.2","","""event"",""trial"",""time""
""fullscreenenter"",""1"",""2931""
","
","
","""event"",""trial"",""time""
""fullscreenenter"",""1"",""2931""
","
","","","241","","","12","13300","5743","&#9789;","elianto","#f73b6a7A"," "," ","1","0","[1091.7999999970198]","1","0","4","","","","","","","",""
"pit-trial","101","733335","0.0-2.0-17.3-2.3","battery-v0.2","","""event"",""trial"",""time""
""fullscreenenter"",""1"",""2931""
","
","
","""event"",""trial"",""time""
""fullscreenenter"",""1"",""2931""
","
","","","609.1000000014901","","","12","13300","5743","&#9789;","elianto","#f73b6a7A"," "," ","1","0","[453.5,1461.5]","2","0","4","","","","","","","",""
"pit-trial","102","736592","0.0-2.0-17.3-3.3","battery-v0.2","","""event"",""trial"",""time""
""fullscreenenter"",""1"",""2931""
","
","
","""event"",""trial"",""time""
""fullscreenenter"",""1"",""2931""
","
","","","400.3999999985099","","","12","13300","5743","&#9789;","elianto","#f73b6a7A"," "," ","1","-10","[1252.2000000029802]","1","0","4","","","","","","","",""
"pit-trial","103","739645","0.0-2.0-17.3-4.3","battery-v0.2","","""event"",""trial"",""time""
""fullscreenenter"",""1"",""2931""
","
","
","""event"",""trial"",""time""
""fullscreenenter"",""1"",""2931""
","
","","","200","","","12","13300","5743","&#9789;","elianto","#f73b6a7A"," "," ","1","0","[1051.3000000044703]","1","0","4","","","","","","","",""
"call-function","104","739646","0.0-2.0-18.0","battery-v0.2","","""event"",""trial"",""time""
""fullscreenenter"",""1"",""2931""
","
","
","""event"",""trial"",""time""
""fullscreenenter"",""1"",""2931""
","
","","","","","","","","","","","","","","","","","","","","","","","","","","",""
"pit-instructions","105","811373","0.0-2.0-19.0","battery-v0.2","","""event"",""trial"",""time""
""fullscreenenter"",""1"",""2931""
","
","
","""event"",""trial"",""time""
""fullscreenenter"",""1"",""2931""
","
","","[{""page_index"":0,""viewing_time"":6521.10000000149},{""page_index"":1,""viewing_time"":7324.70000000298},{""page_index"":2,""viewing_time"":14416.09999999404},{""page_index"":3,""viewing_time"":7574.9000000059605},{""page_index"":4,""viewing_time"":8226},{""page_index"":5,""viewing_time"":8525.59999999404},{""page_index"":6,""viewing_time"":8676.20000000298},{""page_index"":7,""viewing_time"":6240.29999999702},{""page_index"":8,""viewing_time"":4221.80000000447}]","71726.80000000447","","","","","","","","","","","","","","","","","","","","","","","",""
"pit-comprehension","106","817997","0.0-2.0-20.0-0.0","battery-v0.2","","""event"",""trial"",""time""
""fullscreenenter"",""1"",""2931""
","
","
","""event"",""trial"",""time""
""fullscreenenter"",""1"",""2931""
","
","","","6621.79999999702","[""SPACE""]","0","12","13300","5743","","","","","","","","","","","","","","","","","","",""
"pit-instructions","107","821316","0.0-2.0-20.0-1.0","battery-v0.2","","""event"",""trial"",""time""
""fullscreenenter"",""1"",""2931""
","
","
","""event"",""trial"",""time""
""fullscreenenter"",""1"",""2931""
","
","","[{""page_index"":0,""viewing_time"":3292.5}]","3292.7000000029802","","","","","","","","","","","","","","","","","","","","","","","",""
"pit-comprehension","108","828758","0.0-2.0-21.0-0.0","battery-v0.2","","""event"",""trial"",""time""
""fullscreenenter"",""1"",""2931""
","
","
","""event"",""trial"",""time""
""fullscreenenter"",""1"",""2931""
","
","","","7439.10000000149","[""10""]","0","12","13300","5743","","","","","","","","","","","","","","","","","","",""
"pit-instructions","109","830427","0.0-2.0-21.0-1.0","battery-v0.2","","""event"",""trial"",""time""
""fullscreenenter"",""1"",""2931""
","
","
","""event"",""trial"",""time""
""fullscreenenter"",""1"",""2931""
","
","","[{""page_index"":0,""viewing_time"":1641.8000000044703}]","1642","","","","","","","","","","","","","","","","","","","","","","","",""
"pit-comprehension","110","838219","0.0-2.0-22.0-0.0","battery-v0.2","","""event"",""trial"",""time""
""fullscreenenter"",""1"",""2931""
","
","
","""event"",""trial"",""time""
""fullscreenenter"",""1"",""2931""
","
","","","7790.5","[""0""]","0","12","13300","5743","","","","","","","","","","","","","","","","","","",""
"pit-instructions","111","840121","0.0-2.0-22.0-1.0","battery-v0.2","","""event"",""trial"",""time""
""fullscreenenter"",""1"",""2931""
","
","
","""event"",""trial"",""time""
""fullscreenenter"",""1"",""2931""
","
","","[{""page_index"":0,""viewing_time"":1875.2999999970198}]","1875.5","","","","","","","","","","","","","","","","","","","","","","","",""
"pit-comprehension","112","851099","0.0-2.0-23.0-0.0","battery-v0.2","","""event"",""trial"",""time""
""fullscreenenter"",""1"",""2931""
","
","
","""event"",""trial"",""time""
""fullscreenenter"",""1"",""2931""
","
","","","10976.80000000447","[""True""]","0","12","13300","5743","","","","","","","","","","","","","","","","","","",""
"pit-instructions","113","853452","0.0-2.0-23.0-1.0","battery-v0.2","","""event"",""trial"",""time""
""fullscreenenter"",""1"",""2931""
","
","
","""event"",""trial"",""time""
""fullscreenenter"",""1"",""2931""
","
","","[{""page_index"":0,""viewing_time"":2324.1999999955297}]","2324.2999999970198","","","","","","","","","","","","","","","","","","","","","","","",""
"pit-comprehension","114","864281","0.0-2.0-24.0-0.0","battery-v0.2","","""event"",""trial"",""time""
""fullscreenenter"",""1"",""2931""
","
","
","""event"",""trial"",""time""
""fullscreenenter"",""1"",""2931""
","
","","","10826.5","[""True""]","0","12","13300","5743","","","","","","","","","","","","","","","","","","",""
"pit-instructions","115","866199","0.0-2.0-24.0-1.0","battery-v0.2","","""event"",""trial"",""time""
""fullscreenenter"",""1"",""2931""
","
","
","""event"",""trial"",""time""
""fullscreenenter"",""1"",""2931""
","
","","[{""page_index"":0,""viewing_time"":1892.1999999955297}]","1892.2999999970198","","","","","","","","","","","","","","","","","","","","","","","",""
"pit-comprehension","116","873424","0.0-2.0-25.0-0.0","battery-v0.2","","""event"",""trial"",""time""
""fullscreenenter"",""1"",""2931""
","
","
","""event"",""trial"",""time""
""fullscreenenter"",""1"",""2931""
","
","","","7223.10000000149","[""True""]","0","12","13300","5743","","","","","","","","","","","","","","","","","","",""
"pit-instructions","117","875084","0.0-2.0-25.0-1.0","battery-v0.2","","""event"",""trial"",""time""
""fullscreenenter"",""1"",""2931""
","
","
","""event"",""trial"",""time""
""fullscreenenter"",""1"",""2931""
","
","","[{""page_index"":0,""viewing_time"":1633.1000000014901}]","1633.2999999970198","","","","","","","","","","","","","","","","","","","","","","","",""
"pit-comprehension","118","880815","0.0-2.0-26.0-0.0","battery-v0.2","","""event"",""trial"",""time""
""fullscreenenter"",""1"",""2931""
","
","
","""event"",""trial"",""time""
""fullscreenenter"",""1"",""2931""
","
","","","5729.89999999851","[""False""]","0","12","13300","5743","","","","","","","","","","","","","","","","","","",""
"pit-instructions","119","882584","0.0-2.0-26.0-1.0","battery-v0.2","","""event"",""trial"",""time""
""fullscreenenter"",""1"",""2931""
","
","
","""event"",""trial"",""time""
""fullscreenenter"",""1"",""2931""
","
","","[{""page_index"":0,""viewing_time"":1739.8000000044703}]","1739.8999999985099","","","","","","","","","","","","","","","","","","","","","","","",""
"pit-instructions","120","899335","0.0-3.0","battery-v0.2","","""event"",""trial"",""time""
""fullscreenenter"",""1"",""2931""
","
","
","""event"",""trial"",""time""
""fullscreenenter"",""1"",""2931""
","
","","[{""page_index"":0,""viewing_time"":3985.89999999851},{""page_index"":1,""viewing_time"":5373.20000000298},{""page_index"":2,""viewing_time"":7391.39999999851}]","16750.60000000149","","","","","","","","","","","","","","","","","","","","","","","",""
"pit-trial","121","902895","0.0-4.0","battery-v0.2","","""event"",""trial"",""time""
""fullscreenenter"",""1"",""2931""
","
","
","""event"",""trial"",""time""
""fullscreenenter"",""1"",""2931""
","
","","","701.3000000044703","","","12","13300","5743","&#9733;","elianto","#3366ff99","-1"," ","0","0","[1553]","1","1","","","13300","1","2","2","win","no-go","0"
"pit-trial","122","906430","0.0-5.0","battery-v0.2","","""event"",""trial"",""time""
""fullscreenenter"",""1"",""2931""
","
","
","""event"",""trial"",""time""
""fullscreenenter"",""1"",""2931""
","
","","","678.8999999985099","","","12","13300","5743","&#9752;","elianto","#f73b6a7A"," "," ","1","0","[1530.8000000044703]","1","1","","","13300","2","3","3","lose","go","0"
"pit-trial","123","909934","0.0-6.0","battery-v0.2","","""event"",""trial"",""time""
""fullscreenenter"",""1"",""2931""
","
","
","""event"",""trial"",""time""
""fullscreenenter"",""1"",""2931""
","
","","","647.3000000044703","","","12","13300","5743","&#9730;","elianto","#3366ff99"," "," ","1","+10","[1499.6000000014901]","1","1","","","13300","3","1","1","win","go","0"
"pit-trial","124","913582","0.0-7.0","battery-v0.2","","""event"",""trial"",""time""
""fullscreenenter"",""1"",""2931""
","
","
","""event"",""trial"",""time""
""fullscreenenter"",""1"",""2931""
","
","","","791","","","12","13300","5743","&#9728;","elianto","#f73b6a7A","-1"," ","0","0","[1644.1999999955297]","1","1","","","13300","4","0","4","lose","no-go","1"
"pit-trial","125","918441","0.0-8.0","battery-v0.2","","""event"",""trial"",""time""
""fullscreenenter"",""1"",""2931""
","
","
","""event"",""trial"",""time""
""fullscreenenter"",""1"",""2931""
","
","","","-1","","","12","13300","5743","&#9733;","elianto","#3366ff99","-1","-1","1","0","[]","0","1","","","13300","5","2","2","win","no-go","1"
"pit-trial","126","922103","0.0-9.0","battery-v0.2","","""event"",""trial"",""time""
""fullscreenenter"",""1"",""2931""
","
","
","""event"",""trial"",""time""
""fullscreenenter"",""1"",""2931""
","
","","","805","","","12","13300","5743","&#9728;","elianto","#f73b6a7A","-1"," ","0","0","[1657]","1","1","","","13300","6","0","4","lose","no-go","1"
"pit-trial","127","925717","0.0-10.0","battery-v0.2","","""event"",""trial"",""time""
""fullscreenenter"",""1"",""2931""
","
","
","""event"",""trial"",""time""
""fullscreenenter"",""1"",""2931""
","
","","","759.6999999955297","","","12","13300","5743","&#9730;","elianto","#3366ff99"," "," ","1","+10","[1610.3999999985099]","1","1","","","13300","7","1","1","win","go","0"
"pit-trial","128","930574","0.0-11.0","battery-v0.2","","""event"",""trial"",""time""
""fullscreenenter"",""1"",""2931""
","
","
","""event"",""trial"",""time""
""fullscreenenter"",""1"",""2931""
","
","","","-1","","","12","13300","5743","&#9752;","elianto","#f73b6a7A"," ","-1","0","-10","[]","0","1","","","13300","8","3","3","lose","go","0"
"pit-trial","129","934046","0.0-12.0","battery-v0.2","","""event"",""trial"",""time""
""fullscreenenter"",""1"",""2931""
","
","
","""event"",""trial"",""time""
""fullscreenenter"",""1"",""2931""
","
","","","614.8999999985099","","","12","13300","5743","&#9733;","elianto","#3366ff99","-1"," ","0","0","[1467.3000000044703]","1","1","","","13300","9","2","2","win","no-go","0"
"pit-trial","130","938015","0.0-13.0","battery-v0.2","","""event"",""trial"",""time""
""fullscreenenter"",""1"",""2931""
","
","
","""event"",""trial"",""time""
""fullscreenenter"",""1"",""2931""
","
","","","1112","","","12","13300","5743","&#9752;","elianto","#f73b6a7A"," "," ","1","0","[1964.1000000014901]","1","1","","","13300","10","3","3","lose","go","0"
"pit-trial","131","941847","0.0-14.0","battery-v0.2","","""event"",""trial"",""time""
""fullscreenenter"",""1"",""2931""
","
","
","""event"",""trial"",""time""
""fullscreenenter"",""1"",""2931""
","
","","","973.2999999970198","","","12","13300","5743","&#9728;","elianto","#f73b6a7A","-1"," ","0","-10","[1826.1000000014901]","1","1","","","13300","11","0","4","lose","no-go","0"
"pit-trial","132","945191","0.0-15.0","battery-v0.2","","""event"",""trial"",""time""
""fullscreenenter"",""1"",""2931""
","
","
","""event"",""trial"",""time""
""fullscreenenter"",""1"",""2931""
","
","","","486.70000000298023","","","12","13300","5743","&#9730;","elianto","#3366ff99"," "," ","1","+10","[1337.8999999985099]","1","1","","","13300","12","1","1","win","go","0"
"pit-trial","133","948656","0.0-16.0","battery-v0.2","","""event"",""trial"",""time""
""fullscreenenter"",""1"",""2931""
","
","
","""event"",""trial"",""time""
""fullscreenenter"",""1"",""2931""
","
","","","606.1999999955297","","","12","13300","5743","&#9728;","elianto","#f73b6a7A","-1"," ","0","-10","[1458.5]","1","1","","","13300","13","0","4","lose","no-go","0"
"pit-trial","134","952116","0.0-17.0","battery-v0.2","","""event"",""trial"",""time""
""fullscreenenter"",""1"",""2931""
","
","
","""event"",""trial"",""time""
""fullscreenenter"",""1"",""2931""
","
","","","604.8000000044703","","","12","13300","5743","&#9752;","elianto","#f73b6a7A"," "," ","1","0","[1457.3000000044703]","1","1","","","13300","14","3","3","lose","go","0"
"pit-trial","135","956977","0.0-18.0","battery-v0.2","","""event"",""trial"",""time""
""fullscreenenter"",""1"",""2931""
","
","
","""event"",""trial"",""time""
""fullscreenenter"",""1"",""2931""
","
","","","-1","","","12","13300","5743","&#9733;","elianto","#3366ff99","-1","-1","1","+10","[]","0","1","","","13300","15","2","2","win","no-go","0"
"pit-trial","136","960683","0.0-19.0","battery-v0.2","","""event"",""trial"",""time""
""fullscreenenter"",""1"",""2931""
","
","
","""event"",""trial"",""time""
""fullscreenenter"",""1"",""2931""
","
","","","852.0999999940395","","","12","13300","5743","&#9730;","elianto","#3366ff99"," "," ","1","0","[1703.8999999985099]","1","1","","","13300","16","1","1","win","go","1"
"pit-trial","137","964551","0.0-20.0","battery-v0.2","","""event"",""trial"",""time""
""fullscreenenter"",""1"",""2931""
","
","
","""event"",""trial"",""time""
""fullscreenenter"",""1"",""2931""
","
","","","1010.5999999940395","","","12","13300","5743","&#9752;","elianto","#f73b6a7A"," "," ","1","0","[1862.0999999940395]","1","1","","","13300","17","3","3","lose","go","0"
"pit-trial","138","968324","0.0-21.0","battery-v0.2","","""event"",""trial"",""time""
""fullscreenenter"",""1"",""2931""
","
","
","""event"",""trial"",""time""
""fullscreenenter"",""1"",""2931""
","
","","","919.7000000029802","","","12","13300","5743","&#9730;","elianto","#3366ff99"," "," ","1","+10","[1770.6000000014901]","1","1","","","13300","18","1","1","win","go","0"
"pit-trial","139","973183","0.0-22.0","battery-v0.2","","""event"",""trial"",""time""
""fullscreenenter"",""1"",""2931""
","
","
","""event"",""trial"",""time""
""fullscreenenter"",""1"",""2931""
","
","","","-1","","","12","13300","5743","&#9733;","elianto","#3366ff99","-1","-1","1","0","[]","0","1","","","13300","19","2","2","win","no-go","1"
"pit-trial","140","976984","0.0-23.0","battery-v0.2","","""event"",""trial"",""time""
""fullscreenenter"",""1"",""2931""
","
","
","""event"",""trial"",""time""
""fullscreenenter"",""1"",""2931""
","
","","","943.2999999970198","","","12","13300","5743","&#9728;","elianto","#f73b6a7A","-1"," ","0","-10","[1794.5999999940395]","1","1","","","13300","20","0","4","lose","no-go","0"
"pit-instructions","141","991303","0.0-24.0","battery-v0.2","","""event"",""trial"",""time""
""fullscreenenter"",""1"",""2931""
","
","
","""event"",""trial"",""time""
""fullscreenenter"",""1"",""2931""
","
","","[{""page_index"":0,""viewing_time"":5724.89999999851},{""page_index"":1,""viewing_time"":8592.20000000298}]","14317.29999999702","","","","","","","","","","","","","","","","","","","","","","","",""
"pit-trial","142","994966","0.0-25.0","battery-v0.2","","""event"",""trial"",""time""
""fullscreenenter"",""1"",""2931""
","
","
","""event"",""trial"",""time""
""fullscreenenter"",""1"",""2931""
","
","","","806.3999999985099","","","12","13300","5743","n","elianto","#f73b6a7A"," "," ","1","0","[1657.1999999955297]","1","2","","","13300","21","0","3","lose","go","0"
"pit-trial","143","998455","0.0-26.0","battery-v0.2","","""event"",""trial"",""time""
""fullscreenenter"",""1"",""2931""
","
","
","""event"",""trial"",""time""
""fullscreenenter"",""1"",""2931""
","
","","","632.6999999955297","","","12","13300","5743","t","elianto","#f73b6a7A"," "," ","1","0","[1483.0999999940395]","1","2","","","13300","22","2","3","lose","go","0"
"pit-trial","144","1001357","0.0-27.0","battery-v0.2","","""event"",""trial"",""time""
""fullscreenenter"",""1"",""2931""
","
","
","""event"",""trial"",""time""
""fullscreenenter"",""1"",""2931""
","
","","","47.600000001490116","","","12","13300","5743","b","elianto","#f73b6a7A","-1"," ","0","0","[897.8999999985099]","1","2","","","13300","23","3","4","lose","no-go","1"
"pit-trial","145","1004800","0.0-28.0","battery-v0.2","","""event"",""trial"",""time""
""fullscreenenter"",""1"",""2931""
","
","
","""event"",""trial"",""time""
""fullscreenenter"",""1"",""2931""
","
","","","585.5","","","12","13300","5743","f","elianto","#3366ff99","-1"," ","0","0","[1435.6000000014901]","1","2","","","13300","24","1","2","win","no-go","0"
"pit-trial","146","1009658","0.0-29.0","battery-v0.2","","""event"",""trial"",""time""
""fullscreenenter"",""1"",""2931""
","
","
","""event"",""trial"",""time""
""fullscreenenter"",""1"",""2931""
","
","","","-1","","","12","13300","5743","f","elianto","#3366ff99","-1","-1","1","0","[]","0","2","","","13300","25","1","2","win","no-go","1"
"pit-trial","147","1013170","0.0-30.0","battery-v0.2","","""event"",""trial"",""time""
""fullscreenenter"",""1"",""2931""
","
","
","""event"",""trial"",""time""
""fullscreenenter"",""1"",""2931""
","
","","","658.2000000029802","","","12","13300","5743","b","elianto","#f73b6a7A","-1"," ","0","-10","[1510.2999999970198]","1","2","","","13300","26","3","4","lose","no-go","0"
"pit-trial","148","1017350","0.0-31.0","battery-v0.2","","""event"",""trial"",""time""
""fullscreenenter"",""1"",""2931""
","
","
","""event"",""trial"",""time""
""fullscreenenter"",""1"",""2931""
","
","","","1323.3000000044703","","","12","13300","5743","t","elianto","#f73b6a7A"," "," ","1","0","[2174.5]","1","2","","","13300","27","2","3","lose","go","0"
"pit-trial","149","1022205","0.0-32.0","battery-v0.2","","""event"",""trial"",""time""
""fullscreenenter"",""1"",""2931""
","
","
","""event"",""trial"",""time""
""fullscreenenter"",""1"",""2931""
","
","","","-1","","","12","13300","5743","n","elianto","#f73b6a7A"," ","-1","0","-10","[4698.89999999851]","1","2","","","13300","28","0","3","lose","go","0"
"pit-trial","150","1025894","0.0-33.0","battery-v0.2","","""event"",""trial"",""time""
""fullscreenenter"",""1"",""2931""
","
","
","""event"",""trial"",""time""
""fullscreenenter"",""1"",""2931""
","
","","","832.1000000014901","","","12","13300","5743","f","elianto","#3366ff99","-1"," ","0","0","[1683.9000000059605]","1","2","","","13300","29","1","2","win","no-go","0"
"pit-trial","151","1029826","0.0-34.0","battery-v0.2","","""event"",""trial"",""time""
""fullscreenenter"",""1"",""2931""
","
","
","""event"",""trial"",""time""
""fullscreenenter"",""1"",""2931""
","
","","","1077.8000000044703","","","12","13300","5743","n","elianto","#f73b6a7A"," "," ","1","0","[1930.7000000029802,2546.60000000149]","2","2","","","13300","30","0","3","lose","go","0"
"pit-trial","152","1034685","0.0-35.0","battery-v0.2","","""event"",""trial"",""time""
""fullscreenenter"",""1"",""2931""
","
","
","""event"",""trial"",""time""
""fullscreenenter"",""1"",""2931""
","
","","","-1","","","12","13300","5743","b","elianto","#f73b6a7A","-1","-1","1","0","[]","0","2","","","13300","31","3","4","lose","no-go","0"
"pit-trial","153","1038183","0.0-36.0","battery-v0.2","","""event"",""trial"",""time""
""fullscreenenter"",""1"",""2931""
","
","
","""event"",""trial"",""time""
""fullscreenenter"",""1"",""2931""
","
","","","639.4000000059605","","","12","13300","5743","t","elianto","#f73b6a7A"," "," ","1","-10","[1491.6000000014901]","1","2","","","13300","32","2","3","lose","go","1"
"pit-trial","154","1042022","0.0-37.0","battery-v0.2","","""event"",""trial"",""time""
""fullscreenenter"",""1"",""2931""
","
","
","""event"",""trial"",""time""
""fullscreenenter"",""1"",""2931""
","
","","","983","","","12","13300","5743","f","elianto","#3366ff99","-1"," ","0","0","[1834.0999999940395]","1","2","","","13300","33","1","2","win","no-go","0"
"pit-trial","155","1046881","0.0-38.0","battery-v0.2","","""event"",""trial"",""time""
""fullscreenenter"",""1"",""2931""
","
","
","""event"",""trial"",""time""
""fullscreenenter"",""1"",""2931""
","
","","","-1","","","12","13300","5743","b","elianto","#f73b6a7A","-1","-1","1","-10","[]","0","2","","","13300","34","3","4","lose","no-go","1"
"pit-trial","156","1050706","0.0-39.0","battery-v0.2","","""event"",""trial"",""time""
""fullscreenenter"",""1"",""2931""
","
","
","""event"",""trial"",""time""
""fullscreenenter"",""1"",""2931""
","
","","","971","","","12","13300","5743","n","elianto","#f73b6a7A"," "," ","1","0","[1823.5]","1","2","","","13300","35","0","3","lose","go","0"
"pit-trial","157","1054480","0.0-40.0","battery-v0.2","","""event"",""trial"",""time""
""fullscreenenter"",""1"",""2931""
","
","
","""event"",""trial"",""time""
""fullscreenenter"",""1"",""2931""
","
","","","913.5","","","12","13300","5743","t","elianto","#f73b6a7A"," "," ","1","0","[1765.6000000014901]","1","2","","","13300","36","2","3","lose","go","0"
"pit-trial","158","1058015","0.0-41.0","battery-v0.2","","""event"",""trial"",""time""
""fullscreenenter"",""1"",""2931""
","
","
","""event"",""trial"",""time""
""fullscreenenter"",""1"",""2931""
","
","","","677","","","12","13300","5743","f","elianto","#3366ff99","-1"," ","0","0","[1528.3999999985099]","1","2","","","13300","37","1","2","win","no-go","0"
"pit-trial","159","1062874","0.0-42.0","battery-v0.2","","""event"",""trial"",""time""
""fullscreenenter"",""1"",""2931""
","
","
","""event"",""trial"",""time""
""fullscreenenter"",""1"",""2931""
","
","","","-1","","","12","13300","5743","b","elianto","#f73b6a7A","-1","-1","1","0","[]","0","2","","","13300","38","3","4","lose","no-go","0"
"pit-trial","160","1066902","0.0-43.0","battery-v0.2","","""event"",""trial"",""time""
""fullscreenenter"",""1"",""2931""
","
","
","""event"",""trial"",""time""
""fullscreenenter"",""1"",""2931""
","
","","","1171.6999999955297","","","12","13300","5743","t","elianto","#f73b6a7A"," "," ","1","0","[2022.5999999940395]","1","2","","","13300","39","2","3","lose","go","0"
"pit-trial","161","1071761","0.0-44.0","battery-v0.2","","""event"",""trial"",""time""
""fullscreenenter"",""1"",""2931""
","
","
","""event"",""trial"",""time""
""fullscreenenter"",""1"",""2931""
","
","","","-1","","","12","13300","5743","n","elianto","#f73b6a7A"," ","-1","0","-10","[]","0","2","","","13300","40","0","3","lose","go","0"
"pit-trial","162","1076138","0.0-45.0","battery-v0.2","","""event"",""trial"",""time""
""fullscreenenter"",""1"",""2931""
","
","
","""event"",""trial"",""time""
""fullscreenenter"",""1"",""2931""
","
","","","1522.8999999985099","","","12","13300","5743","b","elianto","#f73b6a7A","-1"," ","0","-10","[2375.2999999970198]","1","2","","","13300","41","3","4","lose","no-go","0"
"pit-trial","163","1080997","0.0-46.0","battery-v0.2","","""event"",""trial"",""time""
""fullscreenenter"",""1"",""2931""
","
","
","""event"",""trial"",""time""
""fullscreenenter"",""1"",""2931""
","
","","","-1","","","12","13300","5743","n","elianto","#f73b6a7A"," ","-1","0","-10","[]","0","2","","","13300","42","0","3","lose","go","0"
"pit-trial","164","1085856","0.0-47.0","battery-v0.2","","""event"",""trial"",""time""
""fullscreenenter"",""1"",""2931""
","
","
","""event"",""trial"",""time""
""fullscreenenter"",""1"",""2931""
","
","","","-1","","","12","13300","5743","f","elianto","#3366ff99","-1","-1","1","+10","[]","0","2","","","13300","43","1","2","win","no-go","0"
"pit-trial","165","1089187","0.0-48.0","battery-v0.2","","""event"",""trial"",""time""
""fullscreenenter"",""1"",""2931""
","
","
","""event"",""trial"",""time""
""fullscreenenter"",""1"",""2931""
","
","","","476.80000000447035","","","12","13300","5743","t","elianto","#f73b6a7A"," "," ","1","0","[1329]","1","2","","","13300","44","2","3","lose","go","0"
"pit-trial","166","1092909","0.0-49.0","battery-v0.2","","""event"",""trial"",""time""
""fullscreenenter"",""1"",""2931""
","
","
","""event"",""trial"",""time""
""fullscreenenter"",""1"",""2931""
","
","","","864.5999999940395","","","12","13300","5743","t","elianto","#f73b6a7A"," "," ","1","0","[1716.1000000014901]","1","2","","","13300","45","2","3","lose","go","0"
"pit-trial","167","1096989","0.0-50.0","battery-v0.2","","""event"",""trial"",""time""
""fullscreenenter"",""1"",""2931""
","
","
","""event"",""trial"",""time""
""fullscreenenter"",""1"",""2931""
","
","","","1224.5","","","12","13300","5743","n","elianto","#f73b6a7A"," "," ","1","0","[2075.5999999940395]","1","2","","","13300","46","0","3","lose","go","0"
"pit-trial","168","1100780","0.0-51.0","battery-v0.2","","""event"",""trial"",""time""
""fullscreenenter"",""1"",""2931""
","
","
","""event"",""trial"",""time""
""fullscreenenter"",""1"",""2931""
","
","","","932.8000000044703","","","12","13300","5743","f","elianto","#3366ff99","-1"," ","0","0","[1786.8000000044703]","1","2","","","13300","47","1","2","win","no-go","0"
"pit-trial","169","1105639","0.0-52.0","battery-v0.2","","""event"",""trial"",""time""
""fullscreenenter"",""1"",""2931""
","
","
","""event"",""trial"",""time""
""fullscreenenter"",""1"",""2931""
","
","","","-1","","","12","13300","5743","b","elianto","#f73b6a7A","-1","-1","1","0","[]","0","2","","","13300","48","3","4","lose","no-go","0"
"pit-trial","170","1109383","0.0-53.0","battery-v0.2","","""event"",""trial"",""time""
""fullscreenenter"",""1"",""2931""
","
","
","""event"",""trial"",""time""
""fullscreenenter"",""1"",""2931""
","
","","","886","","","12","13300","5743","t","elianto","#f73b6a7A"," "," ","1","-10","[1737]","1","2","","","13300","49","2","3","lose","go","1"
"pit-trial","171","1114242","0.0-54.0","battery-v0.2","","""event"",""trial"",""time""
""fullscreenenter"",""1"",""2931""
","
","
","""event"",""trial"",""time""
""fullscreenenter"",""1"",""2931""
","
","","","-1","","","12","13300","5743","f","elianto","#3366ff99","-1","-1","1","+10","[]","0","2","","","13300","50","1","2","win","no-go","0"
"pit-trial","172","1117951","0.0-55.0","battery-v0.2","","""event"",""trial"",""time""
""fullscreenenter"",""1"",""2931""
","
","
","""event"",""trial"",""time""
""fullscreenenter"",""1"",""2931""
","
","","","850","","","12","13300","5743","n","elianto","#f73b6a7A"," "," ","1","0","[1702.2000000029802]","1","2","","","13300","51","0","3","lose","go","0"
"pit-trial","173","1122549","0.0-56.0","battery-v0.2","","""event"",""trial"",""time""
""fullscreenenter"",""1"",""2931""
","
","
","""event"",""trial"",""time""
""fullscreenenter"",""1"",""2931""
","
","","","1742.5","","","12","13300","5743","b","elianto","#f73b6a7A","-1"," ","0","-10","[2593.10000000149]","1","2","","","13300","52","3","4","lose","no-go","0"
"pit-trial","174","1127285","0.0-57.0","battery-v0.2","","""event"",""trial"",""time""
""fullscreenenter"",""1"",""2931""
","
","
","""event"",""trial"",""time""
""fullscreenenter"",""1"",""2931""
","
","","","1879.2000000029802","","","12","13300","5743","b","elianto","#f73b6a7A","-1"," ","0","-10","[2731.2000000029802]","1","2","","","13300","53","3","4","lose","no-go","0"
"pit-trial","175","1132142","0.0-58.0","battery-v0.2","","""event"",""trial"",""time""
""fullscreenenter"",""1"",""2931""
","
","
","""event"",""trial"",""time""
""fullscreenenter"",""1"",""2931""
","
","","","-1","","","12","13300","5743","n","elianto","#f73b6a7A"," ","-1","0","-10","[]","0","2","","","13300","54","0","3","lose","go","0"
"pit-trial","176","1135749","0.0-59.0","battery-v0.2","","""event"",""trial"",""time""
""fullscreenenter"",""1"",""2931""
","
","
","""event"",""trial"",""time""
""fullscreenenter"",""1"",""2931""
","
","","","748.8999999985099","","","12","13300","5743","f","elianto","#3366ff99","-1"," ","0","0","[1601.5]","1","2","","","13300","55","1","2","win","no-go","0"
"pit-trial","177","1139702","0.0-60.0","battery-v0.2","","""event"",""trial"",""time""
""fullscreenenter"",""1"",""2931""
","
","
","""event"",""trial"",""time""
""fullscreenenter"",""1"",""2931""
","
","","","1094.3999999985099","","","12","13300","5743","t","elianto","#f73b6a7A"," "," ","1","0","[1946.6000000014901]","1","2","","","13300","56","2","3","lose","go","0"
"pit-trial","178","1144561","0.0-61.0","battery-v0.2","","""event"",""trial"",""time""
""fullscreenenter"",""1"",""2931""
","
","
","""event"",""trial"",""time""
""fullscreenenter"",""1"",""2931""
","
","","","-1","","","12","13300","5743","c","elianto","#3366ff99"," ","-1","0","0","[]","0","2","","","13300","57","4","1","win","go","0"
"pit-trial","179","1148653","0.0-62.0","battery-v0.2","","""event"",""trial"",""time""
""fullscreenenter"",""1"",""2931""
","
","
","""event"",""trial"",""time""
""fullscreenenter"",""1"",""2931""
","
","","","1235.8000000044703","","","12","13300","5743","b","elianto","#f73b6a7A","-1"," ","0","-10","[2087.10000000149]","1","2","","","13300","58","3","4","lose","no-go","0"
"pit-trial","180","1153512","0.0-63.0","battery-v0.2","","""event"",""trial"",""time""
""fullscreenenter"",""1"",""2931""
","
","
","""event"",""trial"",""time""
""fullscreenenter"",""1"",""2931""
","
","","","-1","","","12","13300","5743","t","elianto","#f73b6a7A"," ","-1","0","0","[]","0","2","","","13300","59","2","3","lose","go","1"
"pit-trial","181","1158370","0.0-64.0","battery-v0.2","","""event"",""trial"",""time""
""fullscreenenter"",""1"",""2931""
","
","
","""event"",""trial"",""time""
""fullscreenenter"",""1"",""2931""
","
","","","-1","","","12","13300","5743","n","elianto","#f73b6a7A"," ","-1","0","-10","[]","0","2","","","13300","60","0","3","lose","go","0"
"pit-trial","182","1163224","0.0-65.0","battery-v0.2","","""event"",""trial"",""time""
""fullscreenenter"",""1"",""2931""
","
","
","""event"",""trial"",""time""
""fullscreenenter"",""1"",""2931""
","
","","","-1","","","12","13300","5743","b","elianto","#f73b6a7A","-1","-1","1","0","[3037.7000000029802,4629.10000000149]","2","2","","","13300","61","3","4","lose","no-go","0"
"pit-trial","183","1167380","0.0-66.0","battery-v0.2","","""event"",""trial"",""time""
""fullscreenenter"",""1"",""2931""
","
","
","""event"",""trial"",""time""
""fullscreenenter"",""1"",""2931""
","
","","","1299.8000000044703","","","12","13300","5743","c","elianto","#3366ff99"," "," ","1","+10","[2151.60000000149]","1","2","","","13300","62","4","1","win","go","0"
"pit-trial","184","1172239","0.0-67.0","battery-v0.2","","""event"",""trial"",""time""
""fullscreenenter"",""1"",""2931""
","
","
","""event"",""trial"",""time""
""fullscreenenter"",""1"",""2931""
","
","","","-1","","","12","13300","5743","f","elianto","#3366ff99","-1","-1","1","0","[]","0","2","","","13300","63","1","2","win","no-go","1"
"pit-trial","185","1176250","0.0-68.0","battery-v0.2","","""event"",""trial"",""time""
""fullscreenenter"",""1"",""2931""
","
","
","""event"",""trial"",""time""
""fullscreenenter"",""1"",""2931""
","
","","","1156.3999999985099","","","12","13300","5743","t","elianto","#f73b6a7A"," "," ","1","0","[2008.7999999970198]","1","2","","","13300","64","2","3","lose","go","0"
"pit-trial","186","1181109","0.0-69.0","battery-v0.2","","""event"",""trial"",""time""
""fullscreenenter"",""1"",""2931""
","
","
","""event"",""trial"",""time""
""fullscreenenter"",""1"",""2931""
","
","","","-1","","","12","13300","5743","f","elianto","#3366ff99","-1","-1","1","+10","[]","0","2","","","13300","65","1","2","win","no-go","0"
"pit-trial","187","1185968","0.0-70.0","battery-v0.2","","""event"",""trial"",""time""
""fullscreenenter"",""1"",""2931""
","
","
","""event"",""trial"",""time""
""fullscreenenter"",""1"",""2931""
","
","","","-1","","","12","13300","5743","b","elianto","#f73b6a7A","-1","-1","1","0","[]","0","2","","","13300","66","3","4","lose","no-go","0"
"pit-trial","188","1189862","0.0-71.0","battery-v0.2","","""event"",""trial"",""time""
""fullscreenenter"",""1"",""2931""
","
","
","""event"",""trial"",""time""
""fullscreenenter"",""1"",""2931""
","
","","","1035.7000000029802","","","12","13300","5743","c","elianto","#3366ff99"," "," ","1","+10","[1888]","1","2","","","13300","67","4","1","win","go","0"
"pit-trial","189","1194721","0.0-72.0","battery-v0.2","","""event"",""trial"",""time""
""fullscreenenter"",""1"",""2931""
","
","
","""event"",""trial"",""time""
""fullscreenenter"",""1"",""2931""
","
","","","-1","","","12","13300","5743","z","elianto","#3366ff99","-1","-1","1","+10","[]","0","2","","","13300","68","5","2","win","no-go","0"
"pit-trial","190","1199580","0.0-73.0","battery-v0.2","","""event"",""trial"",""time""
""fullscreenenter"",""1"",""2931""
","
","
","""event"",""trial"",""time""
""fullscreenenter"",""1"",""2931""
","
","","","-1","","","12","13300","5743","f","elianto","#3366ff99","-1","-1","1","+10","[]","0","2","","","13300","69","1","2","win","no-go","0"
"pit-trial","191","1203298","0.0-74.0","battery-v0.2","","""event"",""trial"",""time""
""fullscreenenter"",""1"",""2931""
","
","
","""event"",""trial"",""time""
""fullscreenenter"",""1"",""2931""
","
","","","863.5999999940395","","","12","13300","5743","z","elianto","#3366ff99","-1"," ","0","+10","[1715.7000000029802]","1","2","","","13300","70","5","2","win","no-go","1"
"pit-trial","192","1208154","0.0-75.0","battery-v0.2","","""event"",""trial"",""time""
""fullscreenenter"",""1"",""2931""
","
","
","""event"",""trial"",""time""
""fullscreenenter"",""1"",""2931""
","
","","","-1","","","12","13300","5743","t","elianto","#f73b6a7A"," ","-1","0","-10","[]","0","2","","","13300","71","2","3","lose","go","0"
"pit-trial","193","1212209","0.0-76.0","battery-v0.2","","""event"",""trial"",""time""
""fullscreenenter"",""1"",""2931""
","
","
","""event"",""trial"",""time""
""fullscreenenter"",""1"",""2931""
","
","","","1201.8999999985099","","","12","13300","5743","c","elianto","#3366ff99"," "," ","1","+10","[2053.2999999970198]","1","2","","","13300","72","4","1","win","go","0"
"pit-trial","194","1217064","0.0-77.0","battery-v0.2","","""event"",""trial"",""time""
""fullscreenenter"",""1"",""2931""
","
","
","""event"",""trial"",""time""
""fullscreenenter"",""1"",""2931""
","
","","","-1","","","12","13300","5743","c","elianto","#3366ff99"," ","-1","0","0","[]","0","2","","","13300","73","4","1","win","go","0"
"pit-trial","195","1221923","0.0-78.0","battery-v0.2","","""event"",""trial"",""time""
""fullscreenenter"",""1"",""2931""
","
","
","""event"",""trial"",""time""
""fullscreenenter"",""1"",""2931""
","
","","","-1","","","12","13300","5743","f","elianto","#3366ff99","-1","-1","1","+10","[3095.10000000149]","1","2","","","13300","74","1","2","win","no-go","0"
"pit-trial","196","1225876","0.0-79.0","battery-v0.2","","""event"",""trial"",""time""
""fullscreenenter"",""1"",""2931""
","
","
","""event"",""trial"",""time""
""fullscreenenter"",""1"",""2931""
","
","","","1095.7000000029802","","","12","13300","5743","b","elianto","#f73b6a7A","-1"," ","0","-10","[1947.8000000044703]","1","2","","","13300","75","3","4","lose","no-go","0"
"pit-trial","197","1229998","0.0-80.0","battery-v0.2","","""event"",""trial"",""time""
""fullscreenenter"",""1"",""2931""
","
","
","""event"",""trial"",""time""
""fullscreenenter"",""1"",""2931""
","
","","","1263.5","","","12","13300","5743","z","elianto","#3366ff99","-1"," ","0","0","[2114.6999999955297]","1","2","","","13300","76","5","2","win","no-go","0"
"pit-trial","198","1234857","0.0-81.0","battery-v0.2","","""event"",""trial"",""time""
""fullscreenenter"",""1"",""2931""
","
","
","""event"",""trial"",""time""
""fullscreenenter"",""1"",""2931""
","
","","","-1","","","12","13300","5743","z","elianto","#3366ff99","-1","-1","1","+10","[]","0","2","","","13300","77","5","2","win","no-go","0"
"pit-trial","199","1239227","0.0-82.0","battery-v0.2","","""event"",""trial"",""time""
""fullscreenenter"",""1"",""2931""
","
","
","""event"",""trial"",""time""
""fullscreenenter"",""1"",""2931""
","
","","","1512.3999999985099","","","12","13300","5743","b","elianto","#f73b6a7A","-1"," ","0","-10","[2366.2999999970198]","1","2","","","13300","78","3","4","lose","no-go","0"
"pit-trial","200","1244081","0.0-83.0","battery-v0.2","","""event"",""trial"",""time""
""fullscreenenter"",""1"",""2931""
","
","
","""event"",""trial"",""time""
""fullscreenenter"",""1"",""2931""
","
","","","-1","","","12","13300","5743","c","elianto","#3366ff99"," ","-1","0","0","[]","0","2","","","13300","79","4","1","win","go","0"
"pit-trial","201","1248214","0.0-84.0","battery-v0.2","","""event"",""trial"",""time""
""fullscreenenter"",""1"",""2931""
","
","
","""event"",""trial"",""time""
""fullscreenenter"",""1"",""2931""
","
","","","1273.8999999985099","","","12","13300","5743","c","elianto","#3366ff99"," "," ","1","+10","[2126.2999999970198]","1","2","","","13300","80","4","1","win","go","0"
"pit-trial","202","1251987","0.0-85.0","battery-v0.2","","""event"",""trial"",""time""
""fullscreenenter"",""1"",""2931""
","
","
","""event"",""trial"",""time""
""fullscreenenter"",""1"",""2931""
","
","","","918.1000000014901","","","12","13300","5743","c","elianto","#3366ff99"," "," ","1","+10","[1769.2000000029802]","1","2","","","13300","81","4","1","win","go","0"
"pit-trial","203","1255563","0.0-86.0","battery-v0.2","","""event"",""trial"",""time""
""fullscreenenter"",""1"",""2931""
","
","
","""event"",""trial"",""time""
""fullscreenenter"",""1"",""2931""
","
","","","720.9000000059605","","","12","13300","5743","z","elianto","#3366ff99","-1"," ","0","0","[1571.6000000014901]","1","2","","","13300","82","5","2","win","no-go","0"
"pit-trial","204","1260422","0.0-87.0","battery-v0.2","","""event"",""trial"",""time""
""fullscreenenter"",""1"",""2931""
","
","
","""event"",""trial"",""time""
""fullscreenenter"",""1"",""2931""
","
","","","-1","","","12","13300","5743","y","elianto","#f73b6a7A","-1","-1","1","0","[]","0","2","","","13300","83","7","4","lose","no-go","0"
"pit-trial","205","1265282","0.0-88.0","battery-v0.2","","""event"",""trial"",""time""
""fullscreenenter"",""1"",""2931""
","
","
","""event"",""trial"",""time""
""fullscreenenter"",""1"",""2931""
","
","","","-1","","","12","13300","5743","b","elianto","#f73b6a7A","-1","-1","1","0","[]","0","2","","","13300","84","3","4","lose","no-go","0"
"pit-trial","206","1269435","0.0-89.0","battery-v0.2","","""event"",""trial"",""time""
""fullscreenenter"",""1"",""2931""
","
","
","""event"",""trial"",""time""
""fullscreenenter"",""1"",""2931""
","
","","","1297.6000000014901","","","12","13300","5743","z","elianto","#3366ff99","-1"," ","0","0","[2149.10000000149]","1","2","","","13300","85","5","2","win","no-go","0"
"pit-trial","207","1274290","0.0-90.0","battery-v0.2","","""event"",""trial"",""time""
""fullscreenenter"",""1"",""2931""
","
","
","""event"",""trial"",""time""
""fullscreenenter"",""1"",""2931""
","
","","","-1","","","12","13300","5743","y","elianto","#f73b6a7A","-1","-1","1","0","[]","0","2","","","13300","86","7","4","lose","no-go","0"
"pit-trial","208","1278689","0.0-91.0","battery-v0.2","","""event"",""trial"",""time""
""fullscreenenter"",""1"",""2931""
","
","
","""event"",""trial"",""time""
""fullscreenenter"",""1"",""2931""
","
","","","1546.3999999985099","","","12","13300","5743","c","elianto","#3366ff99"," "," ","1","+10","[2397.0999999940395]","1","2","","","13300","87","4","1","win","go","0"
"pit-trial","209","1283544","0.0-92.0","battery-v0.2","","""event"",""trial"",""time""
""fullscreenenter"",""1"",""2931""
","
","
","""event"",""trial"",""time""
""fullscreenenter"",""1"",""2931""
","
","","","-1","","","12","13300","5743","h","elianto","#f73b6a7A"," ","-1","0","-10","[]","0","2","","","13300","88","6","3","lose","go","0"
"pit-trial","210","1287441","0.0-93.0","battery-v0.2","","""event"",""trial"",""time""
""fullscreenenter"",""1"",""2931""
","
","
","""event"",""trial"",""time""
""fullscreenenter"",""1"",""2931""
","
","","","1041.2999999970198","","","12","13300","5743","h","elianto","#f73b6a7A"," "," ","1","-10","[1894.3999999985099]","1","2","","","13300","89","6","3","lose","go","1"
"pit-trial","211","1291217","0.0-94.0","battery-v0.2","","""event"",""trial"",""time""
""fullscreenenter"",""1"",""2931""
","
","
","""event"",""trial"",""time""
""fullscreenenter"",""1"",""2931""
","
","","","920.3999999985099","","","12","13300","5743","z","elianto","#3366ff99","-1"," ","0","0","[1772.5]","1","2","","","13300","90","5","2","win","no-go","0"
"pit-trial","212","1295449","0.0-95.0","battery-v0.2","","""event"",""trial"",""time""
""fullscreenenter"",""1"",""2931""
","
","
","""event"",""trial"",""time""
""fullscreenenter"",""1"",""2931""
","
","","","1377","","","12","13300","5743","y","elianto","#f73b6a7A","-1"," ","0","-10","[2229.5]","1","2","","","13300","91","7","4","lose","no-go","0"
"pit-trial","213","1299268","0.0-96.0","battery-v0.2","","""event"",""trial"",""time""
""fullscreenenter"",""1"",""2931""
","
","
","""event"",""trial"",""time""
""fullscreenenter"",""1"",""2931""
","
","","","961.9000000059605","","","12","13300","5743","c","elianto","#3366ff99"," "," ","1","0","[1813.8000000044703]","1","2","","","13300","92","4","1","win","go","1"
"pit-trial","214","1304130","0.0-97.0","battery-v0.2","","""event"",""trial"",""time""
""fullscreenenter"",""1"",""2931""
","
","
","""event"",""trial"",""time""
""fullscreenenter"",""1"",""2931""
","
","","","-1","","","12","13300","5743","h","elianto","#f73b6a7A"," ","-1","0","-10","[]","0","2","","","13300","93","6","3","lose","go","0"
"pit-trial","215","1308345","0.0-98.0","battery-v0.2","","""event"",""trial"",""time""
""fullscreenenter"",""1"",""2931""
","
","
","""event"",""trial"",""time""
""fullscreenenter"",""1"",""2931""
","
","","","1358.5","","","12","13300","5743","r","elianto","#3366ff99"," "," ","1","+10","[2212]","1","2","","","13300","94","8","1","win","go","0"
"pit-trial","216","1312602","0.0-99.0","battery-v0.2","","""event"",""trial"",""time""
""fullscreenenter"",""1"",""2931""
","
","
","""event"",""trial"",""time""
""fullscreenenter"",""1"",""2931""
","
","","","1402","","","12","13300","5743","y","elianto","#f73b6a7A","-1"," ","0","0","[2252.89999999851]","1","2","","","13300","95","7","4","lose","no-go","1"
"pit-trial","217","1316172","0.0-100.0","battery-v0.2","","""event"",""trial"",""time""
""fullscreenenter"",""1"",""2931""
","
","
","""event"",""trial"",""time""
""fullscreenenter"",""1"",""2931""
","
","","","712.8000000044703","","","12","13300","5743","z","elianto","#3366ff99","-1"," ","0","+10","[1563.8000000044703]","1","2","","","13300","96","5","2","win","no-go","1"
"pit-trial","218","1319731","0.0-101.0","battery-v0.2","","""event"",""trial"",""time""
""fullscreenenter"",""1"",""2931""
","
","
","""event"",""trial"",""time""
""fullscreenenter"",""1"",""2931""
","
","","","702.6000000014901","","","12","13300","5743","z","elianto","#3366ff99","-1"," ","0","0","[1554]","1","2","","","13300","97","5","2","win","no-go","0"
"pit-trial","219","1323301","0.0-102.0","battery-v0.2","","""event"",""trial"",""time""
""fullscreenenter"",""1"",""2931""
","
","
","""event"",""trial"",""time""
""fullscreenenter"",""1"",""2931""
","
","","","712","","","12","13300","5743","r","elianto","#3366ff99"," "," ","1","+10","[1563.3999999985099]","1","2","","","13300","98","8","1","win","go","0"
"pit-trial","220","1328159","0.0-103.0","battery-v0.2","","""event"",""trial"",""time""
""fullscreenenter"",""1"",""2931""
","
","
","""event"",""trial"",""time""
""fullscreenenter"",""1"",""2931""
","
","","","-1","","","12","13300","5743","y","elianto","#f73b6a7A","-1","-1","1","-10","[]","0","2","","","13300","99","7","4","lose","no-go","1"
"pit-trial","221","1332571","0.0-104.0","battery-v0.2","","""event"",""trial"",""time""
""fullscreenenter"",""1"",""2931""
","
","
","""event"",""trial"",""time""
""fullscreenenter"",""1"",""2931""
","
","","","1554.5","","","12","13300","5743","h","elianto","#f73b6a7A"," "," ","1","0","[2406.89999999851]","1","2","","","13300","100","6","3","lose","go","0"
"pit-trial","222","1336514","0.0-105.0","battery-v0.2","","""event"",""trial"",""time""
""fullscreenenter"",""1"",""2931""
","
","
","""event"",""trial"",""time""
""fullscreenenter"",""1"",""2931""
","
","","","1088.4000000059605","","","12","13300","5743","y","elianto","#f73b6a7A","-1"," ","0","-10","[1939.2000000029802]","1","2","","","13300","101","7","4","lose","no-go","0"
"pit-trial","223","1341372","0.0-106.0","battery-v0.2","","""event"",""trial"",""time""
""fullscreenenter"",""1"",""2931""
","
","
","""event"",""trial"",""time""
""fullscreenenter"",""1"",""2931""
","
","","","-1","","","12","13300","5743","m","elianto","#3366ff99"," ","-1","0","0","[]","0","2","","","13300","102","9","1","win","go","0"
"pit-trial","224","1345400","0.0-107.0","battery-v0.2","","""event"",""trial"",""time""
""fullscreenenter"",""1"",""2931""
","
","
","""event"",""trial"",""time""
""fullscreenenter"",""1"",""2931""
","
","","","1174.5","","","12","13300","5743","r","elianto","#3366ff99"," "," ","1","+10","[2026.5]","1","2","","","13300","103","8","1","win","go","0"
"pit-trial","225","1349237","0.0-108.0","battery-v0.2","","""event"",""trial"",""time""
""fullscreenenter"",""1"",""2931""
","
","
","""event"",""trial"",""time""
""fullscreenenter"",""1"",""2931""
","
","","","978.8999999985099","","","12","13300","5743","z","elianto","#3366ff99","-1"," ","0","0","[1829.2999999970198]","1","2","","","13300","104","5","2","win","no-go","0"
"pit-trial","226","1353161","0.0-109.0","battery-v0.2","","""event"",""trial"",""time""
""fullscreenenter"",""1"",""2931""
","
","
","""event"",""trial"",""time""
""fullscreenenter"",""1"",""2931""
","
","","","1070.1000000014901","","","12","13300","5743","m","elianto","#3366ff99"," "," ","1","+10","[1920.7999999970198]","1","2","","","13300","105","9","1","win","go","0"
"pit-trial","227","1357660","0.0-110.0","battery-v0.2","","""event"",""trial"",""time""
""fullscreenenter"",""1"",""2931""
","
","
","""event"",""trial"",""time""
""fullscreenenter"",""1"",""2931""
","
","","","1640.4000000059605","","","12","13300","5743","h","elianto","#f73b6a7A"," "," ","1","0","[2492.4000000059605]","1","2","","","13300","106","6","3","lose","go","0"
"pit-trial","228","1361265","0.0-111.0","battery-v0.2","","""event"",""trial"",""time""
""fullscreenenter"",""1"",""2931""
","
","
","""event"",""trial"",""time""
""fullscreenenter"",""1"",""2931""
","
","","","750","","","12","13300","5743","c","elianto","#3366ff99"," "," ","1","+10","[1601.5]","1","2","","","13300","107","4","1","win","go","0"
"pit-trial","229","1365172","0.0-112.0","battery-v0.2","","""event"",""trial"",""time""
""fullscreenenter"",""1"",""2931""
","
","
","""event"",""trial"",""time""
""fullscreenenter"",""1"",""2931""
","
","","","1047.8999999985099","","","12","13300","5743","r","elianto","#3366ff99"," "," ","1","+10","[1900.6000000014901]","1","2","","","13300","108","8","1","win","go","0"
"pit-trial","230","1370030","0.0-113.0","battery-v0.2","","""event"",""trial"",""time""
""fullscreenenter"",""1"",""2931""
","
","
","""event"",""trial"",""time""
""fullscreenenter"",""1"",""2931""
","
","","","-1","","","12","13300","5743","h","elianto","#f73b6a7A"," ","-1","0","-10","[]","0","2","","","13300","109","6","3","lose","go","0"
"pit-trial","231","1373532","0.0-114.0","battery-v0.2","","""event"",""trial"",""time""
""fullscreenenter"",""1"",""2931""
","
","
","""event"",""trial"",""time""
""fullscreenenter"",""1"",""2931""
","
","","","644.6000000014901","","","12","13300","5743","r","elianto","#3366ff99"," "," ","1","+10","[1495.1000000014901]","1","2","","","13300","110","8","1","win","go","0"
"pit-trial","232","1377072","0.0-115.0","battery-v0.2","","""event"",""trial"",""time""
""fullscreenenter"",""1"",""2931""
","
","
","""event"",""trial"",""time""
""fullscreenenter"",""1"",""2931""
","
","","","685.9000000059605","","","12","13300","5743","z","elianto","#3366ff99","-1"," ","0","+10","[1537.4000000059605]","1","2","","","13300","111","5","2","win","no-go","1"
"pit-trial","233","1380955","0.0-116.0","battery-v0.2","","""event"",""trial"",""time""
""fullscreenenter"",""1"",""2931""
","
","
","""event"",""trial"",""time""
""fullscreenenter"",""1"",""2931""
","
","","","1025.8999999985099","","","12","13300","5743","m","elianto","#3366ff99"," "," ","1","+10","[1877.7000000029802]","1","2","","","13300","112","9","1","win","go","0"
"pit-trial","234","1384403","0.0-117.0","battery-v0.2","","""event"",""trial"",""time""
""fullscreenenter"",""1"",""2931""
","
","
","""event"",""trial"",""time""
""fullscreenenter"",""1"",""2931""
","
","","","591.2000000029802","","","12","13300","5743","z","elianto","#3366ff99","-1"," ","0","0","[1442.2000000029802]","1","2","","","13300","113","5","2","win","no-go","0"
"pit-trial","235","1387875","0.0-118.0","battery-v0.2","","""event"",""trial"",""time""
""fullscreenenter"",""1"",""2931""
","
","
","""event"",""trial"",""time""
""fullscreenenter"",""1"",""2931""
","
","","","613.8999999985099","","","12","13300","5743","r","elianto","#3366ff99"," "," ","1","+10","[1466.1999999955297]","1","2","","","13300","114","8","1","win","go","0"
"pit-trial","236","1391329","0.0-119.0","battery-v0.2","","""event"",""trial"",""time""
""fullscreenenter"",""1"",""2931""
","
","
","""event"",""trial"",""time""
""fullscreenenter"",""1"",""2931""
","
","","","598.5999999940395","","","12","13300","5743","m","elianto","#3366ff99"," "," ","1","+10","[611.2999999970198,1450.7999999970198]","2","2","","","13300","115","9","1","win","go","0"
"pit-trial","237","1396187","0.0-120.0","battery-v0.2","","""event"",""trial"",""time""
""fullscreenenter"",""1"",""2931""
","
","
","""event"",""trial"",""time""
""fullscreenenter"",""1"",""2931""
","
","","","-1","","","12","13300","5743","h","elianto","#f73b6a7A"," ","-1","0","-10","[]","0","2","","","13300","116","6","3","lose","go","0"
"pit-trial","238","1400160","0.0-121.0","battery-v0.2","","""event"",""trial"",""time""
""fullscreenenter"",""1"",""2931""
","
","
","""event"",""trial"",""time""
""fullscreenenter"",""1"",""2931""
","
","","","1119.7000000029802","","","12","13300","5743","h","elianto","#f73b6a7A"," "," ","1","0","[1970.2000000029802]","1","2","","","13300","117","6","3","lose","go","0"
"pit-trial","239","1403808","0.0-122.0","battery-v0.2","","""event"",""trial"",""time""
""fullscreenenter"",""1"",""2931""
","
","
","""event"",""trial"",""time""
""fullscreenenter"",""1"",""2931""
","
","","","794.3999999985099","","","12","13300","5743","m","elianto","#3366ff99"," "," ","1","+10","[1644.5]","1","2","","","13300","118","9","1","win","go","0"
"pit-trial","240","1407577","0.0-123.0","battery-v0.2","","""event"",""trial"",""time""
""fullscreenenter"",""1"",""2931""
","
","
","""event"",""trial"",""time""
""fullscreenenter"",""1"",""2931""
","
","","","912.6000000014901","","","12","13300","5743","z","elianto","#3366ff99","-1"," ","0","0","[1765.2999999970198]","1","2","","","13300","119","5","2","win","no-go","0"
"pit-trial","241","1412169","0.0-124.0","battery-v0.2","","""event"",""trial"",""time""
""fullscreenenter"",""1"",""2931""
","
","
","""event"",""trial"",""time""
""fullscreenenter"",""1"",""2931""
","
","","","1737.3999999985099","","","12","13300","5743","r","elianto","#3366ff99"," "," ","1","+10","[2588.7999999970198]","1","2","","","13300","120","8","1","win","go","0"
"pit-trial","242","1416412","0.0-125.0","battery-v0.2","","""event"",""trial"",""time""
""fullscreenenter"",""1"",""2931""
","
","
","""event"",""trial"",""time""
""fullscreenenter"",""1"",""2931""
","
","","","1384.5","","","12","13300","5743","m","elianto","#3366ff99"," "," ","1","+10","[2236.7000000029802]","1","2","","","13300","121","9","1","win","go","0"
"pit-trial","243","1420591","0.0-126.0","battery-v0.2","","""event"",""trial"",""time""
""fullscreenenter"",""1"",""2931""
","
","
","""event"",""trial"",""time""
""fullscreenenter"",""1"",""2931""
","
","","","1326.6000000014901","","","12","13300","5743","h","elianto","#f73b6a7A"," "," ","1","0","[2177.3000000044703]","1","2","","","13300","122","6","3","lose","go","0"
"pit-trial","244","1425450","0.0-127.0","battery-v0.2","","""event"",""trial"",""time""
""fullscreenenter"",""1"",""2931""
","
","
","""event"",""trial"",""time""
""fullscreenenter"",""1"",""2931""
","
","","","-1","","","12","13300","5743","y","elianto","#f73b6a7A","-1","-1","1","-10","[]","0","2","","","13300","123","7","4","lose","no-go","1"
"pit-trial","245","1429560","0.0-128.0","battery-v0.2","","""event"",""trial"",""time""
""fullscreenenter"",""1"",""2931""
","
","
","""event"",""trial"",""time""
""fullscreenenter"",""1"",""2931""
","
","","","1255","","","12","13300","5743","r","elianto","#3366ff99"," "," ","1","+10","[2107.39999999851]","1","2","","","13300","124","8","1","win","go","0"
"pit-trial","246","1434419","0.0-129.0","battery-v0.2","","""event"",""trial"",""time""
""fullscreenenter"",""1"",""2931""
","
","
","""event"",""trial"",""time""
""fullscreenenter"",""1"",""2931""
","
","","","-1","","","12","13300","5743","h","elianto","#f73b6a7A"," ","-1","0","-10","[]","0","2","","","13300","125","6","3","lose","go","0"
"pit-trial","247","1437884","0.0-130.0","battery-v0.2","","""event"",""trial"",""time""
""fullscreenenter"",""1"",""2931""
","
","
","""event"",""trial"",""time""
""fullscreenenter"",""1"",""2931""
","
","","","606.7000000029802","","","12","13300","5743","y","elianto","#f73b6a7A","-1"," ","0","-10","[1458.2000000029802]","1","2","","","13300","126","7","4","lose","no-go","0"
"pit-trial","248","1441634","0.0-131.0","battery-v0.2","","""event"",""trial"",""time""
""fullscreenenter"",""1"",""2931""
","
","
","""event"",""trial"",""time""
""fullscreenenter"",""1"",""2931""
","
","","","894.7000000029802","","","12","13300","5743","m","elianto","#3366ff99"," "," ","1","+10","[1745.1000000014901]","1","2","","","13300","127","9","1","win","go","0"
"pit-trial","249","1445380","0.0-132.0","battery-v0.2","","""event"",""trial"",""time""
""fullscreenenter"",""1"",""2931""
","
","
","""event"",""trial"",""time""
""fullscreenenter"",""1"",""2931""
","
","","","886.6999999955297","","","12","13300","5743","r","elianto","#3366ff99"," "," ","1","+10","[1738.7999999970198]","1","2","","","13300","128","8","1","win","go","0"
"pit-trial","250","1450237","0.0-133.0","battery-v0.2","","""event"",""trial"",""time""
""fullscreenenter"",""1"",""2931""
","
","
","""event"",""trial"",""time""
""fullscreenenter"",""1"",""2931""
","
","","","-1","","","12","13300","5743","y","elianto","#f73b6a7A","-1","-1","1","0","[]","0","2","","","13300","129","7","4","lose","no-go","0"
"pit-trial","251","1455096","0.0-134.0","battery-v0.2","","""event"",""trial"",""time""
""fullscreenenter"",""1"",""2931""
","
","
","""event"",""trial"",""time""
""fullscreenenter"",""1"",""2931""
","
","","","-1","","","12","13300","5743","h","elianto","#f73b6a7A"," ","-1","0","-10","[]","0","2","","","13300","130","6","3","lose","go","0"
"pit-trial","252","1458787","0.0-135.0","battery-v0.2","","""event"",""trial"",""time""
""fullscreenenter"",""1"",""2931""
","
","
","""event"",""trial"",""time""
""fullscreenenter"",""1"",""2931""
","
","","","832.7999999970198","","","12","13300","5743","r","elianto","#3366ff99"," "," ","1","+10","[1685]","1","2","","","13300","131","8","1","win","go","0"
"pit-trial","253","1462799","0.0-136.0","battery-v0.2","","""event"",""trial"",""time""
""fullscreenenter"",""1"",""2931""
","
","
","""event"",""trial"",""time""
""fullscreenenter"",""1"",""2931""
","
","","","1157.8000000044703","","","12","13300","5743","m","elianto","#3366ff99"," "," ","1","+10","[2010.1000000014901]","1","2","","","13300","132","9","1","win","go","0"
"pit-trial","254","1467658","0.0-137.0","battery-v0.2","","""event"",""trial"",""time""
""fullscreenenter"",""1"",""2931""
","
","
","""event"",""trial"",""time""
""fullscreenenter"",""1"",""2931""
","
","","","-1","","","12","13300","5743","y","elianto","#f73b6a7A","-1","-1","1","-10","[]","0","2","","","13300","133","7","4","lose","no-go","1"
"pit-trial","255","1471071","0.0-138.0","battery-v0.2","","""event"",""trial"",""time""
""fullscreenenter"",""1"",""2931""
","
","
","""event"",""trial"",""time""
""fullscreenenter"",""1"",""2931""
","
","","","558.6999999955297","","","12","13300","5743","m","elianto","#3366ff99"," "," ","1","+10","[1410.9000000059605]","1","2","","","13300","134","9","1","win","go","0"
"pit-trial","256","1474519","0.0-139.0","battery-v0.2","","""event"",""trial"",""time""
""fullscreenenter"",""1"",""2931""
","
","
","""event"",""trial"",""time""
""fullscreenenter"",""1"",""2931""
","
","","","595.1000000014901","","","12","13300","5743","r","elianto","#3366ff99"," "," ","1","+10","[1445.5]","1","2","","","13300","135","8","1","win","go","0"
"pit-trial","257","1479378","0.0-140.0","battery-v0.2","","""event"",""trial"",""time""
""fullscreenenter"",""1"",""2931""
","
","
","""event"",""trial"",""time""
""fullscreenenter"",""1"",""2931""
","
","","","-1","","","12","13300","5743","h","elianto","#f73b6a7A"," ","-1","0","0","[]","0","2","","","13300","136","6","3","lose","go","1"
"pit-trial","258","1482873","0.0-141.0","battery-v0.2","","""event"",""trial"",""time""
""fullscreenenter"",""1"",""2931""
","
","
","""event"",""trial"",""time""
""fullscreenenter"",""1"",""2931""
","
","","","640.6000000014901","","","12","13300","5743","h","elianto","#f73b6a7A"," "," ","1","0","[1490.6000000014901]","1","2","","","13300","137","6","3","lose","go","0"
"pit-trial","259","1486531","0.0-142.0","battery-v0.2","","""event"",""trial"",""time""
""fullscreenenter"",""1"",""2931""
","
","
","""event"",""trial"",""time""
""fullscreenenter"",""1"",""2931""
","
","","","799.9000000059605","","","12","13300","5743","r","elianto","#3366ff99"," "," ","1","+10","[1652]","1","2","","","13300","138","8","1","win","go","0"
"pit-trial","260","1490018","0.0-143.0","battery-v0.2","","""event"",""trial"",""time""
""fullscreenenter"",""1"",""2931""
","
","
","""event"",""trial"",""time""
""fullscreenenter"",""1"",""2931""
","
","","","627.6000000014901","","","12","13300","5743","m","elianto","#3366ff99"," "," ","1","+10","[1481.2000000029802]","1","2","","","13300","139","9","1","win","go","0"
"pit-trial","261","1494877","0.0-144.0","battery-v0.2","","""event"",""trial"",""time""
""fullscreenenter"",""1"",""2931""
","
","
","""event"",""trial"",""time""
""fullscreenenter"",""1"",""2931""
","
","","","-1","","","12","13300","5743","y","elianto","#f73b6a7A","-1","-1","1","0","[]","0","2","","","13300","140","7","4","lose","no-go","0"
"pit-instructions","262","1528941","0.0-145.0","battery-v0.2","","""event"",""trial"",""time""
""fullscreenenter"",""1"",""2931""
","
","
","""event"",""trial"",""time""
""fullscreenenter"",""1"",""2931""
","
","","[{""page_index"":0,""viewing_time"":25236.30000000447},{""page_index"":1,""viewing_time"":8826.39999999851}]","34063","","","","","","","","","","","","","","","","","","","","","","","",""
"pit-trial","263","1533240","0.0-146.0","battery-v0.2","","""event"",""trial"",""time""
""fullscreenenter"",""1"",""2931""
","
","
","""event"",""trial"",""time""
""fullscreenenter"",""1"",""2931""
","
","","","1441.1999999955297","","","12","13300","5743","e","elianto","#f73b6a7A","-1"," ","0","-10","[2294.1999999955297]","1","3","","","13300","141","2","4","lose","no-go","0"
"pit-trial","264","1536862","0.0-147.0","battery-v0.2","","""event"",""trial"",""time""
""fullscreenenter"",""1"",""2931""
","
","
","""event"",""trial"",""time""
""fullscreenenter"",""1"",""2931""
","
","","","769","","","12","13300","5743","d","elianto","#3366ff99"," "," ","1","+10","[1620.3999999985099]","1","3","","","13300","142","1","1","win","go","0"
"pit-trial","265","1541721","0.0-148.0","battery-v0.2","","""event"",""trial"",""time""
""fullscreenenter"",""1"",""2931""
","
","
","""event"",""trial"",""time""
""fullscreenenter"",""1"",""2931""
","
