"trial_type","trial_index","time_elapsed","internal_node_id","task_version","subject_id","interactions","blur_events","focus_events","fullscreenenter_events","fullscreenexit_events","success","view_history","rt","responses","num_errors","age","subject","participantId","rune","rune_set","hex","correct","choice","accuracy","outcome","keys","total_keys","block","practice","value","sub","trial","stimulus","robot","valence","action","sham"
"pavlovia","0","7","0.0-0.0","battery-v0.2","","""event"",""trial"",""time""
""fullscreenenter"",""1"",""5246""
","
","
","""event"",""trial"",""time""
""fullscreenenter"",""1"",""5246""
","
","","","","","","","","","","","","","","","","","","","","","","","","","","",""
"fullscreen","1","6246","0.0-1.0","battery-v0.2","","""event"",""trial"",""time""
""fullscreenenter"",""1"",""5246""
","
","
","""event"",""trial"",""time""
""fullscreenenter"",""1"",""5246""
","
","true","","","","","","","","","","","","","","","","","","","","","","","","","",""
"pit-instructions","2","14371","0.0-2.0-0.0","battery-v0.2","","""event"",""trial"",""time""
""fullscreenenter"",""1"",""5246""
","
","
","""event"",""trial"",""time""
""fullscreenenter"",""1"",""5246""
","
","","[{""page_index"":0,""viewing_time"":8120.5}]","8121.10000038147","","","","","","","","","","","","","","","","","","","","","","","",""
"pit-comprehension","3","18145","0.0-2.0-1.0-0.0","battery-v0.2","","""event"",""trial"",""time""
""fullscreenenter"",""1"",""5246""
","
","
","""event"",""trial"",""time""
""fullscreenenter"",""1"",""5246""
","
","","","3770","[""shark""]","0","15","10105","2431","","","","","","","","","","","","","","","","","","",""
"pit-instructions","4","20507","0.0-2.0-1.0-1.0","battery-v0.2","","""event"",""trial"",""time""
""fullscreenenter"",""1"",""5246""
","
","
","""event"",""trial"",""time""
""fullscreenenter"",""1"",""5246""
","
","","[{""page_index"":0,""viewing_time"":2349.300001144409}]","2349.800001144409","","","","","","","","","","","","","","","","","","","","","","","",""
"pit-comprehension","5","25919","0.0-2.0-2.0-0.0","battery-v0.2","","""event"",""trial"",""time""
""fullscreenenter"",""1"",""5246""
","
","
","""event"",""trial"",""time""
""fullscreenenter"",""1"",""5246""
","
","","","5409.5","[""tiger""]","0","15","10105","2431","","","","","","","","","","","","","","","","","","",""
"pit-instructions","6","27583","0.0-2.0-2.0-1.0","battery-v0.2","","""event"",""trial"",""time""
""fullscreenenter"",""1"",""5246""
","
","
","""event"",""trial"",""time""
""fullscreenenter"",""1"",""5246""
","
","","[{""page_index"":0,""viewing_time"":1660.1000003814697}]","1660.6000003814697","","","","","","","","","","","","","","","","","","","","","","","",""
"pit-instructions","7","126800","0.0-2.0-3.0","battery-v0.2","","""event"",""trial"",""time""
""fullscreenenter"",""1"",""5246""
","
","
","""event"",""trial"",""time""
""fullscreenenter"",""1"",""5246""
","
","","[{""page_index"":0,""viewing_time"":8622.5},{""page_index"":1,""viewing_time"":5909.10000038147},{""page_index"":2,""viewing_time"":7979.199998855591},{""page_index"":3,""viewing_time"":5133.39999961853},{""page_index"":4,""viewing_time"":5754.400001525879},{""page_index"":5,""viewing_time"":5327.199998855591},{""page_index"":6,""viewing_time"":6697.700000762939},{""page_index"":7,""viewing_time"":6544.5},{""page_index"":8,""viewing_time"":7177.299999237061},{""page_index"":9,""viewing_time"":11505.39999961853},{""page_index"":10,""viewing_time"":8825.20000076294},{""page_index"":11,""viewing_time"":7277},{""page_index"":12,""viewing_time"":7391.5},{""page_index"":13,""viewing_time"":5067.299999237061}]","99212.19999885559","","","","","","","","","","","","","","","","","","","","","","","",""
"pit-trial","8","130504","0.0-2.0-4.0-0.0","battery-v0.2","","""event"",""trial"",""time""
""fullscreenenter"",""1"",""5246""
","
","
","""event"",""trial"",""time""
""fullscreenenter"",""1"",""5246""
","
","","","825.3000011444092","","","15","10105","2431","&#9784;","elianto","#FFFFF080"," "," ","1","&#10004","[1688.6000003814697]","1","0","0","","","","","","","",""
"pit-trial","9","134031","0.0-2.0-4.1-0.1","battery-v0.2","","""event"",""trial"",""time""
""fullscreenenter"",""1"",""5246""
","
","
","""event"",""trial"",""time""
""fullscreenenter"",""1"",""5246""
","
","","","660.5","","","15","10105","2431","&#9784;","elianto","#FFFFF080"," "," ","1","&#10004","[1517]","1","0","0","","","","","","","",""
"pit-trial","10","137705","0.0-2.0-4.2-0.2","battery-v0.2","","""event"",""trial"",""time""
""fullscreenenter"",""1"",""5246""
","
","
","""event"",""trial"",""time""
""fullscreenenter"",""1"",""5246""
","
","","","805.1000003814697","","","15","10105","2431","&#9784;","elianto","#FFFFF080"," "," ","1","&#10004","[1661.3999996185303]","1","0","0","","","","","","","",""
"pit-trial","11","141305","0.0-2.0-4.3-0.3","battery-v0.2","","""event"",""trial"",""time""
""fullscreenenter"",""1"",""5246""
","
","
","""event"",""trial"",""time""
""fullscreenenter"",""1"",""5246""
","
","","","743.6000003814697","","","15","10105","2431","&#9784;","elianto","#FFFFF080"," "," ","1","&#10004","[1593.5]","1","0","0","","","","","","","",""
"pit-trial","12","144755","0.0-2.0-4.4-0.4","battery-v0.2","","""event"",""trial"",""time""
""fullscreenenter"",""1"",""5246""
","
","
","""event"",""trial"",""time""
""fullscreenenter"",""1"",""5246""
","
","","","589.2000007629395","","","15","10105","2431","&#9784;","elianto","#FFFFF080"," "," ","1","&#10004","[1439.8999996185303]","1","0","0","","","","","","","",""
"pit-instructions","13","166614","0.0-2.0-5.0","battery-v0.2","","""event"",""trial"",""time""
""fullscreenenter"",""1"",""5246""
","
","
","""event"",""trial"",""time""
""fullscreenenter"",""1"",""5246""
","
","","[{""page_index"":0,""viewing_time"":5337},{""page_index"":1,""viewing_time"":5909.60000038147},{""page_index"":2,""viewing_time"":4762.799999237061},{""page_index"":3,""viewing_time"":5845.300001144409}]","21854.89999961853","","","","","","","","","","","","","","","","","","","","","","","",""
"pit-trial","14","171485","0.0-2.0-6.0-0.0","battery-v0.2","","""event"",""trial"",""time""
""fullscreenenter"",""1"",""5246""
","
","
","""event"",""trial"",""time""
""fullscreenenter"",""1"",""5246""
","
","","","-1","","","15","10105","2431","&#9854;","elianto","#FFFFF080","-1","-1","1","&#10004","[]","0","0","1","","","","","","","",""
"pit-trial","15","176361","0.0-2.0-6.1-0.1","battery-v0.2","","""event"",""trial"",""time""
""fullscreenenter"",""1"",""5246""
","
","
","""event"",""trial"",""time""
""fullscreenenter"",""1"",""5246""
","
","","","-1","","","15","10105","2431","&#9854;","elianto","#FFFFF080","-1","-1","1","&#10004","[]","0","0","1","","","","","","","",""
"pit-trial","16","181217","0.0-2.0-6.2-0.2","battery-v0.2","","""event"",""trial"",""time""
""fullscreenenter"",""1"",""5246""
","
","
","""event"",""trial"",""time""
""fullscreenenter"",""1"",""5246""
","
","","","-1","","","15","10105","2431","&#9854;","elianto","#FFFFF080","-1","-1","1","&#10004","[]","0","0","1","","","","","","","",""
"pit-trial","17","186101","0.0-2.0-6.3-0.3","battery-v0.2","","""event"",""trial"",""time""
""fullscreenenter"",""1"",""5246""
","
","
","""event"",""trial"",""time""
""fullscreenenter"",""1"",""5246""
","
","","","-1","","","15","10105","2431","&#9854;","elianto","#FFFFF080","-1","-1","1","&#10004","[]","0","0","1","","","","","","","",""
"pit-trial","18","190968","0.0-2.0-6.4-0.4","battery-v0.2","","""event"",""trial"",""time""
""fullscreenenter"",""1"",""5246""
","
","
","""event"",""trial"",""time""
""fullscreenenter"",""1"",""5246""
","
","","","-1","","","15","10105","2431","&#9854;","elianto","#FFFFF080","-1","-1","1","&#10004","[]","0","0","1","","","","","","","",""
"pit-instructions","19","330371","0.0-2.0-7.0","battery-v0.2","","""event"",""trial"",""time""
""fullscreenenter"",""1"",""5246""
","
","
","""event"",""trial"",""time""
""fullscreenenter"",""1"",""5246""
","
","","[{""page_index"":0,""viewing_time"":6429.799999237061},{""page_index"":1,""viewing_time"":6794.300001144409},{""page_index"":2,""viewing_time"":6260.199998855591},{""page_index"":3,""viewing_time"":6428.39999961853},{""page_index"":4,""viewing_time"":5492},{""page_index"":5,""viewing_time"":5711.200000762939},{""page_index"":6,""viewing_time"":6665},{""page_index"":7,""viewing_time"":9703.60000038147},{""page_index"":8,""viewing_time"":8330.79999923706},{""page_index"":9,""viewing_time"":5862.200000762939},{""page_index"":10,""viewing_time"":6026.60000038147},{""page_index"":11,""viewing_time"":4229.599998474121},{""page_index"":12,""viewing_time"":7112.800001144409},{""page_index"":13,""viewing_time"":26057.5},{""page_index"":14,""viewing_time"":7228.10000038147},{""page_index"":15,""viewing_time"":7193.699998855591},{""page_index"":16,""viewing_time"":6696},{""page_index"":17,""viewing_time"":7176.39999961853}]","139398.89999961853","","","","","","","","","","","","","","","","","","","","","","","",""
"pit-trial","20","334270","0.0-2.0-8.0-0.0","battery-v0.2","","""event"",""trial"",""time""
""fullscreenenter"",""1"",""5246""
","
","
","""event"",""trial"",""time""
""fullscreenenter"",""1"",""5246""
","
","","","1039.6000003814697","","","15","10105","2431","&#9776;","elianto","#3366ff99"," "," ","1","+10","[1890.3999996185303]","1","0","1","","","","","","","",""
"pit-trial","21","337757","0.0-2.0-8.0-1.0","battery-v0.2","","""event"",""trial"",""time""
""fullscreenenter"",""1"",""5246""
","
","
","""event"",""trial"",""time""
""fullscreenenter"",""1"",""5246""
","
","","","623","","","15","10105","2431","&#9776;","elianto","#3366ff99"," "," ","1","+10","[1473.8999996185303]","1","0","1","","","","","","","",""
"pit-trial","22","341127","0.0-2.0-8.0-2.0","battery-v0.2","","""event"",""trial"",""time""
""fullscreenenter"",""1"",""5246""
","
","
","""event"",""trial"",""time""
""fullscreenenter"",""1"",""5246""
","
","","","510.3999996185303","","","15","10105","2431","&#9776;","elianto","#3366ff99"," "," ","1","+10","[1364.599998474121]","1","0","1","","","","","","","",""
"pit-trial","23","344728","0.0-2.0-8.0-3.0","battery-v0.2","","""event"",""trial"",""time""
""fullscreenenter"",""1"",""5246""
","
","
","""event"",""trial"",""time""
""fullscreenenter"",""1"",""5246""
","
","","","742.4000015258789","","","15","10105","2431","&#9776;","elianto","#3366ff99"," "," ","1","0","[1594]","1","0","1","","","","","","","",""
"pit-trial","24","348149","0.0-2.0-8.0-4.0","battery-v0.2","","""event"",""trial"",""time""
""fullscreenenter"",""1"",""5246""
","
","
","""event"",""trial"",""time""
""fullscreenenter"",""1"",""5246""
","
","","","555.6999988555908","","","15","10105","2431","&#9776;","elianto","#3366ff99"," "," ","1","+10","[1406.1999988555908]","1","0","1","","","","","","","",""
"pit-trial","25","351522","0.0-2.0-8.1-0.1","battery-v0.2","","""event"",""trial"",""time""
""fullscreenenter"",""1"",""5246""
","
","
","""event"",""trial"",""time""
""fullscreenenter"",""1"",""5246""
","
","","","502.70000076293945","","","15","10105","2431","&#9776;","elianto","#3366ff99"," "," ","1","+10","[1358.6000003814697]","1","0","1","","","","","","","",""
"pit-trial","26","354934","0.0-2.0-8.1-1.1","battery-v0.2","","""event"",""trial"",""time""
""fullscreenenter"",""1"",""5246""
","
","
","""event"",""trial"",""time""
""fullscreenenter"",""1"",""5246""
","
","","","545","","","15","10105","2431","&#9776;","elianto","#3366ff99"," "," ","1","+10","[1408.599998474121]","1","0","1","","","","","","","",""
"pit-trial","27","358301","0.0-2.0-8.1-2.1","battery-v0.2","","""event"",""trial"",""time""
""fullscreenenter"",""1"",""5246""
","
","
","""event"",""trial"",""time""
""fullscreenenter"",""1"",""5246""
","
","","","502.20000076293945","","","15","10105","2431","&#9776;","elianto","#3366ff99"," "," ","1","+10","[1352.5]","1","0","1","","","","","","","",""
"pit-trial","28","361684","0.0-2.0-8.1-3.1","battery-v0.2","","""event"",""trial"",""time""
""fullscreenenter"",""1"",""5246""
","
","
","""event"",""trial"",""time""
""fullscreenenter"",""1"",""5246""
","
","","","517.5","","","15","10105","2431","&#9776;","elianto","#3366ff99"," "," ","1","0","[1379.900001525879]","1","0","1","","","","","","","",""
"pit-trial","29","365163","0.0-2.0-8.1-4.1","battery-v0.2","","""event"",""trial"",""time""
""fullscreenenter"",""1"",""5246""
","
","
","""event"",""trial"",""time""
""fullscreenenter"",""1"",""5246""
","
","","","626.2999992370605","","","15","10105","2431","&#9776;","elianto","#3366ff99"," "," ","1","+10","[1477.599998474121]","1","0","1","","","","","","","",""
"pit-trial","30","368565","0.0-2.0-8.2-0.2","battery-v0.2","","""event"",""trial"",""time""
""fullscreenenter"",""1"",""5246""
","
","
","""event"",""trial"",""time""
""fullscreenenter"",""1"",""5246""
","
","","","548.2000007629395","","","15","10105","2431","&#9776;","elianto","#3366ff99"," "," ","1","+10","[1398.6000003814697]","1","0","1","","","","","","","",""
"pit-trial","31","371932","0.0-2.0-8.2-1.2","battery-v0.2","","""event"",""trial"",""time""
""fullscreenenter"",""1"",""5246""
","
","
","""event"",""trial"",""time""
""fullscreenenter"",""1"",""5246""
","
","","","514","","","15","10105","2431","&#9776;","elianto","#3366ff99"," "," ","1","+10","[1365.1000003814697]","1","0","1","","","","","","","",""
"pit-trial","32","375496","0.0-2.0-8.2-2.2","battery-v0.2","","""event"",""trial"",""time""
""fullscreenenter"",""1"",""5246""
","
","
","""event"",""trial"",""time""
""fullscreenenter"",""1"",""5246""
","
","","","709.8999996185303","","","15","10105","2431","&#9776;","elianto","#3366ff99"," "," ","1","+10","[1560.400001525879]","1","0","1","","","","","","","",""
"pit-trial","33","379158","0.0-2.0-8.2-3.2","battery-v0.2","","""event"",""trial"",""time""
""fullscreenenter"",""1"",""5246""
","
","
","""event"",""trial"",""time""
""fullscreenenter"",""1"",""5246""
","
","","","809.7999992370605","","","15","10105","2431","&#9776;","elianto","#3366ff99"," "," ","1","0","[1659.7999992370605]","1","0","1","","","","","","","",""
"pit-trial","34","382998","0.0-2.0-8.2-4.2","battery-v0.2","","""event"",""trial"",""time""
""fullscreenenter"",""1"",""5246""
","
","
","""event"",""trial"",""time""
""fullscreenenter"",""1"",""5246""
","
","","","988.1000003814697","","","15","10105","2431","&#9776;","elianto","#3366ff99"," "," ","1","+10","[1838.3000011444092]","1","0","1","","","","","","","",""
"call-function","35","383000","0.0-2.0-9.0","battery-v0.2","","""event"",""trial"",""time""
""fullscreenenter"",""1"",""5246""
","
","
","""event"",""trial"",""time""
""fullscreenenter"",""1"",""5246""
","
","","","","","","","","","","","","","","","","","","","","","","","","","","",""
"pit-instructions","36","430966","0.0-2.0-10.0","battery-v0.2","","""event"",""trial"",""time""
""fullscreenenter"",""1"",""5246""
","
","
","""event"",""trial"",""time""
""fullscreenenter"",""1"",""5246""
","
","","[{""page_index"":0,""viewing_time"":10911.79999923706},{""page_index"":1,""viewing_time"":7343.400001525879},{""page_index"":2,""viewing_time"":9740.5},{""page_index"":3,""viewing_time"":10772.19999885559},{""page_index"":4,""viewing_time"":9195.30000114441}]","47963.79999923706","","","","","","","","","","","","","","","","","","","","","","","",""
"pit-trial","37","435116","0.0-2.0-11.0-0.0","battery-v0.2","","""event"",""trial"",""time""
""fullscreenenter"",""1"",""5246""
","
","
","""event"",""trial"",""time""
""fullscreenenter"",""1"",""5246""
","
","","","1291.7999992370605","","","15","10105","2431","&#9761;","elianto","#3366ff99","-1"," ","0","0","[2142.6000003814697]","1","0","2","","","","","","","",""
"pit-trial","38","438896","0.0-2.0-11.0-1.0","battery-v0.2","","""event"",""trial"",""time""
""fullscreenenter"",""1"",""5246""
","
","
","""event"",""trial"",""time""
""fullscreenenter"",""1"",""5246""
","
","","","920.7999992370605","","","15","10105","2431","&#9761;","elianto","#3366ff99","-1"," ","0","0","[1771]","1","0","2","","","","","","","",""
"pit-trial","39","443758","0.0-2.0-11.0-2.0","battery-v0.2","","""event"",""trial"",""time""
""fullscreenenter"",""1"",""5246""
","
","
","""event"",""trial"",""time""
""fullscreenenter"",""1"",""5246""
","
","","","-1","","","15","10105","2431","&#9761;","elianto","#3366ff99","-1","-1","1","+10","[]","0","0","2","","","","","","","",""
"pit-trial","40","448619","0.0-2.0-11.0-3.0","battery-v0.2","","""event"",""trial"",""time""
""fullscreenenter"",""1"",""5246""
","
","
","""event"",""trial"",""time""
""fullscreenenter"",""1"",""5246""
","
","","","-1","","","15","10105","2431","&#9761;","elianto","#3366ff99","-1","-1","1","0","[]","0","0","2","","","","","","","",""
"pit-trial","41","453484","0.0-2.0-11.0-4.0","battery-v0.2","","""event"",""trial"",""time""
""fullscreenenter"",""1"",""5246""
","
","
","""event"",""trial"",""time""
""fullscreenenter"",""1"",""5246""
","
","","","-1","","","15","10105","2431","&#9761;","elianto","#3366ff99","-1","-1","1","+10","[]","0","0","2","","","","","","","",""
"pit-trial","42","458363","0.0-2.0-11.1-0.1","battery-v0.2","","""event"",""trial"",""time""
""fullscreenenter"",""1"",""5246""
","
","
","""event"",""trial"",""time""
""fullscreenenter"",""1"",""5246""
","
","","","-1","","","15","10105","2431","&#9761;","elianto","#3366ff99","-1","-1","1","+10","[]","0","0","2","","","","","","","",""
"pit-trial","43","463215","0.0-2.0-11.1-1.1","battery-v0.2","","""event"",""trial"",""time""
""fullscreenenter"",""1"",""5246""
","
","
","""event"",""trial"",""time""
""fullscreenenter"",""1"",""5246""
","
","","","-1","","","15","10105","2431","&#9761;","elianto","#3366ff99","-1","-1","1","+10","[]","0","0","2","","","","","","","",""
"pit-trial","44","468068","0.0-2.0-11.1-2.1","battery-v0.2","","""event"",""trial"",""time""
""fullscreenenter"",""1"",""5246""
","
","
","""event"",""trial"",""time""
""fullscreenenter"",""1"",""5246""
","
","","","-1","","","15","10105","2431","&#9761;","elianto","#3366ff99","-1","-1","1","+10","[]","0","0","2","","","","","","","",""
"pit-trial","45","472921","0.0-2.0-11.1-3.1","battery-v0.2","","""event"",""trial"",""time""
""fullscreenenter"",""1"",""5246""
","
","
","""event"",""trial"",""time""
""fullscreenenter"",""1"",""5246""
","
","","","-1","","","15","10105","2431","&#9761;","elianto","#3366ff99","-1","-1","1","0","[]","0","0","2","","","","","","","",""
"pit-trial","46","477775","0.0-2.0-11.1-4.1","battery-v0.2","","""event"",""trial"",""time""
""fullscreenenter"",""1"",""5246""
","
","
","""event"",""trial"",""time""
""fullscreenenter"",""1"",""5246""
","
","","","-1","","","15","10105","2431","&#9761;","elianto","#3366ff99","-1","-1","1","+10","[]","0","0","2","","","","","","","",""
"pit-trial","47","482628","0.0-2.0-11.2-0.2","battery-v0.2","","""event"",""trial"",""time""
""fullscreenenter"",""1"",""5246""
","
","
","""event"",""trial"",""time""
""fullscreenenter"",""1"",""5246""
","
","","","-1","","","15","10105","2431","&#9761;","elianto","#3366ff99","-1","-1","1","+10","[]","0","0","2","","","","","","","",""
"pit-trial","48","487481","0.0-2.0-11.2-1.2","battery-v0.2","","""event"",""trial"",""time""
""fullscreenenter"",""1"",""5246""
","
","
","""event"",""trial"",""time""
""fullscreenenter"",""1"",""5246""
","
","","","-1","","","15","10105","2431","&#9761;","elianto","#3366ff99","-1","-1","1","+10","[]","0","0","2","","","","","","","",""
"pit-trial","49","492334","0.0-2.0-11.2-2.2","battery-v0.2","","""event"",""trial"",""time""
""fullscreenenter"",""1"",""5246""
","
","
","""event"",""trial"",""time""
""fullscreenenter"",""1"",""5246""
","
","","","-1","","","15","10105","2431","&#9761;","elianto","#3366ff99","-1","-1","1","+10","[]","0","0","2","","","","","","","",""
"pit-trial","50","497188","0.0-2.0-11.2-3.2","battery-v0.2","","""event"",""trial"",""time""
""fullscreenenter"",""1"",""5246""
","
","
","""event"",""trial"",""time""
""fullscreenenter"",""1"",""5246""
","
","","","-1","","","15","10105","2431","&#9761;","elianto","#3366ff99","-1","-1","1","0","[]","0","0","2","","","","","","","",""
"pit-trial","51","502041","0.0-2.0-11.2-4.2","battery-v0.2","","""event"",""trial"",""time""
""fullscreenenter"",""1"",""5246""
","
","
","""event"",""trial"",""time""
""fullscreenenter"",""1"",""5246""
","
","","","-1","","","15","10105","2431","&#9761;","elianto","#3366ff99","-1","-1","1","+10","[]","0","0","2","","","","","","","",""
"pit-trial","52","506895","0.0-2.0-11.3-0.3","battery-v0.2","","""event"",""trial"",""time""
""fullscreenenter"",""1"",""5246""
","
","
","""event"",""trial"",""time""
""fullscreenenter"",""1"",""5246""
","
","","","-1","","","15","10105","2431","&#9761;","elianto","#3366ff99","-1","-1","1","+10","[]","0","0","2","","","","","","","",""
"pit-trial","53","511764","0.0-2.0-11.3-1.3","battery-v0.2","","""event"",""trial"",""time""
""fullscreenenter"",""1"",""5246""
","
","
","""event"",""trial"",""time""
""fullscreenenter"",""1"",""5246""
","
","","","-1","","","15","10105","2431","&#9761;","elianto","#3366ff99","-1","-1","1","+10","[]","0","0","2","","","","","","","",""
"pit-trial","54","516617","0.0-2.0-11.3-2.3","battery-v0.2","","""event"",""trial"",""time""
""fullscreenenter"",""1"",""5246""
","
","
","""event"",""trial"",""time""
""fullscreenenter"",""1"",""5246""
","
","","","-1","","","15","10105","2431","&#9761;","elianto","#3366ff99","-1","-1","1","+10","[]","0","0","2","","","","","","","",""
"pit-trial","55","521470","0.0-2.0-11.3-3.3","battery-v0.2","","""event"",""trial"",""time""
""fullscreenenter"",""1"",""5246""
","
","
","""event"",""trial"",""time""
""fullscreenenter"",""1"",""5246""
","
","","","-1","","","15","10105","2431","&#9761;","elianto","#3366ff99","-1","-1","1","0","[]","0","0","2","","","","","","","",""
"pit-trial","56","526324","0.0-2.0-11.3-4.3","battery-v0.2","","""event"",""trial"",""time""
""fullscreenenter"",""1"",""5246""
","
","
","""event"",""trial"",""time""
""fullscreenenter"",""1"",""5246""
","
","","","-1","","","15","10105","2431","&#9761;","elianto","#3366ff99","-1","-1","1","+10","[]","0","0","2","","","","","","","",""
"call-function","57","526326","0.0-2.0-12.0","battery-v0.2","","""event"",""trial"",""time""
""fullscreenenter"",""1"",""5246""
","
","
","""event"",""trial"",""time""
""fullscreenenter"",""1"",""5246""
","
","","","","","","","","","","","","","","","","","","","","","","","","","","",""
"pit-instructions","58","562566","0.0-2.0-13.0","battery-v0.2","","""event"",""trial"",""time""
""fullscreenenter"",""1"",""5246""
","
","
","""event"",""trial"",""time""
""fullscreenenter"",""1"",""5246""
","
","","[{""page_index"":0,""viewing_time"":4968.799999237061},{""page_index"":1,""viewing_time"":8509.30000114441},{""page_index"":2,""viewing_time"":5278.099998474121},{""page_index"":3,""viewing_time"":11239.400001525879},{""page_index"":4,""viewing_time"":6243.39999961853}]","36239.5","","","","","","","","","","","","","","","","","","","","","","","",""
"pit-trial","59","567437","0.0-2.0-14.0-0.0","battery-v0.2","","""event"",""trial"",""time""
""fullscreenenter"",""1"",""5246""
","
","
","""event"",""trial"",""time""
""fullscreenenter"",""1"",""5246""
","
","","","-1","","","15","10105","2431","&#9826;","elianto","#f73b6a7A","-1","-1","1","0","[]","0","0","3","","","","","","","",""
"pit-trial","60","572312","0.0-2.0-14.0-1.0","battery-v0.2","","""event"",""trial"",""time""
""fullscreenenter"",""1"",""5246""
","
","
","""event"",""trial"",""time""
""fullscreenenter"",""1"",""5246""
","
","","","-1","","","15","10105","2431","&#9826;","elianto","#f73b6a7A","-1","-1","1","0","[]","0","0","3","","","","","","","",""
"pit-trial","61","577196","0.0-2.0-14.0-2.0","battery-v0.2","","""event"",""trial"",""time""
""fullscreenenter"",""1"",""5246""
","
","
","""event"",""trial"",""time""
""fullscreenenter"",""1"",""5246""
","
","","","-1","","","15","10105","2431","&#9826;","elianto","#f73b6a7A","-1","-1","1","0","[]","0","0","3","","","","","","","",""
"pit-trial","62","582051","0.0-2.0-14.0-3.0","battery-v0.2","","""event"",""trial"",""time""
""fullscreenenter"",""1"",""5246""
","
","
","""event"",""trial"",""time""
""fullscreenenter"",""1"",""5246""
","
","","","-1","","","15","10105","2431","&#9826;","elianto","#f73b6a7A","-1","-1","1","-10","[]","0","0","3","","","","","","","",""
"pit-trial","63","586928","0.0-2.0-14.0-4.0","battery-v0.2","","""event"",""trial"",""time""
""fullscreenenter"",""1"",""5246""
","
","
","""event"",""trial"",""time""
""fullscreenenter"",""1"",""5246""
","
","","","-1","","","15","10105","2431","&#9826;","elianto","#f73b6a7A","-1","-1","1","0","[]","0","0","3","","","","","","","",""
"pit-trial","64","591791","0.0-2.0-14.1-0.1","battery-v0.2","","""event"",""trial"",""time""
""fullscreenenter"",""1"",""5246""
","
","
","""event"",""trial"",""time""
""fullscreenenter"",""1"",""5246""
","
","","","-1","","","15","10105","2431","&#9826;","elianto","#f73b6a7A","-1","-1","1","0","[]","0","0","3","","","","","","","",""
"pit-trial","65","596646","0.0-2.0-14.1-1.1","battery-v0.2","","""event"",""trial"",""time""
""fullscreenenter"",""1"",""5246""
","
","
","""event"",""trial"",""time""
""fullscreenenter"",""1"",""5246""
","
","","","-1","","","15","10105","2431","&#9826;","elianto","#f73b6a7A","-1","-1","1","0","[]","0","0","3","","","","","","","",""
"pit-trial","66","601500","0.0-2.0-14.1-2.1","battery-v0.2","","""event"",""trial"",""time""
""fullscreenenter"",""1"",""5246""
","
","
","""event"",""trial"",""time""
""fullscreenenter"",""1"",""5246""
","
","","","-1","","","15","10105","2431","&#9826;","elianto","#f73b6a7A","-1","-1","1","0","[]","0","0","3","","","","","","","",""
"pit-trial","67","606353","0.0-2.0-14.1-3.1","battery-v0.2","","""event"",""trial"",""time""
""fullscreenenter"",""1"",""5246""
","
","
","""event"",""trial"",""time""
""fullscreenenter"",""1"",""5246""
","
","","","-1","","","15","10105","2431","&#9826;","elianto","#f73b6a7A","-1","-1","1","-10","[]","0","0","3","","","","","","","",""
"pit-trial","68","611206","0.0-2.0-14.1-4.1","battery-v0.2","","""event"",""trial"",""time""
""fullscreenenter"",""1"",""5246""
","
","
","""event"",""trial"",""time""
""fullscreenenter"",""1"",""5246""
","
","","","-1","","","15","10105","2431","&#9826;","elianto","#f73b6a7A","-1","-1","1","0","[]","0","0","3","","","","","","","",""
"pit-trial","69","616059","0.0-2.0-14.2-0.2","battery-v0.2","","""event"",""trial"",""time""
""fullscreenenter"",""1"",""5246""
","
","
","""event"",""trial"",""time""
""fullscreenenter"",""1"",""5246""
","
","","","-1","","","15","10105","2431","&#9826;","elianto","#f73b6a7A","-1","-1","1","0","[]","0","0","3","","","","","","","",""
"pit-trial","70","620913","0.0-2.0-14.2-1.2","battery-v0.2","","""event"",""trial"",""time""
""fullscreenenter"",""1"",""5246""
","
","
","""event"",""trial"",""time""
""fullscreenenter"",""1"",""5246""
","
","","","-1","","","15","10105","2431","&#9826;","elianto","#f73b6a7A","-1","-1","1","0","[]","0","0","3","","","","","","","",""
"pit-trial","71","625766","0.0-2.0-14.2-2.2","battery-v0.2","","""event"",""trial"",""time""
""fullscreenenter"",""1"",""5246""
","
","
","""event"",""trial"",""time""
""fullscreenenter"",""1"",""5246""
","
","","","-1","","","15","10105","2431","&#9826;","elianto","#f73b6a7A","-1","-1","1","0","[]","0","0","3","","","","","","","",""
"pit-trial","72","630618","0.0-2.0-14.2-3.2","battery-v0.2","","""event"",""trial"",""time""
""fullscreenenter"",""1"",""5246""
","
","
","""event"",""trial"",""time""
""fullscreenenter"",""1"",""5246""
","
","","","-1","","","15","10105","2431","&#9826;","elianto","#f73b6a7A","-1","-1","1","-10","[]","0","0","3","","","","","","","",""
"pit-trial","73","635472","0.0-2.0-14.2-4.2","battery-v0.2","","""event"",""trial"",""time""
""fullscreenenter"",""1"",""5246""
","
","
","""event"",""trial"",""time""
""fullscreenenter"",""1"",""5246""
","
","","","-1","","","15","10105","2431","&#9826;","elianto","#f73b6a7A","-1","-1","1","0","[]","0","0","3","","","","","","","",""
"pit-trial","74","640326","0.0-2.0-14.3-0.3","battery-v0.2","","""event"",""trial"",""time""
""fullscreenenter"",""1"",""5246""
","
","
","""event"",""trial"",""time""
""fullscreenenter"",""1"",""5246""
","
","","","-1","","","15","10105","2431","&#9826;","elianto","#f73b6a7A","-1","-1","1","0","[]","0","0","3","","","","","","","",""
"pit-trial","75","645186","0.0-2.0-14.3-1.3","battery-v0.2","","""event"",""trial"",""time""
""fullscreenenter"",""1"",""5246""
","
","
","""event"",""trial"",""time""
""fullscreenenter"",""1"",""5246""
","
","","","-1","","","15","10105","2431","&#9826;","elianto","#f73b6a7A","-1","-1","1","0","[]","0","0","3","","","","","","","",""
"pit-trial","76","650039","0.0-2.0-14.3-2.3","battery-v0.2","","""event"",""trial"",""time""
""fullscreenenter"",""1"",""5246""
","
","
","""event"",""trial"",""time""
""fullscreenenter"",""1"",""5246""
","
","","","-1","","","15","10105","2431","&#9826;","elianto","#f73b6a7A","-1","-1","1","0","[]","0","0","3","","","","","","","",""
"pit-trial","77","654894","0.0-2.0-14.3-3.3","battery-v0.2","","""event"",""trial"",""time""
""fullscreenenter"",""1"",""5246""
","
","
","""event"",""trial"",""time""
""fullscreenenter"",""1"",""5246""
","
","","","-1","","","15","10105","2431","&#9826;","elianto","#f73b6a7A","-1","-1","1","-10","[]","0","0","3","","","","","","","",""
"pit-trial","78","659747","0.0-2.0-14.3-4.3","battery-v0.2","","""event"",""trial"",""time""
""fullscreenenter"",""1"",""5246""
","
","
","""event"",""trial"",""time""
""fullscreenenter"",""1"",""5246""
","
","","","-1","","","15","10105","2431","&#9826;","elianto","#f73b6a7A","-1","-1","1","0","[]","0","0","3","","","","","","","",""
"call-function","79","659749","0.0-2.0-15.0","battery-v0.2","","""event"",""trial"",""time""
""fullscreenenter"",""1"",""5246""
","
","
","""event"",""trial"",""time""
""fullscreenenter"",""1"",""5246""
","
","","","","","","","","","","","","","","","","","","","","","","","","","","",""
"pit-instructions","80","686190","0.0-2.0-16.0","battery-v0.2","","""event"",""trial"",""time""
""fullscreenenter"",""1"",""5246""
","
","
","""event"",""trial"",""time""
""fullscreenenter"",""1"",""5246""
","
","","[{""page_index"":0,""viewing_time"":6839.800001144409},{""page_index"":1,""viewing_time"":8378.79999923706},{""page_index"":2,""viewing_time"":4828.5},{""page_index"":3,""viewing_time"":6391.799999237061}]","26439.10000038147","","","","","","","","","","","","","","","","","","","","","","","",""
"pit-trial","81","689480","0.0-2.0-17.0-0.0","battery-v0.2","","""event"",""trial"",""time""
""fullscreenenter"",""1"",""5246""
","
","
","""event"",""trial"",""time""
""fullscreenenter"",""1"",""5246""
","
","","","424.5","","","15","10105","2431","&#9789;","elianto","#f73b6a7A"," "," ","1","0","[1279.1000003814697]","1","0","4","","","","","","","",""
"pit-trial","82","692790","0.0-2.0-17.0-1.0","battery-v0.2","","""event"",""trial"",""time""
""fullscreenenter"",""1"",""5246""
","
","
","""event"",""trial"",""time""
""fullscreenenter"",""1"",""5246""
","
","","","452","","","15","10105","2431","&#9789;","elianto","#f73b6a7A"," "," ","1","0","[1306.1000003814697]","1","0","4","","","","","","","",""
"pit-trial","83","696090","0.0-2.0-17.0-2.0","battery-v0.2","","""event"",""trial"",""time""
""fullscreenenter"",""1"",""5246""
","
","
","""event"",""trial"",""time""
""fullscreenenter"",""1"",""5246""
","
","","","437.5999984741211","","","15","10105","2431","&#9789;","elianto","#f73b6a7A"," "," ","1","0","[1287.6000003814697]","1","0","4","","","","","","","",""
"pit-trial","84","699482","0.0-2.0-17.0-3.0","battery-v0.2","","""event"",""trial"",""time""
""fullscreenenter"",""1"",""5246""
","
","
","""event"",""trial"",""time""
""fullscreenenter"",""1"",""5246""
","
","","","524.6000003814697","","","15","10105","2431","&#9789;","elianto","#f73b6a7A"," "," ","1","-10","[1386.3999996185303]","1","0","4","","","","","","","",""
"pit-trial","85","702748","0.0-2.0-17.0-4.0","battery-v0.2","","""event"",""trial"",""time""
""fullscreenenter"",""1"",""5246""
","
","
","""event"",""trial"",""time""
""fullscreenenter"",""1"",""5246""
","
","","","410.6000003814697","","","15","10105","2431","&#9789;","elianto","#f73b6a7A"," "," ","1","0","[1262.7000007629395]","1","0","4","","","","","","","",""
"pit-trial","86","705953","0.0-2.0-17.1-0.1","battery-v0.2","","""event"",""trial"",""time""
""fullscreenenter"",""1"",""5246""
","
","
","""event"",""trial"",""time""
""fullscreenenter"",""1"",""5246""
","
","","","323.1999988555908","","","15","10105","2431","&#9789;","elianto","#f73b6a7A"," "," ","1","0","[1186.7999992370605]","1","0","4","","","","","","","",""
"pit-trial","87","709152","0.0-2.0-17.1-1.1","battery-v0.2","","""event"",""trial"",""time""
""fullscreenenter"",""1"",""5246""
","
","
","""event"",""trial"",""time""
""fullscreenenter"",""1"",""5246""
","
","","","331","","","15","10105","2431","&#9789;","elianto","#f73b6a7A"," "," ","1","0","[1187.8999996185303]","1","0","4","","","","","","","",""
"pit-trial","88","712504","0.0-2.0-17.1-2.1","battery-v0.2","","""event"",""trial"",""time""
""fullscreenenter"",""1"",""5246""
","
","
","""event"",""trial"",""time""
""fullscreenenter"",""1"",""5246""
","
","","","494.5","","","15","10105","2431","&#9789;","elianto","#f73b6a7A"," "," ","1","0","[1349.3999996185303]","1","0","4","","","","","","","",""
"pit-trial","89","716254","0.0-2.0-17.1-3.1","battery-v0.2","","""event"",""trial"",""time""
""fullscreenenter"",""1"",""5246""
","
","
","""event"",""trial"",""time""
""fullscreenenter"",""1"",""5246""
","
","","","895.2999992370605","","","15","10105","2431","&#9789;","elianto","#f73b6a7A"," "," ","1","-10","[1748]","1","0","4","","","","","","","",""
"pit-trial","90","719529","0.0-2.0-17.1-4.1","battery-v0.2","","""event"",""trial"",""time""
""fullscreenenter"",""1"",""5246""
","
","
","""event"",""trial"",""time""
""fullscreenenter"",""1"",""5246""
","
","","","420.8000011444092","","","15","10105","2431","&#9789;","elianto","#f73b6a7A"," "," ","1","0","[1272.2000007629395]","1","0","4","","","","","","","",""
"pit-trial","91","722805","0.0-2.0-17.2-0.2","battery-v0.2","","""event"",""trial"",""time""
""fullscreenenter"",""1"",""5246""
","
","
","""event"",""trial"",""time""
""fullscreenenter"",""1"",""5246""
","
","","","422.1000003814697","","","15","10105","2431","&#9789;","elianto","#f73b6a7A"," "," ","1","0","[1272.1999988555908]","1","0","4","","","","","","","",""
"pit-trial","92","725988","0.0-2.0-17.2-1.2","battery-v0.2","","""event"",""trial"",""time""
""fullscreenenter"",""1"",""5246""
","
","
","""event"",""trial"",""time""
""fullscreenenter"",""1"",""5246""
","
","","","329.9000015258789","","","15","10105","2431","&#9789;","elianto","#f73b6a7A"," "," ","1","0","[1180.1000003814697]","1","0","4","","","","","","","",""
"pit-trial","93","729708","0.0-2.0-17.2-2.2","battery-v0.2","","""event"",""trial"",""time""
""fullscreenenter"",""1"",""5246""
","
","
","""event"",""trial"",""time""
""fullscreenenter"",""1"",""5246""
","
","","","865.3000011444092","","","15","10105","2431","&#9789;","elianto","#f73b6a7A"," "," ","1","0","[1716.3999996185303]","1","0","4","","","","","","","",""
"pit-trial","94","733105","0.0-2.0-17.2-3.2","battery-v0.2","","""event"",""trial"",""time""
""fullscreenenter"",""1"",""5246""
","
","
","""event"",""trial"",""time""
""fullscreenenter"",""1"",""5246""
","
","","","544.7999992370605","","","15","10105","2431","&#9789;","elianto","#f73b6a7A"," "," ","1","-10","[1395]","1","0","4","","","","","","","",""
"pit-trial","95","736630","0.0-2.0-17.2-4.2","battery-v0.2","","""event"",""trial"",""time""
""fullscreenenter"",""1"",""5246""
","
","
","""event"",""trial"",""time""
""fullscreenenter"",""1"",""5246""
","
","","","672.7000007629395","","","15","10105","2431","&#9789;","elianto","#f73b6a7A"," "," ","1","0","[1523.1000003814697]","1","0","4","","","","","","","",""
"pit-trial","96","740018","0.0-2.0-17.3-0.3","battery-v0.2","","""event"",""trial"",""time""
""fullscreenenter"",""1"",""5246""
","
","
","""event"",""trial"",""time""
""fullscreenenter"",""1"",""5246""
","
","","","533.1000003814697","","","15","10105","2431","&#9789;","elianto","#f73b6a7A"," "," ","1","0","[1384.1999988555908]","1","0","4","","","","","","","",""
"pit-trial","97","743627","0.0-2.0-17.3-1.3","battery-v0.2","","""event"",""trial"",""time""
""fullscreenenter"",""1"",""5246""
","
","
","""event"",""trial"",""time""
""fullscreenenter"",""1"",""5246""
","
","","","754.6999988555908","","","15","10105","2431","&#9789;","elianto","#f73b6a7A"," "," ","1","0","[1606.400001525879]","1","0","4","","","","","","","",""
"pit-trial","98","746996","0.0-2.0-17.3-2.3","battery-v0.2","","""event"",""trial"",""time""
""fullscreenenter"",""1"",""5246""
","
","
","""event"",""trial"",""time""
""fullscreenenter"",""1"",""5246""
","
","","","516.8999996185303","","","15","10105","2431","&#9789;","elianto","#f73b6a7A"," "," ","1","0","[1367.2999992370605]","1","0","4","","","","","","","",""
"pit-trial","99","750928","0.0-2.0-17.3-3.3","battery-v0.2","","""event"",""trial"",""time""
""fullscreenenter"",""1"",""5246""
","
","
","""event"",""trial"",""time""
""fullscreenenter"",""1"",""5246""
","
","","","1078.400001525879","","","15","10105","2431","&#9789;","elianto","#f73b6a7A"," "," ","1","-10","[1928.900001525879]","1","0","4","","","","","","","",""
"pit-trial","100","754590","0.0-2.0-17.3-4.3","battery-v0.2","","""event"",""trial"",""time""
""fullscreenenter"",""1"",""5246""
","
","
","""event"",""trial"",""time""
""fullscreenenter"",""1"",""5246""
","
","","","808.7000007629395","","","15","10105","2431","&#9789;","elianto","#f73b6a7A"," "," ","1","0","[1659.3999996185303]","1","0","4","","","","","","","",""
"call-function","101","754592","0.0-2.0-18.0","battery-v0.2","","""event"",""trial"",""time""
""fullscreenenter"",""1"",""5246""
","
","
","""event"",""trial"",""time""
""fullscreenenter"",""1"",""5246""
","
","","","","","","","","","","","","","","","","","","","","","","","","","","",""
"pit-instructions","102","836910","0.0-2.0-19.0","battery-v0.2","","""event"",""trial"",""time""
""fullscreenenter"",""1"",""5246""
","
","
","""event"",""trial"",""time""
""fullscreenenter"",""1"",""5246""
","
","","[{""page_index"":0,""viewing_time"":6917},{""page_index"":1,""viewing_time"":6127.300001144409},{""page_index"":2,""viewing_time"":16200.29999923706},{""page_index"":3,""viewing_time"":10283.70000076294},{""page_index"":4,""viewing_time"":8820.5},{""page_index"":5,""viewing_time"":9655.10000038147},{""page_index"":6,""viewing_time"":8175.699998855591},{""page_index"":7,""viewing_time"":8795.30000114441},{""page_index"":8,""viewing_time"":7341.799999237061}]","82317.30000114441","","","","","","","","","","","","","","","","","","","","","","","",""
"pit-comprehension","103","841373","0.0-2.0-20.0-0.0","battery-v0.2","","""event"",""trial"",""time""
""fullscreenenter"",""1"",""5246""
","
","
","""event"",""trial"",""time""
""fullscreenenter"",""1"",""5246""
","
","","","4458","[""SPACE""]","0","15","10105","2431","","","","","","","","","","","","","","","","","","",""
"pit-instructions","104","846138","0.0-2.0-20.0-1.0","battery-v0.2","","""event"",""trial"",""time""
""fullscreenenter"",""1"",""5246""
","
","
","""event"",""trial"",""time""
""fullscreenenter"",""1"",""5246""
","
","","[{""page_index"":0,""viewing_time"":4744.5}]","4744.800001144409","","","","","","","","","","","","","","","","","","","","","","","",""
"pit-comprehension","105","855402","0.0-2.0-21.0-0.0","battery-v0.2","","""event"",""trial"",""time""
""fullscreenenter"",""1"",""5246""
","
","
","""event"",""trial"",""time""
""fullscreenenter"",""1"",""5246""
","
","","","9260.70000076294","[""10""]","0","15","10105","2431","","","","","","","","","","","","","","","","","","",""
"pit-instructions","106","858925","0.0-2.0-21.0-1.0","battery-v0.2","","""event"",""trial"",""time""
""fullscreenenter"",""1"",""5246""
","
","
","""event"",""trial"",""time""
""fullscreenenter"",""1"",""5246""
","
","","[{""page_index"":0,""viewing_time"":3501.300001144409}]","3501.7000007629395","","","","","","","","","","","","","","","","","","","","","","","",""
"pit-comprehension","107","874928","0.0-2.0-22.0-0.0","battery-v0.2","","""event"",""trial"",""time""
""fullscreenenter"",""1"",""5246""
","
","
","""event"",""trial"",""time""
""fullscreenenter"",""1"",""5246""
","
","","","16000.599998474121","[""0""]","0","15","10105","2431","","","","","","","","","","","","","","","","","","",""
"pit-instructions","108","884602","0.0-2.0-22.0-1.0","battery-v0.2","","""event"",""trial"",""time""
""fullscreenenter"",""1"",""5246""
","
","
","""event"",""trial"",""time""
""fullscreenenter"",""1"",""5246""
","
","","[{""page_index"":0,""viewing_time"":9652.30000114441}]","9652.60000038147","","","","","","","","","","","","","","","","","","","","","","","",""
"pit-comprehension","109","896512","0.0-2.0-23.0-0.0","battery-v0.2","","""event"",""trial"",""time""
""fullscreenenter"",""1"",""5246""
","
","
","""event"",""trial"",""time""
""fullscreenenter"",""1"",""5246""
","
","","","11907.20000076294","[""True""]","0","15","10105","2431","","","","","","","","","","","","","","","","","","",""
"pit-instructions","110","898355","0.0-2.0-23.0-1.0","battery-v0.2","","""event"",""trial"",""time""
""fullscreenenter"",""1"",""5246""
","
","
","""event"",""trial"",""time""
""fullscreenenter"",""1"",""5246""
","
","","[{""page_index"":0,""viewing_time"":1821.3999996185303}]","1822","","","","","","","","","","","","","","","","","","","","","","","",""
"pit-comprehension","111","905998","0.0-2.0-24.0-0.0","battery-v0.2","","""event"",""trial"",""time""
""fullscreenenter"",""1"",""5246""
","
","
","""event"",""trial"",""time""
""fullscreenenter"",""1"",""5246""
","
","","","7638.799999237061","[""True""]","0","15","10105","2431","","","","","","","","","","","","","","","","","","",""
"pit-instructions","112","912775","0.0-2.0-24.0-1.0","battery-v0.2","","""event"",""trial"",""time""
""fullscreenenter"",""1"",""5246""
","
","
","""event"",""trial"",""time""
""fullscreenenter"",""1"",""5246""
","
","","[{""page_index"":0,""viewing_time"":6752.300001144409}]","6752.800001144409","","","","","","","","","","","","","","","","","","","","","","","",""
"pit-comprehension","113","920559","0.0-2.0-25.0-0.0","battery-v0.2","","""event"",""trial"",""time""
""fullscreenenter"",""1"",""5246""
","
","
","""event"",""trial"",""time""
""fullscreenenter"",""1"",""5246""
","
","","","7779.5","[""True""]","0","15","10105","2431","","","","","","","","","","","","","","","","","","",""
"pit-instructions","114","930496","0.0-2.0-25.0-1.0","battery-v0.2","","""event"",""trial"",""time""
""fullscreenenter"",""1"",""5246""
","
","
","""event"",""trial"",""time""
""fullscreenenter"",""1"",""5246""
","
","","[{""page_index"":0,""viewing_time"":9915.89999961853}]","9916.39999961853","","","","","","","","","","","","","","","","","","","","","","","",""
"pit-comprehension","115","939125","0.0-2.0-26.0-0.0","battery-v0.2","","""event"",""trial"",""time""
""fullscreenenter"",""1"",""5246""
","
","
","""event"",""trial"",""time""
""fullscreenenter"",""1"",""5246""
","
","","","8625","[""False""]","0","15","10105","2431","","","","","","","","","","","","","","","","","","",""
"pit-instructions","116","940785","0.0-2.0-26.0-1.0","battery-v0.2","","""event"",""trial"",""time""
""fullscreenenter"",""1"",""5246""
","
","
","""event"",""trial"",""time""
""fullscreenenter"",""1"",""5246""
","
","","[{""page_index"":0,""viewing_time"":1635.3999996185303}]","1635.8999996185303","","","","","","","","","","","","","","","","","","","","","","","",""
"pit-instructions","117","960637","0.0-3.0","battery-v0.2","","""event"",""trial"",""time""
""fullscreenenter"",""1"",""5246""
","
","
","""event"",""trial"",""time""
""fullscreenenter"",""1"",""5246""
","
","","[{""page_index"":0,""viewing_time"":6073.300001144409},{""page_index"":1,""viewing_time"":6282.199998855591},{""page_index"":2,""viewing_time"":7494.400001525879}]","19850.5","","","","","","","","","","","","","","","","","","","","","","","",""
"pit-trial","118","964609","0.0-4.0","battery-v0.2","","""event"",""trial"",""time""
""fullscreenenter"",""1"",""5246""
","
","
","""event"",""trial"",""time""
""fullscreenenter"",""1"",""5246""
","
","","","1087.7000007629395","","","15","10105","2431","&#9730;","elianto","#3366ff99"," "," ","1","+10","[1951.2999992370605]","1","1","","","10105","1","1","1","win","go","0"
"pit-trial","119","969198","0.0-5.0","battery-v0.2","","""event"",""trial"",""time""
""fullscreenenter"",""1"",""5246""
","
","
","""event"",""trial"",""time""
""fullscreenenter"",""1"",""5246""
","
","","","1714.1999988555908","","","15","10105","2431","&#9752;","elianto","#f73b6a7A"," "," ","1","0","[2572.099998474121]","1","1","","","10105","2","3","3","lose","go","0"
"pit-trial","120","974063","0.0-6.0","battery-v0.2","","""event"",""trial"",""time""
""fullscreenenter"",""1"",""5246""
","
","
","""event"",""trial"",""time""
""fullscreenenter"",""1"",""5246""
","
","","","-1","","","15","10105","2431","&#9728;","elianto","#f73b6a7A","-1","-1","1","0","[]","0","1","","","10105","3","0","4","lose","no-go","0"
"pit-trial","121","977822","0.0-7.0","battery-v0.2","","""event"",""trial"",""time""
""fullscreenenter"",""1"",""5246""
","
","
","""event"",""trial"",""time""
""fullscreenenter"",""1"",""5246""
","
","","","891","","","15","10105","2431","&#9733;","elianto","#3366ff99","-1"," ","0","0","[1741.6000003814697]","1","1","","","10105","4","2","2","win","no-go","0"
"pit-trial","122","982375","0.0-8.0","battery-v0.2","","""event"",""trial"",""time""
""fullscreenenter"",""1"",""5246""
","
","
","""event"",""trial"",""time""
""fullscreenenter"",""1"",""5246""
","
","","","1694.3000011444092","","","15","10105","2431","&#9728;","elianto","#f73b6a7A","-1"," ","0","-10","[2546.6000003814697]","1","1","","","10105","5","0","4","lose","no-go","0"
"pit-trial","123","987244","0.0-9.0","battery-v0.2","","""event"",""trial"",""time""
""fullscreenenter"",""1"",""5246""
","
","
","""event"",""trial"",""time""
""fullscreenenter"",""1"",""5246""
","
","","","-1","","","15","10105","2431","&#9733;","elianto","#3366ff99","-1","-1","1","+10","[]","0","1","","","10105","6","2","2","win","no-go","0"
"pit-trial","124","990816","0.0-10.0","battery-v0.2","","""event"",""trial"",""time""
""fullscreenenter"",""1"",""5246""
","
","
","""event"",""trial"",""time""
""fullscreenenter"",""1"",""5246""
","
","","","717","","","15","10105","2431","&#9730;","elianto","#3366ff99"," "," ","1","+10","[1569.599998474121]","1","1","","","10105","7","1","1","win","go","0"
"pit-trial","125","994621","0.0-11.0","battery-v0.2","","""event"",""trial"",""time""
""fullscreenenter"",""1"",""5246""
","
","
","""event"",""trial"",""time""
""fullscreenenter"",""1"",""5246""
","
","","","950.5999984741211","","","15","10105","2431","&#9752;","elianto","#f73b6a7A"," "," ","1","0","[1801.8999996185303]","1","1","","","10105","8","3","3","lose","go","0"
"pit-trial","126","998632","0.0-12.0","battery-v0.2","","""event"",""trial"",""time""
""fullscreenenter"",""1"",""5246""
","
","
","""event"",""trial"",""time""
""fullscreenenter"",""1"",""5246""
","
","","","1157.1999988555908","","","15","10105","2431","&#9752;","elianto","#f73b6a7A"," "," ","1","0","[2008]","1","1","","","10105","9","3","3","lose","go","0"
"pit-trial","127","1002608","0.0-13.0","battery-v0.2","","""event"",""trial"",""time""
""fullscreenenter"",""1"",""5246""
","
","
","""event"",""trial"",""time""
""fullscreenenter"",""1"",""5246""
","
","","","1122.5","","","15","10105","2431","&#9730;","elianto","#3366ff99"," "," ","1","+10","[1972.5]","1","1","","","10105","10","1","1","win","go","0"
"pit-trial","128","1007461","0.0-14.0","battery-v0.2","","""event"",""trial"",""time""
""fullscreenenter"",""1"",""5246""
","
","
","""event"",""trial"",""time""
""fullscreenenter"",""1"",""5246""
","
","","","-1","","","15","10105","2431","&#9733;","elianto","#3366ff99","-1","-1","1","+10","[]","0","1","","","10105","11","2","2","win","no-go","0"
"pit-trial","129","1012314","0.0-15.0","battery-v0.2","","""event"",""trial"",""time""
""fullscreenenter"",""1"",""5246""
","
","
","""event"",""trial"",""time""
""fullscreenenter"",""1"",""5246""
","
","","","-1","","","15","10105","2431","&#9728;","elianto","#f73b6a7A","-1","-1","1","0","[]","0","1","","","10105","12","0","4","lose","no-go","0"
"pit-trial","130","1016129","0.0-16.0","battery-v0.2","","""event"",""trial"",""time""
""fullscreenenter"",""1"",""5246""
","
","
","""event"",""trial"",""time""
""fullscreenenter"",""1"",""5246""
","
","","","961.8999996185303","","","15","10105","2431","&#9728;","elianto","#f73b6a7A","-1"," ","0","-10","[1811.7999992370605]","1","1","","","10105","13","0","4","lose","no-go","0"
"pit-trial","131","1019738","0.0-17.0","battery-v0.2","","""event"",""trial"",""time""
""fullscreenenter"",""1"",""5246""
","
","
","""event"",""trial"",""time""
""fullscreenenter"",""1"",""5246""
","
","","","755.1999988555908","","","15","10105","2431","&#9752;","elianto","#f73b6a7A"," "," ","1","0","[1606.2999992370605]","1","1","","","10105","14","3","3","lose","go","0"
"pit-trial","132","1023466","0.0-18.0","battery-v0.2","","""event"",""trial"",""time""
""fullscreenenter"",""1"",""5246""
","
","
","""event"",""trial"",""time""
""fullscreenenter"",""1"",""5246""
","
","","","874.7999992370605","","","15","10105","2431","&#9730;","elianto","#3366ff99"," "," ","1","+10","[1725.2000007629395]","1","1","","","10105","15","1","1","win","go","0"
"pit-trial","133","1028320","0.0-19.0","battery-v0.2","","""event"",""trial"",""time""
""fullscreenenter"",""1"",""5246""
","
","
","""event"",""trial"",""time""
""fullscreenenter"",""1"",""5246""
","
","","","-1","","","15","10105","2431","&#9733;","elianto","#3366ff99","-1","-1","1","+10","[]","0","1","","","10105","16","2","2","win","no-go","0"
"pit-trial","134","1033174","0.0-20.0","battery-v0.2","","""event"",""trial"",""time""
""fullscreenenter"",""1"",""5246""
","
","
","""event"",""trial"",""time""
""fullscreenenter"",""1"",""5246""
","
","","","-1","","","15","10105","2431","&#9733;","elianto","#3366ff99","-1","-1","1","+10","[]","0","1","","","10105","17","2","2","win","no-go","0"
"pit-trial","135","1036966","0.0-21.0","battery-v0.2","","""event"",""trial"",""time""
""fullscreenenter"",""1"",""5246""
","
","
","""event"",""trial"",""time""
""fullscreenenter"",""1"",""5246""
","
","","","939.3000011444092","","","15","10105","2431","&#9730;","elianto","#3366ff99"," "," ","1","+10","[1790.1000003814697]","1","1","","","10105","18","1","1","win","go","0"
"pit-trial","136","1040687","0.0-22.0","battery-v0.2","","""event"",""trial"",""time""
""fullscreenenter"",""1"",""5246""
","
","
","""event"",""trial"",""time""
""fullscreenenter"",""1"",""5246""
","
","","","867.3999996185303","","","15","10105","2431","&#9752;","elianto","#f73b6a7A"," "," ","1","-10","[1717.8999996185303]","1","1","","","10105","19","3","3","lose","go","1"
"pit-trial","137","1045541","0.0-23.0","battery-v0.2","","""event"",""trial"",""time""
""fullscreenenter"",""1"",""5246""
","
","
","""event"",""trial"",""time""
""fullscreenenter"",""1"",""5246""
","
","","","-1","","","15","10105","2431","&#9728;","elianto","#f73b6a7A","-1","-1","1","0","[]","0","1","","","10105","20","0","4","lose","no-go","0"
"pit-instructions","138","1067927","0.0-24.0","battery-v0.2","","""event"",""trial"",""time""
""fullscreenenter"",""1"",""5246""
","
","
","""event"",""trial"",""time""
""fullscreenenter"",""1"",""5246""
","
","","[{""page_index"":0,""viewing_time"":6649.5},{""page_index"":1,""viewing_time"":15734.5}]","22384.40000152588","","","","","","","","","","","","","","","","","","","","","","","",""
"pit-trial","139","1072398","0.0-25.0","battery-v0.2","","""event"",""trial"",""time""
""fullscreenenter"",""1"",""5246""
","
","
","""event"",""trial"",""time""
""fullscreenenter"",""1"",""5246""
","
","","","1613.8999996185303","","","15","10105","2431","g","elianto","#f73b6a7A"," "," ","1","0","[2465.199998855591]","1","2","","","10105","21","3","3","lose","go","0"
"pit-trial","140","1077270","0.0-26.0","battery-v0.2","","""event"",""trial"",""time""
""fullscreenenter"",""1"",""5246""
","
","
","""event"",""trial"",""time""
""fullscreenenter"",""1"",""5246""
","
","","","-1","","","15","10105","2431","u","elianto","#f73b6a7A","-1","-1","1","0","[]","0","2","","","10105","22","0","4","lose","no-go","0"
"pit-trial","141","1081230","0.0-27.0","battery-v0.2","","""event"",""trial"",""time""
""fullscreenenter"",""1"",""5246""
","
","
","""event"",""trial"",""time""
""fullscreenenter"",""1"",""5246""
","
","","","1083","","","15","10105","2431","a","elianto","#f73b6a7A","-1"," ","0","-10","[1946.8000011444092]","1","2","","","10105","23","2","4","lose","no-go","0"
"pit-trial","142","1085013","0.0-28.0","battery-v0.2","","""event"",""trial"",""time""
""fullscreenenter"",""1"",""5246""
","
","
","""event"",""trial"",""time""
""fullscreenenter"",""1"",""5246""
","
","","","921.1000003814697","","","15","10105","2431","l","elianto","#3366ff99"," "," ","1","+10","[1772.1999988555908]","1","2","","","10105","24","1","1","win","go","0"
"pit-trial","143","1088608","0.0-29.0","battery-v0.2","","""event"",""trial"",""time""
""fullscreenenter"",""1"",""5246""
","
","
","""event"",""trial"",""time""
""fullscreenenter"",""1"",""5246""
","
","","","732.3000011444092","","","15","10105","2431","l","elianto","#3366ff99"," "," ","1","+10","[1586.2000007629395]","1","2","","","10105","25","1","1","win","go","0"
"pit-trial","144","1093461","0.0-30.0","battery-v0.2","","""event"",""trial"",""time""
""fullscreenenter"",""1"",""5246""
","
","
","""event"",""trial"",""time""
""fullscreenenter"",""1"",""5246""
","
","","","-1","","","15","10105","2431","a","elianto","#f73b6a7A","-1","-1","1","0","[]","0","2","","","10105","26","2","4","lose","no-go","0"
"pit-trial","145","1098179","0.0-31.0","battery-v0.2","","""event"",""trial"",""time""
""fullscreenenter"",""1"",""5246""
","
","
","""event"",""trial"",""time""
""fullscreenenter"",""1"",""5246""
","
","","","1864.8000011444092","","","15","10105","2431","u","elianto","#f73b6a7A","-1"," ","0","-10","[2715.6000003814697]","1","2","","","10105","27","0","4","lose","no-go","0"
"pit-trial","146","1102375","0.0-32.0","battery-v0.2","","""event"",""trial"",""time""
""fullscreenenter"",""1"",""5246""
","
","
","""event"",""trial"",""time""
""fullscreenenter"",""1"",""5246""
","
","","","1343","","","15","10105","2431","g","elianto","#f73b6a7A"," "," ","1","-10","[2194]","1","2","","","10105","28","3","3","lose","go","1"
"pit-trial","147","1107144","0.0-33.0","battery-v0.2","","""event"",""trial"",""time""
""fullscreenenter"",""1"",""5246""
","
","
","""event"",""trial"",""time""
""fullscreenenter"",""1"",""5246""
","
","","","1914.1000003814697","","","15","10105","2431","u","elianto","#f73b6a7A","-1"," ","0","-10","[2765.1000003814697]","1","2","","","10105","29","0","4","lose","no-go","0"
"pit-trial","148","1110919","0.0-34.0","battery-v0.2","","""event"",""trial"",""time""
""fullscreenenter"",""1"",""5246""
","
","
","""event"",""trial"",""time""
""fullscreenenter"",""1"",""5246""
","
","","","922.1000003814697","","","15","10105","2431","l","elianto","#3366ff99"," "," ","1","+10","[1772.1000003814697]","1","2","","","10105","30","1","1","win","go","0"
"pit-trial","149","1115772","0.0-35.0","battery-v0.2","","""event"",""trial"",""time""
""fullscreenenter"",""1"",""5246""
","
","
","""event"",""trial"",""time""
""fullscreenenter"",""1"",""5246""
","
","","","-1","","","15","10105","2431","a","elianto","#f73b6a7A","-1","-1","1","0","[]","0","2","","","10105","31","2","4","lose","no-go","0"
"pit-trial","150","1120626","0.0-36.0","battery-v0.2","","""event"",""trial"",""time""
""fullscreenenter"",""1"",""5246""
","
","
","""event"",""trial"",""time""
""fullscreenenter"",""1"",""5246""
","
","","","-1","","","15","10105","2431","g","elianto","#f73b6a7A"," ","-1","0","-10","[]","0","2","","","10105","32","3","3","lose","go","0"
"pit-trial","151","1124372","0.0-37.0","battery-v0.2","","""event"",""trial"",""time""
""fullscreenenter"",""1"",""5246""
","
","
","""event"",""trial"",""time""
""fullscreenenter"",""1"",""5246""
","
","","","892.8000011444092","","","15","10105","2431","l","elianto","#3366ff99"," "," ","1","0","[1743.5]","1","2","","","10105","33","1","1","win","go","1"
"pit-trial","152","1128047","0.0-38.0","battery-v0.2","","""event"",""trial"",""time""
""fullscreenenter"",""1"",""5246""
","
","
","""event"",""trial"",""time""
""fullscreenenter"",""1"",""5246""
","
","","","821","","","15","10105","2431","g","elianto","#f73b6a7A"," "," ","1","0","[1671.8000011444092]","1","2","","","10105","34","3","3","lose","go","0"
"pit-trial","153","1132901","0.0-39.0","battery-v0.2","","""event"",""trial"",""time""
""fullscreenenter"",""1"",""5246""
","
","
","""event"",""trial"",""time""
""fullscreenenter"",""1"",""5246""
","
","","","-1","","","15","10105","2431","u","elianto","#f73b6a7A","-1","-1","1","0","[]","0","2","","","10105","35","0","4","lose","no-go","0"
"pit-trial","154","1137754","0.0-40.0","battery-v0.2","","""event"",""trial"",""time""
""fullscreenenter"",""1"",""5246""
","
","
","""event"",""trial"",""time""
""fullscreenenter"",""1"",""5246""
","
","","","-1","","","15","10105","2431","a","elianto","#f73b6a7A","-1","-1","1","0","[]","0","2","","","10105","36","2","4","lose","no-go","0"
"pit-trial","155","1141566","0.0-41.0","battery-v0.2","","""event"",""trial"",""time""
""fullscreenenter"",""1"",""5246""
","
","
","""event"",""trial"",""time""
""fullscreenenter"",""1"",""5246""
","
","","","958","","","15","10105","2431","l","elianto","#3366ff99"," "," ","1","+10","[1808.8000011444092]","1","2","","","10105","37","1","1","win","go","0"
"pit-trial","156","1145272","0.0-42.0","battery-v0.2","","""event"",""trial"",""time""
""fullscreenenter"",""1"",""5246""
","
","
","""event"",""trial"",""time""
""fullscreenenter"",""1"",""5246""
","
","","","852.5","","","15","10105","2431","g","elianto","#f73b6a7A"," "," ","1","0","[1703.2999992370605]","1","2","","","10105","38","3","3","lose","go","0"
"pit-trial","157","1150130","0.0-43.0","battery-v0.2","","""event"",""trial"",""time""
""fullscreenenter"",""1"",""5246""
","
","
","""event"",""trial"",""time""
""fullscreenenter"",""1"",""5246""
","
","","","-1","","","15","10105","2431","u","elianto","#f73b6a7A","-1","-1","1","0","[]","0","2","","","10105","39","0","4","lose","no-go","0"
"pit-trial","158","1154983","0.0-44.0","battery-v0.2","","""event"",""trial"",""time""
""fullscreenenter"",""1"",""5246""
","
","
","""event"",""trial"",""time""
""fullscreenenter"",""1"",""5246""
","
","","","-1","","","15","10105","2431","a","elianto","#f73b6a7A","-1","-1","1","0","[]","0","2","","","10105","40","2","4","lose","no-go","0"
"pit-trial","159","1159837","0.0-45.0","battery-v0.2","","""event"",""trial"",""time""
""fullscreenenter"",""1"",""5246""
","
","
","""event"",""trial"",""time""
""fullscreenenter"",""1"",""5246""
","
","","","-1","","","15","10105","2431","u","elianto","#f73b6a7A","-1","-1","1","0","[]","0","2","","","10105","41","0","4","lose","no-go","0"
"pit-trial","160","1163471","0.0-46.0","battery-v0.2","","""event"",""trial"",""time""
""fullscreenenter"",""1"",""5246""
","
","
","""event"",""trial"",""time""
""fullscreenenter"",""1"",""5246""
","
","","","779.8999996185303","","","15","10105","2431","g","elianto","#f73b6a7A"," "," ","1","-10","[1630.6000003814697]","1","2","","","10105","42","3","3","lose","go","1"
"pit-trial","161","1166839","0.0-47.0","battery-v0.2","","""event"",""trial"",""time""
""fullscreenenter"",""1"",""5246""
","
","
","""event"",""trial"",""time""
""fullscreenenter"",""1"",""5246""
","
","","","515.6000003814697","","","15","10105","2431","l","elianto","#3366ff99"," "," ","1","0","[1365.7999992370605]","1","2","","","10105","43","1","1","win","go","1"
"pit-trial","162","1171694","0.0-48.0","battery-v0.2","","""event"",""trial"",""time""
""fullscreenenter"",""1"",""5246""
","
","
","""event"",""trial"",""time""
""fullscreenenter"",""1"",""5246""
","
","","","-1","","","15","10105","2431","a","elianto","#f73b6a7A","-1","-1","1","0","[]","0","2","","","10105","44","2","4","lose","no-go","0"
"pit-trial","163","1176548","0.0-49.0","battery-v0.2","","""event"",""trial"",""time""
""fullscreenenter"",""1"",""5246""
","
","
","""event"",""trial"",""time""
""fullscreenenter"",""1"",""5246""
","
","","","-1","","","15","10105","2431","u","elianto","#f73b6a7A","-1","-1","1","0","[]","0","2","","","10105","45","0","4","lose","no-go","0"
"pit-trial","164","1179974","0.0-50.0","battery-v0.2","","""event"",""trial"",""time""
""fullscreenenter"",""1"",""5246""
","
","
","""event"",""trial"",""time""
""fullscreenenter"",""1"",""5246""
","
","","","573.5999984741211","","","15","10105","2431","g","elianto","#f73b6a7A"," "," ","1","0","[1424.3000011444092]","1","2","","","10105","46","3","3","lose","go","0"
"pit-trial","165","1184827","0.0-51.0","battery-v0.2","","""event"",""trial"",""time""
""fullscreenenter"",""1"",""5246""
","
","
","""event"",""trial"",""time""
""fullscreenenter"",""1"",""5246""
","
","","","-1","","","15","10105","2431","a","elianto","#f73b6a7A","-1","-1","1","0","[]","0","2","","","10105","47","2","4","lose","no-go","0"
"pit-trial","166","1188809","0.0-52.0","battery-v0.2","","""event"",""trial"",""time""
""fullscreenenter"",""1"",""5246""
","
","
","""event"",""trial"",""time""
""fullscreenenter"",""1"",""5246""
","
","","","1127.8999996185303","","","15","10105","2431","p","elianto","#3366ff99","-1"," ","0","0","[1978.7999992370605]","1","2","","","10105","48","4","2","win","no-go","0"
"pit-trial","167","1193663","0.0-53.0","battery-v0.2","","""event"",""trial"",""time""
""fullscreenenter"",""1"",""5246""
","
","
","""event"",""trial"",""time""
""fullscreenenter"",""1"",""5246""
","
","","","-1","","","15","10105","2431","p","elianto","#3366ff99","-1","-1","1","+10","[]","0","2","","","10105","49","4","2","win","no-go","0"
"pit-trial","168","1197296","0.0-54.0","battery-v0.2","","""event"",""trial"",""time""
""fullscreenenter"",""1"",""5246""
","
","
","""event"",""trial"",""time""
""fullscreenenter"",""1"",""5246""
","
","","","779.7999992370605","","","15","10105","2431","l","elianto","#3366ff99"," "," ","1","+10","[1630.8999996185303]","1","2","","","10105","50","1","1","win","go","0"
"pit-trial","169","1202156","0.0-55.0","battery-v0.2","","""event"",""trial"",""time""
""fullscreenenter"",""1"",""5246""
","
","
","""event"",""trial"",""time""
""fullscreenenter"",""1"",""5246""
","
","","","-1","","","15","10105","2431","u","elianto","#f73b6a7A","-1","-1","1","0","[]","0","2","","","10105","51","0","4","lose","no-go","0"
"pit-trial","170","1206241","0.0-56.0","battery-v0.2","","""event"",""trial"",""time""
""fullscreenenter"",""1"",""5246""
","
","
","""event"",""trial"",""time""
""fullscreenenter"",""1"",""5246""
","
","","","1231.6999988555908","","","15","10105","2431","g","elianto","#f73b6a7A"," "," ","1","0","[2082.400001525879]","1","2","","","10105","52","3","3","lose","go","0"
"pit-trial","171","1211094","0.0-57.0","battery-v0.2","","""event"",""trial"",""time""
""fullscreenenter"",""1"",""5246""
","
","
","""event"",""trial"",""time""
""fullscreenenter"",""1"",""5246""
","
","","","-1","","","15","10105","2431","a","elianto","#f73b6a7A","-1","-1","1","0","[]","0","2","","","10105","53","2","4","lose","no-go","0"
"pit-trial","172","1215948","0.0-58.0","battery-v0.2","","""event"",""trial"",""time""
""fullscreenenter"",""1"",""5246""
","
","
","""event"",""trial"",""time""
""fullscreenenter"",""1"",""5246""
","
","","","-1","","","15","10105","2431","u","elianto","#f73b6a7A","-1","-1","1","-10","[]","0","2","","","10105","54","0","4","lose","no-go","1"
"pit-trial","173","1220174","0.0-59.0","battery-v0.2","","""event"",""trial"",""time""
""fullscreenenter"",""1"",""5246""
","
","
","""event"",""trial"",""time""
""fullscreenenter"",""1"",""5246""
","
","","","1372.5","","","15","10105","2431","p","elianto","#3366ff99","-1"," ","0","0","[2223.2000007629395]","1","2","","","10105","55","4","2","win","no-go","0"
"pit-trial","174","1225028","0.0-60.0","battery-v0.2","","""event"",""trial"",""time""
""fullscreenenter"",""1"",""5246""
","
","
","""event"",""trial"",""time""
""fullscreenenter"",""1"",""5246""
","
","","","-1","","","15","10105","2431","l","elianto","#3366ff99"," ","-1","0","0","[4096.10000038147]","1","2","","","10105","56","1","1","win","go","0"
"pit-trial","175","1229881","0.0-61.0","battery-v0.2","","""event"",""trial"",""time""
""fullscreenenter"",""1"",""5246""
","
","
","""event"",""trial"",""time""
""fullscreenenter"",""1"",""5246""
","
","","","-1","","","15","10105","2431","u","elianto","#f73b6a7A","-1","-1","1","-10","[]","0","2","","","10105","57","0","4","lose","no-go","1"
"pit-trial","176","1233487","0.0-62.0","battery-v0.2","","""event"",""trial"",""time""
""fullscreenenter"",""1"",""5246""
","
","
","""event"",""trial"",""time""
""fullscreenenter"",""1"",""5246""
","
","","","753.2000007629395","","","15","10105","2431","l","elianto","#3366ff99"," "," ","1","+10","[1603.6000003814697]","1","2","","","10105","58","1","1","win","go","0"
"pit-trial","177","1238341","0.0-63.0","battery-v0.2","","""event"",""trial"",""time""
""fullscreenenter"",""1"",""5246""
","
","
","""event"",""trial"",""time""
""fullscreenenter"",""1"",""5246""
","
","","","-1","","","15","10105","2431","p","elianto","#3366ff99","-1","-1","1","+10","[]","0","2","","","10105","59","4","2","win","no-go","0"
"pit-trial","178","1242033","0.0-64.0","battery-v0.2","","""event"",""trial"",""time""
""fullscreenenter"",""1"",""5246""
","
","
","""event"",""trial"",""time""
""fullscreenenter"",""1"",""5246""
","
","","","838.3000011444092","","","15","10105","2431","g","elianto","#f73b6a7A"," "," ","1","0","[1689.2999992370605]","1","2","","","10105","60","3","3","lose","go","0"
"pit-trial","179","1246886","0.0-65.0","battery-v0.2","","""event"",""trial"",""time""
""fullscreenenter"",""1"",""5246""
","
","
","""event"",""trial"",""time""
""fullscreenenter"",""1"",""5246""
","
","","","-1","","","15","10105","2431","p","elianto","#3366ff99","-1","-1","1","+10","[]","0","2","","","10105","61","4","2","win","no-go","0"
"pit-trial","180","1251740","0.0-66.0","battery-v0.2","","""event"",""trial"",""time""
""fullscreenenter"",""1"",""5246""
","
","
","""event"",""trial"",""time""
""fullscreenenter"",""1"",""5246""
","
","","","-1","","","15","10105","2431","a","elianto","#f73b6a7A","-1","-1","1","0","[]","0","2","","","10105","62","2","4","lose","no-go","0"
"pit-trial","181","1256071","0.0-67.0","battery-v0.2","","""event"",""trial"",""time""
""fullscreenenter"",""1"",""5246""
","
","
","""event"",""trial"",""time""
""fullscreenenter"",""1"",""5246""
","
","","","1477.6000003814697","","","15","10105","2431","l","elianto","#3366ff99"," "," ","1","0","[2328.2999992370605]","1","2","","","10105","63","1","1","win","go","1"
"pit-trial","182","1259798","0.0-68.0","battery-v0.2","","""event"",""trial"",""time""
""fullscreenenter"",""1"",""5246""
","
","
","""event"",""trial"",""time""
""fullscreenenter"",""1"",""5246""
","
","","","873.1000003814697","","","15","10105","2431","g","elianto","#f73b6a7A"," "," ","1","0","[1724.2999992370605]","1","2","","","10105","64","3","3","lose","go","0"
"pit-trial","183","1264652","0.0-69.0","battery-v0.2","","""event"",""trial"",""time""
""fullscreenenter"",""1"",""5246""
","
","
","""event"",""trial"",""time""
""fullscreenenter"",""1"",""5246""
","
","","","-1","","","15","10105","2431","p","elianto","#3366ff99","-1","-1","1","+10","[]","0","2","","","10105","65","4","2","win","no-go","0"
"pit-trial","184","1269518","0.0-70.0","battery-v0.2","","""event"",""trial"",""time""
""fullscreenenter"",""1"",""5246""
","
","
","""event"",""trial"",""time""
""fullscreenenter"",""1"",""5246""
","
","","","-1","","","15","10105","2431","a","elianto","#f73b6a7A","-1","-1","1","0","[]","0","2","","","10105","66","2","4","lose","no-go","0"
"pit-trial","185","1273423","0.0-71.0","battery-v0.2","","""event"",""trial"",""time""
""fullscreenenter"",""1"",""5246""
","
","
","""event"",""trial"",""time""
""fullscreenenter"",""1"",""5246""
","
","","","1052.1000003814697","","","15","10105","2431","l","elianto","#3366ff99"," "," ","1","0","[1902.5]","1","2","","","10105","67","1","1","win","go","1"
"pit-trial","186","1278276","0.0-72.0","battery-v0.2","","""event"",""trial"",""time""
""fullscreenenter"",""1"",""5246""
","
","
","""event"",""trial"",""time""
""fullscreenenter"",""1"",""5246""
","
","","","-1","","","15","10105","2431","g","elianto","#f73b6a7A"," ","-1","0","-10","[3344.3999996185303]","1","2","","","10105","68","3","3","lose","go","0"
"pit-trial","187","1282038","0.0-73.0","battery-v0.2","","""event"",""trial"",""time""
""fullscreenenter"",""1"",""5246""
","
","
","""event"",""trial"",""time""
""fullscreenenter"",""1"",""5246""
","
","","","908.3000011444092","","","15","10105","2431","g","elianto","#f73b6a7A"," "," ","1","-10","[1759.900001525879]","1","2","","","10105","69","3","3","lose","go","1"
"pit-trial","188","1286893","0.0-74.0","battery-v0.2","","""event"",""trial"",""time""
""fullscreenenter"",""1"",""5246""
","
","
","""event"",""trial"",""time""
""fullscreenenter"",""1"",""5246""
","
","","","-1","","","15","10105","2431","p","elianto","#3366ff99","-1","-1","1","+10","[]","0","2","","","10105","70","4","2","win","no-go","0"
"pit-trial","189","1290302","0.0-75.0","battery-v0.2","","""event"",""trial"",""time""
""fullscreenenter"",""1"",""5246""
","
","
","""event"",""trial"",""time""
""fullscreenenter"",""1"",""5246""
","
","","","556.6000003814697","","","15","10105","2431","l","elianto","#3366ff99"," "," ","1","+10","[1407.1000003814697]","1","2","","","10105","71","1","1","win","go","0"
"pit-trial","190","1295152","0.0-76.0","battery-v0.2","","""event"",""trial"",""time""
""fullscreenenter"",""1"",""5246""
","
","
","""event"",""trial"",""time""
""fullscreenenter"",""1"",""5246""
","
","","","1996.1000003814697","","","15","10105","2431","s","elianto","#3366ff99"," "," ","1","0","[2846.5]","1","2","","","10105","72","5","1","win","go","1"
"pit-trial","191","1300006","0.0-77.0","battery-v0.2","","""event"",""trial"",""time""
""fullscreenenter"",""1"",""5246""
","
","
","""event"",""trial"",""time""
""fullscreenenter"",""1"",""5246""
","
","","","-1","","","15","10105","2431","p","elianto","#3366ff99","-1","-1","1","+10","[]","0","2","","","10105","73","4","2","win","no-go","0"
"pit-trial","192","1304859","0.0-78.0","battery-v0.2","","""event"",""trial"",""time""
""fullscreenenter"",""1"",""5246""
","
","
","""event"",""trial"",""time""
""fullscreenenter"",""1"",""5246""
","
","","","-1","","","15","10105","2431","s","elianto","#3366ff99"," ","-1","0","0","[]","0","2","","","10105","74","5","1","win","go","0"
"pit-trial","193","1308653","0.0-79.0","battery-v0.2","","""event"",""trial"",""time""
""fullscreenenter"",""1"",""5246""
","
","
","""event"",""trial"",""time""
""fullscreenenter"",""1"",""5246""
","
","","","939.7999992370605","","","15","10105","2431","l","elianto","#3366ff99"," "," ","1","+10","[1791.3000011444092]","1","2","","","10105","75","1","1","win","go","0"
"pit-trial","194","1312281","0.0-80.0","battery-v0.2","","""event"",""trial"",""time""
""fullscreenenter"",""1"",""5246""
","
","
","""event"",""trial"",""time""
""fullscreenenter"",""1"",""5246""
","
","","","775.8999996185303","","","15","10105","2431","g","elianto","#f73b6a7A"," "," ","1","0","[1625.8999996185303]","1","2","","","10105","76","3","3","lose","go","0"
"pit-trial","195","1316394","0.0-81.0","battery-v0.2","","""event"",""trial"",""time""
""fullscreenenter"",""1"",""5246""
","
","
","""event"",""trial"",""time""
""fullscreenenter"",""1"",""5246""
","
","","","1260","","","15","10105","2431","w","elianto","#f73b6a7A","-1"," ","0","-10","[2110.5]","1","2","","","10105","77","6","4","lose","no-go","0"
"pit-trial","196","1320440","0.0-82.0","battery-v0.2","","""event"",""trial"",""time""
""fullscreenenter"",""1"",""5246""
","
","
","""event"",""trial"",""time""
""fullscreenenter"",""1"",""5246""
","
","","","1191.400001525879","","","15","10105","2431","g","elianto","#f73b6a7A"," "," ","1","0","[2043.7000007629395]","1","2","","","10105","78","3","3","lose","go","0"
"pit-trial","197","1324110","0.0-83.0","battery-v0.2","","""event"",""trial"",""time""
""fullscreenenter"",""1"",""5246""
","
","
","""event"",""trial"",""time""
""fullscreenenter"",""1"",""5246""
","
","","","816.1000003814697","","","15","10105","2431","p","elianto","#3366ff99","-1"," ","0","0","[1668.1999988555908]","1","2","","","10105","79","4","2","win","no-go","0"
"pit-trial","198","1328965","0.0-84.0","battery-v0.2","","""event"",""trial"",""time""
""fullscreenenter"",""1"",""5246""
","
","
","""event"",""trial"",""time""
""fullscreenenter"",""1"",""5246""
","
","","","-1","","","15","10105","2431","s","elianto","#3366ff99"," ","-1","0","0","[]","0","2","","","10105","80","5","1","win","go","0"
"pit-trial","199","1333819","0.0-85.0","battery-v0.2","","""event"",""trial"",""time""
""fullscreenenter"",""1"",""5246""
","
","
","""event"",""trial"",""time""
""fullscreenenter"",""1"",""5246""
","
","","","-1","","","15","10105","2431","w","elianto","#f73b6a7A","-1","-1","1","0","[]","0","2","","","10105","81","6","4","lose","no-go","0"
"pit-trial","200","1337791","0.0-86.0","battery-v0.2","","""event"",""trial"",""time""
""fullscreenenter"",""1"",""5246""
","
","
","""event"",""trial"",""time""
""fullscreenenter"",""1"",""5246""
","
","","","1118.2999992370605","","","15","10105","2431","e","elianto","#f73b6a7A"," "," ","1","0","[1968.7999992370605]","1","2","","","10105","82","7","3","lose","go","0"
"pit-trial","201","1341771","0.0-87.0","battery-v0.2","","""event"",""trial"",""time""
""fullscreenenter"",""1"",""5246""
","
","
","""event"",""trial"",""time""
""fullscreenenter"",""1"",""5246""
","
","","","1126.7000007629395","","","15","10105","2431","s","elianto","#3366ff99"," "," ","1","0","[1977.3000011444092]","1","2","","","10105","83","5","1","win","go","1"
"pit-trial","202","1346624","0.0-88.0","battery-v0.2","","""event"",""trial"",""time""
""fullscreenenter"",""1"",""5246""
","
","
","""event"",""trial"",""time""
""fullscreenenter"",""1"",""5246""
","
","","","-1","","","15","10105","2431","p","elianto","#3366ff99","-1","-1","1","+10","[]","0","2","","","10105","84","4","2","win","no-go","0"
"pit-trial","203","1351477","0.0-89.0","battery-v0.2","","""event"",""trial"",""time""
""fullscreenenter"",""1"",""5246""
","
","
","""event"",""trial"",""time""
""fullscreenenter"",""1"",""5246""
","
","","","-1","","","15","10105","2431","p","elianto","#3366ff99","-1","-1","1","+10","[]","0","2","","","10105","85","4","2","win","no-go","0"
"pit-trial","204","1356329","0.0-90.0","battery-v0.2","","""event"",""trial"",""time""
""fullscreenenter"",""1"",""5246""
","
","
","""event"",""trial"",""time""
""fullscreenenter"",""1"",""5246""
","
","","","-1","","","15","10105","2431","w","elianto","#f73b6a7A","-1","-1","1","0","[]","0","2","","","10105","86","6","4","lose","no-go","0"
"pit-trial","205","1361184","0.0-91.0","battery-v0.2","","""event"",""trial"",""time""
""fullscreenenter"",""1"",""5246""
","
","
","""event"",""trial"",""time""
""fullscreenenter"",""1"",""5246""
","
","","","-1","","","15","10105","2431","s","elianto","#3366ff99"," ","-1","0","0","[]","0","2","","","10105","87","5","1","win","go","0"
"pit-trial","206","1366038","0.0-92.0","battery-v0.2","","""event"",""trial"",""time""
""fullscreenenter"",""1"",""5246""
","
","
","""event"",""trial"",""time""
""fullscreenenter"",""1"",""5246""
","
","","","-1","","","15","10105","2431","e","elianto","#f73b6a7A"," ","-1","0","-10","[]","0","2","","","10105","88","7","3","lose","go","0"
"pit-trial","207","1370892","0.0-93.0","battery-v0.2","","""event"",""trial"",""time""
""fullscreenenter"",""1"",""5246""
","
","
","""event"",""trial"",""time""
""fullscreenenter"",""1"",""5246""
","
","","","-1","","","15","10105","2431","s","elianto","#3366ff99"," ","-1","0","0","[]","0","2","","","10105","89","5","1","win","go","0"
"pit-trial","208","1375745","0.0-94.0","battery-v0.2","","""event"",""trial"",""time""
""fullscreenenter"",""1"",""5246""
","
","
","""event"",""trial"",""time""
""fullscreenenter"",""1"",""5246""
","
","","","-1","","","15","10105","2431","p","elianto","#3366ff99","-1","-1","1","+10","[]","0","2","","","10105","90","4","2","win","no-go","0"
"pit-trial","209","1380590","0.0-95.0","battery-v0.2","","""event"",""trial"",""time""
""fullscreenenter"",""1"",""5246""
","
","
","""event"",""trial"",""time""
""fullscreenenter"",""1"",""5246""
","
","","","1991.2999992370605","","","15","10105","2431","w","elianto","#f73b6a7A","-1"," ","0","0","[2841.900001525879]","1","2","","","10105","91","6","4","lose","no-go","1"
"pit-trial","210","1385444","0.0-96.0","battery-v0.2","","""event"",""trial"",""time""
""fullscreenenter"",""1"",""5246""
","
","
","""event"",""trial"",""time""
""fullscreenenter"",""1"",""5246""
","
","","","-1","","","15","10105","2431","e","elianto","#f73b6a7A"," ","-1","0","-10","[]","0","2","","","10105","92","7","3","lose","go","0"
"pit-trial","211","1389203","0.0-97.0","battery-v0.2","","""event"",""trial"",""time""
""fullscreenenter"",""1"",""5246""
","
","
","""event"",""trial"",""time""
""fullscreenenter"",""1"",""5246""
","
","","","906.5","","","15","10105","2431","w","elianto","#f73b6a7A","-1"," ","0","-10","[1757]","1","2","","","10105","93","6","4","lose","no-go","0"
"pit-trial","212","1394056","0.0-98.0","battery-v0.2","","""event"",""trial"",""time""
""fullscreenenter"",""1"",""5246""
","
","
","""event"",""trial"",""time""
""fullscreenenter"",""1"",""5246""
","
","","","-1","","","15","10105","2431","s","elianto","#3366ff99"," ","-1","0","0","[]","0","2","","","10105","94","5","1","win","go","0"
"pit-trial","213","1398300","0.0-99.0","battery-v0.2","","""event"",""trial"",""time""
""fullscreenenter"",""1"",""5246""
","
","
","""event"",""trial"",""time""
""fullscreenenter"",""1"",""5246""
","
","","","1389.7999992370605","","","15","10105","2431","e","elianto","#f73b6a7A"," "," ","1","0","[2240.5]","1","2","","","10105","95","7","3","lose","go","0"
"pit-trial","214","1402108","0.0-100.0","battery-v0.2","","""event"",""trial"",""time""
""fullscreenenter"",""1"",""5246""
","
","
","""event"",""trial"",""time""
""fullscreenenter"",""1"",""5246""
","
","","","955.6000003814697","","","15","10105","2431","d","elianto","#3366ff99","-1"," ","0","0","[1805.8999996185303]","1","2","","","10105","96","8","2","win","no-go","0"
"pit-trial","215","1406246","0.0-101.0","battery-v0.2","","""event"",""trial"",""time""
""fullscreenenter"",""1"",""5246""
","
","
","""event"",""trial"",""time""
""fullscreenenter"",""1"",""5246""
","
","","","1284.3999996185303","","","15","10105","2431","w","elianto","#f73b6a7A","-1"," ","0","-10","[2135]","1","2","","","10105","97","6","4","lose","no-go","0"
"pit-trial","216","1411100","0.0-102.0","battery-v0.2","","""event"",""trial"",""time""
""fullscreenenter"",""1"",""5246""
","
","
","""event"",""trial"",""time""
""fullscreenenter"",""1"",""5246""
","
","","","-1","","","15","10105","2431","e","elianto","#f73b6a7A"," ","-1","0","-10","[]","0","2","","","10105","98","7","3","lose","go","0"
"pit-trial","217","1415953","0.0-103.0","battery-v0.2","","""event"",""trial"",""time""
""fullscreenenter"",""1"",""5246""
","
","
","""event"",""trial"",""time""
""fullscreenenter"",""1"",""5246""
","
","","","-1","","","15","10105","2431","d","elianto","#3366ff99","-1","-1","1","0","[]","0","2","","","10105","99","8","2","win","no-go","1"
"pit-trial","218","1420807","0.0-104.0","battery-v0.2","","""event"",""trial"",""time""
""fullscreenenter"",""1"",""5246""
","
","
","""event"",""trial"",""time""
""fullscreenenter"",""1"",""5246""
","
","","","-1","","","15","10105","2431","s","elianto","#3366ff99"," ","-1","0","0","[]","0","2","","","10105","100","5","1","win","go","0"
"pit-trial","219","1425517","0.0-105.0","battery-v0.2","","""event"",""trial"",""time""
""fullscreenenter"",""1"",""5246""
","
","
","""event"",""trial"",""time""
""fullscreenenter"",""1"",""5246""
","
","","","1857.8000011444092","","","15","10105","2431","w","elianto","#f73b6a7A","-1"," ","0","0","[2707.900001525879]","1","2","","","10105","101","6","4","lose","no-go","1"
"pit-trial","220","1429315","0.0-106.0","battery-v0.2","","""event"",""trial"",""time""
""fullscreenenter"",""1"",""5246""
","
","
","""event"",""trial"",""time""
""fullscreenenter"",""1"",""5246""
","
","","","944.7999992370605","","","15","10105","2431","j","elianto","#3366ff99","-1"," ","0","+10","[1794.6999988555908]","1","2","","","10105","102","9","2","win","no-go","1"
"pit-trial","221","1434168","0.0-107.0","battery-v0.2","","""event"",""trial"",""time""
""fullscreenenter"",""1"",""5246""
","
","
","""event"",""trial"",""time""
""fullscreenenter"",""1"",""5246""
","
","","","-1","","","15","10105","2431","s","elianto","#3366ff99"," ","-1","0","0","[]","0","2","","","10105","103","5","1","win","go","0"
"pit-trial","222","1438887","0.0-108.0","battery-v0.2","","""event"",""trial"",""time""
""fullscreenenter"",""1"",""5246""
","
","
","""event"",""trial"",""time""
""fullscreenenter"",""1"",""5246""
","
","","","1866.5","","","15","10105","2431","d","elianto","#3366ff99","-1"," ","0","0","[2717]","1","2","","","10105","104","8","2","win","no-go","0"
"pit-trial","223","1443741","0.0-109.0","battery-v0.2","","""event"",""trial"",""time""
""fullscreenenter"",""1"",""5246""
","
","
","""event"",""trial"",""time""
""fullscreenenter"",""1"",""5246""
","
","","","-1","","","15","10105","2431","s","elianto","#3366ff99"," ","-1","0","+10","[]","0","2","","","10105","105","5","1","win","go","1"
"pit-trial","224","1447553","0.0-110.0","battery-v0.2","","""event"",""trial"",""time""
""fullscreenenter"",""1"",""5246""
","
","
","""event"",""trial"",""time""
""fullscreenenter"",""1"",""5246""
","
","","","959.1000003814697","","","15","10105","2431","j","elianto","#3366ff99","-1"," ","0","0","[1809.7000007629395]","1","2","","","10105","106","9","2","win","no-go","0"
"pit-trial","225","1452406","0.0-111.0","battery-v0.2","","""event"",""trial"",""time""
""fullscreenenter"",""1"",""5246""
","
","
","""event"",""trial"",""time""
""fullscreenenter"",""1"",""5246""
","
","","","-1","","","15","10105","2431","d","elianto","#3366ff99","-1","-1","1","+10","[]","0","2","","","10105","107","8","2","win","no-go","0"
"pit-trial","226","1456459","0.0-112.0","battery-v0.2","","""event"",""trial"",""time""
""fullscreenenter"",""1"",""5246""
","
","
","""event"",""trial"",""time""
""fullscreenenter"",""1"",""5246""
","
","","","1200.1000003814697","","","15","10105","2431","w","elianto","#f73b6a7A","-1"," ","0","0","[2050.7000007629395]","1","2","","","10105","108","6","4","lose","no-go","1"
"pit-trial","227","1460173","0.0-113.0","battery-v0.2","","""event"",""trial"",""time""
""fullscreenenter"",""1"",""5246""
","
","
","""event"",""trial"",""time""
""fullscreenenter"",""1"",""5246""
","
","","","859.8999996185303","","","15","10105","2431","w","elianto","#f73b6a7A","-1"," ","0","-10","[1710.8999996185303]","1","2","","","10105","109","6","4","lose","no-go","0"
"pit-trial","228","1464538","0.0-114.0","battery-v0.2","","""event"",""trial"",""time""
""fullscreenenter"",""1"",""5246""
","
","
","""event"",""trial"",""time""
""fullscreenenter"",""1"",""5246""
","
","","","1511.1000003814697","","","15","10105","2431","s","elianto","#3366ff99"," "," ","1","+10","[2361.6000003814697]","1","2","","","10105","110","5","1","win","go","0"
"pit-trial","229","1468558","0.0-115.0","battery-v0.2","","""event"",""trial"",""time""
""fullscreenenter"",""1"",""5246""
","
","
","""event"",""trial"",""time""
""fullscreenenter"",""1"",""5246""
","
","","","1166.3999996185303","","","15","10105","2431","j","elianto","#3366ff99","-1"," ","0","0","[2016.8000011444092]","1","2","","","10105","111","9","2","win","no-go","0"
"pit-trial","230","1472591","0.0-116.0","battery-v0.2","","""event"",""trial"",""time""
""fullscreenenter"",""1"",""5246""
","
","
","""event"",""trial"",""time""
""fullscreenenter"",""1"",""5246""
","
","","","1179.7000007629395","","","15","10105","2431","d","elianto","#3366ff99","-1"," ","0","+10","[2030.2000007629395]","1","2","","","10105","112","8","2","win","no-go","1"
"pit-trial","231","1476238","0.0-117.0","battery-v0.2","","""event"",""trial"",""time""
""fullscreenenter"",""1"",""5246""
","
","
","""event"",""trial"",""time""
""fullscreenenter"",""1"",""5246""
","
","","","794.8999996185303","","","15","10105","2431","d","elianto","#3366ff99","-1"," ","0","0","[1645.1000003814697]","1","2","","","10105","113","8","2","win","no-go","0"
"pit-trial","232","1480482","0.0-118.0","battery-v0.2","","""event"",""trial"",""time""
""fullscreenenter"",""1"",""5246""
","
","
","""event"",""trial"",""time""
""fullscreenenter"",""1"",""5246""
","
","","","1389.7000007629395","","","15","10105","2431","s","elianto","#3366ff99"," "," ","1","+10","[2240.5]","1","2","","","10105","114","5","1","win","go","0"
"pit-trial","233","1484708","0.0-119.0","battery-v0.2","","""event"",""trial"",""time""
""fullscreenenter"",""1"",""5246""
","
","
","""event"",""trial"",""time""
""fullscreenenter"",""1"",""5246""
","
","","","1369.3999996185303","","","15","10105","2431","j","elianto","#3366ff99","-1"," ","0","0","[2220.5]","1","2","","","10105","115","9","2","win","no-go","0"
"pit-trial","234","1489057","0.0-120.0","battery-v0.2","","""event"",""trial"",""time""
""fullscreenenter"",""1"",""5246""
","
","
","""event"",""trial"",""time""
""fullscreenenter"",""1"",""5246""
","
","","","1496","","","15","10105","2431","e","elianto","#f73b6a7A"," "," ","1","0","[2346.800001144409]","1","2","","","10105","116","7","3","lose","go","0"
"pit-trial","235","1493911","0.0-121.0","battery-v0.2","","""event"",""trial"",""time""
""fullscreenenter"",""1"",""5246""
","
","
","""event"",""trial"",""time""
""fullscreenenter"",""1"",""5246""
","
","","","-1","","","15","10105","2431","j","elianto","#3366ff99","-1","-1","1","+10","[]","0","2","","","10105","117","9","2","win","no-go","0"
"pit-trial","236","1497755","0.0-122.0","battery-v0.2","","""event"",""trial"",""time""
""fullscreenenter"",""1"",""5246""
","
","
","""event"",""trial"",""time""
""fullscreenenter"",""1"",""5246""
","
","","","990.8999996185303","","","15","10105","2431","d","elianto","#3366ff99","-1"," ","0","0","[1840.900001525879]","1","2","","","10105","118","8","2","win","no-go","0"
"pit-trial","237","1502029","0.0-123.0","battery-v0.2","","""event"",""trial"",""time""
""fullscreenenter"",""1"",""5246""
","
","
","""event"",""trial"",""time""
""fullscreenenter"",""1"",""5246""
","
","","","1420.7999992370605","","","15","10105","2431","s","elianto","#3366ff99"," "," ","1","+10","[2271.8999996185303]","1","2","","","10105","119","5","1","win","go","0"
"pit-trial","238","1506883","0.0-124.0","battery-v0.2","","""event"",""trial"",""time""
""fullscreenenter"",""1"",""5246""
","
","
","""event"",""trial"",""time""
""fullscreenenter"",""1"",""5246""
","
","","","-1","","","15","10105","2431","w","elianto","#f73b6a7A","-1","-1","1","0","[2942.400001525879]","1","2","","","10105","120","6","4","lose","no-go","0"
"pit-trial","239","1511667","0.0-125.0","battery-v0.2","","""event"",""trial"",""time""
""fullscreenenter"",""1"",""5246""
","
","
","""event"",""trial"",""time""
""fullscreenenter"",""1"",""5246""
","
","","","1930.3999996185303","","","15","10105","2431","d","elianto","#3366ff99","-1"," ","0","0","[2780.800001144409]","1","2","","","10105","121","8","2","win","no-go","0"
"pit-trial","240","1516385","0.0-126.0","battery-v0.2","","""event"",""trial"",""time""
""fullscreenenter"",""1"",""5246""
","
","
","""event"",""trial"",""time""
""fullscreenenter"",""1"",""5246""
","
","","","1864.599998474121","","","15","10105","2431","j","elianto","#3366ff99","-1"," ","0","0","[2715.7000007629395]","1","2","","","10105","122","9","2","win","no-go","0"
"pit-trial","241","1520025","0.0-127.0","battery-v0.2","","""event"",""trial"",""time""
""fullscreenenter"",""1"",""5246""
","
","
","""event"",""trial"",""time""
""fullscreenenter"",""1"",""5246""
","
","","","784.8999996185303","","","15","10105","2431","s","elianto","#3366ff99"," "," ","1","+10","[1636.2999992370605]","1","2","","","10105","123","5","1","win","go","0"
"pit-trial","242","1523726","0.0-128.0","battery-v0.2","","""event"",""trial"",""time""
""fullscreenenter"",""1"",""5246""
","
","
","""event"",""trial"",""time""
""fullscreenenter"",""1"",""5246""
","
","","","847.6999988555908","","","15","10105","2431","e","elianto","#f73b6a7A"," "," ","1","-10","[1698]","1","2","","","10105","124","7","3","lose","go","1"
"pit-trial","243","1527405","0.0-129.0","battery-v0.2","","""event"",""trial"",""time""
""fullscreenenter"",""1"",""5246""
","
","
","""event"",""trial"",""time""
""fullscreenenter"",""1"",""5246""
","
","","","826.3000011444092","","","15","10105","2431","d","elianto","#3366ff99","-1"," ","0","0","[1676.7000007629395]","1","2","","","10105","125","8","2","win","no-go","0"
"pit-trial","244","1531417","0.0-130.0","battery-v0.2","","""event"",""trial"",""time""
""fullscreenenter"",""1"",""5246""
","
","
","""event"",""trial"",""time""
""fullscreenenter"",""1"",""5246""
","
","","","1158.2999992370605","","","15","10105","2431","w","elianto","#f73b6a7A","-1"," ","0","-10","[2008.6999988555908]","1","2","","","10105","126","6","4","lose","no-go","0"
"pit-trial","245","1535634","0.0-131.0","battery-v0.2","","""event"",""trial"",""time""
""fullscreenenter"",""1"",""5246""
","
","
","""event"",""trial"",""time""
""fullscreenenter"",""1"",""5246""
","
","","","1363.8000011444092","","","15","10105","2431","e","elianto","#f73b6a7A"," "," ","1","0","[2214]","1","2","","","10105","127","7","3","lose","go","0"
"pit-trial","246","1539397","0.0-132.0","battery-v0.2","","""event"",""trial"",""time""
""fullscreenenter"",""1"",""5246""
","
","
","""event"",""trial"",""time""
""fullscreenenter"",""1"",""5246""
","
","","","910.6999988555908","","","15","10105","2431","j","elianto","#3366ff99","-1"," ","0","0","[1761.1999988555908]","1","2","","","10105","128","9","2","win","no-go","0"
"pit-trial","247","1543480","0.0-133.0","battery-v0.2","","""event"",""trial"",""time""
""fullscreenenter"",""1"",""5246""
","
","
","""event"",""trial"",""time""
""fullscreenenter"",""1"",""5246""
","
","","","1229.2999992370605","","","15","10105","2431","w","elianto","#f73b6a7A","-1"," ","0","-10","[2079.6000003814697]","1","2","","","10105","129","6","4","lose","no-go","0"
"pit-trial","248","1547320","0.0-134.0","battery-v0.2","","""event"",""trial"",""time""
""fullscreenenter"",""1"",""5246""
","
","
","""event"",""trial"",""time""
""fullscreenenter"",""1"",""5246""
","
","","","987.6000003814697","","","15","10105","2431","e","elianto","#f73b6a7A"," "," ","1","0","[1837.6000003814697]","1","2","","","10105","130","7","3","lose","go","0"
"pit-trial","249","1552173","0.0-135.0","battery-v0.2","","""event"",""trial"",""time""
""fullscreenenter"",""1"",""5246""
","
","
","""event"",""trial"",""time""
""fullscreenenter"",""1"",""5246""
","
","","","-1","","","15","10105","2431","j","elianto","#3366ff99","-1","-1","1","+10","[]","0","2","","","10105","131","9","2","win","no-go","0"
"pit-trial","250","1555799","0.0-136.0","battery-v0.2","","""event"",""trial"",""time""
""fullscreenenter"",""1"",""5246""
","
","
","""event"",""trial"",""time""
""fullscreenenter"",""1"",""5246""
","
","","","772.1000003814697","","","15","10105","2431","d","elianto","#3366ff99","-1"," ","0","0","[1622.6000003814697]","1","2","","","10105","132","8","2","win","no-go","0"
"pit-trial","251","1559552","0.0-137.0","battery-v0.2","","""event"",""trial"",""time""
""fullscreenenter"",""1"",""5246""
","
","
","""event"",""trial"",""time""
""fullscreenenter"",""1"",""5246""
","
","","","898.8000011444092","","","15","10105","2431","e","elianto","#f73b6a7A"," "," ","1","0","[1749.900001525879]","1","2","","","10105","133","7","3","lose","go","0"
"pit-trial","252","1564407","0.0-138.0","battery-v0.2","","""event"",""trial"",""time""
""fullscreenenter"",""1"",""5246""
","
","
","""event"",""trial"",""time""
""fullscreenenter"",""1"",""5246""
","
","","","-1","","","15","10105","2431","w","elianto","#f73b6a7A","-1","-1","1","0","[]","0","2","","","10105","134","6","4","lose","no-go","0"
"pit-trial","253","1568256","0.0-139.0","battery-v0.2","","""event"",""trial"",""time""
""fullscreenenter"",""1"",""5246""
","
","
","""event"",""trial"",""time""
""fullscreenenter"",""1"",""5246""
","
","","","995.8000011444092","","","15","10105","2431","d","elianto","#3366ff99","-1"," ","0","0","[1846.3999996185303]","1","2","","","10105","135","8","2","win","no-go","0"
"pit-trial","254","1573110","0.0-140.0","battery-v0.2","","""event"",""trial"",""time""
""fullscreenenter"",""1"",""5246""
","
","
","""event"",""trial"",""time""
""fullscreenenter"",""1"",""5246""
","
","","","-1","","","15","10105","2431","j","elianto","#3366ff99","-1","-1","1","0","[]","0","2","","","10105","136","9","2","win","no-go","1"
"pit-trial","255","1577964","0.0-141.0","battery-v0.2","","""event"",""trial"",""time""
""fullscreenenter"",""1"",""5246""
","
","
","""event"",""trial"",""time""
""fullscreenenter"",""1"",""5246""
","
","","","-1","","","15","10105","2431","j","elianto","#3366ff99","-1","-1","1","+10","[]","0","2","","","10105","137","9","2","win","no-go","0"
"pit-trial","256","1582689","0.0-142.0","battery-v0.2","","""event"",""trial"",""time""
""fullscreenenter"",""1"",""5246""
","
","
","""event"",""trial"",""time""
""fullscreenenter"",""1"",""5246""
","
","","","1871.2999992370605","","","15","10105","2431","w","elianto","#f73b6a7A","-1"," ","0","-10","[2721.699998855591]","1","2","","","10105","138","6","4","lose","no-go","0"
"pit-trial","257","1586796","0.0-143.0","battery-v0.2","","""event"",""trial"",""time""
""fullscreenenter"",""1"",""5246""
","
","
","""event"",""trial"",""time""
""fullscreenenter"",""1"",""5246""
","
","","","1254.3999996185303","","","15","10105","2431","d","elianto","#3366ff99","-1"," ","0","0","[2104.6000003814697]","1","2","","","10105","139","8","2","win","no-go","0"
"pit-trial","258","1590590","0.0-144.0","battery-v0.2","","""event"",""trial"",""time""
""fullscreenenter"",""1"",""5246""
","
","
","""event"",""trial"",""time""
""fullscreenenter"",""1"",""5246""
","
","","","939.5","","","15","10105","2431","e","elianto","#f73b6a7A"," "," ","1","0","[1790.3999996185303]","1","2","","","10105","140","7","3","lose","go","0"
"pit-instructions","259","1899963","0.0-145.0","battery-v0.2","","""event"",""trial"",""time""
""fullscreenenter"",""1"",""5246""
","
","
","""event"",""trial"",""time""
""fullscreenenter"",""1"",""5246""
","
","","[{""page_index"":0,""viewing_time"":298146.39999961853},{""page_index"":1,""viewing_time"":11224.60000038147}]","309371.39999961853","","","","","","","","","","","","","","","","","","","","","","","",""
"pit-trial","260","1903852","0.0-146.0","battery-v0.2","","""event"",""trial"",""time""
""fullscreenenter"",""1"",""5246""
","
","
","""event"",""trial"",""time""
""fullscreenenter"",""1"",""5246""
","
","","","1028.6999988555908","","","15","10105","2431","y","elianto","#f73b6a7A"," "," ","1","0","[1881.2999992370605]","1","3","","","10105","141","2","3","lose","go","0"
"pit-trial","261","1908721","0.0-147.0","battery-v0.2","","""event"",""trial"",""time""
""fullscreenenter"",""1"",""5246""
","
","
","""event"",""trial"",""time""
""fullscreenenter"",""1"",""5246""
","
","","","-1","","","15","10105","2431","h","elianto","#f73b6a7A","-1","-1","1","0","[]","0","3","","","10105","142","3","4","lose","no-go","0"
"pit-trial","262","1912539","0.0-148.0","battery-v0.2","","""event"",""trial"",""time""
""fullscreenenter"",""1"",""5246""
","
","
","""event"",""trial"",""time""
""fullscreenenter"",""1"",""5246""
","
","","","959.7000007629395","","","15","10105","2431","r","elianto","#3366ff99","-1"," ","0","+10","[1814.5]","1","3","","","10105","143","1","2","win","no-go","1"
"pit-trial","263","1916841","0.0-149.0","battery-v0.2","","""event"",""trial"",""time""
""fullscreenenter"",""1"",""5246""
","
","
","""event"",""trial"",""time""
""fullscreenenter"",""1"",""5246""
","
","","","1437.900001525879","","","15","10105","2431","m","elianto","#f73b6a7A"," "," ","1","-10","[2289.900001525879]","1","3","","","10105","144","0","3","lose","go","1"
"pit-trial","264","1921703","0.0-150.0","battery-v0.2","","""event"",""trial"",""time""
""fullscreenenter"",""1"",""5246""
","
","
","""event"",""trial"",""time""
""fullscreenenter"",""1"",""5246""
","
","","","-1","","","15","10105","2431","m","elianto","#f73b6a7A"," ","-1","0","0","[]","0","3","","","10105","145","0","3","lose","go","1"
"pit-trial","265","1926447","0.0-151.0","battery-v0.2","","""event"",""trial"",""time""
""fullscreenenter"",""1"",""5246""
","
","
","""event"",""trial"",""time""
""fullscreenenter"",""1"",""5246""
","
","","","1881.1000003814697","","","15","10105","2431","h","elianto","#f73b6a7A","-1"," ","0","-10","[2735.300001144409]","1","3","","","10105","146","3","4","lose","no-go","0"
"pit-trial","266","1930277","0.0-152.0","battery-v0.2","","""event"",""trial"",""time""
""fullscreenenter"",""1"",""5246""
","
","
","""event"",""trial"",""time""
""fullscreenenter"",""1"",""5246""
","
