"trial_type","trial_index","time_elapsed","internal_node_id","task_version","subject_id","interactions","blur_events","focus_events","fullscreenenter_events","fullscreenexit_events","success","view_history","rt","responses","num_errors","age","subject","participantId","rune","rune_set","hex","correct","choice","accuracy","outcome","keys","total_keys","block","practice","value","sub","trial","stimulus","robot","valence","action","sham"
"pavlovia","0","101","0.0-0.0","battery-v0.2","","""event"",""trial"",""time""
""fullscreenenter"",""1"",""2309""
","
","
","""event"",""trial"",""time""
""fullscreenenter"",""1"",""2309""
","
","","","","","","","","","","","","","","","","","","","","","","","","","","",""
"fullscreen","1","3291","0.0-1.0","battery-v0.2","","""event"",""trial"",""time""
""fullscreenenter"",""1"",""2309""
","
","
","""event"",""trial"",""time""
""fullscreenenter"",""1"",""2309""
","
","true","","","","","","","","","","","","","","","","","","","","","","","","","",""
"pit-instructions","2","11545","0.0-2.0-0.0","battery-v0.2","","""event"",""trial"",""time""
""fullscreenenter"",""1"",""2309""
","
","
","""event"",""trial"",""time""
""fullscreenenter"",""1"",""2309""
","
","","[{""page_index"":0,""viewing_time"":8245.299999982119}]","8247.40000000596","","","","","","","","","","","","","","","","","","","","","","","",""
"pit-comprehension","3","15343","0.0-2.0-1.0-0.0","battery-v0.2","","""event"",""trial"",""time""
""fullscreenenter"",""1"",""2309""
","
","
","""event"",""trial"",""time""
""fullscreenenter"",""1"",""2309""
","
","","","3789.800000011921","[""shark""]","0","25","4537","3207","","","","","","","","","","","","","","","","","","",""
"pit-instructions","4","18699","0.0-2.0-1.0-1.0","battery-v0.2","","""event"",""trial"",""time""
""fullscreenenter"",""1"",""2309""
","
","
","""event"",""trial"",""time""
""fullscreenenter"",""1"",""2309""
","
","","[{""page_index"":0,""viewing_time"":3333.4000000059605}]","3333.9000000059605","","","","","","","","","","","","","","","","","","","","","","","",""
"pit-comprehension","5","21230","0.0-2.0-2.0-0.0","battery-v0.2","","""event"",""trial"",""time""
""fullscreenenter"",""1"",""2309""
","
","
","""event"",""trial"",""time""
""fullscreenenter"",""1"",""2309""
","
","","","2522.199999988079","[""tiger""]","0","25","4537","3207","","","","","","","","","","","","","","","","","","",""
"pit-instructions","6","22225","0.0-2.0-2.0-1.0","battery-v0.2","","""event"",""trial"",""time""
""fullscreenenter"",""1"",""2309""
","
","
","""event"",""trial"",""time""
""fullscreenenter"",""1"",""2309""
","
","","[{""page_index"":0,""viewing_time"":988.3000000119209}]","988.8000000119209","","","","","","","","","","","","","","","","","","","","","","","",""
"pit-instructions","7","121942","0.0-2.0-3.0","battery-v0.2","","""event"",""trial"",""time""
""fullscreenenter"",""1"",""2309""
","
","
","""event"",""trial"",""time""
""fullscreenenter"",""1"",""2309""
","
","","[{""page_index"":0,""viewing_time"":8640.299999982119},{""page_index"":1,""viewing_time"":6772.5},{""page_index"":2,""viewing_time"":8031.700000017881},{""page_index"":3,""viewing_time"":5724.0999999940395},{""page_index"":4,""viewing_time"":7280},{""page_index"":5,""viewing_time"":5571.799999982119},{""page_index"":6,""viewing_time"":7424.100000023842},{""page_index"":7,""viewing_time"":8201},{""page_index"":8,""viewing_time"":6462.5},{""page_index"":9,""viewing_time"":7898.5999999940395},{""page_index"":10,""viewing_time"":7082.299999982119},{""page_index"":11,""viewing_time"":7886.600000023842},{""page_index"":12,""viewing_time"":7337.399999976158},{""page_index"":13,""viewing_time"":5395.4000000059605}]","99710.19999998808","","","","","","","","","","","","","","","","","","","","","","","",""
"pit-trial","8","125495","0.0-2.0-4.0-0.0","battery-v0.2","","""event"",""trial"",""time""
""fullscreenenter"",""1"",""2309""
","
","
","""event"",""trial"",""time""
""fullscreenenter"",""1"",""2309""
","
","","","687.9000000059605","","","25","4537","3207","&#9784;","elianto","#FFFFF080"," "," ","1","&#10004","[1541]","1","0","0","","","","","","","",""
"pit-trial","9","128848","0.0-2.0-4.1-0.1","battery-v0.2","","""event"",""trial"",""time""
""fullscreenenter"",""1"",""2309""
","
","
","""event"",""trial"",""time""
""fullscreenenter"",""1"",""2309""
","
","","","490.59999999403954","","","25","4537","3207","&#9784;","elianto","#FFFFF080"," "," ","1","&#10004","[1340.800000011921]","1","0","0","","","","","","","",""
"pit-trial","10","132263","0.0-2.0-4.2-0.2","battery-v0.2","","""event"",""trial"",""time""
""fullscreenenter"",""1"",""2309""
","
","
","""event"",""trial"",""time""
""fullscreenenter"",""1"",""2309""
","
","","","557.6000000238419","","","25","4537","3207","&#9784;","elianto","#FFFFF080"," "," ","1","&#10004","[1407.8999999761581]","1","0","0","","","","","","","",""
"pit-trial","11","135665","0.0-2.0-4.3-0.3","battery-v0.2","","""event"",""trial"",""time""
""fullscreenenter"",""1"",""2309""
","
","
","""event"",""trial"",""time""
""fullscreenenter"",""1"",""2309""
","
","","","541.3000000119209","","","25","4537","3207","&#9784;","elianto","#FFFFF080"," "," ","1","&#10004","[1393.0999999940395]","1","0","0","","","","","","","",""
"pit-trial","12","139328","0.0-2.0-4.4-0.4","battery-v0.2","","""event"",""trial"",""time""
""fullscreenenter"",""1"",""2309""
","
","
","""event"",""trial"",""time""
""fullscreenenter"",""1"",""2309""
","
","","","801.9000000059605","","","25","4537","3207","&#9784;","elianto","#FFFFF080"," "," ","1","&#10004","[1655.3999999761581]","1","0","0","","","","","","","",""
"pit-instructions","13","161401","0.0-2.0-5.0","battery-v0.2","","""event"",""trial"",""time""
""fullscreenenter"",""1"",""2309""
","
","
","""event"",""trial"",""time""
""fullscreenenter"",""1"",""2309""
","
","","[{""page_index"":0,""viewing_time"":5585.5},{""page_index"":1,""viewing_time"":5983.4000000059605},{""page_index"":2,""viewing_time"":5354.5999999940395},{""page_index"":3,""viewing_time"":5142}]","22066.20000001788","","","","","","","","","","","","","","","","","","","","","","","",""
"pit-trial","14","166262","0.0-2.0-6.0-0.0","battery-v0.2","","""event"",""trial"",""time""
""fullscreenenter"",""1"",""2309""
","
","
","""event"",""trial"",""time""
""fullscreenenter"",""1"",""2309""
","
","","","-1","","","25","4537","3207","&#9854;","elianto","#FFFFF080","-1","-1","1","&#10004","[]","0","0","1","","","","","","","",""
"pit-trial","15","171127","0.0-2.0-6.1-0.1","battery-v0.2","","""event"",""trial"",""time""
""fullscreenenter"",""1"",""2309""
","
","
","""event"",""trial"",""time""
""fullscreenenter"",""1"",""2309""
","
","","","-1","","","25","4537","3207","&#9854;","elianto","#FFFFF080","-1","-1","1","&#10004","[]","0","0","1","","","","","","","",""
"pit-trial","16","175986","0.0-2.0-6.2-0.2","battery-v0.2","","""event"",""trial"",""time""
""fullscreenenter"",""1"",""2309""
","
","
","""event"",""trial"",""time""
""fullscreenenter"",""1"",""2309""
","
","","","-1","","","25","4537","3207","&#9854;","elianto","#FFFFF080","-1","-1","1","&#10004","[]","0","0","1","","","","","","","",""
"pit-trial","17","180844","0.0-2.0-6.3-0.3","battery-v0.2","","""event"",""trial"",""time""
""fullscreenenter"",""1"",""2309""
","
","
","""event"",""trial"",""time""
""fullscreenenter"",""1"",""2309""
","
","","","-1","","","25","4537","3207","&#9854;","elianto","#FFFFF080","-1","-1","1","&#10004","[]","0","0","1","","","","","","","",""
"pit-trial","18","185703","0.0-2.0-6.4-0.4","battery-v0.2","","""event"",""trial"",""time""
""fullscreenenter"",""1"",""2309""
","
","
","""event"",""trial"",""time""
""fullscreenenter"",""1"",""2309""
","
","","","-1","","","25","4537","3207","&#9854;","elianto","#FFFFF080","-1","-1","1","&#10004","[]","0","0","1","","","","","","","",""
"pit-instructions","19","306842","0.0-2.0-7.0","battery-v0.2","","""event"",""trial"",""time""
""fullscreenenter"",""1"",""2309""
","
","
","""event"",""trial"",""time""
""fullscreenenter"",""1"",""2309""
","
","","[{""page_index"":0,""viewing_time"":5777.0999999940395},{""page_index"":1,""viewing_time"":9435.5},{""page_index"":2,""viewing_time"":7376.300000011921},{""page_index"":3,""viewing_time"":6995.899999976158},{""page_index"":4,""viewing_time"":5508.200000017881},{""page_index"":5,""viewing_time"":5835.9000000059605},{""page_index"":6,""viewing_time"":4664.699999988079},{""page_index"":7,""viewing_time"":8431.199999988079},{""page_index"":8,""viewing_time"":7511.9000000059605},{""page_index"":9,""viewing_time"":6080.200000017881},{""page_index"":10,""viewing_time"":6452},{""page_index"":11,""viewing_time"":4686},{""page_index"":12,""viewing_time"":6869.5},{""page_index"":13,""viewing_time"":7170.399999976158},{""page_index"":14,""viewing_time"":7670.100000023842},{""page_index"":15,""viewing_time"":6972.299999982119},{""page_index"":16,""viewing_time"":6389.5999999940395},{""page_index"":17,""viewing_time"":7302.200000017881}]","121130.69999998808","","","","","","","","","","","","","","","","","","","","","","","",""
"pit-trial","20","310415","0.0-2.0-8.0-0.0","battery-v0.2","","""event"",""trial"",""time""
""fullscreenenter"",""1"",""2309""
","
","
","""event"",""trial"",""time""
""fullscreenenter"",""1"",""2309""
","
","","","714.8000000119209","","","25","4537","3207","&#9776;","elianto","#3366ff99"," "," ","1","+10","[1565.699999988079]","1","0","1","","","","","","","",""
"pit-trial","21","313968","0.0-2.0-8.0-1.0","battery-v0.2","","""event"",""trial"",""time""
""fullscreenenter"",""1"",""2309""
","
","
","""event"",""trial"",""time""
""fullscreenenter"",""1"",""2309""
","
","","","693.9000000059605","","","25","4537","3207","&#9776;","elianto","#3366ff99"," "," ","1","+10","[1544.0999999940395]","1","0","1","","","","","","","",""
"pit-trial","22","317491","0.0-2.0-8.0-2.0","battery-v0.2","","""event"",""trial"",""time""
""fullscreenenter"",""1"",""2309""
","
","
","""event"",""trial"",""time""
""fullscreenenter"",""1"",""2309""
","
","","","668.2999999821186","","","25","4537","3207","&#9776;","elianto","#3366ff99"," "," ","1","+10","[1518.699999988079]","1","0","1","","","","","","","",""
"pit-trial","23","320980","0.0-2.0-8.0-3.0","battery-v0.2","","""event"",""trial"",""time""
""fullscreenenter"",""1"",""2309""
","
","
","""event"",""trial"",""time""
""fullscreenenter"",""1"",""2309""
","
","","","632.7000000178814","","","25","4537","3207","&#9776;","elianto","#3366ff99"," "," ","1","0","[1483.4000000059605]","1","0","1","","","","","","","",""
"pit-trial","24","324474","0.0-2.0-8.0-4.0","battery-v0.2","","""event"",""trial"",""time""
""fullscreenenter"",""1"",""2309""
","
","
","""event"",""trial"",""time""
""fullscreenenter"",""1"",""2309""
","
","","","640.7999999821186","","","25","4537","3207","&#9776;","elianto","#3366ff99"," "," ","1","+10","[1490.7999999821186]","1","0","1","","","","","","","",""
"pit-trial","25","327935","0.0-2.0-8.1-0.1","battery-v0.2","","""event"",""trial"",""time""
""fullscreenenter"",""1"",""2309""
","
","
","""event"",""trial"",""time""
""fullscreenenter"",""1"",""2309""
","
","","","596.5","","","25","4537","3207","&#9776;","elianto","#3366ff99"," "," ","1","+10","[1448]","1","0","1","","","","","","","",""
"pit-trial","26","331476","0.0-2.0-8.1-1.1","battery-v0.2","","""event"",""trial"",""time""
""fullscreenenter"",""1"",""2309""
","
","
","""event"",""trial"",""time""
""fullscreenenter"",""1"",""2309""
","
","","","685","","","25","4537","3207","&#9776;","elianto","#3366ff99"," "," ","1","+10","[1535.5]","1","0","1","","","","","","","",""
"pit-trial","27","335082","0.0-2.0-8.1-2.1","battery-v0.2","","""event"",""trial"",""time""
""fullscreenenter"",""1"",""2309""
","
","
","""event"",""trial"",""time""
""fullscreenenter"",""1"",""2309""
","
","","","752.7000000178814","","","25","4537","3207","&#9776;","elianto","#3366ff99"," "," ","1","+10","[1603.1000000238419]","1","0","1","","","","","","","",""
"pit-trial","28","338570","0.0-2.0-8.1-3.1","battery-v0.2","","""event"",""trial"",""time""
""fullscreenenter"",""1"",""2309""
","
","
","""event"",""trial"",""time""
""fullscreenenter"",""1"",""2309""
","
","","","632.2999999821186","","","25","4537","3207","&#9776;","elianto","#3366ff99"," "," ","1","0","[1484]","1","0","1","","","","","","","",""
"pit-trial","29","342134","0.0-2.0-8.1-4.1","battery-v0.2","","""event"",""trial"",""time""
""fullscreenenter"",""1"",""2309""
","
","
","""event"",""trial"",""time""
""fullscreenenter"",""1"",""2309""
","
","","","705.7999999821186","","","25","4537","3207","&#9776;","elianto","#3366ff99"," "," ","1","+10","[1556]","1","0","1","","","","","","","",""
"pit-trial","30","345693","0.0-2.0-8.2-0.2","battery-v0.2","","""event"",""trial"",""time""
""fullscreenenter"",""1"",""2309""
","
","
","""event"",""trial"",""time""
""fullscreenenter"",""1"",""2309""
","
","","","698.2000000178814","","","25","4537","3207","&#9776;","elianto","#3366ff99"," "," ","1","+10","[1548.800000011921]","1","0","1","","","","","","","",""
"pit-trial","31","349082","0.0-2.0-8.2-1.2","battery-v0.2","","""event"",""trial"",""time""
""fullscreenenter"",""1"",""2309""
","
","
","""event"",""trial"",""time""
""fullscreenenter"",""1"",""2309""
","
","","","532.5999999940395","","","25","4537","3207","&#9776;","elianto","#3366ff99"," "," ","1","+10","[1385.2999999821186]","1","0","1","","","","","","","",""
"pit-trial","32","352461","0.0-2.0-8.2-2.2","battery-v0.2","","""event"",""trial"",""time""
""fullscreenenter"",""1"",""2309""
","
","
","""event"",""trial"",""time""
""fullscreenenter"",""1"",""2309""
","
","","","521.1999999880791","","","25","4537","3207","&#9776;","elianto","#3366ff99"," "," ","1","+10","[1372.5999999940395]","1","0","1","","","","","","","",""
"pit-trial","33","355822","0.0-2.0-8.2-3.2","battery-v0.2","","""event"",""trial"",""time""
""fullscreenenter"",""1"",""2309""
","
","
","""event"",""trial"",""time""
""fullscreenenter"",""1"",""2309""
","
","","","502.60000002384186","","","25","4537","3207","&#9776;","elianto","#3366ff99"," "," ","1","0","[1353.2000000178814]","1","0","1","","","","","","","",""
"pit-trial","34","359181","0.0-2.0-8.2-4.2","battery-v0.2","","""event"",""trial"",""time""
""fullscreenenter"",""1"",""2309""
","
","
","""event"",""trial"",""time""
""fullscreenenter"",""1"",""2309""
","
","","","501.19999998807907","","","25","4537","3207","&#9776;","elianto","#3366ff99"," "," ","1","+10","[1352.2000000178814]","1","0","1","","","","","","","",""
"call-function","35","359186","0.0-2.0-9.0","battery-v0.2","","""event"",""trial"",""time""
""fullscreenenter"",""1"",""2309""
","
","
","""event"",""trial"",""time""
""fullscreenenter"",""1"",""2309""
","
","","","","","","","","","","","","","","","","","","","","","","","","","","",""
"pit-instructions","36","400905","0.0-2.0-10.0","battery-v0.2","","""event"",""trial"",""time""
""fullscreenenter"",""1"",""2309""
","
","
","""event"",""trial"",""time""
""fullscreenenter"",""1"",""2309""
","
","","[{""page_index"":0,""viewing_time"":6131.299999982119},{""page_index"":1,""viewing_time"":7905.800000011921},{""page_index"":2,""viewing_time"":9854.40000000596},{""page_index"":3,""viewing_time"":9211.199999988079},{""page_index"":4,""viewing_time"":8614.700000017881}]","41718.09999999404","","","","","","","","","","","","","","","","","","","","","","","",""
"pit-trial","37","404354","0.0-2.0-11.0-0.0","battery-v0.2","","""event"",""trial"",""time""
""fullscreenenter"",""1"",""2309""
","
","
","""event"",""trial"",""time""
""fullscreenenter"",""1"",""2309""
","
","","","593.2999999821186","","","25","4537","3207","&#9761;","elianto","#3366ff99","-1"," ","0","0","[1444.199999988079]","1","0","2","","","","","","","",""
"pit-trial","38","407876","0.0-2.0-11.0-1.0","battery-v0.2","","""event"",""trial"",""time""
""fullscreenenter"",""1"",""2309""
","
","
","""event"",""trial"",""time""
""fullscreenenter"",""1"",""2309""
","
","","","664.3000000119209","","","25","4537","3207","&#9761;","elianto","#3366ff99","-1"," ","0","0","[1514.800000011921]","1","0","2","","","","","","","",""
"pit-trial","39","412738","0.0-2.0-11.0-2.0","battery-v0.2","","""event"",""trial"",""time""
""fullscreenenter"",""1"",""2309""
","
","
","""event"",""trial"",""time""
""fullscreenenter"",""1"",""2309""
","
","","","-1","","","25","4537","3207","&#9761;","elianto","#3366ff99","-1","-1","1","+10","[]","0","0","2","","","","","","","",""
"pit-trial","40","417594","0.0-2.0-11.0-3.0","battery-v0.2","","""event"",""trial"",""time""
""fullscreenenter"",""1"",""2309""
","
","
","""event"",""trial"",""time""
""fullscreenenter"",""1"",""2309""
","
","","","-1","","","25","4537","3207","&#9761;","elianto","#3366ff99","-1","-1","1","0","[]","0","0","2","","","","","","","",""
"pit-trial","41","422455","0.0-2.0-11.0-4.0","battery-v0.2","","""event"",""trial"",""time""
""fullscreenenter"",""1"",""2309""
","
","
","""event"",""trial"",""time""
""fullscreenenter"",""1"",""2309""
","
","","","-1","","","25","4537","3207","&#9761;","elianto","#3366ff99","-1","-1","1","+10","[]","0","0","2","","","","","","","",""
"pit-trial","42","427318","0.0-2.0-11.1-0.1","battery-v0.2","","""event"",""trial"",""time""
""fullscreenenter"",""1"",""2309""
","
","
","""event"",""trial"",""time""
""fullscreenenter"",""1"",""2309""
","
","","","-1","","","25","4537","3207","&#9761;","elianto","#3366ff99","-1","-1","1","+10","[]","0","0","2","","","","","","","",""
"pit-trial","43","431030","0.0-2.0-11.1-1.1","battery-v0.2","","""event"",""trial"",""time""
""fullscreenenter"",""1"",""2309""
","
","
","""event"",""trial"",""time""
""fullscreenenter"",""1"",""2309""
","
","","","856.5","","","25","4537","3207","&#9761;","elianto","#3366ff99","-1"," ","0","0","[1706.699999988079]","1","0","2","","","","","","","",""
"pit-trial","44","434489","0.0-2.0-11.1-2.1","battery-v0.2","","""event"",""trial"",""time""
""fullscreenenter"",""1"",""2309""
","
","
","""event"",""trial"",""time""
""fullscreenenter"",""1"",""2309""
","
","","","603.2999999821186","","","25","4537","3207","&#9761;","elianto","#3366ff99","-1"," ","0","0","[1454.2999999821186]","1","0","2","","","","","","","",""
"pit-trial","45","437809","0.0-2.0-11.1-3.1","battery-v0.2","","""event"",""trial"",""time""
""fullscreenenter"",""1"",""2309""
","
","
","""event"",""trial"",""time""
""fullscreenenter"",""1"",""2309""
","
","","","464.5","","","25","4537","3207","&#9761;","elianto","#3366ff99","-1"," ","0","+10","[1314.7000000178814]","1","0","2","","","","","","","",""
"pit-trial","46","441274","0.0-2.0-11.1-4.1","battery-v0.2","","""event"",""trial"",""time""
""fullscreenenter"",""1"",""2309""
","
","
","""event"",""trial"",""time""
""fullscreenenter"",""1"",""2309""
","
","","","609.4000000059605","","","25","4537","3207","&#9761;","elianto","#3366ff99","-1"," ","0","0","[1459.5999999940395]","1","0","2","","","","","","","",""
"pit-trial","47","444664","0.0-2.0-11.2-0.2","battery-v0.2","","""event"",""trial"",""time""
""fullscreenenter"",""1"",""2309""
","
","
","""event"",""trial"",""time""
""fullscreenenter"",""1"",""2309""
","
","","","534.9000000059605","","","25","4537","3207","&#9761;","elianto","#3366ff99","-1"," ","0","0","[1385.4000000059605]","1","0","2","","","","","","","",""
"pit-trial","48","449523","0.0-2.0-11.2-1.2","battery-v0.2","","""event"",""trial"",""time""
""fullscreenenter"",""1"",""2309""
","
","
","""event"",""trial"",""time""
""fullscreenenter"",""1"",""2309""
","
","","","-1","","","25","4537","3207","&#9761;","elianto","#3366ff99","-1","-1","1","+10","[]","0","0","2","","","","","","","",""
"pit-trial","49","454382","0.0-2.0-11.2-2.2","battery-v0.2","","""event"",""trial"",""time""
""fullscreenenter"",""1"",""2309""
","
","
","""event"",""trial"",""time""
""fullscreenenter"",""1"",""2309""
","
","","","-1","","","25","4537","3207","&#9761;","elianto","#3366ff99","-1","-1","1","+10","[]","0","0","2","","","","","","","",""
"pit-trial","50","459242","0.0-2.0-11.2-3.2","battery-v0.2","","""event"",""trial"",""time""
""fullscreenenter"",""1"",""2309""
","
","
","""event"",""trial"",""time""
""fullscreenenter"",""1"",""2309""
","
","","","-1","","","25","4537","3207","&#9761;","elianto","#3366ff99","-1","-1","1","0","[]","0","0","2","","","","","","","",""
"pit-trial","51","464099","0.0-2.0-11.2-4.2","battery-v0.2","","""event"",""trial"",""time""
""fullscreenenter"",""1"",""2309""
","
","
","""event"",""trial"",""time""
""fullscreenenter"",""1"",""2309""
","
","","","-1","","","25","4537","3207","&#9761;","elianto","#3366ff99","-1","-1","1","+10","[]","0","0","2","","","","","","","",""
"pit-trial","52","468958","0.0-2.0-11.3-0.3","battery-v0.2","","""event"",""trial"",""time""
""fullscreenenter"",""1"",""2309""
","
","
","""event"",""trial"",""time""
""fullscreenenter"",""1"",""2309""
","
","","","-1","","","25","4537","3207","&#9761;","elianto","#3366ff99","-1","-1","1","+10","[]","0","0","2","","","","","","","",""
"pit-trial","53","473817","0.0-2.0-11.3-1.3","battery-v0.2","","""event"",""trial"",""time""
""fullscreenenter"",""1"",""2309""
","
","
","""event"",""trial"",""time""
""fullscreenenter"",""1"",""2309""
","
","","","-1","","","25","4537","3207","&#9761;","elianto","#3366ff99","-1","-1","1","+10","[]","0","0","2","","","","","","","",""
"pit-trial","54","478124","0.0-2.0-11.3-2.3","battery-v0.2","","""event"",""trial"",""time""
""fullscreenenter"",""1"",""2309""
","
","
","""event"",""trial"",""time""
""fullscreenenter"",""1"",""2309""
","
","","","1449.7999999821186","","","25","4537","3207","&#9761;","elianto","#3366ff99","-1"," ","0","0","[2300.0999999940395]","1","0","2","","","","","","","",""
"pit-trial","55","481554","0.0-2.0-11.3-3.3","battery-v0.2","","""event"",""trial"",""time""
""fullscreenenter"",""1"",""2309""
","
","
","""event"",""trial"",""time""
""fullscreenenter"",""1"",""2309""
","
","","","574","","","25","4537","3207","&#9761;","elianto","#3366ff99","-1"," ","0","+10","[1424.2999999821186]","1","0","2","","","","","","","",""
"pit-trial","56","485015","0.0-2.0-11.3-4.3","battery-v0.2","","""event"",""trial"",""time""
""fullscreenenter"",""1"",""2309""
","
","
","""event"",""trial"",""time""
""fullscreenenter"",""1"",""2309""
","
","","","607.3000000119209","","","25","4537","3207","&#9761;","elianto","#3366ff99","-1"," ","0","0","[1458]","1","0","2","","","","","","","",""
"call-function","57","485018","0.0-2.0-12.0","battery-v0.2","","""event"",""trial"",""time""
""fullscreenenter"",""1"",""2309""
","
","
","""event"",""trial"",""time""
""fullscreenenter"",""1"",""2309""
","
","","","","","","","","","","","","","","","","","","","","","","","","","","",""
"pit-instructions","58","517516","0.0-2.0-13.0","battery-v0.2","","""event"",""trial"",""time""
""fullscreenenter"",""1"",""2309""
","
","
","""event"",""trial"",""time""
""fullscreenenter"",""1"",""2309""
","
","","[{""page_index"":0,""viewing_time"":5913.699999988079},{""page_index"":1,""viewing_time"":7376},{""page_index"":2,""viewing_time"":3504.4000000059605},{""page_index"":3,""viewing_time"":10889.09999999404},{""page_index"":4,""viewing_time"":4812.800000011921}]","32496.80000001192","","","","","","","","","","","","","","","","","","","","","","","",""
"pit-trial","59","520968","0.0-2.0-14.0-0.0","battery-v0.2","","""event"",""trial"",""time""
""fullscreenenter"",""1"",""2309""
","
","
","""event"",""trial"",""time""
""fullscreenenter"",""1"",""2309""
","
","","","597.5999999940395","","","25","4537","3207","&#9826;","elianto","#f73b6a7A","-1"," ","0","-10","[1448]","1","0","3","","","","","","","",""
"pit-trial","60","525266","0.0-2.0-14.0-1.0","battery-v0.2","","""event"",""trial"",""time""
""fullscreenenter"",""1"",""2309""
","
","
","""event"",""trial"",""time""
""fullscreenenter"",""1"",""2309""
","
","","","1441.9000000059605","","","25","4537","3207","&#9826;","elianto","#f73b6a7A","-1"," ","0","-10","[2292.2000000178814]","1","0","3","","","","","","","",""
"pit-trial","61","530121","0.0-2.0-14.0-2.0","battery-v0.2","","""event"",""trial"",""time""
""fullscreenenter"",""1"",""2309""
","
","
","""event"",""trial"",""time""
""fullscreenenter"",""1"",""2309""
","
","","","-1","","","25","4537","3207","&#9826;","elianto","#f73b6a7A","-1","-1","1","0","[]","0","0","3","","","","","","","",""
"pit-trial","62","534981","0.0-2.0-14.0-3.0","battery-v0.2","","""event"",""trial"",""time""
""fullscreenenter"",""1"",""2309""
","
","
","""event"",""trial"",""time""
""fullscreenenter"",""1"",""2309""
","
","","","-1","","","25","4537","3207","&#9826;","elianto","#f73b6a7A","-1","-1","1","-10","[]","0","0","3","","","","","","","",""
"pit-trial","63","539840","0.0-2.0-14.0-4.0","battery-v0.2","","""event"",""trial"",""time""
""fullscreenenter"",""1"",""2309""
","
","
","""event"",""trial"",""time""
""fullscreenenter"",""1"",""2309""
","
","","","-1","","","25","4537","3207","&#9826;","elianto","#f73b6a7A","-1","-1","1","0","[]","0","0","3","","","","","","","",""
"pit-trial","64","544698","0.0-2.0-14.1-0.1","battery-v0.2","","""event"",""trial"",""time""
""fullscreenenter"",""1"",""2309""
","
","
","""event"",""trial"",""time""
""fullscreenenter"",""1"",""2309""
","
","","","-1","","","25","4537","3207","&#9826;","elianto","#f73b6a7A","-1","-1","1","0","[]","0","0","3","","","","","","","",""
"pit-trial","65","549558","0.0-2.0-14.1-1.1","battery-v0.2","","""event"",""trial"",""time""
""fullscreenenter"",""1"",""2309""
","
","
","""event"",""trial"",""time""
""fullscreenenter"",""1"",""2309""
","
","","","-1","","","25","4537","3207","&#9826;","elianto","#f73b6a7A","-1","-1","1","0","[]","0","0","3","","","","","","","",""
"pit-trial","66","554417","0.0-2.0-14.1-2.1","battery-v0.2","","""event"",""trial"",""time""
""fullscreenenter"",""1"",""2309""
","
","
","""event"",""trial"",""time""
""fullscreenenter"",""1"",""2309""
","
","","","-1","","","25","4537","3207","&#9826;","elianto","#f73b6a7A","-1","-1","1","0","[]","0","0","3","","","","","","","",""
"pit-trial","67","559276","0.0-2.0-14.1-3.1","battery-v0.2","","""event"",""trial"",""time""
""fullscreenenter"",""1"",""2309""
","
","
","""event"",""trial"",""time""
""fullscreenenter"",""1"",""2309""
","
","","","-1","","","25","4537","3207","&#9826;","elianto","#f73b6a7A","-1","-1","1","-10","[]","0","0","3","","","","","","","",""
"pit-trial","68","564134","0.0-2.0-14.1-4.1","battery-v0.2","","""event"",""trial"",""time""
""fullscreenenter"",""1"",""2309""
","
","
","""event"",""trial"",""time""
""fullscreenenter"",""1"",""2309""
","
","","","-1","","","25","4537","3207","&#9826;","elianto","#f73b6a7A","-1","-1","1","0","[]","0","0","3","","","","","","","",""
"pit-trial","69","568995","0.0-2.0-14.2-0.2","battery-v0.2","","""event"",""trial"",""time""
""fullscreenenter"",""1"",""2309""
","
","
","""event"",""trial"",""time""
""fullscreenenter"",""1"",""2309""
","
","","","-1","","","25","4537","3207","&#9826;","elianto","#f73b6a7A","-1","-1","1","0","[]","0","0","3","","","","","","","",""
"pit-trial","70","573852","0.0-2.0-14.2-1.2","battery-v0.2","","""event"",""trial"",""time""
""fullscreenenter"",""1"",""2309""
","
","
","""event"",""trial"",""time""
""fullscreenenter"",""1"",""2309""
","
","","","-1","","","25","4537","3207","&#9826;","elianto","#f73b6a7A","-1","-1","1","0","[]","0","0","3","","","","","","","",""
"pit-trial","71","578710","0.0-2.0-14.2-2.2","battery-v0.2","","""event"",""trial"",""time""
""fullscreenenter"",""1"",""2309""
","
","
","""event"",""trial"",""time""
""fullscreenenter"",""1"",""2309""
","
","","","-1","","","25","4537","3207","&#9826;","elianto","#f73b6a7A","-1","-1","1","0","[]","0","0","3","","","","","","","",""
"pit-trial","72","583569","0.0-2.0-14.2-3.2","battery-v0.2","","""event"",""trial"",""time""
""fullscreenenter"",""1"",""2309""
","
","
","""event"",""trial"",""time""
""fullscreenenter"",""1"",""2309""
","
","","","-1","","","25","4537","3207","&#9826;","elianto","#f73b6a7A","-1","-1","1","-10","[]","0","0","3","","","","","","","",""
"pit-trial","73","588428","0.0-2.0-14.2-4.2","battery-v0.2","","""event"",""trial"",""time""
""fullscreenenter"",""1"",""2309""
","
","
","""event"",""trial"",""time""
""fullscreenenter"",""1"",""2309""
","
","","","-1","","","25","4537","3207","&#9826;","elianto","#f73b6a7A","-1","-1","1","0","[]","0","0","3","","","","","","","",""
"pit-trial","74","593286","0.0-2.0-14.3-0.3","battery-v0.2","","""event"",""trial"",""time""
""fullscreenenter"",""1"",""2309""
","
","
","""event"",""trial"",""time""
""fullscreenenter"",""1"",""2309""
","
","","","-1","","","25","4537","3207","&#9826;","elianto","#f73b6a7A","-1","-1","1","0","[]","0","0","3","","","","","","","",""
"pit-trial","75","598145","0.0-2.0-14.3-1.3","battery-v0.2","","""event"",""trial"",""time""
""fullscreenenter"",""1"",""2309""
","
","
","""event"",""trial"",""time""
""fullscreenenter"",""1"",""2309""
","
","","","-1","","","25","4537","3207","&#9826;","elianto","#f73b6a7A","-1","-1","1","0","[]","0","0","3","","","","","","","",""
"pit-trial","76","603006","0.0-2.0-14.3-2.3","battery-v0.2","","""event"",""trial"",""time""
""fullscreenenter"",""1"",""2309""
","
","
","""event"",""trial"",""time""
""fullscreenenter"",""1"",""2309""
","
","","","-1","","","25","4537","3207","&#9826;","elianto","#f73b6a7A","-1","-1","1","0","[]","0","0","3","","","","","","","",""
"pit-trial","77","607863","0.0-2.0-14.3-3.3","battery-v0.2","","""event"",""trial"",""time""
""fullscreenenter"",""1"",""2309""
","
","
","""event"",""trial"",""time""
""fullscreenenter"",""1"",""2309""
","
","","","-1","","","25","4537","3207","&#9826;","elianto","#f73b6a7A","-1","-1","1","-10","[]","0","0","3","","","","","","","",""
"pit-trial","78","612721","0.0-2.0-14.3-4.3","battery-v0.2","","""event"",""trial"",""time""
""fullscreenenter"",""1"",""2309""
","
","
","""event"",""trial"",""time""
""fullscreenenter"",""1"",""2309""
","
","","","-1","","","25","4537","3207","&#9826;","elianto","#f73b6a7A","-1","-1","1","0","[]","0","0","3","","","","","","","",""
"call-function","79","612724","0.0-2.0-15.0","battery-v0.2","","""event"",""trial"",""time""
""fullscreenenter"",""1"",""2309""
","
","
","""event"",""trial"",""time""
""fullscreenenter"",""1"",""2309""
","
","","","","","","","","","","","","","","","","","","","","","","","","","","",""
"pit-instructions","80","637657","0.0-2.0-16.0","battery-v0.2","","""event"",""trial"",""time""
""fullscreenenter"",""1"",""2309""
","
","
","""event"",""trial"",""time""
""fullscreenenter"",""1"",""2309""
","
","","[{""page_index"":0,""viewing_time"":6694.800000011921},{""page_index"":1,""viewing_time"":8295},{""page_index"":2,""viewing_time"":4855.799999982119},{""page_index"":3,""viewing_time"":5086.200000017881}]","24932.30000001192","","","","","","","","","","","","","","","","","","","","","","","",""
"pit-trial","81","641113","0.0-2.0-17.0-0.0","battery-v0.2","","""event"",""trial"",""time""
""fullscreenenter"",""1"",""2309""
","
","
","""event"",""trial"",""time""
""fullscreenenter"",""1"",""2309""
","
","","","596","","","25","4537","3207","&#9789;","elianto","#f73b6a7A"," "," ","1","0","[1448.2000000178814]","1","0","4","","","","","","","",""
"pit-trial","82","644583","0.0-2.0-17.0-1.0","battery-v0.2","","""event"",""trial"",""time""
""fullscreenenter"",""1"",""2309""
","
","
","""event"",""trial"",""time""
""fullscreenenter"",""1"",""2309""
","
","","","613.5999999940395","","","25","4537","3207","&#9789;","elianto","#f73b6a7A"," "," ","1","0","[1465]","1","0","4","","","","","","","",""
"pit-trial","83","647992","0.0-2.0-17.0-2.0","battery-v0.2","","""event"",""trial"",""time""
""fullscreenenter"",""1"",""2309""
","
","
","""event"",""trial"",""time""
""fullscreenenter"",""1"",""2309""
","
","","","551.0999999940395","","","25","4537","3207","&#9789;","elianto","#f73b6a7A"," "," ","1","0","[1403]","1","0","4","","","","","","","",""
"pit-trial","84","652850","0.0-2.0-17.0-3.0","battery-v0.2","","""event"",""trial"",""time""
""fullscreenenter"",""1"",""2309""
","
","
","""event"",""trial"",""time""
""fullscreenenter"",""1"",""2309""
","
","","","-1","","","25","4537","3207","&#9789;","elianto","#f73b6a7A"," ","-1","0","0","[]","0","0","4","","","","","","","",""
"pit-trial","85","657709","0.0-2.0-17.0-4.0","battery-v0.2","","""event"",""trial"",""time""
""fullscreenenter"",""1"",""2309""
","
","
","""event"",""trial"",""time""
""fullscreenenter"",""1"",""2309""
","
","","","-1","","","25","4537","3207","&#9789;","elianto","#f73b6a7A"," ","-1","0","-10","[]","0","0","4","","","","","","","",""
"pit-trial","86","662568","0.0-2.0-17.1-0.1","battery-v0.2","","""event"",""trial"",""time""
""fullscreenenter"",""1"",""2309""
","
","
","""event"",""trial"",""time""
""fullscreenenter"",""1"",""2309""
","
","","","-1","","","25","4537","3207","&#9789;","elianto","#f73b6a7A"," ","-1","0","-10","[]","0","0","4","","","","","","","",""
"pit-trial","87","667428","0.0-2.0-17.1-1.1","battery-v0.2","","""event"",""trial"",""time""
""fullscreenenter"",""1"",""2309""
","
","
","""event"",""trial"",""time""
""fullscreenenter"",""1"",""2309""
","
","","","-1","","","25","4537","3207","&#9789;","elianto","#f73b6a7A"," ","-1","0","-10","[]","0","0","4","","","","","","","",""
"pit-trial","88","671584","0.0-2.0-17.1-2.1","battery-v0.2","","""event"",""trial"",""time""
""fullscreenenter"",""1"",""2309""
","
","
","""event"",""trial"",""time""
""fullscreenenter"",""1"",""2309""
","
","","","1298.9000000059605","","","25","4537","3207","&#9789;","elianto","#f73b6a7A"," "," ","1","0","[2149.4000000059605]","1","0","4","","","","","","","",""
"pit-trial","89","675189","0.0-2.0-17.1-3.1","battery-v0.2","","""event"",""trial"",""time""
""fullscreenenter"",""1"",""2309""
","
","
","""event"",""trial"",""time""
""fullscreenenter"",""1"",""2309""
","
","","","751","","","25","4537","3207","&#9789;","elianto","#f73b6a7A"," "," ","1","-10","[1601.2999999821186]","1","0","4","","","","","","","",""
"pit-trial","90","680048","0.0-2.0-17.1-4.1","battery-v0.2","","""event"",""trial"",""time""
""fullscreenenter"",""1"",""2309""
","
","
","""event"",""trial"",""time""
""fullscreenenter"",""1"",""2309""
","
","","","-1","","","25","4537","3207","&#9789;","elianto","#f73b6a7A"," ","-1","0","-10","[]","0","0","4","","","","","","","",""
"pit-trial","91","684907","0.0-2.0-17.2-0.2","battery-v0.2","","""event"",""trial"",""time""
""fullscreenenter"",""1"",""2309""
","
","
","""event"",""trial"",""time""
""fullscreenenter"",""1"",""2309""
","
","","","-1","","","25","4537","3207","&#9789;","elianto","#f73b6a7A"," ","-1","0","-10","[]","0","0","4","","","","","","","",""
"pit-trial","92","689765","0.0-2.0-17.2-1.2","battery-v0.2","","""event"",""trial"",""time""
""fullscreenenter"",""1"",""2309""
","
","
","""event"",""trial"",""time""
""fullscreenenter"",""1"",""2309""
","
","","","-1","","","25","4537","3207","&#9789;","elianto","#f73b6a7A"," ","-1","0","-10","[]","0","0","4","","","","","","","",""
"pit-trial","93","694624","0.0-2.0-17.2-2.2","battery-v0.2","","""event"",""trial"",""time""
""fullscreenenter"",""1"",""2309""
","
","
","""event"",""trial"",""time""
""fullscreenenter"",""1"",""2309""
","
","","","-1","","","25","4537","3207","&#9789;","elianto","#f73b6a7A"," ","-1","0","-10","[]","0","0","4","","","","","","","",""
"pit-trial","94","699483","0.0-2.0-17.2-3.2","battery-v0.2","","""event"",""trial"",""time""
""fullscreenenter"",""1"",""2309""
","
","
","""event"",""trial"",""time""
""fullscreenenter"",""1"",""2309""
","
","","","-1","","","25","4537","3207","&#9789;","elianto","#f73b6a7A"," ","-1","0","0","[]","0","0","4","","","","","","","",""
"pit-trial","95","704341","0.0-2.0-17.2-4.2","battery-v0.2","","""event"",""trial"",""time""
""fullscreenenter"",""1"",""2309""
","
","
","""event"",""trial"",""time""
""fullscreenenter"",""1"",""2309""
","
","","","-1","","","25","4537","3207","&#9789;","elianto","#f73b6a7A"," ","-1","0","-10","[]","0","0","4","","","","","","","",""
"pit-trial","96","709200","0.0-2.0-17.3-0.3","battery-v0.2","","""event"",""trial"",""time""
""fullscreenenter"",""1"",""2309""
","
","
","""event"",""trial"",""time""
""fullscreenenter"",""1"",""2309""
","
","","","-1","","","25","4537","3207","&#9789;","elianto","#f73b6a7A"," ","-1","0","-10","[]","0","0","4","","","","","","","",""
"pit-trial","97","714059","0.0-2.0-17.3-1.3","battery-v0.2","","""event"",""trial"",""time""
""fullscreenenter"",""1"",""2309""
","
","
","""event"",""trial"",""time""
""fullscreenenter"",""1"",""2309""
","
","","","-1","","","25","4537","3207","&#9789;","elianto","#f73b6a7A"," ","-1","0","-10","[]","0","0","4","","","","","","","",""
"pit-trial","98","718917","0.0-2.0-17.3-2.3","battery-v0.2","","""event"",""trial"",""time""
""fullscreenenter"",""1"",""2309""
","
","
","""event"",""trial"",""time""
""fullscreenenter"",""1"",""2309""
","
","","","-1","","","25","4537","3207","&#9789;","elianto","#f73b6a7A"," ","-1","0","-10","[]","0","0","4","","","","","","","",""
"pit-trial","99","723776","0.0-2.0-17.3-3.3","battery-v0.2","","""event"",""trial"",""time""
""fullscreenenter"",""1"",""2309""
","
","
","""event"",""trial"",""time""
""fullscreenenter"",""1"",""2309""
","
","","","-1","","","25","4537","3207","&#9789;","elianto","#f73b6a7A"," ","-1","0","0","[]","0","0","4","","","","","","","",""
"pit-trial","100","728634","0.0-2.0-17.3-4.3","battery-v0.2","","""event"",""trial"",""time""
""fullscreenenter"",""1"",""2309""
","
","
","""event"",""trial"",""time""
""fullscreenenter"",""1"",""2309""
","
","","","-1","","","25","4537","3207","&#9789;","elianto","#f73b6a7A"," ","-1","0","-10","[]","0","0","4","","","","","","","",""
"call-function","101","728637","0.0-2.0-18.0","battery-v0.2","","""event"",""trial"",""time""
""fullscreenenter"",""1"",""2309""
","
","
","""event"",""trial"",""time""
""fullscreenenter"",""1"",""2309""
","
","","","","","","","","","","","","","","","","","","","","","","","","","","",""
"pit-instructions","102","805091","0.0-2.0-19.0","battery-v0.2","","""event"",""trial"",""time""
""fullscreenenter"",""1"",""2309""
","
","
","""event"",""trial"",""time""
""fullscreenenter"",""1"",""2309""
","
","","[{""page_index"":0,""viewing_time"":8406.199999988079},{""page_index"":1,""viewing_time"":8817.199999988079},{""page_index"":2,""viewing_time"":13838.800000011921},{""page_index"":3,""viewing_time"":8245.5},{""page_index"":4,""viewing_time"":8512.199999988079},{""page_index"":5,""viewing_time"":9168.300000011921},{""page_index"":6,""viewing_time"":8215.800000011921},{""page_index"":7,""viewing_time"":6868.199999988079},{""page_index"":8,""viewing_time"":4379.800000011921}]","76453.59999999404","","","","","","","","","","","","","","","","","","","","","","","",""
"pit-comprehension","103","809876","0.0-2.0-20.0-0.0","battery-v0.2","","""event"",""trial"",""time""
""fullscreenenter"",""1"",""2309""
","
","
","""event"",""trial"",""time""
""fullscreenenter"",""1"",""2309""
","
","","","4774.5999999940395","[""SPACE""]","0","25","4537","3207","","","","","","","","","","","","","","","","","","",""
"pit-instructions","104","812945","0.0-2.0-20.0-1.0","battery-v0.2","","""event"",""trial"",""time""
""fullscreenenter"",""1"",""2309""
","
","
","""event"",""trial"",""time""
""fullscreenenter"",""1"",""2309""
","
","","[{""page_index"":0,""viewing_time"":2982.300000011921}]","2982.9000000059605","","","","","","","","","","","","","","","","","","","","","","","",""
"pit-comprehension","105","820749","0.0-2.0-21.0-0.0","battery-v0.2","","""event"",""trial"",""time""
""fullscreenenter"",""1"",""2309""
","
","
","""event"",""trial"",""time""
""fullscreenenter"",""1"",""2309""
","
","","","7797.9000000059605","[""10""]","0","25","4537","3207","","","","","","","","","","","","","","","","","","",""
"pit-instructions","106","823356","0.0-2.0-21.0-1.0","battery-v0.2","","""event"",""trial"",""time""
""fullscreenenter"",""1"",""2309""
","
","
","""event"",""trial"",""time""
""fullscreenenter"",""1"",""2309""
","
","","[{""page_index"":0,""viewing_time"":2505.699999988079}]","2506.199999988079","","","","","","","","","","","","","","","","","","","","","","","",""
"pit-comprehension","107","831721","0.0-2.0-22.0-0.0","battery-v0.2","","""event"",""trial"",""time""
""fullscreenenter"",""1"",""2309""
","
","
","""event"",""trial"",""time""
""fullscreenenter"",""1"",""2309""
","
","","","8359.699999988079","[""-10""]","1","25","4537","3207","","","","","","","","","","","","","","","","","","",""
"pit-instructions","108","839912","0.0-2.0-22.0-1.0","battery-v0.2","","""event"",""trial"",""time""
""fullscreenenter"",""1"",""2309""
","
","
","""event"",""trial"",""time""
""fullscreenenter"",""1"",""2309""
","
","","[{""page_index"":0,""viewing_time"":8118.4000000059605}]","8119","","","","","","","","","","","","","","","","","","","","","","","",""
"pit-instructions","109","841917","0.0-2.0-22.0-2.0-0.0","battery-v0.2","","""event"",""trial"",""time""
""fullscreenenter"",""1"",""2309""
","
","
","""event"",""trial"",""time""
""fullscreenenter"",""1"",""2309""
","
","","[{""page_index"":0,""viewing_time"":2001.5}]","2002.2000000178814","","","","","","","","","","","","","","","","","","","","","","","",""
"pit-comprehension","110","848727","0.0-2.0-22.1-0.1","battery-v0.2","","""event"",""trial"",""time""
""fullscreenenter"",""1"",""2309""
","
","
","""event"",""trial"",""time""
""fullscreenenter"",""1"",""2309""
","
","","","6804.9000000059605","[""0""]","0","25","4537","3207","","","","","","","","","","","","","","","","","","",""
"pit-instructions","111","851056","0.0-2.0-22.1-1.1","battery-v0.2","","""event"",""trial"",""time""
""fullscreenenter"",""1"",""2309""
","
","
","""event"",""trial"",""time""
""fullscreenenter"",""1"",""2309""
","
","","[{""page_index"":0,""viewing_time"":2249.600000023842}]","2250","","","","","","","","","","","","","","","","","","","","","","","",""
"pit-comprehension","112","862109","0.0-2.0-23.0-0.0","battery-v0.2","","""event"",""trial"",""time""
""fullscreenenter"",""1"",""2309""
","
","
","""event"",""trial"",""time""
""fullscreenenter"",""1"",""2309""
","
","","","11046.40000000596","[""True""]","0","25","4537","3207","","","","","","","","","","","","","","","","","","",""
"pit-instructions","113","864450","0.0-2.0-23.0-1.0","battery-v0.2","","""event"",""trial"",""time""
""fullscreenenter"",""1"",""2309""
","
","
","""event"",""trial"",""time""
""fullscreenenter"",""1"",""2309""
","
","","[{""page_index"":0,""viewing_time"":2249.9000000059605}]","2250.300000011921","","","","","","","","","","","","","","","","","","","","","","","",""
"pit-comprehension","114","871927","0.0-2.0-24.0-0.0","battery-v0.2","","""event"",""trial"",""time""
""fullscreenenter"",""1"",""2309""
","
","
","""event"",""trial"",""time""
""fullscreenenter"",""1"",""2309""
","
","","","7469.899999976158","[""True""]","0","25","4537","3207","","","","","","","","","","","","","","","","","","",""
"pit-instructions","115","875873","0.0-2.0-24.0-1.0","battery-v0.2","","""event"",""trial"",""time""
""fullscreenenter"",""1"",""2309""
","
","
","""event"",""trial"",""time""
""fullscreenenter"",""1"",""2309""
","
","","[{""page_index"":0,""viewing_time"":3829.300000011921}]","3829.9000000059605","","","","","","","","","","","","","","","","","","","","","","","",""
"pit-comprehension","116","882424","0.0-2.0-25.0-0.0","battery-v0.2","","""event"",""trial"",""time""
""fullscreenenter"",""1"",""2309""
","
","
","""event"",""trial"",""time""
""fullscreenenter"",""1"",""2309""
","
","","","6544.399999976158","[""True""]","0","25","4537","3207","","","","","","","","","","","","","","","","","","",""
"pit-instructions","117","885175","0.0-2.0-25.0-1.0","battery-v0.2","","""event"",""trial"",""time""
""fullscreenenter"",""1"",""2309""
","
","
","""event"",""trial"",""time""
""fullscreenenter"",""1"",""2309""
","
","","[{""page_index"":0,""viewing_time"":2669.5999999940395}]","2670.199999988079","","","","","","","","","","","","","","","","","","","","","","","",""
"pit-comprehension","118","889832","0.0-2.0-26.0-0.0","battery-v0.2","","""event"",""trial"",""time""
""fullscreenenter"",""1"",""2309""
","
","
","""event"",""trial"",""time""
""fullscreenenter"",""1"",""2309""
","
","","","4651.4000000059605","[""False""]","0","25","4537","3207","","","","","","","","","","","","","","","","","","",""
"pit-instructions","119","892033","0.0-2.0-26.0-1.0","battery-v0.2","","""event"",""trial"",""time""
""fullscreenenter"",""1"",""2309""
","
","
","""event"",""trial"",""time""
""fullscreenenter"",""1"",""2309""
","
","","[{""page_index"":0,""viewing_time"":2111.600000023842}]","2112.2000000178814","","","","","","","","","","","","","","","","","","","","","","","",""
"pit-instructions","120","909899","0.0-3.0","battery-v0.2","","""event"",""trial"",""time""
""fullscreenenter"",""1"",""2309""
","
","
","""event"",""trial"",""time""
""fullscreenenter"",""1"",""2309""
","
","","[{""page_index"":0,""viewing_time"":4942.799999982119},{""page_index"":1,""viewing_time"":5349.700000017881},{""page_index"":2,""viewing_time"":7569.899999976158}]","17863.19999998808","","","","","","","","","","","","","","","","","","","","","","","",""
"pit-trial","121","913608","0.0-4.0","battery-v0.2","","""event"",""trial"",""time""
""fullscreenenter"",""1"",""2309""
","
","
","""event"",""trial"",""time""
""fullscreenenter"",""1"",""2309""
","
","","","842.8000000119209","","","25","4537","3207","&#9733;","elianto","#3366ff99","-1"," ","0","0","[1694]","1","1","","","4537","1","2","2","win","no-go","0"
"pit-trial","122","917506","0.0-5.0","battery-v0.2","","""event"",""trial"",""time""
""fullscreenenter"",""1"",""2309""
","
","
","""event"",""trial"",""time""
""fullscreenenter"",""1"",""2309""
","
","","","1042.5","","","25","4537","3207","&#9752;","elianto","#f73b6a7A"," "," ","1","0","[1892.699999988079]","1","1","","","4537","2","3","3","lose","go","0"
"pit-trial","123","921393","0.0-6.0","battery-v0.2","","""event"",""trial"",""time""
""fullscreenenter"",""1"",""2309""
","
","
","""event"",""trial"",""time""
""fullscreenenter"",""1"",""2309""
","
","","","1033.300000011921","","","25","4537","3207","&#9728;","elianto","#f73b6a7A","-1"," ","0","-10","[1883.800000011921]","1","1","","","4537","3","0","4","lose","no-go","0"
"pit-trial","124","925305","0.0-7.0","battery-v0.2","","""event"",""trial"",""time""
""fullscreenenter"",""1"",""2309""
","
","
","""event"",""trial"",""time""
""fullscreenenter"",""1"",""2309""
","
","","","1058","","","25","4537","3207","&#9730;","elianto","#3366ff99"," "," ","1","+10","[1908.2999999821186]","1","1","","","4537","4","1","1","win","go","0"
"pit-trial","125","929595","0.0-8.0","battery-v0.2","","""event"",""trial"",""time""
""fullscreenenter"",""1"",""2309""
","
","
","""event"",""trial"",""time""
""fullscreenenter"",""1"",""2309""
","
","","","1433.5999999940395","","","25","4537","3207","&#9728;","elianto","#f73b6a7A","-1"," ","0","-10","[2283.7000000178814]","1","1","","","4537","5","0","4","lose","no-go","0"
"pit-trial","126","933403","0.0-9.0","battery-v0.2","","""event"",""trial"",""time""
""fullscreenenter"",""1"",""2309""
","
","
","""event"",""trial"",""time""
""fullscreenenter"",""1"",""2309""
","
","","","948.5999999940395","","","25","4537","3207","&#9752;","elianto","#f73b6a7A"," "," ","1","0","[1801.5999999940395]","1","1","","","4537","6","3","3","lose","go","0"
"pit-trial","127","937066","0.0-10.0","battery-v0.2","","""event"",""trial"",""time""
""fullscreenenter"",""1"",""2309""
","
","
","""event"",""trial"",""time""
""fullscreenenter"",""1"",""2309""
","
","","","807","","","25","4537","3207","&#9730;","elianto","#3366ff99"," "," ","1","+10","[1657.2000000178814]","1","1","","","4537","7","1","1","win","go","0"
"pit-trial","128","940941","0.0-11.0","battery-v0.2","","""event"",""trial"",""time""
""fullscreenenter"",""1"",""2309""
","
","
","""event"",""trial"",""time""
""fullscreenenter"",""1"",""2309""
","
","","","1014.5999999940395","","","25","4537","3207","&#9733;","elianto","#3366ff99","-1"," ","0","0","[1866.6000000238419]","1","1","","","4537","8","2","2","win","no-go","0"
"pit-trial","129","944770","0.0-12.0","battery-v0.2","","""event"",""trial"",""time""
""fullscreenenter"",""1"",""2309""
","
","
","""event"",""trial"",""time""
""fullscreenenter"",""1"",""2309""
","
","","","971.5","","","25","4537","3207","&#9730;","elianto","#3366ff99"," "," ","1","0","[1824.0999999940395]","1","1","","","4537","9","1","1","win","go","1"
"pit-trial","130","948596","0.0-13.0","battery-v0.2","","""event"",""trial"",""time""
""fullscreenenter"",""1"",""2309""
","
","
","""event"",""trial"",""time""
""fullscreenenter"",""1"",""2309""
","
","","","966.3000000119209","","","25","4537","3207","&#9733;","elianto","#3366ff99","-1"," ","0","0","[1818.300000011921]","1","1","","","4537","10","2","2","win","no-go","0"
"pit-trial","131","953455","0.0-14.0","battery-v0.2","","""event"",""trial"",""time""
""fullscreenenter"",""1"",""2309""
","
","
","""event"",""trial"",""time""
""fullscreenenter"",""1"",""2309""
","
","","","-1","","","25","4537","3207","&#9728;","elianto","#f73b6a7A","-1","-1","1","0","[]","0","1","","","4537","11","0","4","lose","no-go","0"
"pit-trial","132","957135","0.0-15.0","battery-v0.2","","""event"",""trial"",""time""
""fullscreenenter"",""1"",""2309""
","
","
","""event"",""trial"",""time""
""fullscreenenter"",""1"",""2309""
","
","","","820.4000000059605","","","25","4537","3207","&#9752;","elianto","#f73b6a7A"," "," ","1","0","[1671.1000000238419]","1","1","","","4537","12","3","3","lose","go","0"
"pit-trial","133","961041","0.0-16.0","battery-v0.2","","""event"",""trial"",""time""
""fullscreenenter"",""1"",""2309""
","
","
","""event"",""trial"",""time""
""fullscreenenter"",""1"",""2309""
","
","","","1049.7000000178814","","","25","4537","3207","&#9733;","elianto","#3366ff99","-1"," ","0","0","[1901.5]","1","1","","","4537","13","2","2","win","no-go","0"
"pit-trial","134","964931","0.0-17.0","battery-v0.2","","""event"",""trial"",""time""
""fullscreenenter"",""1"",""2309""
","
","
","""event"",""trial"",""time""
""fullscreenenter"",""1"",""2309""
","
","","","1032.699999988079","","","25","4537","3207","&#9752;","elianto","#f73b6a7A"," "," ","1","0","[1883.5999999940395]","1","1","","","4537","14","3","3","lose","go","0"
"pit-trial","135","969790","0.0-18.0","battery-v0.2","","""event"",""trial"",""time""
""fullscreenenter"",""1"",""2309""
","
","
","""event"",""trial"",""time""
""fullscreenenter"",""1"",""2309""
","
","","","-1","","","25","4537","3207","&#9728;","elianto","#f73b6a7A","-1","-1","1","0","[]","0","1","","","4537","15","0","4","lose","no-go","0"
"pit-trial","136","973458","0.0-19.0","battery-v0.2","","""event"",""trial"",""time""
""fullscreenenter"",""1"",""2309""
","
","
","""event"",""trial"",""time""
""fullscreenenter"",""1"",""2309""
","
","","","811.2999999821186","","","25","4537","3207","&#9730;","elianto","#3366ff99"," "," ","1","+10","[1662.800000011921]","1","1","","","4537","16","1","1","win","go","0"
"pit-trial","137","978137","0.0-20.0","battery-v0.2","","""event"",""trial"",""time""
""fullscreenenter"",""1"",""2309""
","
","
","""event"",""trial"",""time""
""fullscreenenter"",""1"",""2309""
","
","","","1823.5","","","25","4537","3207","&#9728;","elianto","#f73b6a7A","-1"," ","0","-10","[2674]","1","1","","","4537","17","0","4","lose","no-go","0"
"pit-trial","138","981858","0.0-21.0","battery-v0.2","","""event"",""trial"",""time""
""fullscreenenter"",""1"",""2309""
","
","
","""event"",""trial"",""time""
""fullscreenenter"",""1"",""2309""
","
","","","864.6999999880791","","","25","4537","3207","&#9733;","elianto","#3366ff99","-1"," ","0","+10","[1715.4000000059605]","1","1","","","4537","18","2","2","win","no-go","1"
"pit-trial","139","985706","0.0-22.0","battery-v0.2","","""event"",""trial"",""time""
""fullscreenenter"",""1"",""2309""
","
","
","""event"",""trial"",""time""
""fullscreenenter"",""1"",""2309""
","
","","","990.8000000119209","","","25","4537","3207","&#9752;","elianto","#f73b6a7A"," "," ","1","-10","[1842.2000000178814]","1","1","","","4537","19","3","3","lose","go","1"
"pit-trial","140","989282","0.0-23.0","battery-v0.2","","""event"",""trial"",""time""
""fullscreenenter"",""1"",""2309""
","
","
","""event"",""trial"",""time""
""fullscreenenter"",""1"",""2309""
","
","","","717.3999999761581","","","25","4537","3207","&#9730;","elianto","#3366ff99"," "," ","1","0","[1569.199999988079]","1","1","","","4537","20","1","1","win","go","1"
"pit-instructions","141","1002485","0.0-24.0","battery-v0.2","","""event"",""trial"",""time""
""fullscreenenter"",""1"",""2309""
","
","
","""event"",""trial"",""time""
""fullscreenenter"",""1"",""2309""
","
","","[{""page_index"":0,""viewing_time"":6110.9000000059605},{""page_index"":1,""viewing_time"":7088.5999999940395}]","13200.200000017881","","","","","","","","","","","","","","","","","","","","","","","",""
"pit-trial","142","1006392","0.0-25.0","battery-v0.2","","""event"",""trial"",""time""
""fullscreenenter"",""1"",""2309""
","
","
","""event"",""trial"",""time""
""fullscreenenter"",""1"",""2309""
","
","","","1047.9000000059605","","","25","4537","3207","w","elianto","#f73b6a7A","-1"," ","0","-10","[1899.2999999821186]","1","2","","","4537","21","3","4","lose","no-go","0"
"pit-trial","143","1010403","0.0-26.0","battery-v0.2","","""event"",""trial"",""time""
""fullscreenenter"",""1"",""2309""
","
","
","""event"",""trial"",""time""
""fullscreenenter"",""1"",""2309""
","
","","","1153.5","","","25","4537","3207","e","elianto","#f73b6a7A"," "," ","1","0","[2003.800000011921]","1","2","","","4537","22","2","3","lose","go","0"
"pit-trial","144","1014223","0.0-27.0","battery-v0.2","","""event"",""trial"",""time""
""fullscreenenter"",""1"",""2309""
","
","
","""event"",""trial"",""time""
""fullscreenenter"",""1"",""2309""
","
","","","965.8000000119209","","","25","4537","3207","j","elianto","#f73b6a7A"," "," ","1","0","[1816.0999999940395]","1","2","","","4537","23","0","3","lose","go","0"
"pit-trial","145","1017953","0.0-28.0","battery-v0.2","","""event"",""trial"",""time""
""fullscreenenter"",""1"",""2309""
","
","
","""event"",""trial"",""time""
""fullscreenenter"",""1"",""2309""
","
","","","871.5999999940395","","","25","4537","3207","d","elianto","#3366ff99","-1"," ","0","0","[1723.9000000059605]","1","2","","","4537","24","1","2","win","no-go","0"
"pit-trial","146","1021752","0.0-29.0","battery-v0.2","","""event"",""trial"",""time""
""fullscreenenter"",""1"",""2309""
","
","
","""event"",""trial"",""time""
""fullscreenenter"",""1"",""2309""
","
","","","941.8999999761581","","","25","4537","3207","e","elianto","#f73b6a7A"," "," ","1","0","[1794]","1","2","","","4537","25","2","3","lose","go","0"
"pit-trial","147","1025467","0.0-30.0","battery-v0.2","","""event"",""trial"",""time""
""fullscreenenter"",""1"",""2309""
","
","
","""event"",""trial"",""time""
""fullscreenenter"",""1"",""2309""
","
","","","856","","","25","4537","3207","d","elianto","#3366ff99","-1"," ","0","0","[1707.0999999940395]","1","2","","","4537","26","1","2","win","no-go","0"
"pit-trial","148","1030325","0.0-31.0","battery-v0.2","","""event"",""trial"",""time""
""fullscreenenter"",""1"",""2309""
","
","
","""event"",""trial"",""time""
""fullscreenenter"",""1"",""2309""
","
","","","-1","","","25","4537","3207","w","elianto","#f73b6a7A","-1","-1","1","0","[]","0","2","","","4537","27","3","4","lose","no-go","0"
"pit-trial","149","1034275","0.0-32.0","battery-v0.2","","""event"",""trial"",""time""
""fullscreenenter"",""1"",""2309""
","
","
","""event"",""trial"",""time""
""fullscreenenter"",""1"",""2309""
","
","","","1089.4000000059605","","","25","4537","3207","j","elianto","#f73b6a7A"," "," ","1","0","[1942]","1","2","","","4537","28","0","3","lose","go","0"
"pit-trial","150","1039133","0.0-33.0","battery-v0.2","","""event"",""trial"",""time""
""fullscreenenter"",""1"",""2309""
","
","
","""event"",""trial"",""time""
""fullscreenenter"",""1"",""2309""
","
","","","-1","","","25","4537","3207","w","elianto","#f73b6a7A","-1","-1","1","-10","[]","0","2","","","4537","29","3","4","lose","no-go","1"
"pit-trial","151","1042802","0.0-34.0","battery-v0.2","","""event"",""trial"",""time""
""fullscreenenter"",""1"",""2309""
","
","
","""event"",""trial"",""time""
""fullscreenenter"",""1"",""2309""
","
","","","810.5999999940395","","","25","4537","3207","e","elianto","#f73b6a7A"," "," ","1","0","[1661.5999999940395]","1","2","","","4537","30","2","3","lose","go","0"
"pit-trial","152","1046459","0.0-35.0","battery-v0.2","","""event"",""trial"",""time""
""fullscreenenter"",""1"",""2309""
","
","
","""event"",""trial"",""time""
""fullscreenenter"",""1"",""2309""
","
","","","798.7000000178814","","","25","4537","3207","j","elianto","#f73b6a7A"," "," ","1","0","[1648.699999988079]","1","2","","","4537","31","0","3","lose","go","0"
"pit-trial","153","1050048","0.0-36.0","battery-v0.2","","""event"",""trial"",""time""
""fullscreenenter"",""1"",""2309""
","
","
","""event"",""trial"",""time""
""fullscreenenter"",""1"",""2309""
","
","","","733.5999999940395","","","25","4537","3207","d","elianto","#3366ff99","-1"," ","0","0","[1583.9000000059605]","1","2","","","4537","32","1","2","win","no-go","0"
"pit-trial","154","1053936","0.0-37.0","battery-v0.2","","""event"",""trial"",""time""
""fullscreenenter"",""1"",""2309""
","
","
","""event"",""trial"",""time""
""fullscreenenter"",""1"",""2309""
","
","","","1029.699999988079","","","25","4537","3207","e","elianto","#f73b6a7A"," "," ","1","0","[1882.9000000059605]","1","2","","","4537","33","2","3","lose","go","0"
"pit-trial","155","1058794","0.0-38.0","battery-v0.2","","""event"",""trial"",""time""
""fullscreenenter"",""1"",""2309""
","
","
","""event"",""trial"",""time""
""fullscreenenter"",""1"",""2309""
","
","","","-1","","","25","4537","3207","w","elianto","#f73b6a7A","-1","-1","1","0","[]","0","2","","","4537","34","3","4","lose","no-go","0"
"pit-trial","156","1062608","0.0-39.0","battery-v0.2","","""event"",""trial"",""time""
""fullscreenenter"",""1"",""2309""
","
","
","""event"",""trial"",""time""
""fullscreenenter"",""1"",""2309""
","
","","","956.1999999880791","","","25","4537","3207","j","elianto","#f73b6a7A"," "," ","1","0","[1808.300000011921]","1","2","","","4537","35","0","3","lose","go","0"
"pit-trial","157","1066283","0.0-40.0","battery-v0.2","","""event"",""trial"",""time""
""fullscreenenter"",""1"",""2309""
","
","
","""event"",""trial"",""time""
""fullscreenenter"",""1"",""2309""
","
","","","816.3000000119209","","","25","4537","3207","d","elianto","#3366ff99","-1"," ","0","0","[1666.3999999761581]","1","2","","","4537","36","1","2","win","no-go","0"
"pit-trial","158","1071141","0.0-41.0","battery-v0.2","","""event"",""trial"",""time""
""fullscreenenter"",""1"",""2309""
","
","
","""event"",""trial"",""time""
""fullscreenenter"",""1"",""2309""
","
","","","-1","","","25","4537","3207","d","elianto","#3366ff99","-1","-1","1","+10","[]","0","2","","","4537","37","1","2","win","no-go","0"
"pit-trial","159","1074798","0.0-42.0","battery-v0.2","","""event"",""trial"",""time""
""fullscreenenter"",""1"",""2309""
","
","
","""event"",""trial"",""time""
""fullscreenenter"",""1"",""2309""
","
","","","803","","","25","4537","3207","j","elianto","#f73b6a7A"," "," ","1","-10","[1653.5]","1","2","","","4537","38","0","3","lose","go","1"
"pit-trial","160","1079657","0.0-43.0","battery-v0.2","","""event"",""trial"",""time""
""fullscreenenter"",""1"",""2309""
","
","
","""event"",""trial"",""time""
""fullscreenenter"",""1"",""2309""
","
","","","-1","","","25","4537","3207","w","elianto","#f73b6a7A","-1","-1","1","-10","[]","0","2","","","4537","39","3","4","lose","no-go","1"
"pit-trial","161","1083454","0.0-44.0","battery-v0.2","","""event"",""trial"",""time""
""fullscreenenter"",""1"",""2309""
","
","
","""event"",""trial"",""time""
""fullscreenenter"",""1"",""2309""
","
","","","940.6000000238419","","","25","4537","3207","e","elianto","#f73b6a7A"," "," ","1","0","[1792.699999988079]","1","2","","","4537","40","2","3","lose","go","0"
"pit-trial","162","1087465","0.0-45.0","battery-v0.2","","""event"",""trial"",""time""
""fullscreenenter"",""1"",""2309""
","
","
","""event"",""trial"",""time""
""fullscreenenter"",""1"",""2309""
","
","","","1154","","","25","4537","3207","e","elianto","#f73b6a7A"," "," ","1","0","[2004.0999999940395]","1","2","","","4537","41","2","3","lose","go","0"
"pit-trial","163","1092324","0.0-46.0","battery-v0.2","","""event"",""trial"",""time""
""fullscreenenter"",""1"",""2309""
","
","
","""event"",""trial"",""time""
""fullscreenenter"",""1"",""2309""
","
","","","-1","","","25","4537","3207","d","elianto","#3366ff99","-1","-1","1","0","[]","0","2","","","4537","42","1","2","win","no-go","1"
"pit-trial","164","1097182","0.0-47.0","battery-v0.2","","""event"",""trial"",""time""
""fullscreenenter"",""1"",""2309""
","
","
","""event"",""trial"",""time""
""fullscreenenter"",""1"",""2309""
","
","","","-1","","","25","4537","3207","w","elianto","#f73b6a7A","-1","-1","1","-10","[]","0","2","","","4537","43","3","4","lose","no-go","1"
"pit-trial","165","1100973","0.0-48.0","battery-v0.2","","""event"",""trial"",""time""
""fullscreenenter"",""1"",""2309""
","
","
","""event"",""trial"",""time""
""fullscreenenter"",""1"",""2309""
","
","","","936.2999999821186","","","25","4537","3207","j","elianto","#f73b6a7A"," "," ","1","0","[1786.7999999821186]","1","2","","","4537","44","0","3","lose","go","0"
"pit-trial","166","1104850","0.0-49.0","battery-v0.2","","""event"",""trial"",""time""
""fullscreenenter"",""1"",""2309""
","
","
","""event"",""trial"",""time""
""fullscreenenter"",""1"",""2309""
","
","","","1018.6999999880791","","","25","4537","3207","e","elianto","#f73b6a7A"," "," ","1","0","[1869.199999988079]","1","2","","","4537","45","2","3","lose","go","0"
"pit-trial","167","1108751","0.0-50.0","battery-v0.2","","""event"",""trial"",""time""
""fullscreenenter"",""1"",""2309""
","
","
","""event"",""trial"",""time""
""fullscreenenter"",""1"",""2309""
","
","","","1043.800000011921","","","25","4537","3207","j","elianto","#f73b6a7A"," "," ","1","0","[1895.3999999761581]","1","2","","","4537","46","0","3","lose","go","0"
"pit-trial","168","1113610","0.0-51.0","battery-v0.2","","""event"",""trial"",""time""
""fullscreenenter"",""1"",""2309""
","
","
","""event"",""trial"",""time""
""fullscreenenter"",""1"",""2309""
","
","","","-1","","","25","4537","3207","d","elianto","#3366ff99","-1","-1","1","0","[]","0","2","","","4537","47","1","2","win","no-go","1"
"pit-trial","169","1118469","0.0-52.0","battery-v0.2","","""event"",""trial"",""time""
""fullscreenenter"",""1"",""2309""
","
","
","""event"",""trial"",""time""
""fullscreenenter"",""1"",""2309""
","
","","","-1","","","25","4537","3207","w","elianto","#f73b6a7A","-1","-1","1","0","[]","0","2","","","4537","48","3","4","lose","no-go","0"
"pit-trial","170","1123330","0.0-53.0","battery-v0.2","","""event"",""trial"",""time""
""fullscreenenter"",""1"",""2309""
","
","
","""event"",""trial"",""time""
""fullscreenenter"",""1"",""2309""
","
","","","-1","","","25","4537","3207","w","elianto","#f73b6a7A","-1","-1","1","0","[]","0","2","","","4537","49","3","4","lose","no-go","0"
"pit-trial","171","1127136","0.0-54.0","battery-v0.2","","""event"",""trial"",""time""
""fullscreenenter"",""1"",""2309""
","
","
","""event"",""trial"",""time""
""fullscreenenter"",""1"",""2309""
","
","","","949.6000000238419","","","25","4537","3207","j","elianto","#f73b6a7A"," "," ","1","0","[1799.9000000059605]","1","2","","","4537","50","0","3","lose","go","0"
"pit-trial","172","1130706","0.0-55.0","battery-v0.2","","""event"",""trial"",""time""
""fullscreenenter"",""1"",""2309""
","
","
","""event"",""trial"",""time""
""fullscreenenter"",""1"",""2309""
","
","","","710","","","25","4537","3207","e","elianto","#f73b6a7A"," "," ","1","0","[1561.800000011921]","1","2","","","4537","51","2","3","lose","go","0"
"pit-trial","173","1135564","0.0-56.0","battery-v0.2","","""event"",""trial"",""time""
""fullscreenenter"",""1"",""2309""
","
","
","""event"",""trial"",""time""
""fullscreenenter"",""1"",""2309""
","
","","","-1","","","25","4537","3207","d","elianto","#3366ff99","-1","-1","1","+10","[]","0","2","","","4537","52","1","2","win","no-go","0"
"pit-trial","174","1139262","0.0-57.0","battery-v0.2","","""event"",""trial"",""time""
""fullscreenenter"",""1"",""2309""
","
","
","""event"",""trial"",""time""
""fullscreenenter"",""1"",""2309""
","
","","","842.6999999880791","","","25","4537","3207","j","elianto","#f73b6a7A"," "," ","1","0","[1693.300000011921]","1","2","","","4537","53","0","3","lose","go","0"
"pit-trial","175","1144120","0.0-58.0","battery-v0.2","","""event"",""trial"",""time""
""fullscreenenter"",""1"",""2309""
","
","
","""event"",""trial"",""time""
""fullscreenenter"",""1"",""2309""
","
","","","-1","","","25","4537","3207","w","elianto","#f73b6a7A","-1","-1","1","-10","[]","0","2","","","4537","54","3","4","lose","no-go","1"
"pit-trial","176","1147696","0.0-59.0","battery-v0.2","","""event"",""trial"",""time""
""fullscreenenter"",""1"",""2309""
","
","
","""event"",""trial"",""time""
""fullscreenenter"",""1"",""2309""
","
","","","716.0999999940395","","","25","4537","3207","e","elianto","#f73b6a7A"," "," ","1","0","[1569.699999988079]","1","2","","","4537","55","2","3","lose","go","0"
"pit-trial","177","1152555","0.0-60.0","battery-v0.2","","""event"",""trial"",""time""
""fullscreenenter"",""1"",""2309""
","
","
","""event"",""trial"",""time""
""fullscreenenter"",""1"",""2309""
","
","","","-1","","","25","4537","3207","d","elianto","#3366ff99","-1","-1","1","+10","[]","0","2","","","4537","56","1","2","win","no-go","0"
"pit-trial","178","1157414","0.0-61.0","battery-v0.2","","""event"",""trial"",""time""
""fullscreenenter"",""1"",""2309""
","
","
","""event"",""trial"",""time""
""fullscreenenter"",""1"",""2309""
","
","","","-1","","","25","4537","3207","w","elianto","#f73b6a7A","-1","-1","1","0","[]","0","2","","","4537","57","3","4","lose","no-go","0"
"pit-trial","179","1161587","0.0-62.0","battery-v0.2","","""event"",""trial"",""time""
""fullscreenenter"",""1"",""2309""
","
","
","""event"",""trial"",""time""
""fullscreenenter"",""1"",""2309""
","
","","","1318","","","25","4537","3207","s","elianto","#3366ff99"," "," ","1","+10","[2169.9000000059605]","1","2","","","4537","58","4","1","win","go","0"
"pit-trial","180","1165308","0.0-63.0","battery-v0.2","","""event"",""trial"",""time""
""fullscreenenter"",""1"",""2309""
","
","
","""event"",""trial"",""time""
""fullscreenenter"",""1"",""2309""
","
","","","867.4000000059605","","","25","4537","3207","j","elianto","#f73b6a7A"," "," ","1","0","[1717.300000011921]","1","2","","","4537","59","0","3","lose","go","0"
"pit-trial","181","1168966","0.0-64.0","battery-v0.2","","""event"",""trial"",""time""
""fullscreenenter"",""1"",""2309""
","
","
","""event"",""trial"",""time""
""fullscreenenter"",""1"",""2309""
","
","","","802.4000000059605","","","25","4537","3207","e","elianto","#f73b6a7A"," "," ","1","0","[1652.5999999940395]","1","2","","","4537","60","2","3","lose","go","0"
"pit-trial","182","1172727","0.0-65.0","battery-v0.2","","""event"",""trial"",""time""
""fullscreenenter"",""1"",""2309""
","
","
","""event"",""trial"",""time""
""fullscreenenter"",""1"",""2309""
","
","","","905.4000000059605","","","25","4537","3207","s","elianto","#3366ff99"," "," ","1","+10","[1755.7000000178814]","1","2","","","4537","61","4","1","win","go","0"
"pit-trial","183","1177586","0.0-66.0","battery-v0.2","","""event"",""trial"",""time""
""fullscreenenter"",""1"",""2309""
","
","
","""event"",""trial"",""time""
""fullscreenenter"",""1"",""2309""
","
","","","-1","","","25","4537","3207","w","elianto","#f73b6a7A","-1","-1","1","0","[]","0","2","","","4537","62","3","4","lose","no-go","0"
"pit-trial","184","1181214","0.0-67.0","battery-v0.2","","""event"",""trial"",""time""
""fullscreenenter"",""1"",""2309""
","
","
","""event"",""trial"",""time""
""fullscreenenter"",""1"",""2309""
","
","","","770.1999999880791","","","25","4537","3207","e","elianto","#f73b6a7A"," "," ","1","0","[1622]","1","2","","","4537","63","2","3","lose","go","0"
"pit-trial","185","1186073","0.0-68.0","battery-v0.2","","""event"",""trial"",""time""
""fullscreenenter"",""1"",""2309""
","
","
","""event"",""trial"",""time""
""fullscreenenter"",""1"",""2309""
","
","","","-1","","","25","4537","3207","d","elianto","#3366ff99","-1","-1","1","+10","[]","0","2","","","4537","64","1","2","win","no-go","0"
"pit-trial","186","1190932","0.0-69.0","battery-v0.2","","""event"",""trial"",""time""
""fullscreenenter"",""1"",""2309""
","
","
","""event"",""trial"",""time""
""fullscreenenter"",""1"",""2309""
","
","","","-1","","","25","4537","3207","w","elianto","#f73b6a7A","-1","-1","1","0","[]","0","2","","","4537","65","3","4","lose","no-go","0"
"pit-trial","187","1195793","0.0-70.0","battery-v0.2","","""event"",""trial"",""time""
""fullscreenenter"",""1"",""2309""
","
","
","""event"",""trial"",""time""
""fullscreenenter"",""1"",""2309""
","
","","","-1","","","25","4537","3207","d","elianto","#3366ff99","-1","-1","1","0","[]","0","2","","","4537","66","1","2","win","no-go","1"
"pit-trial","188","1199656","0.0-71.0","battery-v0.2","","""event"",""trial"",""time""
""fullscreenenter"",""1"",""2309""
","
","
","""event"",""trial"",""time""
""fullscreenenter"",""1"",""2309""
","
","","","1005.4000000059605","","","25","4537","3207","p","elianto","#3366ff99","-1"," ","0","0","[1856.4000000059605]","1","2","","","4537","67","5","2","win","no-go","0"
"pit-trial","189","1203191","0.0-72.0","battery-v0.2","","""event"",""trial"",""time""
""fullscreenenter"",""1"",""2309""
","
","
","""event"",""trial"",""time""
""fullscreenenter"",""1"",""2309""
","
","","","678.0999999940395","","","25","4537","3207","s","elianto","#3366ff99"," "," ","1","+10","[1528.5999999940395]","1","2","","","4537","68","4","1","win","go","0"
"pit-trial","190","1206982","0.0-73.0","battery-v0.2","","""event"",""trial"",""time""
""fullscreenenter"",""1"",""2309""
","
","
","""event"",""trial"",""time""
""fullscreenenter"",""1"",""2309""
","
","","","934.2999999821186","","","25","4537","3207","e","elianto","#f73b6a7A"," "," ","1","0","[1784.300000011921]","1","2","","","4537","69","2","3","lose","go","0"
"pit-trial","191","1211841","0.0-74.0","battery-v0.2","","""event"",""trial"",""time""
""fullscreenenter"",""1"",""2309""
","
","
","""event"",""trial"",""time""
""fullscreenenter"",""1"",""2309""
","
","","","-1","","","25","4537","3207","d","elianto","#3366ff99","-1","-1","1","+10","[]","0","2","","","4537","70","1","2","win","no-go","0"
"pit-trial","192","1215765","0.0-75.0","battery-v0.2","","""event"",""trial"",""time""
""fullscreenenter"",""1"",""2309""
","
","
","""event"",""trial"",""time""
""fullscreenenter"",""1"",""2309""
","
","","","1067","","","25","4537","3207","p","elianto","#3366ff99","-1"," ","0","0","[1919.5]","1","2","","","4537","71","5","2","win","no-go","0"
"pit-trial","193","1219328","0.0-76.0","battery-v0.2","","""event"",""trial"",""time""
""fullscreenenter"",""1"",""2309""
","
","
","""event"",""trial"",""time""
""fullscreenenter"",""1"",""2309""
","
","","","705","","","25","4537","3207","s","elianto","#3366ff99"," "," ","1","+10","[1555.2999999821186]","1","2","","","4537","72","4","1","win","go","0"
"pit-trial","194","1224187","0.0-77.0","battery-v0.2","","""event"",""trial"",""time""
""fullscreenenter"",""1"",""2309""
","
","
","""event"",""trial"",""time""
""fullscreenenter"",""1"",""2309""
","
","","","-1","","","25","4537","3207","w","elianto","#f73b6a7A","-1","-1","1","-10","[]","0","2","","","4537","73","3","4","lose","no-go","1"
"pit-trial","195","1228001","0.0-78.0","battery-v0.2","","""event"",""trial"",""time""
""fullscreenenter"",""1"",""2309""
","
","
","""event"",""trial"",""time""
""fullscreenenter"",""1"",""2309""
","
","","","952.5999999940395","","","25","4537","3207","s","elianto","#3366ff99"," "," ","1","+10","[1804.4000000059605]","1","2","","","4537","74","4","1","win","go","0"
"pit-trial","196","1232860","0.0-79.0","battery-v0.2","","""event"",""trial"",""time""
""fullscreenenter"",""1"",""2309""
","
","
","""event"",""trial"",""time""
""fullscreenenter"",""1"",""2309""
","
","","","-1","","","25","4537","3207","d","elianto","#3366ff99","-1","-1","1","+10","[]","0","2","","","4537","75","1","2","win","no-go","0"
"pit-trial","197","1236645","0.0-80.0","battery-v0.2","","""event"",""trial"",""time""
""fullscreenenter"",""1"",""2309""
","
","
","""event"",""trial"",""time""
""fullscreenenter"",""1"",""2309""
","
","","","928.9000000059605","","","25","4537","3207","p","elianto","#3366ff99","-1"," ","0","0","[1779.5]","1","2","","","4537","76","5","2","win","no-go","0"
"pit-trial","198","1240197","0.0-81.0","battery-v0.2","","""event"",""trial"",""time""
""fullscreenenter"",""1"",""2309""
","
","
","""event"",""trial"",""time""
""fullscreenenter"",""1"",""2309""
","
","","","696","","","25","4537","3207","s","elianto","#3366ff99"," "," ","1","0","[1547.2000000178814]","1","2","","","4537","77","4","1","win","go","1"
"pit-trial","199","1243820","0.0-82.0","battery-v0.2","","""event"",""trial"",""time""
""fullscreenenter"",""1"",""2309""
","
","
","""event"",""trial"",""time""
""fullscreenenter"",""1"",""2309""
","
","","","766.0999999940395","","","25","4537","3207","p","elianto","#3366ff99","-1"," ","0","0","[1618.9000000059605]","1","2","","","4537","78","5","2","win","no-go","0"
"pit-trial","200","1248678","0.0-83.0","battery-v0.2","","""event"",""trial"",""time""
""fullscreenenter"",""1"",""2309""
","
","
","""event"",""trial"",""time""
""fullscreenenter"",""1"",""2309""
","
","","","-1","","","25","4537","3207","w","elianto","#f73b6a7A","-1","-1","1","0","[]","0","2","","","4537","79","3","4","lose","no-go","0"
"pit-trial","201","1252260","0.0-84.0","battery-v0.2","","""event"",""trial"",""time""
""fullscreenenter"",""1"",""2309""
","
","
","""event"",""trial"",""time""
""fullscreenenter"",""1"",""2309""
","
","","","727.3000000119209","","","25","4537","3207","s","elianto","#3366ff99"," "," ","1","+10","[1577.699999988079]","1","2","","","4537","80","4","1","win","go","0"
"pit-trial","202","1256341","0.0-85.0","battery-v0.2","","""event"",""trial"",""time""
""fullscreenenter"",""1"",""2309""
","
","
","""event"",""trial"",""time""
""fullscreenenter"",""1"",""2309""
","
","","","1223.699999988079","","","25","4537","3207","a","elianto","#f73b6a7A","-1"," ","0","-10","[2075.199999988079]","1","2","","","4537","81","7","4","lose","no-go","0"
"pit-trial","203","1259824","0.0-86.0","battery-v0.2","","""event"",""trial"",""time""
""fullscreenenter"",""1"",""2309""
","
","
","""event"",""trial"",""time""
""fullscreenenter"",""1"",""2309""
","
","","","624.2000000178814","","","25","4537","3207","s","elianto","#3366ff99"," "," ","1","+10","[1474.800000011921]","1","2","","","4537","82","4","1","win","go","0"
"pit-trial","204","1263916","0.0-87.0","battery-v0.2","","""event"",""trial"",""time""
""fullscreenenter"",""1"",""2309""
","
","
","""event"",""trial"",""time""
""fullscreenenter"",""1"",""2309""
","
","","","1237.9000000059605","","","25","4537","3207","p","elianto","#3366ff99","-1"," ","0","0","[2088.0999999940395]","1","2","","","4537","83","5","2","win","no-go","0"
"pit-trial","205","1268775","0.0-88.0","battery-v0.2","","""event"",""trial"",""time""
""fullscreenenter"",""1"",""2309""
","
","
","""event"",""trial"",""time""
""fullscreenenter"",""1"",""2309""
","
","","","-1","","","25","4537","3207","w","elianto","#f73b6a7A","-1","-1","1","0","[]","0","2","","","4537","84","3","4","lose","no-go","0"
"pit-trial","206","1273634","0.0-89.0","battery-v0.2","","""event"",""trial"",""time""
""fullscreenenter"",""1"",""2309""
","
","
","""event"",""trial"",""time""
""fullscreenenter"",""1"",""2309""
","
","","","-1","","","25","4537","3207","a","elianto","#f73b6a7A","-1","-1","1","-10","[]","0","2","","","4537","85","7","4","lose","no-go","1"
"pit-trial","207","1277180","0.0-90.0","battery-v0.2","","""event"",""trial"",""time""
""fullscreenenter"",""1"",""2309""
","
","
","""event"",""trial"",""time""
""fullscreenenter"",""1"",""2309""
","
","","","690.3999999761581","","","25","4537","3207","s","elianto","#3366ff99"," "," ","1","+10","[1541]","1","2","","","4537","86","4","1","win","go","0"
"pit-trial","208","1282042","0.0-91.0","battery-v0.2","","""event"",""trial"",""time""
""fullscreenenter"",""1"",""2309""
","
","
","""event"",""trial"",""time""
""fullscreenenter"",""1"",""2309""
","
","","","-1","","","25","4537","3207","p","elianto","#3366ff99","-1","-1","1","+10","[]","0","2","","","4537","87","5","2","win","no-go","0"
"pit-trial","209","1285876","0.0-92.0","battery-v0.2","","""event"",""trial"",""time""
""fullscreenenter"",""1"",""2309""
","
","
","""event"",""trial"",""time""
""fullscreenenter"",""1"",""2309""
","
","","","978.0999999940395","","","25","4537","3207","g","elianto","#f73b6a7A"," "," ","1","0","[1829.300000011921]","1","2","","","4537","88","6","3","lose","go","0"
"pit-trial","210","1289405","0.0-93.0","battery-v0.2","","""event"",""trial"",""time""
""fullscreenenter"",""1"",""2309""
","
","
","""event"",""trial"",""time""
""fullscreenenter"",""1"",""2309""
","
","","","672.3999999761581","","","25","4537","3207","g","elianto","#f73b6a7A"," "," ","1","0","[1522.8999999761581]","1","2","","","4537","89","6","3","lose","go","0"
"pit-trial","211","1294263","0.0-94.0","battery-v0.2","","""event"",""trial"",""time""
""fullscreenenter"",""1"",""2309""
","
","
","""event"",""trial"",""time""
""fullscreenenter"",""1"",""2309""
","
","","","-1","","","25","4537","3207","a","elianto","#f73b6a7A","-1","-1","1","-10","[]","0","2","","","4537","90","7","4","lose","no-go","1"
"pit-trial","212","1299123","0.0-95.0","battery-v0.2","","""event"",""trial"",""time""
""fullscreenenter"",""1"",""2309""
","
","
","""event"",""trial"",""time""
""fullscreenenter"",""1"",""2309""
","
","","","-1","","","25","4537","3207","p","elianto","#3366ff99","-1","-1","1","+10","[]","0","2","","","4537","91","5","2","win","no-go","0"
"pit-trial","213","1302728","0.0-96.0","battery-v0.2","","""event"",""trial"",""time""
""fullscreenenter"",""1"",""2309""
","
","
","""event"",""trial"",""time""
""fullscreenenter"",""1"",""2309""
","
","","","746","","","25","4537","3207","s","elianto","#3366ff99"," "," ","1","+10","[1596.4000000059605]","1","2","","","4537","92","4","1","win","go","0"
"pit-trial","214","1306669","0.0-97.0","battery-v0.2","","""event"",""trial"",""time""
""fullscreenenter"",""1"",""2309""
","
","
","""event"",""trial"",""time""
""fullscreenenter"",""1"",""2309""
","
","","","1082.699999988079","","","25","4537","3207","l","elianto","#3366ff99"," "," ","1","+10","[1934.5]","1","2","","","4537","93","8","1","win","go","0"
"pit-trial","215","1311530","0.0-98.0","battery-v0.2","","""event"",""trial"",""time""
""fullscreenenter"",""1"",""2309""
","
","
","""event"",""trial"",""time""
""fullscreenenter"",""1"",""2309""
","
","","","-1","","","25","4537","3207","p","elianto","#3366ff99","-1","-1","1","+10","[]","0","2","","","4537","94","5","2","win","no-go","0"
"pit-trial","216","1315940","0.0-99.0","battery-v0.2","","""event"",""trial"",""time""
""fullscreenenter"",""1"",""2309""
","
","
","""event"",""trial"",""time""
""fullscreenenter"",""1"",""2309""
","
","","","1554.9000000059605","","","25","4537","3207","g","elianto","#f73b6a7A"," "," ","1","0","[2405.9000000059605]","1","2","","","4537","95","6","3","lose","go","0"
"pit-trial","217","1320798","0.0-100.0","battery-v0.2","","""event"",""trial"",""time""
""fullscreenenter"",""1"",""2309""
","
","
","""event"",""trial"",""time""
""fullscreenenter"",""1"",""2309""
","
","","","-1","","","25","4537","3207","a","elianto","#f73b6a7A","-1","-1","1","0","[]","0","2","","","4537","96","7","4","lose","no-go","0"
"pit-trial","218","1324670","0.0-101.0","battery-v0.2","","""event"",""trial"",""time""
""fullscreenenter"",""1"",""2309""
","
","
","""event"",""trial"",""time""
""fullscreenenter"",""1"",""2309""
","
","","","1013.9000000059605","","","25","4537","3207","g","elianto","#f73b6a7A"," "," ","1","0","[1864.300000011921]","1","2","","","4537","97","6","3","lose","go","0"
"pit-trial","219","1328374","0.0-102.0","battery-v0.2","","""event"",""trial"",""time""
""fullscreenenter"",""1"",""2309""
","
","
","""event"",""trial"",""time""
""fullscreenenter"",""1"",""2309""
","
","","","844.7000000178814","","","25","4537","3207","l","elianto","#3366ff99"," "," ","1","+10","[1697.8999999761581]","1","2","","","4537","98","8","1","win","go","0"
"pit-trial","220","1333232","0.0-103.0","battery-v0.2","","""event"",""trial"",""time""
""fullscreenenter"",""1"",""2309""
","
","
","""event"",""trial"",""time""
""fullscreenenter"",""1"",""2309""
","
","","","-1","","","25","4537","3207","a","elianto","#f73b6a7A","-1","-1","1","0","[4848.199999988079]","1","2","","","4537","99","7","4","lose","no-go","0"
"pit-trial","221","1338091","0.0-104.0","battery-v0.2","","""event"",""trial"",""time""
""fullscreenenter"",""1"",""2309""
","
","
","""event"",""trial"",""time""
""fullscreenenter"",""1"",""2309""
","
","","","-1","","","25","4537","3207","p","elianto","#3366ff99","-1","-1","1","+10","[]","0","2","","","4537","100","5","2","win","no-go","0"
"pit-trial","222","1342950","0.0-105.0","battery-v0.2","","""event"",""trial"",""time""
""fullscreenenter"",""1"",""2309""
","
","
","""event"",""trial"",""time""
""fullscreenenter"",""1"",""2309""
","
","","","-1","","","25","4537","3207","a","elianto","#f73b6a7A","-1","-1","1","0","[]","0","2","","","4537","101","7","4","lose","no-go","0"
"pit-trial","223","1346572","0.0-106.0","battery-v0.2","","""event"",""trial"",""time""
""fullscreenenter"",""1"",""2309""
","
","
","""event"",""trial"",""time""
""fullscreenenter"",""1"",""2309""
","
","","","766.5","","","25","4537","3207","p","elianto","#3366ff99","-1"," ","0","0","[1616.5999999940395]","1","2","","","4537","102","5","2","win","no-go","0"
"pit-trial","224","1350281","0.0-107.0","battery-v0.2","","""event"",""trial"",""time""
""fullscreenenter"",""1"",""2309""
","
","
","""event"",""trial"",""time""
""fullscreenenter"",""1"",""2309""
","
","","","854","","","25","4537","3207","u","elianto","#3366ff99"," "," ","1","0","[1705.699999988079]","1","2","","","4537","103","9","1","win","go","1"
"pit-trial","225","1353979","0.0-108.0","battery-v0.2","","""event"",""trial"",""time""
""fullscreenenter"",""1"",""2309""
","
","
","""event"",""trial"",""time""
""fullscreenenter"",""1"",""2309""
","
","","","841","","","25","4537","3207","l","elianto","#3366ff99"," "," ","1","+10","[1691.300000011921]","1","2","","","4537","104","8","1","win","go","0"
"pit-trial","226","1358693","0.0-109.0","battery-v0.2","","""event"",""trial"",""time""
""fullscreenenter"",""1"",""2309""
","
","
","""event"",""trial"",""time""
""fullscreenenter"",""1"",""2309""
","
","","","1853.9000000059605","","","25","4537","3207","g","elianto","#f73b6a7A"," "," ","1","-10","[2705.300000011921]","1","2","","","4537","105","6","3","lose","go","1"
"pit-trial","227","1362332","0.0-110.0","battery-v0.2","","""event"",""trial"",""time""
""fullscreenenter"",""1"",""2309""
","
","
","""event"",""trial"",""time""
""fullscreenenter"",""1"",""2309""
","
","","","782.8999999761581","","","25","4537","3207","s","elianto","#3366ff99"," "," ","1","0","[1633]","1","2","","","4537","106","4","1","win","go","1"
"pit-trial","228","1365882","0.0-111.0","battery-v0.2","","""event"",""trial"",""time""
""fullscreenenter"",""1"",""2309""
","
","
","""event"",""trial"",""time""
""fullscreenenter"",""1"",""2309""
","
","","","693.5999999940395","","","25","4537","3207","l","elianto","#3366ff99"," "," ","1","+10","[1543.9000000059605]","1","2","","","4537","107","8","1","win","go","0"
"pit-trial","229","1369757","0.0-112.0","battery-v0.2","","""event"",""trial"",""time""
""fullscreenenter"",""1"",""2309""
","
","
","""event"",""trial"",""time""
""fullscreenenter"",""1"",""2309""
","
","","","1016.4000000059605","","","25","4537","3207","u","elianto","#3366ff99"," "," ","1","+10","[1868.2999999821186]","1","2","","","4537","108","9","1","win","go","0"
"pit-trial","230","1373692","0.0-113.0","battery-v0.2","","""event"",""trial"",""time""
""fullscreenenter"",""1"",""2309""
","
","
","""event"",""trial"",""time""
""fullscreenenter"",""1"",""2309""
","
","","","1077.5999999940395","","","25","4537","3207","l","elianto","#3366ff99"," "," ","1","+10","[1928]","1","2","","","4537","109","8","1","win","go","0"
"pit-trial","231","1378551","0.0-114.0","battery-v0.2","","""event"",""trial"",""time""
""fullscreenenter"",""1"",""2309""
","
","
","""event"",""trial"",""time""
""fullscreenenter"",""1"",""2309""
","
","","","-1","","","25","4537","3207","g","elianto","#f73b6a7A"," ","-1","0","-10","[]","0","2","","","4537","110","6","3","lose","go","0"
"pit-trial","232","1382485","0.0-115.0","battery-v0.2","","""event"",""trial"",""time""
""fullscreenenter"",""1"",""2309""
","
","
","""event"",""trial"",""time""
""fullscreenenter"",""1"",""2309""
","
","","","1076.3999999761581","","","25","4537","3207","p","elianto","#3366ff99","-1"," ","0","0","[1926.5]","1","2","","","4537","111","5","2","win","no-go","0"
"pit-trial","233","1386365","0.0-116.0","battery-v0.2","","""event"",""trial"",""time""
""fullscreenenter"",""1"",""2309""
","
","
","""event"",""trial"",""time""
""fullscreenenter"",""1"",""2309""
","
","","","1020.9000000059605","","","25","4537","3207","u","elianto","#3366ff99"," "," ","1","+10","[1872.199999988079]","1","2","","","4537","112","9","1","win","go","0"
"pit-trial","234","1391223","0.0-117.0","battery-v0.2","","""event"",""trial"",""time""
""fullscreenenter"",""1"",""2309""
","
","
","""event"",""trial"",""time""
""fullscreenenter"",""1"",""2309""
","
","","","-1","","","25","4537","3207","g","elianto","#f73b6a7A"," ","-1","0","-10","[]","0","2","","","4537","113","6","3","lose","go","0"
"pit-trial","235","1395037","0.0-118.0","battery-v0.2","","""event"",""trial"",""time""
""fullscreenenter"",""1"",""2309""
","
","
","""event"",""trial"",""time""
""fullscreenenter"",""1"",""2309""
","
","","","955.5","","","25","4537","3207","p","elianto","#3366ff99","-1"," ","0","0","[1807.5]","1","2","","","4537","114","5","2","win","no-go","0"
"pit-trial","236","1399053","0.0-119.0","battery-v0.2","","""event"",""trial"",""time""
""fullscreenenter"",""1"",""2309""
","
","
","""event"",""trial"",""time""
""fullscreenenter"",""1"",""2309""
","
","","","1157.7999999821186","","","25","4537","3207","u","elianto","#3366ff99"," "," ","1","+10","[2007.9000000059605]","1","2","","","4537","115","9","1","win","go","0"
"pit-trial","237","1402665","0.0-120.0","battery-v0.2","","""event"",""trial"",""time""
""fullscreenenter"",""1"",""2309""
","
","
","""event"",""trial"",""time""
""fullscreenenter"",""1"",""2309""
","
","","","753.9000000059605","","","25","4537","3207","l","elianto","#3366ff99"," "," ","1","0","[1607.4000000059605]","1","2","","","4537","116","8","1","win","go","1"
"pit-trial","238","1406937","0.0-121.0","battery-v0.2","","""event"",""trial"",""time""
""fullscreenenter"",""1"",""2309""
","
","
","""event"",""trial"",""time""
""fullscreenenter"",""1"",""2309""
","
","","","1417.800000011921","","","25","4537","3207","p","elianto","#3366ff99","-1"," ","0","0","[2268.699999988079]","1","2","","","4537","117","5","2","win","no-go","0"
"pit-trial","239","1411796","0.0-122.0","battery-v0.2","","""event"",""trial"",""time""
""fullscreenenter"",""1"",""2309""
","
","
","""event"",""trial"",""time""
""fullscreenenter"",""1"",""2309""
","
","","","-1","","","25","4537","3207","g","elianto","#f73b6a7A"," ","-1","0","-10","[]","0","2","","","4537","118","6","3","lose","go","0"
"pit-trial","240","1415307","0.0-123.0","battery-v0.2","","""event"",""trial"",""time""
""fullscreenenter"",""1"",""2309""
","
","
","""event"",""trial"",""time""
""fullscreenenter"",""1"",""2309""
","
","","","653.2000000178814","","","25","4537","3207","l","elianto","#3366ff99"," "," ","1","+10","[1505.2000000178814]","1","2","","","4537","119","8","1","win","go","0"
"pit-trial","241","1419035","0.0-124.0","battery-v0.2","","""event"",""trial"",""time""
""fullscreenenter"",""1"",""2309""
","
","
","""event"",""trial"",""time""
""fullscreenenter"",""1"",""2309""
","
","","","869.5","","","25","4537","3207","u","elianto","#3366ff99"," "," ","1","0","[1720.0999999940395]","1","2","","","4537","120","9","1","win","go","1"
"pit-trial","242","1422698","0.0-125.0","battery-v0.2","","""event"",""trial"",""time""
""fullscreenenter"",""1"",""2309""
","
","
","""event"",""trial"",""time""
""fullscreenenter"",""1"",""2309""
","
","","","807.7000000178814","","","25","4537","3207","u","elianto","#3366ff99"," "," ","1","+10","[1657.699999988079]","1","2","","","4537","121","9","1","win","go","0"
"pit-trial","243","1427556","0.0-126.0","battery-v0.2","","""event"",""trial"",""time""
""fullscreenenter"",""1"",""2309""
","
","
","""event"",""trial"",""time""
""fullscreenenter"",""1"",""2309""
","
","","","-1","","","25","4537","3207","g","elianto","#f73b6a7A"," ","-1","0","-10","[]","0","2","","","4537","122","6","3","lose","go","0"
"pit-trial","244","1432415","0.0-127.0","battery-v0.2","","""event"",""trial"",""time""
""fullscreenenter"",""1"",""2309""
","
","
","""event"",""trial"",""time""
""fullscreenenter"",""1"",""2309""
","
","","","-1","","","25","4537","3207","a","elianto","#f73b6a7A","-1","-1","1","0","[]","0","2","","","4537","123","7","4","lose","no-go","0"
"pit-trial","245","1436537","0.0-128.0","battery-v0.2","","""event"",""trial"",""time""
""fullscreenenter"",""1"",""2309""
","
","
","""event"",""trial"",""time""
""fullscreenenter"",""1"",""2309""
","
","","","1266.4000000059605","","","25","4537","3207","l","elianto","#3366ff99"," "," ","1","+10","[2117.9000000059605]","1","2","","","4537","124","8","1","win","go","0"
"pit-trial","246","1440083","0.0-129.0","battery-v0.2","","""event"",""trial"",""time""
""fullscreenenter"",""1"",""2309""
","
","
","""event"",""trial"",""time""
""fullscreenenter"",""1"",""2309""
","
","","","689.2000000178814","","","25","4537","3207","l","elianto","#3366ff99"," "," ","1","+10","[1539.7999999821186]","1","2","","","4537","125","8","1","win","go","0"
"pit-trial","247","1443624","0.0-130.0","battery-v0.2","","""event"",""trial"",""time""
""fullscreenenter"",""1"",""2309""
","
","
","""event"",""trial"",""time""
""fullscreenenter"",""1"",""2309""
","
","","","686.5","","","25","4537","3207","a","elianto","#f73b6a7A","-1"," ","0","-10","[1536.7000000178814]","1","2","","","4537","126","7","4","lose","no-go","0"
"pit-trial","248","1448483","0.0-131.0","battery-v0.2","","""event"",""trial"",""time""
""fullscreenenter"",""1"",""2309""
","
","
","""event"",""trial"",""time""
""fullscreenenter"",""1"",""2309""
","
","","","-1","","","25","4537","3207","g","elianto","#f73b6a7A"," ","-1","0","-10","[]","0","2","","","4537","127","6","3","lose","go","0"
"pit-trial","249","1452030","0.0-132.0","battery-v0.2","","""event"",""trial"",""time""
""fullscreenenter"",""1"",""2309""
","
","
","""event"",""trial"",""time""
""fullscreenenter"",""1"",""2309""
","
","","","687.3000000119209","","","25","4537","3207","u","elianto","#3366ff99"," "," ","1","0","[1537.800000011921]","1","2","","","4537","128","9","1","win","go","1"
"pit-trial","250","1455594","0.0-133.0","battery-v0.2","","""event"",""trial"",""time""
""fullscreenenter"",""1"",""2309""
","
","
","""event"",""trial"",""time""
""fullscreenenter"",""1"",""2309""
","
","","","706.5999999940395","","","25","4537","3207","u","elianto","#3366ff99"," "," ","1","+10","[1558.5]","1","2","","","4537","129","9","1","win","go","0"
"pit-trial","251","1460453","0.0-134.0","battery-v0.2","","""event"",""trial"",""time""
""fullscreenenter"",""1"",""2309""
","
","
","""event"",""trial"",""time""
""fullscreenenter"",""1"",""2309""
","
","","","-1","","","25","4537","3207","a","elianto","#f73b6a7A","-1","-1","1","0","[]","0","2","","","4537","130","7","4","lose","no-go","0"
"pit-trial","252","1464249","0.0-135.0","battery-v0.2","","""event"",""trial"",""time""
""fullscreenenter"",""1"",""2309""
","
","
","""event"",""trial"",""time""
""fullscreenenter"",""1"",""2309""
","
","","","941.6999999880791","","","25","4537","3207","l","elianto","#3366ff99"," "," ","1","+10","[1792]","1","2","","","4537","131","8","1","win","go","0"
"pit-trial","253","1469108","0.0-136.0","battery-v0.2","","""event"",""trial"",""time""
""fullscreenenter"",""1"",""2309""
","
","
","""event"",""trial"",""time""
""fullscreenenter"",""1"",""2309""
","
","","","-1","","","25","4537","3207","g","elianto","#f73b6a7A"," ","-1","0","-10","[]","0","2","","","4537","132","6","3","lose","go","0"
"pit-trial","254","1472707","0.0-137.0","battery-v0.2","","""event"",""trial"",""time""
""fullscreenenter"",""1"",""2309""
","
","
","""event"",""trial"",""time""
""fullscreenenter"",""1"",""2309""
","
","","","739.5999999940395","","","25","4537","3207","u","elianto","#3366ff99"," "," ","1","+10","[1591.9000000059605]","1","2","","","4537","133","9","1","win","go","0"
"pit-trial","255","1477565","0.0-138.0","battery-v0.2","","""event"",""trial"",""time""
""fullscreenenter"",""1"",""2309""
","
","
","""event"",""trial"",""time""
""fullscreenenter"",""1"",""2309""
","
","","","-1","","","25","4537","3207","a","elianto","#f73b6a7A","-1","-1","1","0","[]","0","2","","","4537","134","7","4","lose","no-go","0"
"pit-trial","256","1481194","0.0-139.0","battery-v0.2","","""event"",""trial"",""time""
""fullscreenenter"",""1"",""2309""
","
","
","""event"",""trial"",""time""
""fullscreenenter"",""1"",""2309""
","
","","","771.3999999761581","","","25","4537","3207","l","elianto","#3366ff99"," "," ","1","+10","[1623.199999988079]","1","2","","","4537","135","8","1","win","go","0"
"pit-trial","257","1486054","0.0-140.0","battery-v0.2","","""event"",""trial"",""time""
""fullscreenenter"",""1"",""2309""
","
","
","""event"",""trial"",""time""
""fullscreenenter"",""1"",""2309""
","
","","","-1","","","25","4537","3207","g","elianto","#f73b6a7A"," ","-1","0","0","[]","0","2","","","4537","136","6","3","lose","go","1"
"pit-trial","258","1490911","0.0-141.0","battery-v0.2","","""event"",""trial"",""time""
""fullscreenenter"",""1"",""2309""
","
","
","""event"",""trial"",""time""
""fullscreenenter"",""1"",""2309""
","
","","","-1","","","25","4537","3207","a","elianto","#f73b6a7A","-1","-1","1","0","[]","0","2","","","4537","137","7","4","lose","no-go","0"
"pit-trial","259","1495770","0.0-142.0","battery-v0.2","","""event"",""trial"",""time""
""fullscreenenter"",""1"",""2309""
","
","
","""event"",""trial"",""time""
""fullscreenenter"",""1"",""2309""
","
","","","-1","","","25","4537","3207","g","elianto","#f73b6a7A"," ","-1","0","0","[]","0","2","","","4537","138","6","3","lose","go","1"
"pit-trial","260","1499404","0.0-143.0","battery-v0.2","","""event"",""trial"",""time""
""fullscreenenter"",""1"",""2309""
","
","
","""event"",""trial"",""time""
""fullscreenenter"",""1"",""2309""
","
","","","774.6000000238419","","","25","4537","3207","u","elianto","#3366ff99"," "," ","1","+10","[1626.1000000238419]","1","2","","","4537","139","9","1","win","go","0"
"pit-trial","261","1502863","0.0-144.0","battery-v0.2","","""event"",""trial"",""time""
""fullscreenenter"",""1"",""2309""
","
","
","""event"",""trial"",""time""
""fullscreenenter"",""1"",""2309""
","
","","","605.2000000178814","","","25","4537","3207","l","elianto","#3366ff99"," "," ","1","+10","[1455.4000000059605]","1","2","","","4537","140","8","1","win","go","0"
"pit-instructions","262","1517127","0.0-145.0","battery-v0.2","","""event"",""trial"",""time""
""fullscreenenter"",""1"",""2309""
","
","
","""event"",""trial"",""time""
""fullscreenenter"",""1"",""2309""
","
","","[{""page_index"":0,""viewing_time"":5833.5999999940395},{""page_index"":1,""viewing_time"":8427.90000000596}]","14262.299999982119","","","","","","","","","","","","","","","","","","","","","","","",""
"pit-trial","263","1521204","0.0-146.0","battery-v0.2","","""event"",""trial"",""time""
""fullscreenenter"",""1"",""2309""
","
","
","""event"",""trial"",""time""
""fullscreenenter"",""1"",""2309""
","
","","","1207.2000000178814","","","25","4537","3207","t","elianto","#f73b6a7A","-1"," ","0","-10","[2057.5]","1","3","","","4537","141","2","4","lose","no-go","0"
"pit-trial","264","1524730","0.0-147.0","battery-v0.2","","""event"",""trial"",""time""
""fullscreenenter"",""1"",""2309""
","
","
","""event"",""trial"",""time""
""fullscreenenter"",""1"",""2309""
","
","","","668.5999999940395","","","25","4537","3207","b","elianto","#f73b6a7A"," "," ","1","-10","[1518.9000000059605]","1","3","","","4537","142","3","3","lose","go","1"
"pit-trial","265","1528233","0.0-148.0","battery-v0.2","","""event"",""trial"",""time""
""fullscreenenter"",""1"",""2309""
","
","
","""event"",""trial"",""time""
""fullscreenenter"",""1"",""2309""
","
","","","646.7999999821186","","","25","4537","3207","n","elianto","#f73b6a7A","-1"," ","0","-10","[1497.199999988079]","1","3","","","4537","143","0","4","lose","no-go","0"
"pit-trial","266","1531746","0.0-149.0","battery-v0.2","","""event"",""trial"",""time""
""fullscreenenter"",""1"",""2309""
","
","
","""event"",""trial"",""time""
""fullscreenenter"",""1"",""2309""
","
","","","653.2000000178814","","","25","4537","3207","f","elianto","#3366ff99"," "," ","1","+10","[1505.7999999821186]","1","3","","","4537","144","1","1","win","go","0"
"pit-trial","267","1536604","0.0-150.0","battery-v0.2","","""event"",""trial"",""time""
""fullscreenenter"",""1"",""2309""
","
","
