"trial_type","trial_index","time_elapsed","internal_node_id","task_version","subject_id","interactions","blur_events","focus_events","fullscreenenter_events","fullscreenexit_events","success","view_history","rt","responses","num_errors","age","subject","participantId","rune","rune_set","hex","correct","choice","accuracy","outcome","keys","total_keys","block","practice","value","sub","trial","stimulus","robot","valence","action","sham"
"pavlovia","0","4","0.0-0.0","battery-v0.2","","""event"",""trial"",""time""
""fullscreenenter"",""1"",""1373""
","
","
","""event"",""trial"",""time""
""fullscreenenter"",""1"",""1373""
","
","","","","","","","","","","","","","","","","","","","","","","","","","","",""
"fullscreen","1","2359","0.0-1.0","battery-v0.2","","""event"",""trial"",""time""
""fullscreenenter"",""1"",""1373""
","
","
","""event"",""trial"",""time""
""fullscreenenter"",""1"",""1373""
","
","true","","","","","","","","","","","","","","","","","","","","","","","","","",""
"pit-instructions","2","6402","0.0-2.0-0.0","battery-v0.2","","""event"",""trial"",""time""
""fullscreenenter"",""1"",""1373""
","
","
","""event"",""trial"",""time""
""fullscreenenter"",""1"",""1373""
","
","","[{""page_index"":0,""viewing_time"":4041.399999976158}]","4041.7999999821186","","","","","","","","","","","","","","","","","","","","","","","",""
"pit-comprehension","3","9040","0.0-2.0-1.0-0.0","battery-v0.2","","""event"",""trial"",""time""
""fullscreenenter"",""1"",""1373""
","
","
","""event"",""trial"",""time""
""fullscreenenter"",""1"",""1373""
","
","","","2635.2000000178814","[""shark""]","0","16","19945","2306","","","","","","","","","","","","","","","","","","",""
"pit-instructions","4","9988","0.0-2.0-1.0-1.0","battery-v0.2","","""event"",""trial"",""time""
""fullscreenenter"",""1"",""1373""
","
","
","""event"",""trial"",""time""
""fullscreenenter"",""1"",""1373""
","
","","[{""page_index"":0,""viewing_time"":944.7000000178814}]","944.9000000059605","","","","","","","","","","","","","","","","","","","","","","","",""
"pit-comprehension","5","12755","0.0-2.0-2.0-0.0","battery-v0.2","","""event"",""trial"",""time""
""fullscreenenter"",""1"",""1373""
","
","
","""event"",""trial"",""time""
""fullscreenenter"",""1"",""1373""
","
","","","2764.4000000059605","[""tiger""]","0","16","19945","2306","","","","","","","","","","","","","","","","","","",""
"pit-instructions","6","13877","0.0-2.0-2.0-1.0","battery-v0.2","","""event"",""trial"",""time""
""fullscreenenter"",""1"",""1373""
","
","
","""event"",""trial"",""time""
""fullscreenenter"",""1"",""1373""
","
","","[{""page_index"":0,""viewing_time"":1120.6000000238419}]","1120.800000011921","","","","","","","","","","","","","","","","","","","","","","","",""
"pit-instructions","7","157982","0.0-2.0-3.0","battery-v0.2","","""event"",""trial"",""time""
""fullscreenenter"",""1"",""1373""
","
","
","""event"",""trial"",""time""
""fullscreenenter"",""1"",""1373""
","
","","[{""page_index"":0,""viewing_time"":7793.4000000059605},{""page_index"":1,""viewing_time"":5307.699999988079},{""page_index"":2,""viewing_time"":6416.200000017881},{""page_index"":3,""viewing_time"":5390.299999982119},{""page_index"":4,""viewing_time"":5610.700000017881},{""page_index"":5,""viewing_time"":7947},{""page_index"":4,""viewing_time"":3328.9000000059605},{""page_index"":5,""viewing_time"":22374.29999998212},{""page_index"":6,""viewing_time"":27554.80000001192},{""page_index"":7,""viewing_time"":7521.0999999940395},{""page_index"":8,""viewing_time"":6650.300000011921},{""page_index"":9,""viewing_time"":8888},{""page_index"":10,""viewing_time"":8545.899999976158},{""page_index"":11,""viewing_time"":8796.40000000596},{""page_index"":12,""viewing_time"":6178.5},{""page_index"":13,""viewing_time"":5800.700000017881}]","144104.30000001192","","","","","","","","","","","","","","","","","","","","","","","",""
"pit-trial","8","161498","0.0-2.0-4.0-0.0","battery-v0.2","","""event"",""trial"",""time""
""fullscreenenter"",""1"",""1373""
","
","
","""event"",""trial"",""time""
""fullscreenenter"",""1"",""1373""
","
","","","662.1999999880791","","","16","19945","2306","&#9784;","elianto","#FFFFF080"," "," ","1","&#10004","[1512.4000000059605]","1","0","0","","","","","","","",""
"pit-trial","9","165006","0.0-2.0-4.1-0.1","battery-v0.2","","""event"",""trial"",""time""
""fullscreenenter"",""1"",""1373""
","
","
","""event"",""trial"",""time""
""fullscreenenter"",""1"",""1373""
","
","","","655.2999999821186","","","16","19945","2306","&#9784;","elianto","#FFFFF080"," "," ","1","&#10004","[1505.5]","1","0","0","","","","","","","",""
"pit-trial","10","168607","0.0-2.0-4.2-0.2","battery-v0.2","","""event"",""trial"",""time""
""fullscreenenter"",""1"",""1373""
","
","
","""event"",""trial"",""time""
""fullscreenenter"",""1"",""1373""
","
","","","732.5","","","16","19945","2306","&#9784;","elianto","#FFFFF080"," "," ","1","&#10004","[1585.4000000059605]","1","0","0","","","","","","","",""
"pit-trial","11","172216","0.0-2.0-4.3-0.3","battery-v0.2","","""event"",""trial"",""time""
""fullscreenenter"",""1"",""1373""
","
","
","""event"",""trial"",""time""
""fullscreenenter"",""1"",""1373""
","
","","","749.1999999880791","","","16","19945","2306","&#9784;","elianto","#FFFFF080"," "," ","1","&#10004","[1599.2000000178814]","1","0","0","","","","","","","",""
"pit-trial","12","175848","0.0-2.0-4.4-0.4","battery-v0.2","","""event"",""trial"",""time""
""fullscreenenter"",""1"",""1373""
","
","
","""event"",""trial"",""time""
""fullscreenenter"",""1"",""1373""
","
","","","768.2999999821186","","","16","19945","2306","&#9784;","elianto","#FFFFF080"," "," ","1","&#10004","[1619.2999999821186]","1","0","0","","","","","","","",""
"pit-instructions","13","198024","0.0-2.0-5.0","battery-v0.2","","""event"",""trial"",""time""
""fullscreenenter"",""1"",""1373""
","
","
","""event"",""trial"",""time""
""fullscreenenter"",""1"",""1373""
","
","","[{""page_index"":0,""viewing_time"":6014.9000000059605},{""page_index"":1,""viewing_time"":5983.5999999940395},{""page_index"":2,""viewing_time"":4806.799999982119},{""page_index"":3,""viewing_time"":5366.4000000059605}]","22172.09999999404","","","","","","","","","","","","","","","","","","","","","","","",""
"pit-trial","14","202894","0.0-2.0-6.0-0.0","battery-v0.2","","""event"",""trial"",""time""
""fullscreenenter"",""1"",""1373""
","
","
","""event"",""trial"",""time""
""fullscreenenter"",""1"",""1373""
","
","","","-1","","","16","19945","2306","&#9854;","elianto","#FFFFF080","-1","-1","1","&#10004","[]","0","0","1","","","","","","","",""
"pit-trial","15","207757","0.0-2.0-6.1-0.1","battery-v0.2","","""event"",""trial"",""time""
""fullscreenenter"",""1"",""1373""
","
","
","""event"",""trial"",""time""
""fullscreenenter"",""1"",""1373""
","
","","","-1","","","16","19945","2306","&#9854;","elianto","#FFFFF080","-1","-1","1","&#10004","[]","0","0","1","","","","","","","",""
"pit-trial","16","212623","0.0-2.0-6.2-0.2","battery-v0.2","","""event"",""trial"",""time""
""fullscreenenter"",""1"",""1373""
","
","
","""event"",""trial"",""time""
""fullscreenenter"",""1"",""1373""
","
","","","-1","","","16","19945","2306","&#9854;","elianto","#FFFFF080","-1","-1","1","&#10004","[]","0","0","1","","","","","","","",""
"pit-trial","17","217484","0.0-2.0-6.3-0.3","battery-v0.2","","""event"",""trial"",""time""
""fullscreenenter"",""1"",""1373""
","
","
","""event"",""trial"",""time""
""fullscreenenter"",""1"",""1373""
","
","","","-1","","","16","19945","2306","&#9854;","elianto","#FFFFF080","-1","-1","1","&#10004","[]","0","0","1","","","","","","","",""
"pit-trial","18","222347","0.0-2.0-6.4-0.4","battery-v0.2","","""event"",""trial"",""time""
""fullscreenenter"",""1"",""1373""
","
","
","""event"",""trial"",""time""
""fullscreenenter"",""1"",""1373""
","
","","","-1","","","16","19945","2306","&#9854;","elianto","#FFFFF080","-1","-1","1","&#10004","[]","0","0","1","","","","","","","",""
"pit-instructions","19","342576","0.0-2.0-7.0","battery-v0.2","","""event"",""trial"",""time""
""fullscreenenter"",""1"",""1373""
","
","
","""event"",""trial"",""time""
""fullscreenenter"",""1"",""1373""
","
","","[{""page_index"":0,""viewing_time"":7720.100000023842},{""page_index"":1,""viewing_time"":8227},{""page_index"":2,""viewing_time"":6122.399999976158},{""page_index"":3,""viewing_time"":6663.700000017881},{""page_index"":4,""viewing_time"":5580.799999982119},{""page_index"":5,""viewing_time"":6453.200000017881},{""page_index"":6,""viewing_time"":4611.9000000059605},{""page_index"":7,""viewing_time"":7590.199999988079},{""page_index"":8,""viewing_time"":7301.800000011921},{""page_index"":9,""viewing_time"":6330.799999982119},{""page_index"":10,""viewing_time"":6354.9000000059605},{""page_index"":11,""viewing_time"":4253.0999999940395},{""page_index"":12,""viewing_time"":8151.9000000059605},{""page_index"":13,""viewing_time"":7604.0999999940395},{""page_index"":14,""viewing_time"":7370.9000000059605},{""page_index"":15,""viewing_time"":6490.0999999940395},{""page_index"":16,""viewing_time"":6172.300000011921},{""page_index"":17,""viewing_time"":7227}]","120226.40000000596","","","","","","","","","","","","","","","","","","","","","","","",""
"pit-trial","20","346158","0.0-2.0-8.0-0.0","battery-v0.2","","""event"",""trial"",""time""
""fullscreenenter"",""1"",""1373""
","
","
","""event"",""trial"",""time""
""fullscreenenter"",""1"",""1373""
","
","","","721.3999999761581","","","16","19945","2306","&#9776;","elianto","#3366ff99"," "," ","1","+10","[1573.0999999940395]","1","0","1","","","","","","","",""
"pit-trial","21","349565","0.0-2.0-8.0-1.0","battery-v0.2","","""event"",""trial"",""time""
""fullscreenenter"",""1"",""1373""
","
","
","""event"",""trial"",""time""
""fullscreenenter"",""1"",""1373""
","
","","","551.5","","","16","19945","2306","&#9776;","elianto","#3366ff99"," "," ","1","+10","[1403.6000000238419]","1","0","1","","","","","","","",""
"pit-trial","22","352893","0.0-2.0-8.0-2.0","battery-v0.2","","""event"",""trial"",""time""
""fullscreenenter"",""1"",""1373""
","
","
","""event"",""trial"",""time""
""fullscreenenter"",""1"",""1373""
","
","","","472.2000000178814","","","16","19945","2306","&#9776;","elianto","#3366ff99"," "," ","1","+10","[1325]","1","0","1","","","","","","","",""
"pit-trial","23","356125","0.0-2.0-8.0-3.0","battery-v0.2","","""event"",""trial"",""time""
""fullscreenenter"",""1"",""1373""
","
","
","""event"",""trial"",""time""
""fullscreenenter"",""1"",""1373""
","
","","","371.09999999403954","","","16","19945","2306","&#9776;","elianto","#3366ff99"," "," ","1","0","[1224.4000000059605]","1","0","1","","","","","","","",""
"pit-trial","24","359450","0.0-2.0-8.0-4.0","battery-v0.2","","""event"",""trial"",""time""
""fullscreenenter"",""1"",""1373""
","
","
","""event"",""trial"",""time""
""fullscreenenter"",""1"",""1373""
","
","","","461.7000000178814","","","16","19945","2306","&#9776;","elianto","#3366ff99"," "," ","1","+10","[1315.7000000178814]","1","0","1","","","","","","","",""
"pit-trial","25","362758","0.0-2.0-8.1-0.1","battery-v0.2","","""event"",""trial"",""time""
""fullscreenenter"",""1"",""1373""
","
","
","""event"",""trial"",""time""
""fullscreenenter"",""1"",""1373""
","
","","","446","","","16","19945","2306","&#9776;","elianto","#3366ff99"," "," ","1","+10","[1298.0999999940395]","1","0","1","","","","","","","",""
"pit-trial","26","366049","0.0-2.0-8.1-1.1","battery-v0.2","","""event"",""trial"",""time""
""fullscreenenter"",""1"",""1373""
","
","
","""event"",""trial"",""time""
""fullscreenenter"",""1"",""1373""
","
","","","435.5","","","16","19945","2306","&#9776;","elianto","#3366ff99"," "," ","1","+10","[1287.5999999940395]","1","0","1","","","","","","","",""
"pit-trial","27","369280","0.0-2.0-8.1-2.1","battery-v0.2","","""event"",""trial"",""time""
""fullscreenenter"",""1"",""1373""
","
","
","""event"",""trial"",""time""
""fullscreenenter"",""1"",""1373""
","
","","","366.2999999821186","","","16","19945","2306","&#9776;","elianto","#3366ff99"," "," ","1","+10","[1218]","1","0","1","","","","","","","",""
"pit-trial","28","372613","0.0-2.0-8.1-3.1","battery-v0.2","","""event"",""trial"",""time""
""fullscreenenter"",""1"",""1373""
","
","
","""event"",""trial"",""time""
""fullscreenenter"",""1"",""1373""
","
","","","477.80000001192093","","","16","19945","2306","&#9776;","elianto","#3366ff99"," "," ","1","0","[1330.699999988079]","1","0","1","","","","","","","",""
"pit-trial","29","375821","0.0-2.0-8.1-4.1","battery-v0.2","","""event"",""trial"",""time""
""fullscreenenter"",""1"",""1373""
","
","
","""event"",""trial"",""time""
""fullscreenenter"",""1"",""1373""
","
","","","355.5","","","16","19945","2306","&#9776;","elianto","#3366ff99"," "," ","1","+10","[1205.800000011921]","1","0","1","","","","","","","",""
"pit-trial","30","379187","0.0-2.0-8.2-0.2","battery-v0.2","","""event"",""trial"",""time""
""fullscreenenter"",""1"",""1373""
","
","
","""event"",""trial"",""time""
""fullscreenenter"",""1"",""1373""
","
","","","512","","","16","19945","2306","&#9776;","elianto","#3366ff99"," "," ","1","+10","[1362.0999999940395]","1","0","1","","","","","","","",""
"pit-trial","31","382453","0.0-2.0-8.2-1.2","battery-v0.2","","""event"",""trial"",""time""
""fullscreenenter"",""1"",""1373""
","
","
","""event"",""trial"",""time""
""fullscreenenter"",""1"",""1373""
","
","","","412.7999999821186","","","16","19945","2306","&#9776;","elianto","#3366ff99"," "," ","1","+10","[1264.0999999940395]","1","0","1","","","","","","","",""
"pit-trial","32","385638","0.0-2.0-8.2-2.2","battery-v0.2","","""event"",""trial"",""time""
""fullscreenenter"",""1"",""1373""
","
","
","""event"",""trial"",""time""
""fullscreenenter"",""1"",""1373""
","
","","","332","","","16","19945","2306","&#9776;","elianto","#3366ff99"," "," ","1","+10","[1183.5]","1","0","1","","","","","","","",""
"pit-trial","33","389042","0.0-2.0-8.2-3.2","battery-v0.2","","""event"",""trial"",""time""
""fullscreenenter"",""1"",""1373""
","
","
","""event"",""trial"",""time""
""fullscreenenter"",""1"",""1373""
","
","","","550.3000000119209","","","16","19945","2306","&#9776;","elianto","#3366ff99"," "," ","1","0","[1401.800000011921]","1","0","1","","","","","","","",""
"pit-trial","34","392305","0.0-2.0-8.2-4.2","battery-v0.2","","""event"",""trial"",""time""
""fullscreenenter"",""1"",""1373""
","
","
","""event"",""trial"",""time""
""fullscreenenter"",""1"",""1373""
","
","","","409.7999999821186","","","16","19945","2306","&#9776;","elianto","#3366ff99"," "," ","1","+10","[1260.699999988079]","1","0","1","","","","","","","",""
"call-function","35","392306","0.0-2.0-9.0","battery-v0.2","","""event"",""trial"",""time""
""fullscreenenter"",""1"",""1373""
","
","
","""event"",""trial"",""time""
""fullscreenenter"",""1"",""1373""
","
","","","","","","","","","","","","","","","","","","","","","","","","","","",""
"pit-instructions","36","433412","0.0-2.0-10.0","battery-v0.2","","""event"",""trial"",""time""
""fullscreenenter"",""1"",""1373""
","
","
","""event"",""trial"",""time""
""fullscreenenter"",""1"",""1373""
","
","","[{""page_index"":0,""viewing_time"":7041.5},{""page_index"":1,""viewing_time"":7582.0999999940395},{""page_index"":2,""viewing_time"":9376.799999982119},{""page_index"":3,""viewing_time"":9560.90000000596},{""page_index"":4,""viewing_time"":7545.0999999940395}]","41106.5","","","","","","","","","","","","","","","","","","","","","","","",""
"pit-trial","37","438275","0.0-2.0-11.0-0.0","battery-v0.2","","""event"",""trial"",""time""
""fullscreenenter"",""1"",""1373""
","
","
","""event"",""trial"",""time""
""fullscreenenter"",""1"",""1373""
","
","","","-1","","","16","19945","2306","&#9761;","elianto","#3366ff99","-1","-1","1","+10","[]","0","0","2","","","","","","","",""
"pit-trial","38","443141","0.0-2.0-11.0-1.0","battery-v0.2","","""event"",""trial"",""time""
""fullscreenenter"",""1"",""1373""
","
","
","""event"",""trial"",""time""
""fullscreenenter"",""1"",""1373""
","
","","","-1","","","16","19945","2306","&#9761;","elianto","#3366ff99","-1","-1","1","+10","[]","0","0","2","","","","","","","",""
"pit-trial","39","448014","0.0-2.0-11.0-2.0","battery-v0.2","","""event"",""trial"",""time""
""fullscreenenter"",""1"",""1373""
","
","
","""event"",""trial"",""time""
""fullscreenenter"",""1"",""1373""
","
","","","-1","","","16","19945","2306","&#9761;","elianto","#3366ff99","-1","-1","1","+10","[]","0","0","2","","","","","","","",""
"pit-trial","40","452888","0.0-2.0-11.0-3.0","battery-v0.2","","""event"",""trial"",""time""
""fullscreenenter"",""1"",""1373""
","
","
","""event"",""trial"",""time""
""fullscreenenter"",""1"",""1373""
","
","","","-1","","","16","19945","2306","&#9761;","elianto","#3366ff99","-1","-1","1","0","[]","0","0","2","","","","","","","",""
"pit-trial","41","457754","0.0-2.0-11.0-4.0","battery-v0.2","","""event"",""trial"",""time""
""fullscreenenter"",""1"",""1373""
","
","
","""event"",""trial"",""time""
""fullscreenenter"",""1"",""1373""
","
","","","-1","","","16","19945","2306","&#9761;","elianto","#3366ff99","-1","-1","1","+10","[]","0","0","2","","","","","","","",""
"pit-trial","42","462627","0.0-2.0-11.1-0.1","battery-v0.2","","""event"",""trial"",""time""
""fullscreenenter"",""1"",""1373""
","
","
","""event"",""trial"",""time""
""fullscreenenter"",""1"",""1373""
","
","","","-1","","","16","19945","2306","&#9761;","elianto","#3366ff99","-1","-1","1","+10","[]","0","0","2","","","","","","","",""
"pit-trial","43","467478","0.0-2.0-11.1-1.1","battery-v0.2","","""event"",""trial"",""time""
""fullscreenenter"",""1"",""1373""
","
","
","""event"",""trial"",""time""
""fullscreenenter"",""1"",""1373""
","
","","","-1","","","16","19945","2306","&#9761;","elianto","#3366ff99","-1","-1","1","+10","[]","0","0","2","","","","","","","",""
"pit-trial","44","472332","0.0-2.0-11.1-2.1","battery-v0.2","","""event"",""trial"",""time""
""fullscreenenter"",""1"",""1373""
","
","
","""event"",""trial"",""time""
""fullscreenenter"",""1"",""1373""
","
","","","-1","","","16","19945","2306","&#9761;","elianto","#3366ff99","-1","-1","1","+10","[]","0","0","2","","","","","","","",""
"pit-trial","45","477186","0.0-2.0-11.1-3.1","battery-v0.2","","""event"",""trial"",""time""
""fullscreenenter"",""1"",""1373""
","
","
","""event"",""trial"",""time""
""fullscreenenter"",""1"",""1373""
","
","","","-1","","","16","19945","2306","&#9761;","elianto","#3366ff99","-1","-1","1","0","[]","0","0","2","","","","","","","",""
"pit-trial","46","482039","0.0-2.0-11.1-4.1","battery-v0.2","","""event"",""trial"",""time""
""fullscreenenter"",""1"",""1373""
","
","
","""event"",""trial"",""time""
""fullscreenenter"",""1"",""1373""
","
","","","-1","","","16","19945","2306","&#9761;","elianto","#3366ff99","-1","-1","1","+10","[]","0","0","2","","","","","","","",""
"pit-trial","47","486905","0.0-2.0-11.2-0.2","battery-v0.2","","""event"",""trial"",""time""
""fullscreenenter"",""1"",""1373""
","
","
","""event"",""trial"",""time""
""fullscreenenter"",""1"",""1373""
","
","","","-1","","","16","19945","2306","&#9761;","elianto","#3366ff99","-1","-1","1","+10","[]","0","0","2","","","","","","","",""
"pit-trial","48","491757","0.0-2.0-11.2-1.2","battery-v0.2","","""event"",""trial"",""time""
""fullscreenenter"",""1"",""1373""
","
","
","""event"",""trial"",""time""
""fullscreenenter"",""1"",""1373""
","
","","","-1","","","16","19945","2306","&#9761;","elianto","#3366ff99","-1","-1","1","+10","[]","0","0","2","","","","","","","",""
"pit-trial","49","496609","0.0-2.0-11.2-2.2","battery-v0.2","","""event"",""trial"",""time""
""fullscreenenter"",""1"",""1373""
","
","
","""event"",""trial"",""time""
""fullscreenenter"",""1"",""1373""
","
","","","-1","","","16","19945","2306","&#9761;","elianto","#3366ff99","-1","-1","1","+10","[]","0","0","2","","","","","","","",""
"pit-trial","50","501467","0.0-2.0-11.2-3.2","battery-v0.2","","""event"",""trial"",""time""
""fullscreenenter"",""1"",""1373""
","
","
","""event"",""trial"",""time""
""fullscreenenter"",""1"",""1373""
","
","","","-1","","","16","19945","2306","&#9761;","elianto","#3366ff99","-1","-1","1","0","[]","0","0","2","","","","","","","",""
"pit-trial","51","506320","0.0-2.0-11.2-4.2","battery-v0.2","","""event"",""trial"",""time""
""fullscreenenter"",""1"",""1373""
","
","
","""event"",""trial"",""time""
""fullscreenenter"",""1"",""1373""
","
","","","-1","","","16","19945","2306","&#9761;","elianto","#3366ff99","-1","-1","1","+10","[]","0","0","2","","","","","","","",""
"pit-trial","52","511173","0.0-2.0-11.3-0.3","battery-v0.2","","""event"",""trial"",""time""
""fullscreenenter"",""1"",""1373""
","
","
","""event"",""trial"",""time""
""fullscreenenter"",""1"",""1373""
","
","","","-1","","","16","19945","2306","&#9761;","elianto","#3366ff99","-1","-1","1","+10","[]","0","0","2","","","","","","","",""
"pit-trial","53","516025","0.0-2.0-11.3-1.3","battery-v0.2","","""event"",""trial"",""time""
""fullscreenenter"",""1"",""1373""
","
","
","""event"",""trial"",""time""
""fullscreenenter"",""1"",""1373""
","
","","","-1","","","16","19945","2306","&#9761;","elianto","#3366ff99","-1","-1","1","+10","[]","0","0","2","","","","","","","",""
"pit-trial","54","520878","0.0-2.0-11.3-2.3","battery-v0.2","","""event"",""trial"",""time""
""fullscreenenter"",""1"",""1373""
","
","
","""event"",""trial"",""time""
""fullscreenenter"",""1"",""1373""
","
","","","-1","","","16","19945","2306","&#9761;","elianto","#3366ff99","-1","-1","1","+10","[]","0","0","2","","","","","","","",""
"pit-trial","55","525732","0.0-2.0-11.3-3.3","battery-v0.2","","""event"",""trial"",""time""
""fullscreenenter"",""1"",""1373""
","
","
","""event"",""trial"",""time""
""fullscreenenter"",""1"",""1373""
","
","","","-1","","","16","19945","2306","&#9761;","elianto","#3366ff99","-1","-1","1","0","[]","0","0","2","","","","","","","",""
"pit-trial","56","530585","0.0-2.0-11.3-4.3","battery-v0.2","","""event"",""trial"",""time""
""fullscreenenter"",""1"",""1373""
","
","
","""event"",""trial"",""time""
""fullscreenenter"",""1"",""1373""
","
","","","-1","","","16","19945","2306","&#9761;","elianto","#3366ff99","-1","-1","1","+10","[]","0","0","2","","","","","","","",""
"call-function","57","530586","0.0-2.0-12.0","battery-v0.2","","""event"",""trial"",""time""
""fullscreenenter"",""1"",""1373""
","
","
","""event"",""trial"",""time""
""fullscreenenter"",""1"",""1373""
","
","","","","","","","","","","","","","","","","","","","","","","","","","","",""
"pit-instructions","58","562251","0.0-2.0-13.0","battery-v0.2","","""event"",""trial"",""time""
""fullscreenenter"",""1"",""1373""
","
","
","""event"",""trial"",""time""
""fullscreenenter"",""1"",""1373""
","
","","[{""page_index"":0,""viewing_time"":4968.299999982119},{""page_index"":1,""viewing_time"":7193.800000011921},{""page_index"":2,""viewing_time"":3118.9000000059605},{""page_index"":3,""viewing_time"":11378.5},{""page_index"":4,""viewing_time"":5004.899999976158}]","31664.69999998808","","","","","","","","","","","","","","","","","","","","","","","",""
"pit-trial","59","565976","0.0-2.0-14.0-0.0","battery-v0.2","","""event"",""trial"",""time""
""fullscreenenter"",""1"",""1373""
","
","
","""event"",""trial"",""time""
""fullscreenenter"",""1"",""1373""
","
","","","865.5999999940395","","","16","19945","2306","&#9826;","elianto","#f73b6a7A","-1"," ","0","-10","[1717.199999988079]","1","0","3","","","","","","","",""
"pit-trial","60","569377","0.0-2.0-14.0-1.0","battery-v0.2","","""event"",""trial"",""time""
""fullscreenenter"",""1"",""1373""
","
","
","""event"",""trial"",""time""
""fullscreenenter"",""1"",""1373""
","
","","","537.6000000238419","","","16","19945","2306","&#9826;","elianto","#f73b6a7A","-1"," ","0","-10","[1389.6000000238419]","1","0","3","","","","","","","",""
"pit-trial","61","574245","0.0-2.0-14.0-2.0","battery-v0.2","","""event"",""trial"",""time""
""fullscreenenter"",""1"",""1373""
","
","
","""event"",""trial"",""time""
""fullscreenenter"",""1"",""1373""
","
","","","-1","","","16","19945","2306","&#9826;","elianto","#f73b6a7A","-1","-1","1","0","[]","0","0","3","","","","","","","",""
"pit-trial","62","579118","0.0-2.0-14.0-3.0","battery-v0.2","","""event"",""trial"",""time""
""fullscreenenter"",""1"",""1373""
","
","
","""event"",""trial"",""time""
""fullscreenenter"",""1"",""1373""
","
","","","-1","","","16","19945","2306","&#9826;","elianto","#f73b6a7A","-1","-1","1","-10","[]","0","0","3","","","","","","","",""
"pit-trial","63","583987","0.0-2.0-14.0-4.0","battery-v0.2","","""event"",""trial"",""time""
""fullscreenenter"",""1"",""1373""
","
","
","""event"",""trial"",""time""
""fullscreenenter"",""1"",""1373""
","
","","","-1","","","16","19945","2306","&#9826;","elianto","#f73b6a7A","-1","-1","1","0","[]","0","0","3","","","","","","","",""
"pit-trial","64","588855","0.0-2.0-14.1-0.1","battery-v0.2","","""event"",""trial"",""time""
""fullscreenenter"",""1"",""1373""
","
","
","""event"",""trial"",""time""
""fullscreenenter"",""1"",""1373""
","
","","","-1","","","16","19945","2306","&#9826;","elianto","#f73b6a7A","-1","-1","1","0","[]","0","0","3","","","","","","","",""
"pit-trial","65","593710","0.0-2.0-14.1-1.1","battery-v0.2","","""event"",""trial"",""time""
""fullscreenenter"",""1"",""1373""
","
","
","""event"",""trial"",""time""
""fullscreenenter"",""1"",""1373""
","
","","","-1","","","16","19945","2306","&#9826;","elianto","#f73b6a7A","-1","-1","1","0","[]","0","0","3","","","","","","","",""
"pit-trial","66","598563","0.0-2.0-14.1-2.1","battery-v0.2","","""event"",""trial"",""time""
""fullscreenenter"",""1"",""1373""
","
","
","""event"",""trial"",""time""
""fullscreenenter"",""1"",""1373""
","
","","","-1","","","16","19945","2306","&#9826;","elianto","#f73b6a7A","-1","-1","1","0","[]","0","0","3","","","","","","","",""
"pit-trial","67","603414","0.0-2.0-14.1-3.1","battery-v0.2","","""event"",""trial"",""time""
""fullscreenenter"",""1"",""1373""
","
","
","""event"",""trial"",""time""
""fullscreenenter"",""1"",""1373""
","
","","","-1","","","16","19945","2306","&#9826;","elianto","#f73b6a7A","-1","-1","1","-10","[]","0","0","3","","","","","","","",""
"pit-trial","68","608268","0.0-2.0-14.1-4.1","battery-v0.2","","""event"",""trial"",""time""
""fullscreenenter"",""1"",""1373""
","
","
","""event"",""trial"",""time""
""fullscreenenter"",""1"",""1373""
","
","","","-1","","","16","19945","2306","&#9826;","elianto","#f73b6a7A","-1","-1","1","0","[]","0","0","3","","","","","","","",""
"pit-trial","69","613125","0.0-2.0-14.2-0.2","battery-v0.2","","""event"",""trial"",""time""
""fullscreenenter"",""1"",""1373""
","
","
","""event"",""trial"",""time""
""fullscreenenter"",""1"",""1373""
","
","","","-1","","","16","19945","2306","&#9826;","elianto","#f73b6a7A","-1","-1","1","0","[]","0","0","3","","","","","","","",""
"pit-trial","70","617977","0.0-2.0-14.2-1.2","battery-v0.2","","""event"",""trial"",""time""
""fullscreenenter"",""1"",""1373""
","
","
","""event"",""trial"",""time""
""fullscreenenter"",""1"",""1373""
","
","","","-1","","","16","19945","2306","&#9826;","elianto","#f73b6a7A","-1","-1","1","0","[]","0","0","3","","","","","","","",""
"pit-trial","71","622830","0.0-2.0-14.2-2.2","battery-v0.2","","""event"",""trial"",""time""
""fullscreenenter"",""1"",""1373""
","
","
","""event"",""trial"",""time""
""fullscreenenter"",""1"",""1373""
","
","","","-1","","","16","19945","2306","&#9826;","elianto","#f73b6a7A","-1","-1","1","0","[]","0","0","3","","","","","","","",""
"pit-trial","72","627681","0.0-2.0-14.2-3.2","battery-v0.2","","""event"",""trial"",""time""
""fullscreenenter"",""1"",""1373""
","
","
","""event"",""trial"",""time""
""fullscreenenter"",""1"",""1373""
","
","","","-1","","","16","19945","2306","&#9826;","elianto","#f73b6a7A","-1","-1","1","-10","[]","0","0","3","","","","","","","",""
"pit-trial","73","632534","0.0-2.0-14.2-4.2","battery-v0.2","","""event"",""trial"",""time""
""fullscreenenter"",""1"",""1373""
","
","
","""event"",""trial"",""time""
""fullscreenenter"",""1"",""1373""
","
","","","-1","","","16","19945","2306","&#9826;","elianto","#f73b6a7A","-1","-1","1","0","[]","0","0","3","","","","","","","",""
"pit-trial","74","637388","0.0-2.0-14.3-0.3","battery-v0.2","","""event"",""trial"",""time""
""fullscreenenter"",""1"",""1373""
","
","
","""event"",""trial"",""time""
""fullscreenenter"",""1"",""1373""
","
","","","-1","","","16","19945","2306","&#9826;","elianto","#f73b6a7A","-1","-1","1","0","[]","0","0","3","","","","","","","",""
"pit-trial","75","642241","0.0-2.0-14.3-1.3","battery-v0.2","","""event"",""trial"",""time""
""fullscreenenter"",""1"",""1373""
","
","
","""event"",""trial"",""time""
""fullscreenenter"",""1"",""1373""
","
","","","-1","","","16","19945","2306","&#9826;","elianto","#f73b6a7A","-1","-1","1","0","[]","0","0","3","","","","","","","",""
"pit-trial","76","647094","0.0-2.0-14.3-2.3","battery-v0.2","","""event"",""trial"",""time""
""fullscreenenter"",""1"",""1373""
","
","
","""event"",""trial"",""time""
""fullscreenenter"",""1"",""1373""
","
","","","-1","","","16","19945","2306","&#9826;","elianto","#f73b6a7A","-1","-1","1","0","[]","0","0","3","","","","","","","",""
"pit-trial","77","651947","0.0-2.0-14.3-3.3","battery-v0.2","","""event"",""trial"",""time""
""fullscreenenter"",""1"",""1373""
","
","
","""event"",""trial"",""time""
""fullscreenenter"",""1"",""1373""
","
","","","-1","","","16","19945","2306","&#9826;","elianto","#f73b6a7A","-1","-1","1","-10","[]","0","0","3","","","","","","","",""
"pit-trial","78","656800","0.0-2.0-14.3-4.3","battery-v0.2","","""event"",""trial"",""time""
""fullscreenenter"",""1"",""1373""
","
","
","""event"",""trial"",""time""
""fullscreenenter"",""1"",""1373""
","
","","","-1","","","16","19945","2306","&#9826;","elianto","#f73b6a7A","-1","-1","1","0","[]","0","0","3","","","","","","","",""
"call-function","79","656800","0.0-2.0-15.0","battery-v0.2","","""event"",""trial"",""time""
""fullscreenenter"",""1"",""1373""
","
","
","""event"",""trial"",""time""
""fullscreenenter"",""1"",""1373""
","
","","","","","","","","","","","","","","","","","","","","","","","","","","",""
"pit-instructions","80","685951","0.0-2.0-16.0","battery-v0.2","","""event"",""trial"",""time""
""fullscreenenter"",""1"",""1373""
","
","
","""event"",""trial"",""time""
""fullscreenenter"",""1"",""1373""
","
","","[{""page_index"":0,""viewing_time"":8146.199999988079},{""page_index"":1,""viewing_time"":11009.300000011921},{""page_index"":2,""viewing_time"":5089.5},{""page_index"":3,""viewing_time"":4905}]","29150.29999998212","","","","","","","","","","","","","","","","","","","","","","","",""
"pit-trial","81","689213","0.0-2.0-17.0-0.0","battery-v0.2","","""event"",""trial"",""time""
""fullscreenenter"",""1"",""1373""
","
","
","""event"",""trial"",""time""
""fullscreenenter"",""1"",""1373""
","
","","","404.40000000596046","","","16","19945","2306","&#9789;","elianto","#f73b6a7A"," "," ","1","0","[1254.9000000059605]","1","0","4","","","","","","","",""
"pit-trial","82","692423","0.0-2.0-17.0-1.0","battery-v0.2","","""event"",""trial"",""time""
""fullscreenenter"",""1"",""1373""
","
","
","""event"",""trial"",""time""
""fullscreenenter"",""1"",""1373""
","
","","","353.80000001192093","","","16","19945","2306","&#9789;","elianto","#f73b6a7A"," "," ","1","0","[1204.4000000059605,1491.7999999821186]","2","0","4","","","","","","","",""
"pit-trial","83","695630","0.0-2.0-17.0-2.0","battery-v0.2","","""event"",""trial"",""time""
""fullscreenenter"",""1"",""1373""
","
","
","""event"",""trial"",""time""
""fullscreenenter"",""1"",""1373""
","
","","","342.7000000178814","","","16","19945","2306","&#9789;","elianto","#f73b6a7A"," "," ","1","0","[1194.0999999940395]","1","0","4","","","","","","","",""
"pit-trial","84","698542","0.0-2.0-17.0-3.0","battery-v0.2","","""event"",""trial"",""time""
""fullscreenenter"",""1"",""1373""
","
","
","""event"",""trial"",""time""
""fullscreenenter"",""1"",""1373""
","
","","","50.79999998211861","","","16","19945","2306","&#9789;","elianto","#f73b6a7A"," "," ","1","-10","[902.6999999880791]","1","0","4","","","","","","","",""
"pit-trial","85","701452","0.0-2.0-17.0-4.0","battery-v0.2","","""event"",""trial"",""time""
""fullscreenenter"",""1"",""1373""
","
","
","""event"",""trial"",""time""
""fullscreenenter"",""1"",""1373""
","
","","","56.20000001788139","","","16","19945","2306","&#9789;","elianto","#f73b6a7A"," "," ","1","0","[908.1000000238419]","1","0","4","","","","","","","",""
"pit-trial","86","704484","0.0-2.0-17.1-0.1","battery-v0.2","","""event"",""trial"",""time""
""fullscreenenter"",""1"",""1373""
","
","
","""event"",""trial"",""time""
""fullscreenenter"",""1"",""1373""
","
","","","167","","","16","19945","2306","&#9789;","elianto","#f73b6a7A"," "," ","1","0","[455.09999999403954,1019.9000000059605]","2","0","4","","","","","","","",""
"pit-trial","87","707483","0.0-2.0-17.1-1.1","battery-v0.2","","""event"",""trial"",""time""
""fullscreenenter"",""1"",""1373""
","
","
","""event"",""trial"",""time""
""fullscreenenter"",""1"",""1373""
","
","","","140.09999999403954","","","16","19945","2306","&#9789;","elianto","#f73b6a7A"," "," ","1","0","[258.30000001192093,455.5,651.5999999940395,835.5,993.4000000059605,1181.5999999940395,1381.5999999940395]","7","0","4","","","","","","","",""
"pit-trial","88","710381","0.0-2.0-17.1-2.1","battery-v0.2","","""event"",""trial"",""time""
""fullscreenenter"",""1"",""1373""
","
","
","""event"",""trial"",""time""
""fullscreenenter"",""1"",""1373""
","
","","","30.299999982118607","","","16","19945","2306","&#9789;","elianto","#f73b6a7A"," "," ","1","0","[882.5999999940395]","1","0","4","","","","","","","",""
"pit-trial","89","714058","0.0-2.0-17.1-3.1","battery-v0.2","","""event"",""trial"",""time""
""fullscreenenter"",""1"",""1373""
","
","
","""event"",""trial"",""time""
""fullscreenenter"",""1"",""1373""
","
","","","815.5999999940395","","","16","19945","2306","&#9789;","elianto","#f73b6a7A"," "," ","1","-10","[806.5999999940395,1668.7999999821186]","2","0","4","","","","","","","",""
"pit-trial","90","717262","0.0-2.0-17.1-4.1","battery-v0.2","","""event"",""trial"",""time""
""fullscreenenter"",""1"",""1373""
","
","
","""event"",""trial"",""time""
""fullscreenenter"",""1"",""1373""
","
","","","351.2999999821186","","","16","19945","2306","&#9789;","elianto","#f73b6a7A"," "," ","1","0","[824.8000000119209,1201.5999999940395]","2","0","4","","","","","","","",""
"pit-trial","91","721032","0.0-2.0-17.2-0.2","battery-v0.2","","""event"",""trial"",""time""
""fullscreenenter"",""1"",""1373""
","
","
","""event"",""trial"",""time""
""fullscreenenter"",""1"",""1373""
","
","","","916.9000000059605","","","16","19945","2306","&#9789;","elianto","#f73b6a7A"," "," ","1","0","[760.6999999880791,1767]","2","0","4","","","","","","","",""
"pit-trial","92","724920","0.0-2.0-17.2-1.2","battery-v0.2","","""event"",""trial"",""time""
""fullscreenenter"",""1"",""1373""
","
","
","""event"",""trial"",""time""
""fullscreenenter"",""1"",""1373""
","
","","","1034.2000000178814","","","16","19945","2306","&#9789;","elianto","#f73b6a7A"," "," ","1","0","[843.4000000059605,1884.5]","2","0","4","","","","","","","",""
"pit-trial","93","727870","0.0-2.0-17.2-2.2","battery-v0.2","","""event"",""trial"",""time""
""fullscreenenter"",""1"",""1373""
","
","
","""event"",""trial"",""time""
""fullscreenenter"",""1"",""1373""
","
","","","96.5","","","16","19945","2306","&#9789;","elianto","#f73b6a7A"," "," ","1","0","[947.6999999880791]","1","0","4","","","","","","","",""
"pit-trial","94","730839","0.0-2.0-17.2-3.2","battery-v0.2","","""event"",""trial"",""time""
""fullscreenenter"",""1"",""1373""
","
","
","""event"",""trial"",""time""
""fullscreenenter"",""1"",""1373""
","
","","","115.2999999821186","","","16","19945","2306","&#9789;","elianto","#f73b6a7A"," "," ","1","-10","[967.1999999880791]","1","0","4","","","","","","","",""
"pit-trial","95","733883","0.0-2.0-17.2-4.2","battery-v0.2","","""event"",""trial"",""time""
""fullscreenenter"",""1"",""1373""
","
","
","""event"",""trial"",""time""
""fullscreenenter"",""1"",""1373""
","
","","","191.5","","","16","19945","2306","&#9789;","elianto","#f73b6a7A"," "," ","1","0","[1042.199999988079]","1","0","4","","","","","","","",""
"pit-trial","96","737082","0.0-2.0-17.3-0.3","battery-v0.2","","""event"",""trial"",""time""
""fullscreenenter"",""1"",""1373""
","
","
","""event"",""trial"",""time""
""fullscreenenter"",""1"",""1373""
","
","","","342.90000000596046","","","16","19945","2306","&#9789;","elianto","#f73b6a7A"," "," ","1","0","[1194.4000000059605]","1","0","4","","","","","","","",""
"pit-trial","97","740048","0.0-2.0-17.3-1.3","battery-v0.2","","""event"",""trial"",""time""
""fullscreenenter"",""1"",""1373""
","
","
","""event"",""trial"",""time""
""fullscreenenter"",""1"",""1373""
","
","","","114.2000000178814","","","16","19945","2306","&#9789;","elianto","#f73b6a7A"," "," ","1","0","[964.3000000119209]","1","0","4","","","","","","","",""
"pit-trial","98","743009","0.0-2.0-17.3-2.3","battery-v0.2","","""event"",""trial"",""time""
""fullscreenenter"",""1"",""1373""
","
","
","""event"",""trial"",""time""
""fullscreenenter"",""1"",""1373""
","
","","","108.10000002384186","","","16","19945","2306","&#9789;","elianto","#f73b6a7A"," "," ","1","0","[958.4000000059605]","1","0","4","","","","","","","",""
"pit-trial","99","746262","0.0-2.0-17.3-3.3","battery-v0.2","","""event"",""trial"",""time""
""fullscreenenter"",""1"",""1373""
","
","
","""event"",""trial"",""time""
""fullscreenenter"",""1"",""1373""
","
","","","400.59999999403954","","","16","19945","2306","&#9789;","elianto","#f73b6a7A"," "," ","1","-10","[1250.699999988079]","1","0","4","","","","","","","",""
"pit-trial","100","749363","0.0-2.0-17.3-4.3","battery-v0.2","","""event"",""trial"",""time""
""fullscreenenter"",""1"",""1373""
","
","
","""event"",""trial"",""time""
""fullscreenenter"",""1"",""1373""
","
","","","249.2000000178814","","","16","19945","2306","&#9789;","elianto","#f73b6a7A"," "," ","1","0","[1099.4000000059605]","1","0","4","","","","","","","",""
"call-function","101","749364","0.0-2.0-18.0","battery-v0.2","","""event"",""trial"",""time""
""fullscreenenter"",""1"",""1373""
","
","
","""event"",""trial"",""time""
""fullscreenenter"",""1"",""1373""
","
","","","","","","","","","","","","","","","","","","","","","","","","","","",""
"pit-instructions","102","812123","0.0-2.0-19.0","battery-v0.2","","""event"",""trial"",""time""
""fullscreenenter"",""1"",""1373""
","
","
","""event"",""trial"",""time""
""fullscreenenter"",""1"",""1373""
","
","","[{""page_index"":0,""viewing_time"":6851.800000011921},{""page_index"":1,""viewing_time"":4216.800000011921},{""page_index"":2,""viewing_time"":13150.699999988079},{""page_index"":3,""viewing_time"":7397.0999999940395},{""page_index"":4,""viewing_time"":7879},{""page_index"":5,""viewing_time"":8651.200000017881},{""page_index"":6,""viewing_time"":4746.799999982119},{""page_index"":7,""viewing_time"":6073.9000000059605},{""page_index"":8,""viewing_time"":3790.4000000059605}]","62757.90000000596","","","","","","","","","","","","","","","","","","","","","","","",""
"pit-comprehension","103","817507","0.0-2.0-20.0-0.0","battery-v0.2","","""event"",""trial"",""time""
""fullscreenenter"",""1"",""1373""
","
","
","""event"",""trial"",""time""
""fullscreenenter"",""1"",""1373""
","
","","","5382.9000000059605","[""SPACE""]","0","16","19945","2306","","","","","","","","","","","","","","","","","","",""
"pit-instructions","104","819957","0.0-2.0-20.0-1.0","battery-v0.2","","""event"",""trial"",""time""
""fullscreenenter"",""1"",""1373""
","
","
","""event"",""trial"",""time""
""fullscreenenter"",""1"",""1373""
","
","","[{""page_index"":0,""viewing_time"":2436.800000011921}]","2437.0999999940395","","","","","","","","","","","","","","","","","","","","","","","",""
"pit-comprehension","105","825515","0.0-2.0-21.0-0.0","battery-v0.2","","""event"",""trial"",""time""
""fullscreenenter"",""1"",""1373""
","
","
","""event"",""trial"",""time""
""fullscreenenter"",""1"",""1373""
","
","","","5556.0999999940395","[""10""]","0","16","19945","2306","","","","","","","","","","","","","","","","","","",""
"pit-instructions","106","827030","0.0-2.0-21.0-1.0","battery-v0.2","","""event"",""trial"",""time""
""fullscreenenter"",""1"",""1373""
","
","
","""event"",""trial"",""time""
""fullscreenenter"",""1"",""1373""
","
","","[{""page_index"":0,""viewing_time"":1499.4000000059605}]","1499.5","","","","","","","","","","","","","","","","","","","","","","","",""
"pit-comprehension","107","833461","0.0-2.0-22.0-0.0","battery-v0.2","","""event"",""trial"",""time""
""fullscreenenter"",""1"",""1373""
","
","
","""event"",""trial"",""time""
""fullscreenenter"",""1"",""1373""
","
","","","6430","[""0""]","0","16","19945","2306","","","","","","","","","","","","","","","","","","",""
"pit-instructions","108","836599","0.0-2.0-22.0-1.0","battery-v0.2","","""event"",""trial"",""time""
""fullscreenenter"",""1"",""1373""
","
","
","""event"",""trial"",""time""
""fullscreenenter"",""1"",""1373""
","
","","[{""page_index"":0,""viewing_time"":3123.0999999940395}]","3123.199999988079","","","","","","","","","","","","","","","","","","","","","","","",""
"pit-comprehension","109","845130","0.0-2.0-23.0-0.0","battery-v0.2","","""event"",""trial"",""time""
""fullscreenenter"",""1"",""1373""
","
","
","""event"",""trial"",""time""
""fullscreenenter"",""1"",""1373""
","
","","","8529.5","[""True""]","0","16","19945","2306","","","","","","","","","","","","","","","","","","",""
"pit-instructions","110","846890","0.0-2.0-23.0-1.0","battery-v0.2","","""event"",""trial"",""time""
""fullscreenenter"",""1"",""1373""
","
","
","""event"",""trial"",""time""
""fullscreenenter"",""1"",""1373""
","
","","[{""page_index"":0,""viewing_time"":1746.7000000178814}]","1746.9000000059605","","","","","","","","","","","","","","","","","","","","","","","",""
"pit-comprehension","111","855177","0.0-2.0-24.0-0.0","battery-v0.2","","""event"",""trial"",""time""
""fullscreenenter"",""1"",""1373""
","
","
","""event"",""trial"",""time""
""fullscreenenter"",""1"",""1373""
","
","","","8284.40000000596","[""True""]","0","16","19945","2306","","","","","","","","","","","","","","","","","","",""
"pit-instructions","112","857215","0.0-2.0-24.0-1.0","battery-v0.2","","""event"",""trial"",""time""
""fullscreenenter"",""1"",""1373""
","
","
","""event"",""trial"",""time""
""fullscreenenter"",""1"",""1373""
","
","","[{""page_index"":0,""viewing_time"":2025.0999999940395}]","2025.199999988079","","","","","","","","","","","","","","","","","","","","","","","",""
"pit-comprehension","113","863533","0.0-2.0-25.0-0.0","battery-v0.2","","""event"",""trial"",""time""
""fullscreenenter"",""1"",""1373""
","
","
","""event"",""trial"",""time""
""fullscreenenter"",""1"",""1373""
","
","","","6316.4000000059605","[""True""]","0","16","19945","2306","","","","","","","","","","","","","","","","","","",""
"pit-instructions","114","865169","0.0-2.0-25.0-1.0","battery-v0.2","","""event"",""trial"",""time""
""fullscreenenter"",""1"",""1373""
","
","
","""event"",""trial"",""time""
""fullscreenenter"",""1"",""1373""
","
","","[{""page_index"":0,""viewing_time"":1623.3999999761581}]","1623.5","","","","","","","","","","","","","","","","","","","","","","","",""
"pit-comprehension","115","869932","0.0-2.0-26.0-0.0","battery-v0.2","","""event"",""trial"",""time""
""fullscreenenter"",""1"",""1373""
","
","
","""event"",""trial"",""time""
""fullscreenenter"",""1"",""1373""
","
","","","4761.800000011921","[""False""]","0","16","19945","2306","","","","","","","","","","","","","","","","","","",""
"pit-instructions","116","871760","0.0-2.0-26.0-1.0","battery-v0.2","","""event"",""trial"",""time""
""fullscreenenter"",""1"",""1373""
","
","
","""event"",""trial"",""time""
""fullscreenenter"",""1"",""1373""
","
","","[{""page_index"":0,""viewing_time"":1813.2000000178814}]","1813.300000011921","","","","","","","","","","","","","","","","","","","","","","","",""
"pit-instructions","117","889274","0.0-3.0","battery-v0.2","","""event"",""trial"",""time""
""fullscreenenter"",""1"",""1373""
","
","
","""event"",""trial"",""time""
""fullscreenenter"",""1"",""1373""
","
","","[{""page_index"":0,""viewing_time"":6140.300000011921},{""page_index"":1,""viewing_time"":5111.0999999940395},{""page_index"":2,""viewing_time"":6262.5999999940395}]","17514.09999999404","","","","","","","","","","","","","","","","","","","","","","","",""
"pit-trial","118","893059","0.0-4.0","battery-v0.2","","""event"",""trial"",""time""
""fullscreenenter"",""1"",""1373""
","
","
","""event"",""trial"",""time""
""fullscreenenter"",""1"",""1373""
","
","","","928.5999999940395","","","16","19945","2306","&#9752;","elianto","#f73b6a7A"," "," ","1","0","[1782.199999988079]","1","1","","","19945","1","3","3","lose","go","0"
"pit-trial","119","896856","0.0-5.0","battery-v0.2","","""event"",""trial"",""time""
""fullscreenenter"",""1"",""1373""
","
","
","""event"",""trial"",""time""
""fullscreenenter"",""1"",""1373""
","
","","","937.1999999880791","","","16","19945","2306","&#9728;","elianto","#f73b6a7A","-1"," ","0","0","[1789.5]","1","1","","","19945","2","0","4","lose","no-go","1"
"pit-trial","120","901730","0.0-6.0","battery-v0.2","","""event"",""trial"",""time""
""fullscreenenter"",""1"",""1373""
","
","
","""event"",""trial"",""time""
""fullscreenenter"",""1"",""1373""
","
","","","-1","","","16","19945","2306","&#9733;","elianto","#3366ff99","-1","-1","1","0","[]","0","1","","","19945","3","2","2","win","no-go","1"
"pit-trial","121","905455","0.0-7.0","battery-v0.2","","""event"",""trial"",""time""
""fullscreenenter"",""1"",""1373""
","
","
","""event"",""trial"",""time""
""fullscreenenter"",""1"",""1373""
","
","","","865.5999999940395","","","16","19945","2306","&#9730;","elianto","#3366ff99"," "," ","1","+10","[1717.0999999940395]","1","1","","","19945","4","1","1","win","go","0"
"pit-trial","122","909913","0.0-8.0","battery-v0.2","","""event"",""trial"",""time""
""fullscreenenter"",""1"",""1373""
","
","
","""event"",""trial"",""time""
""fullscreenenter"",""1"",""1373""
","
","","","1602.2000000178814","","","16","19945","2306","&#9728;","elianto","#f73b6a7A","-1"," ","0","-10","[2454.0999999940395]","1","1","","","19945","5","0","4","lose","no-go","0"
"pit-trial","123","913813","0.0-9.0","battery-v0.2","","""event"",""trial"",""time""
""fullscreenenter"",""1"",""1373""
","
","
","""event"",""trial"",""time""
""fullscreenenter"",""1"",""1373""
","
","","","1031.4000000059605","","","16","19945","2306","&#9730;","elianto","#3366ff99"," "," ","1","+10","[1883.0999999940395]","1","1","","","19945","6","1","1","win","go","0"
"pit-trial","124","917694","0.0-10.0","battery-v0.2","","""event"",""trial"",""time""
""fullscreenenter"",""1"",""1373""
","
","
","""event"",""trial"",""time""
""fullscreenenter"",""1"",""1373""
","
","","","1017.9000000059605","","","16","19945","2306","&#9733;","elianto","#3366ff99","-1"," ","0","0","[1869.4000000059605]","1","1","","","19945","7","2","2","win","no-go","0"
"pit-trial","125","921581","0.0-11.0","battery-v0.2","","""event"",""trial"",""time""
""fullscreenenter"",""1"",""1373""
","
","
","""event"",""trial"",""time""
""fullscreenenter"",""1"",""1373""
","
","","","1031.5","","","16","19945","2306","&#9752;","elianto","#f73b6a7A"," "," ","1","-10","[1883.800000011921]","1","1","","","19945","8","3","3","lose","go","1"
"pit-trial","126","925527","0.0-12.0","battery-v0.2","","""event"",""trial"",""time""
""fullscreenenter"",""1"",""1373""
","
","
","""event"",""trial"",""time""
""fullscreenenter"",""1"",""1373""
","
","","","1091.699999988079","","","16","19945","2306","&#9752;","elianto","#f73b6a7A"," "," ","1","0","[1943.5999999940395]","1","1","","","19945","9","3","3","lose","go","0"
"pit-trial","127","930378","0.0-13.0","battery-v0.2","","""event"",""trial"",""time""
""fullscreenenter"",""1"",""1373""
","
","
","""event"",""trial"",""time""
""fullscreenenter"",""1"",""1373""
","
","","","-1","","","16","19945","2306","&#9728;","elianto","#f73b6a7A","-1","-1","1","0","[]","0","1","","","19945","10","0","4","lose","no-go","0"
"pit-trial","128","934718","0.0-14.0","battery-v0.2","","""event"",""trial"",""time""
""fullscreenenter"",""1"",""1373""
","
","
","""event"",""trial"",""time""
""fullscreenenter"",""1"",""1373""
","
","","","1486.199999988079","","","16","19945","2306","&#9733;","elianto","#3366ff99","-1"," ","0","+10","[2338.0999999940395]","1","1","","","19945","11","2","2","win","no-go","1"
"pit-trial","129","939572","0.0-15.0","battery-v0.2","","""event"",""trial"",""time""
""fullscreenenter"",""1"",""1373""
","
","
","""event"",""trial"",""time""
""fullscreenenter"",""1"",""1373""
","
","","","-1","","","16","19945","2306","&#9730;","elianto","#3366ff99"," ","-1","0","0","[]","0","1","","","19945","12","1","1","win","go","0"
"pit-trial","130","944433","0.0-16.0","battery-v0.2","","""event"",""trial"",""time""
""fullscreenenter"",""1"",""1373""
","
","
","""event"",""trial"",""time""
""fullscreenenter"",""1"",""1373""
","
","","","-1","","","16","19945","2306","&#9728;","elianto","#f73b6a7A","-1","-1","1","0","[]","0","1","","","19945","13","0","4","lose","no-go","0"
"pit-trial","131","948307","0.0-17.0","battery-v0.2","","""event"",""trial"",""time""
""fullscreenenter"",""1"",""1373""
","
","
","""event"",""trial"",""time""
""fullscreenenter"",""1"",""1373""
","
","","","1020.5999999940395","","","16","19945","2306","&#9733;","elianto","#3366ff99","-1"," ","0","0","[1871.2999999821186]","1","1","","","19945","14","2","2","win","no-go","0"
"pit-trial","132","952692","0.0-18.0","battery-v0.2","","""event"",""trial"",""time""
""fullscreenenter"",""1"",""1373""
","
","
","""event"",""trial"",""time""
""fullscreenenter"",""1"",""1373""
","
","","","1532.9000000059605","","","16","19945","2306","&#9752;","elianto","#f73b6a7A"," "," ","1","0","[2383.2000000178814]","1","1","","","19945","15","3","3","lose","go","0"
"pit-trial","133","956274","0.0-19.0","battery-v0.2","","""event"",""trial"",""time""
""fullscreenenter"",""1"",""1373""
","
","
","""event"",""trial"",""time""
""fullscreenenter"",""1"",""1373""
","
","","","730.1999999880791","","","16","19945","2306","&#9730;","elianto","#3366ff99"," "," ","1","+10","[1580.2999999821186]","1","1","","","19945","16","1","1","win","go","0"
"pit-trial","134","961127","0.0-20.0","battery-v0.2","","""event"",""trial"",""time""
""fullscreenenter"",""1"",""1373""
","
","
","""event"",""trial"",""time""
""fullscreenenter"",""1"",""1373""
","
","","","-1","","","16","19945","2306","&#9728;","elianto","#f73b6a7A","-1","-1","1","0","[]","0","1","","","19945","17","0","4","lose","no-go","0"
"pit-trial","135","965087","0.0-21.0","battery-v0.2","","""event"",""trial"",""time""
""fullscreenenter"",""1"",""1373""
","
","
","""event"",""trial"",""time""
""fullscreenenter"",""1"",""1373""
","
","","","1107.3999999761581","","","16","19945","2306","&#9752;","elianto","#f73b6a7A"," "," ","1","0","[1958.7999999821186]","1","1","","","19945","18","3","3","lose","go","0"
"pit-trial","136","968942","0.0-22.0","battery-v0.2","","""event"",""trial"",""time""
""fullscreenenter"",""1"",""1373""
","
","
","""event"",""trial"",""time""
""fullscreenenter"",""1"",""1373""
","
","","","1002.4000000059605","","","16","19945","2306","&#9733;","elianto","#3366ff99","-1"," ","0","+10","[1852.4000000059605]","1","1","","","19945","19","2","2","win","no-go","1"
"pit-trial","137","973356","0.0-23.0","battery-v0.2","","""event"",""trial"",""time""
""fullscreenenter"",""1"",""1373""
","
","
","""event"",""trial"",""time""
""fullscreenenter"",""1"",""1373""
","
","","","1561.0999999940395","","","16","19945","2306","&#9730;","elianto","#3366ff99"," "," ","1","0","[2413.0999999940395]","1","1","","","19945","20","1","1","win","go","1"
"pit-instructions","138","989807","0.0-24.0","battery-v0.2","","""event"",""trial"",""time""
""fullscreenenter"",""1"",""1373""
","
","
","""event"",""trial"",""time""
""fullscreenenter"",""1"",""1373""
","
","","[{""page_index"":0,""viewing_time"":8791.300000011921},{""page_index"":1,""viewing_time"":7659.199999988079}]","16450.70000001788","","","","","","","","","","","","","","","","","","","","","","","",""
"pit-trial","139","993613","0.0-25.0","battery-v0.2","","""event"",""trial"",""time""
""fullscreenenter"",""1"",""1373""
","
","
","""event"",""trial"",""time""
""fullscreenenter"",""1"",""1373""
","
","","","948.1999999880791","","","16","19945","2306","j","elianto","#f73b6a7A","-1"," ","0","-10","[1801.800000011921]","1","2","","","19945","21","0","4","lose","no-go","0"
"pit-trial","140","997178","0.0-26.0","battery-v0.2","","""event"",""trial"",""time""
""fullscreenenter"",""1"",""1373""
","
","
","""event"",""trial"",""time""
""fullscreenenter"",""1"",""1373""
","
","","","702.6999999880791","","","16","19945","2306","d","elianto","#3366ff99"," "," ","1","0","[1554.5]","1","2","","","19945","22","1","1","win","go","1"
"pit-trial","141","1001498","0.0-27.0","battery-v0.2","","""event"",""trial"",""time""
""fullscreenenter"",""1"",""1373""
","
","
","""event"",""trial"",""time""
""fullscreenenter"",""1"",""1373""
","
","","","1450.699999988079","","","16","19945","2306","e","elianto","#f73b6a7A","-1"," ","0","-10","[2303.0999999940395]","1","2","","","19945","23","2","4","lose","no-go","0"
"pit-trial","142","1005140","0.0-28.0","battery-v0.2","","""event"",""trial"",""time""
""fullscreenenter"",""1"",""1373""
","
","
","""event"",""trial"",""time""
""fullscreenenter"",""1"",""1373""
","
","","","779.8000000119209","","","16","19945","2306","w","elianto","#f73b6a7A"," "," ","1","0","[1630.300000011921]","1","2","","","19945","24","3","3","lose","go","0"
"pit-trial","143","1008638","0.0-29.0","battery-v0.2","","""event"",""trial"",""time""
""fullscreenenter"",""1"",""1373""
","
","
","""event"",""trial"",""time""
""fullscreenenter"",""1"",""1373""
","
","","","629.7999999821186","","","16","19945","2306","d","elianto","#3366ff99"," "," ","1","+10","[1483.0999999940395]","1","2","","","19945","25","1","1","win","go","0"
"pit-trial","144","1013500","0.0-30.0","battery-v0.2","","""event"",""trial"",""time""
""fullscreenenter"",""1"",""1373""
","
","
","""event"",""trial"",""time""
""fullscreenenter"",""1"",""1373""
","
","","","-1","","","16","19945","2306","e","elianto","#f73b6a7A","-1","-1","1","0","[]","0","2","","","19945","26","2","4","lose","no-go","0"
"pit-trial","145","1017292","0.0-31.0","battery-v0.2","","""event"",""trial"",""time""
""fullscreenenter"",""1"",""1373""
","
","
","""event"",""trial"",""time""
""fullscreenenter"",""1"",""1373""
","
","","","935.4000000059605","","","16","19945","2306","w","elianto","#f73b6a7A"," "," ","1","0","[1786.5999999940395]","1","2","","","19945","27","3","3","lose","go","0"
"pit-trial","146","1021593","0.0-32.0","battery-v0.2","","""event"",""trial"",""time""
""fullscreenenter"",""1"",""1373""
","
","
","""event"",""trial"",""time""
""fullscreenenter"",""1"",""1373""
","
","","","1447.2000000178814","","","16","19945","2306","j","elianto","#f73b6a7A","-1"," ","0","-10","[2297.300000011921]","1","2","","","19945","28","0","4","lose","no-go","0"
"pit-trial","147","1025225","0.0-33.0","battery-v0.2","","""event"",""trial"",""time""
""fullscreenenter"",""1"",""1373""
","
","
","""event"",""trial"",""time""
""fullscreenenter"",""1"",""1373""
","
","","","781.4000000059605","","","16","19945","2306","d","elianto","#3366ff99"," "," ","1","+10","[1631.800000011921]","1","2","","","19945","29","1","1","win","go","0"
"pit-trial","148","1030078","0.0-34.0","battery-v0.2","","""event"",""trial"",""time""
""fullscreenenter"",""1"",""1373""
","
","
","""event"",""trial"",""time""
""fullscreenenter"",""1"",""1373""
","
","","","-1","","","16","19945","2306","e","elianto","#f73b6a7A","-1","-1","1","0","[]","0","2","","","19945","30","2","4","lose","no-go","0"
"pit-trial","149","1033720","0.0-35.0","battery-v0.2","","""event"",""trial"",""time""
""fullscreenenter"",""1"",""1373""
","
","
","""event"",""trial"",""time""
""fullscreenenter"",""1"",""1373""
","
","","","789.6999999880791","","","16","19945","2306","w","elianto","#f73b6a7A"," "," ","1","0","[1639.8999999761581]","1","2","","","19945","31","3","3","lose","go","0"
"pit-trial","150","1038573","0.0-36.0","battery-v0.2","","""event"",""trial"",""time""
""fullscreenenter"",""1"",""1373""
","
","
","""event"",""trial"",""time""
""fullscreenenter"",""1"",""1373""
","
","","","-1","","","16","19945","2306","j","elianto","#f73b6a7A","-1","-1","1","-10","[]","0","2","","","19945","32","0","4","lose","no-go","1"
"pit-trial","151","1043425","0.0-37.0","battery-v0.2","","""event"",""trial"",""time""
""fullscreenenter"",""1"",""1373""
","
","
","""event"",""trial"",""time""
""fullscreenenter"",""1"",""1373""
","
","","","-1","","","16","19945","2306","e","elianto","#f73b6a7A","-1","-1","1","0","[]","0","2","","","19945","33","2","4","lose","no-go","0"
"pit-trial","152","1048278","0.0-38.0","battery-v0.2","","""event"",""trial"",""time""
""fullscreenenter"",""1"",""1373""
","
","
","""event"",""trial"",""time""
""fullscreenenter"",""1"",""1373""
","
","","","-1","","","16","19945","2306","j","elianto","#f73b6a7A","-1","-1","1","-10","[]","0","2","","","19945","34","0","4","lose","no-go","1"
"pit-trial","153","1051715","0.0-39.0","battery-v0.2","","""event"",""trial"",""time""
""fullscreenenter"",""1"",""1373""
","
","
","""event"",""trial"",""time""
""fullscreenenter"",""1"",""1373""
","
","","","585.2999999821186","","","16","19945","2306","d","elianto","#3366ff99"," "," ","1","+10","[1435.699999988079]","1","2","","","19945","35","1","1","win","go","0"
"pit-trial","154","1055703","0.0-40.0","battery-v0.2","","""event"",""trial"",""time""
""fullscreenenter"",""1"",""1373""
","
","
","""event"",""trial"",""time""
""fullscreenenter"",""1"",""1373""
","
","","","1134.3999999761581","","","16","19945","2306","w","elianto","#f73b6a7A"," "," ","1","0","[1985.5999999940395]","1","2","","","19945","36","3","3","lose","go","0"
"pit-trial","155","1059390","0.0-41.0","battery-v0.2","","""event"",""trial"",""time""
""fullscreenenter"",""1"",""1373""
","
","
","""event"",""trial"",""time""
""fullscreenenter"",""1"",""1373""
","
","","","835.6000000238419","","","16","19945","2306","w","elianto","#f73b6a7A"," "," ","1","0","[1685.6000000238419]","1","2","","","19945","37","3","3","lose","go","0"
"pit-trial","156","1063237","0.0-42.0","battery-v0.2","","""event"",""trial"",""time""
""fullscreenenter"",""1"",""1373""
","
","
","""event"",""trial"",""time""
""fullscreenenter"",""1"",""1373""
","
","","","993.3000000119209","","","16","19945","2306","d","elianto","#3366ff99"," "," ","1","+10","[1844.9000000059605]","1","2","","","19945","38","1","1","win","go","0"
"pit-trial","157","1066707","0.0-43.0","battery-v0.2","","""event"",""trial"",""time""
""fullscreenenter"",""1"",""1373""
","
","
","""event"",""trial"",""time""
""fullscreenenter"",""1"",""1373""
","
","","","617.5","","","16","19945","2306","j","elianto","#f73b6a7A","-1"," ","0","-10","[1468.199999988079]","1","2","","","19945","39","0","4","lose","no-go","0"
"pit-trial","158","1071558","0.0-44.0","battery-v0.2","","""event"",""trial"",""time""
""fullscreenenter"",""1"",""1373""
","
","
","""event"",""trial"",""time""
""fullscreenenter"",""1"",""1373""
","
","","","-1","","","16","19945","2306","e","elianto","#f73b6a7A","-1","-1","1","0","[]","0","2","","","19945","40","2","4","lose","no-go","0"
"pit-trial","159","1076411","0.0-45.0","battery-v0.2","","""event"",""trial"",""time""
""fullscreenenter"",""1"",""1373""
","
","
","""event"",""trial"",""time""
""fullscreenenter"",""1"",""1373""
","
","","","-1","","","16","19945","2306","j","elianto","#f73b6a7A","-1","-1","1","0","[]","0","2","","","19945","41","0","4","lose","no-go","0"
"pit-trial","160","1080115","0.0-46.0","battery-v0.2","","""event"",""trial"",""time""
""fullscreenenter"",""1"",""1373""
","
","
","""event"",""trial"",""time""
""fullscreenenter"",""1"",""1373""
","
","","","851.7000000178814","","","16","19945","2306","d","elianto","#3366ff99"," "," ","1","+10","[1702.300000011921]","1","2","","","19945","42","1","1","win","go","0"
"pit-trial","161","1083842","0.0-47.0","battery-v0.2","","""event"",""trial"",""time""
""fullscreenenter"",""1"",""1373""
","
","
","""event"",""trial"",""time""
""fullscreenenter"",""1"",""1373""
","
","","","874.4000000059605","","","16","19945","2306","w","elianto","#f73b6a7A"," "," ","1","0","[1725.0999999940395]","1","2","","","19945","43","3","3","lose","go","0"
"pit-trial","162","1088695","0.0-48.0","battery-v0.2","","""event"",""trial"",""time""
""fullscreenenter"",""1"",""1373""
","
","
","""event"",""trial"",""time""
""fullscreenenter"",""1"",""1373""
","
","","","-1","","","16","19945","2306","e","elianto","#f73b6a7A","-1","-1","1","0","[]","0","2","","","19945","44","2","4","lose","no-go","0"
"pit-trial","163","1093549","0.0-49.0","battery-v0.2","","""event"",""trial"",""time""
""fullscreenenter"",""1"",""1373""
","
","
","""event"",""trial"",""time""
""fullscreenenter"",""1"",""1373""
","
","","","-1","","","16","19945","2306","j","elianto","#f73b6a7A","-1","-1","1","0","[]","0","2","","","19945","45","0","4","lose","no-go","0"
"pit-trial","164","1097754","0.0-50.0","battery-v0.2","","""event"",""trial"",""time""
""fullscreenenter"",""1"",""1373""
","
","
","""event"",""trial"",""time""
""fullscreenenter"",""1"",""1373""
","
","","","1352","","","16","19945","2306","s","elianto","#3366ff99","-1"," ","0","0","[2202.800000011921]","1","2","","","19945","46","4","2","win","no-go","0"
"pit-trial","165","1101429","0.0-51.0","battery-v0.2","","""event"",""trial"",""time""
""fullscreenenter"",""1"",""1373""
","
","
","""event"",""trial"",""time""
""fullscreenenter"",""1"",""1373""
","
","","","821.0999999940395","","","16","19945","2306","w","elianto","#f73b6a7A"," "," ","1","0","[1671.300000011921]","1","2","","","19945","47","3","3","lose","go","0"
"pit-trial","166","1105692","0.0-52.0","battery-v0.2","","""event"",""trial"",""time""
""fullscreenenter"",""1"",""1373""
","
","
","""event"",""trial"",""time""
""fullscreenenter"",""1"",""1373""
","
","","","1410","","","16","19945","2306","e","elianto","#f73b6a7A","-1"," ","0","0","[2260.5]","1","2","","","19945","48","2","4","lose","no-go","1"
"pit-trial","167","1109116","0.0-53.0","battery-v0.2","","""event"",""trial"",""time""
""fullscreenenter"",""1"",""1373""
","
","
","""event"",""trial"",""time""
""fullscreenenter"",""1"",""1373""
","
","","","569.8999999761581","","","16","19945","2306","j","elianto","#f73b6a7A","-1"," ","0","-10","[1420.2999999821186]","1","2","","","19945","49","0","4","lose","no-go","0"
"pit-trial","168","1113073","0.0-54.0","battery-v0.2","","""event"",""trial"",""time""
""fullscreenenter"",""1"",""1373""
","
","
","""event"",""trial"",""time""
""fullscreenenter"",""1"",""1373""
","
","","","1105.9000000059605","","","16","19945","2306","d","elianto","#3366ff99"," "," ","1","0","[1956.9000000059605]","1","2","","","19945","50","1","1","win","go","1"
"pit-trial","169","1117082","0.0-55.0","battery-v0.2","","""event"",""trial"",""time""
""fullscreenenter"",""1"",""1373""
","
","
","""event"",""trial"",""time""
""fullscreenenter"",""1"",""1373""
","
","","","1154.2000000178814","","","16","19945","2306","w","elianto","#f73b6a7A"," "," ","1","-10","[2005.0999999940395]","1","2","","","19945","51","3","3","lose","go","1"
"pit-trial","170","1121002","0.0-56.0","battery-v0.2","","""event"",""trial"",""time""
""fullscreenenter"",""1"",""1373""
","
","
","""event"",""trial"",""time""
""fullscreenenter"",""1"",""1373""
","
","","","1067.199999988079","","","16","19945","2306","s","elianto","#3366ff99","-1"," ","0","+10","[1917.2999999821186]","1","2","","","19945","52","4","2","win","no-go","1"
"pit-trial","171","1124898","0.0-57.0","battery-v0.2","","""event"",""trial"",""time""
""fullscreenenter"",""1"",""1373""
","
","
","""event"",""trial"",""time""
""fullscreenenter"",""1"",""1373""
","
","","","1043.699999988079","","","16","19945","2306","d","elianto","#3366ff99"," "," ","1","+10","[1894.5999999940395]","1","2","","","19945","53","1","1","win","go","0"
"pit-trial","172","1129220","0.0-58.0","battery-v0.2","","""event"",""trial"",""time""
""fullscreenenter"",""1"",""1373""
","
","
","""event"",""trial"",""time""
""fullscreenenter"",""1"",""1373""
","
","","","1468.4000000059605","","","16","19945","2306","s","elianto","#3366ff99","-1"," ","0","0","[2319.4000000059605]","1","2","","","19945","54","4","2","win","no-go","0"
"pit-trial","173","1134073","0.0-59.0","battery-v0.2","","""event"",""trial"",""time""
""fullscreenenter"",""1"",""1373""
","
","
","""event"",""trial"",""time""
""fullscreenenter"",""1"",""1373""
","
","","","-1","","","16","19945","2306","e","elianto","#f73b6a7A","-1","-1","1","0","[]","0","2","","","19945","55","2","4","lose","no-go","0"
"pit-trial","174","1138926","0.0-60.0","battery-v0.2","","""event"",""trial"",""time""
""fullscreenenter"",""1"",""1373""
","
","
","""event"",""trial"",""time""
""fullscreenenter"",""1"",""1373""
","
","","","-1","","","16","19945","2306","j","elianto","#f73b6a7A","-1","-1","1","0","[]","0","2","","","19945","56","0","4","lose","no-go","0"
"pit-trial","175","1142648","0.0-61.0","battery-v0.2","","""event"",""trial"",""time""
""fullscreenenter"",""1"",""1373""
","
","
","""event"",""trial"",""time""
""fullscreenenter"",""1"",""1373""
","
","","","853.9000000059605","","","16","19945","2306","d","elianto","#3366ff99"," "," ","1","0","[1704.6000000238419]","1","2","","","19945","57","1","1","win","go","1"
"pit-trial","176","1146317","0.0-62.0","battery-v0.2","","""event"",""trial"",""time""
""fullscreenenter"",""1"",""1373""
","
","
","""event"",""trial"",""time""
""fullscreenenter"",""1"",""1373""
","
","","","815.6999999880791","","","16","19945","2306","w","elianto","#f73b6a7A"," "," ","1","0","[1667.199999988079]","1","2","","","19945","58","3","3","lose","go","0"
"pit-trial","177","1151169","0.0-63.0","battery-v0.2","","""event"",""trial"",""time""
""fullscreenenter"",""1"",""1373""
","
","
","""event"",""trial"",""time""
""fullscreenenter"",""1"",""1373""
","
","","","-1","","","16","19945","2306","j","elianto","#f73b6a7A","-1","-1","1","0","[]","0","2","","","19945","59","0","4","lose","no-go","0"
"pit-trial","178","1154928","0.0-64.0","battery-v0.2","","""event"",""trial"",""time""
""fullscreenenter"",""1"",""1373""
","
","
","""event"",""trial"",""time""
""fullscreenenter"",""1"",""1373""
","
","","","906","","","16","19945","2306","s","elianto","#3366ff99","-1"," ","0","0","[1756.5999999940395]","1","2","","","19945","60","4","2","win","no-go","0"
"pit-trial","179","1158418","0.0-65.0","battery-v0.2","","""event"",""trial"",""time""
""fullscreenenter"",""1"",""1373""
","
","
","""event"",""trial"",""time""
""fullscreenenter"",""1"",""1373""
","
","","","636.0999999940395","","","16","19945","2306","d","elianto","#3366ff99"," "," ","1","+10","[1487.2000000178814]","1","2","","","19945","61","1","1","win","go","0"
"pit-trial","180","1163271","0.0-66.0","battery-v0.2","","""event"",""trial"",""time""
""fullscreenenter"",""1"",""1373""
","
","
","""event"",""trial"",""time""
""fullscreenenter"",""1"",""1373""
","
","","","-1","","","16","19945","2306","s","elianto","#3366ff99","-1","-1","1","+10","[]","0","2","","","19945","62","4","2","win","no-go","0"
"pit-trial","181","1168122","0.0-67.0","battery-v0.2","","""event"",""trial"",""time""
""fullscreenenter"",""1"",""1373""
","
","
","""event"",""trial"",""time""
""fullscreenenter"",""1"",""1373""
","
","","","-1","","","16","19945","2306","e","elianto","#f73b6a7A","-1","-1","1","0","[]","0","2","","","19945","63","2","4","lose","no-go","0"
"pit-trial","182","1172976","0.0-68.0","battery-v0.2","","""event"",""trial"",""time""
""fullscreenenter"",""1"",""1373""
","
","
","""event"",""trial"",""time""
""fullscreenenter"",""1"",""1373""
","
","","","-1","","","16","19945","2306","w","elianto","#f73b6a7A"," ","-1","0","-10","[3002]","1","2","","","19945","64","3","3","lose","go","0"
"pit-trial","183","1176503","0.0-69.0","battery-v0.2","","""event"",""trial"",""time""
""fullscreenenter"",""1"",""1373""
","
","
","""event"",""trial"",""time""
""fullscreenenter"",""1"",""1373""
","
","","","675","","","16","19945","2306","d","elianto","#3366ff99"," "," ","1","+10","[1525.5]","1","2","","","19945","65","1","1","win","go","0"
"pit-trial","184","1181366","0.0-70.0","battery-v0.2","","""event"",""trial"",""time""
""fullscreenenter"",""1"",""1373""
","
","
","""event"",""trial"",""time""
""fullscreenenter"",""1"",""1373""
","
","","","-1","","","16","19945","2306","e","elianto","#f73b6a7A","-1","-1","1","-10","[]","0","2","","","19945","66","2","4","lose","no-go","1"
"pit-trial","185","1184918","0.0-71.0","battery-v0.2","","""event"",""trial"",""time""
""fullscreenenter"",""1"",""1373""
","
","
","""event"",""trial"",""time""
""fullscreenenter"",""1"",""1373""
","
","","","698.4000000059605","","","16","19945","2306","s","elianto","#3366ff99","-1"," ","0","0","[1550.300000011921]","1","2","","","19945","67","4","2","win","no-go","0"
"pit-trial","186","1188834","0.0-72.0","battery-v0.2","","""event"",""trial"",""time""
""fullscreenenter"",""1"",""1373""
","
","
","""event"",""trial"",""time""
""fullscreenenter"",""1"",""1373""
","
","","","1063.4000000059605","","","16","19945","2306","w","elianto","#f73b6a7A"," "," ","1","0","[1913.5999999940395]","1","2","","","19945","68","3","3","lose","go","0"
"pit-trial","187","1192572","0.0-73.0","battery-v0.2","","""event"",""trial"",""time""
""fullscreenenter"",""1"",""1373""
","
","
","""event"",""trial"",""time""
""fullscreenenter"",""1"",""1373""
","
","","","885.8000000119209","","","16","19945","2306","p","elianto","#3366ff99"," "," ","1","+10","[1735.9000000059605]","1","2","","","19945","69","5","1","win","go","0"
"pit-trial","188","1196162","0.0-74.0","battery-v0.2","","""event"",""trial"",""time""
""fullscreenenter"",""1"",""1373""
","
","
","""event"",""trial"",""time""
""fullscreenenter"",""1"",""1373""
","
","","","738.3999999761581","","","16","19945","2306","s","elianto","#3366ff99","-1"," ","0","0","[1588.7999999821186]","1","2","","","19945","70","4","2","win","no-go","0"
"pit-trial","189","1199757","0.0-75.0","battery-v0.2","","""event"",""trial"",""time""
""fullscreenenter"",""1"",""1373""
","
","
","""event"",""trial"",""time""
""fullscreenenter"",""1"",""1373""
","
","","","743.5999999940395","","","16","19945","2306","d","elianto","#3366ff99"," "," ","1","+10","[1593.7999999821186]","1","2","","","19945","71","1","1","win","go","0"
"pit-trial","190","1203419","0.0-76.0","battery-v0.2","","""event"",""trial"",""time""
""fullscreenenter"",""1"",""1373""
","
","
","""event"",""trial"",""time""
""fullscreenenter"",""1"",""1373""
","
","","","809.6999999880791","","","16","19945","2306","w","elianto","#f73b6a7A"," "," ","1","0","[1660]","1","2","","","19945","72","3","3","lose","go","0"
"pit-trial","191","1207030","0.0-77.0","battery-v0.2","","""event"",""trial"",""time""
""fullscreenenter"",""1"",""1373""
","
","
","""event"",""trial"",""time""
""fullscreenenter"",""1"",""1373""
","
","","","757.8999999761581","","","16","19945","2306","p","elianto","#3366ff99"," "," ","1","+10","[1608]","1","2","","","19945","73","5","1","win","go","0"
"pit-trial","192","1210726","0.0-78.0","battery-v0.2","","""event"",""trial"",""time""
""fullscreenenter"",""1"",""1373""
","
","
","""event"",""trial"",""time""
""fullscreenenter"",""1"",""1373""
","
","","","843.8000000119209","","","16","19945","2306","s","elianto","#3366ff99","-1"," ","0","0","[1695.2000000178814]","1","2","","","19945","74","4","2","win","no-go","0"
"pit-trial","193","1214222","0.0-79.0","battery-v0.2","","""event"",""trial"",""time""
""fullscreenenter"",""1"",""1373""
","
","
","""event"",""trial"",""time""
""fullscreenenter"",""1"",""1373""
","
","","","644.5","","","16","19945","2306","d","elianto","#3366ff99"," "," ","1","+10","[1494.5999999940395]","1","2","","","19945","75","1","1","win","go","0"
"pit-trial","194","1217838","0.0-80.0","battery-v0.2","","""event"",""trial"",""time""
""fullscreenenter"",""1"",""1373""
","
","
","""event"",""trial"",""time""
""fullscreenenter"",""1"",""1373""
","
","","","763.4000000059605","","","16","19945","2306","w","elianto","#f73b6a7A"," "," ","1","0","[1614]","1","2","","","19945","76","3","3","lose","go","0"
"pit-trial","195","1221459","0.0-81.0","battery-v0.2","","""event"",""trial"",""time""
""fullscreenenter"",""1"",""1373""
","
","
","""event"",""trial"",""time""
""fullscreenenter"",""1"",""1373""
","
","","","768.3000000119209","","","16","19945","2306","w","elianto","#f73b6a7A"," "," ","1","0","[1618.6000000238419]","1","2","","","19945","77","3","3","lose","go","0"
"pit-trial","196","1224906","0.0-82.0","battery-v0.2","","""event"",""trial"",""time""
""fullscreenenter"",""1"",""1373""
","
","
","""event"",""trial"",""time""
""fullscreenenter"",""1"",""1373""
","
","","","595.0999999940395","","","16","19945","2306","s","elianto","#3366ff99","-1"," ","0","0","[1445.9000000059605]","1","2","","","19945","78","4","2","win","no-go","0"
"pit-trial","197","1228989","0.0-83.0","battery-v0.2","","""event"",""trial"",""time""
""fullscreenenter"",""1"",""1373""
","
","
","""event"",""trial"",""time""
""fullscreenenter"",""1"",""1373""
","
","","","1229.800000011921","","","16","19945","2306","g","elianto","#f73b6a7A","-1"," ","0","0","[2080.300000011921]","1","2","","","19945","79","6","4","lose","no-go","1"
"pit-trial","198","1232746","0.0-84.0","battery-v0.2","","""event"",""trial"",""time""
""fullscreenenter"",""1"",""1373""
","
","
","""event"",""trial"",""time""
""fullscreenenter"",""1"",""1373""
","
","","","906.0999999940395","","","16","19945","2306","p","elianto","#3366ff99"," "," ","1","+10","[1756]","1","2","","","19945","80","5","1","win","go","0"
"pit-trial","199","1236568","0.0-85.0","battery-v0.2","","""event"",""trial"",""time""
""fullscreenenter"",""1"",""1373""
","
","
","""event"",""trial"",""time""
""fullscreenenter"",""1"",""1373""
","
","","","967.5","","","16","19945","2306","g","elianto","#f73b6a7A","-1"," ","0","0","[1819.300000011921]","1","2","","","19945","81","6","4","lose","no-go","1"
"pit-trial","200","1241420","0.0-86.0","battery-v0.2","","""event"",""trial"",""time""
""fullscreenenter"",""1"",""1373""
","
","
","""event"",""trial"",""time""
""fullscreenenter"",""1"",""1373""
","
","","","-1","","","16","19945","2306","s","elianto","#3366ff99","-1","-1","1","+10","[]","0","2","","","19945","82","4","2","win","no-go","0"
"pit-trial","201","1245279","0.0-87.0","battery-v0.2","","""event"",""trial"",""time""
""fullscreenenter"",""1"",""1373""
","
","
","""event"",""trial"",""time""
""fullscreenenter"",""1"",""1373""
","
","","","1004.7000000178814","","","16","19945","2306","a","elianto","#f73b6a7A"," "," ","1","-10","[1855.9000000059605]","1","2","","","19945","83","7","3","lose","go","1"
"pit-trial","202","1248982","0.0-88.0","battery-v0.2","","""event"",""trial"",""time""
""fullscreenenter"",""1"",""1373""
","
","
","""event"",""trial"",""time""
""fullscreenenter"",""1"",""1373""
","
","","","849.0999999940395","","","16","19945","2306","p","elianto","#3366ff99"," "," ","1","+10","[1700.4000000059605]","1","2","","","19945","84","5","1","win","go","0"
"pit-trial","203","1253835","0.0-89.0","battery-v0.2","","""event"",""trial"",""time""
""fullscreenenter"",""1"",""1373""
","
","
","""event"",""trial"",""time""
""fullscreenenter"",""1"",""1373""
","
","","","-1","","","16","19945","2306","s","elianto","#3366ff99","-1","-1","1","+10","[]","0","2","","","19945","85","4","2","win","no-go","0"
"pit-trial","204","1257511","0.0-90.0","battery-v0.2","","""event"",""trial"",""time""
""fullscreenenter"",""1"",""1373""
","
","
","""event"",""trial"",""time""
""fullscreenenter"",""1"",""1373""
","
","","","823.6999999880791","","","16","19945","2306","g","elianto","#f73b6a7A","-1"," ","0","-10","[1673.8999999761581]","1","2","","","19945","86","6","4","lose","no-go","0"
"pit-trial","205","1261267","0.0-91.0","battery-v0.2","","""event"",""trial"",""time""
""fullscreenenter"",""1"",""1373""
","
","
","""event"",""trial"",""time""
""fullscreenenter"",""1"",""1373""
","
","","","902.9000000059605","","","16","19945","2306","p","elianto","#3366ff99"," "," ","1","+10","[1753.4000000059605]","1","2","","","19945","87","5","1","win","go","0"
"pit-trial","206","1265136","0.0-92.0","battery-v0.2","","""event"",""trial"",""time""
""fullscreenenter"",""1"",""1373""
","
","
","""event"",""trial"",""time""
""fullscreenenter"",""1"",""1373""
","
","","","1017.3000000119209","","","16","19945","2306","a","elianto","#f73b6a7A"," "," ","1","0","[1867.300000011921]","1","2","","","19945","88","7","3","lose","go","0"
"pit-trial","207","1268848","0.0-93.0","battery-v0.2","","""event"",""trial"",""time""
""fullscreenenter"",""1"",""1373""
","
","
","""event"",""trial"",""time""
""fullscreenenter"",""1"",""1373""
","
","","","857.5","","","16","19945","2306","p","elianto","#3366ff99"," "," ","1","+10","[1708.4000000059605]","1","2","","","19945","89","5","1","win","go","0"
"pit-trial","208","1273701","0.0-94.0","battery-v0.2","","""event"",""trial"",""time""
""fullscreenenter"",""1"",""1373""
","
","
","""event"",""trial"",""time""
""fullscreenenter"",""1"",""1373""
","
","","","-1","","","16","19945","2306","g","elianto","#f73b6a7A","-1","-1","1","-10","[]","0","2","","","19945","90","6","4","lose","no-go","1"
"pit-trial","209","1278555","0.0-95.0","battery-v0.2","","""event"",""trial"",""time""
""fullscreenenter"",""1"",""1373""
","
","
","""event"",""trial"",""time""
""fullscreenenter"",""1"",""1373""
","
","","","-1","","","16","19945","2306","s","elianto","#3366ff99","-1","-1","1","+10","[]","0","2","","","19945","91","4","2","win","no-go","0"
"pit-trial","210","1282261","0.0-96.0","battery-v0.2","","""event"",""trial"",""time""
""fullscreenenter"",""1"",""1373""
","
","
","""event"",""trial"",""time""
""fullscreenenter"",""1"",""1373""
","
","","","854.4000000059605","","","16","19945","2306","a","elianto","#f73b6a7A"," "," ","1","0","[1704.7000000178814]","1","2","","","19945","92","7","3","lose","go","0"
"pit-trial","211","1286288","0.0-97.0","battery-v0.2","","""event"",""trial"",""time""
""fullscreenenter"",""1"",""1373""
","
","
","""event"",""trial"",""time""
""fullscreenenter"",""1"",""1373""
","
","","","1173.5","","","16","19945","2306","a","elianto","#f73b6a7A"," "," ","1","0","[2024.7000000178814]","1","2","","","19945","93","7","3","lose","go","0"
"pit-trial","212","1289885","0.0-98.0","battery-v0.2","","""event"",""trial"",""time""
""fullscreenenter"",""1"",""1373""
","
","
","""event"",""trial"",""time""
""fullscreenenter"",""1"",""1373""
","
","","","744.9000000059605","","","16","19945","2306","p","elianto","#3366ff99"," "," ","1","+10","[1595.7999999821186]","1","2","","","19945","94","5","1","win","go","0"
"pit-trial","213","1293843","0.0-99.0","battery-v0.2","","""event"",""trial"",""time""
""fullscreenenter"",""1"",""1373""
","
","
","""event"",""trial"",""time""
""fullscreenenter"",""1"",""1373""
","
","","","1104.4000000059605","","","16","19945","2306","l","elianto","#3366ff99","-1"," ","0","0","[1955.9000000059605]","1","2","","","19945","95","8","2","win","no-go","0"
"pit-trial","214","1297608","0.0-100.0","battery-v0.2","","""event"",""trial"",""time""
""fullscreenenter"",""1"",""1373""
","
","
","""event"",""trial"",""time""
""fullscreenenter"",""1"",""1373""
","
","","","911.3999999761581","","","16","19945","2306","g","elianto","#f73b6a7A","-1"," ","0","-10","[1762.2999999821186]","1","2","","","19945","96","6","4","lose","no-go","0"
"pit-trial","215","1301491","0.0-101.0","battery-v0.2","","""event"",""trial"",""time""
""fullscreenenter"",""1"",""1373""
","
","
","""event"",""trial"",""time""
""fullscreenenter"",""1"",""1373""
","
","","","1029.7000000178814","","","16","19945","2306","g","elianto","#f73b6a7A","-1"," ","0","-10","[1879.9000000059605]","1","2","","","19945","97","6","4","lose","no-go","0"
"pit-trial","216","1305372","0.0-102.0","battery-v0.2","","""event"",""trial"",""time""
""fullscreenenter"",""1"",""1373""
","
","
","""event"",""trial"",""time""
""fullscreenenter"",""1"",""1373""
","
","","","1020.7000000178814","","","16","19945","2306","a","elianto","#f73b6a7A"," "," ","1","0","[1870.7000000178814]","1","2","","","19945","98","7","3","lose","go","0"
"pit-trial","217","1308943","0.0-103.0","battery-v0.2","","""event"",""trial"",""time""
""fullscreenenter"",""1"",""1373""
","
","
","""event"",""trial"",""time""
""fullscreenenter"",""1"",""1373""
","
","","","717.5999999940395","","","16","19945","2306","p","elianto","#3366ff99"," "," ","1","+10","[1569]","1","2","","","19945","99","5","1","win","go","0"
"pit-trial","218","1313794","0.0-104.0","battery-v0.2","","""event"",""trial"",""time""
""fullscreenenter"",""1"",""1373""
","
","
","""event"",""trial"",""time""
""fullscreenenter"",""1"",""1373""
","
","","","-1","","","16","19945","2306","l","elianto","#3366ff99","-1","-1","1","+10","[]","0","2","","","19945","100","8","2","win","no-go","0"
"pit-trial","219","1318647","0.0-105.0","battery-v0.2","","""event"",""trial"",""time""
""fullscreenenter"",""1"",""1373""
","
","
","""event"",""trial"",""time""
""fullscreenenter"",""1"",""1373""
","
","","","-1","","","16","19945","2306","g","elianto","#f73b6a7A","-1","-1","1","0","[]","0","2","","","19945","101","6","4","lose","no-go","0"
"pit-trial","220","1322142","0.0-106.0","battery-v0.2","","""event"",""trial"",""time""
""fullscreenenter"",""1"",""1373""
","
","
","""event"",""trial"",""time""
""fullscreenenter"",""1"",""1373""
","
","","","642.6999999880791","","","16","19945","2306","p","elianto","#3366ff99"," "," ","1","+10","[1494]","1","2","","","19945","102","5","1","win","go","0"
"pit-trial","221","1326995","0.0-107.0","battery-v0.2","","""event"",""trial"",""time""
""fullscreenenter"",""1"",""1373""
","
","
","""event"",""trial"",""time""
""fullscreenenter"",""1"",""1373""
","
","","","-1","","","16","19945","2306","l","elianto","#3366ff99","-1","-1","1","+10","[]","0","2","","","19945","103","8","2","win","no-go","0"
"pit-trial","222","1330681","0.0-108.0","battery-v0.2","","""event"",""trial"",""time""
""fullscreenenter"",""1"",""1373""
","
","
","""event"",""trial"",""time""
""fullscreenenter"",""1"",""1373""
","
","","","831.6999999880791","","","16","19945","2306","u","elianto","#3366ff99","-1"," ","0","0","[1681.8999999761581]","1","2","","","19945","104","9","2","win","no-go","0"
"pit-trial","223","1335534","0.0-109.0","battery-v0.2","","""event"",""trial"",""time""
""fullscreenenter"",""1"",""1373""
","
","
","""event"",""trial"",""time""
""fullscreenenter"",""1"",""1373""
","
","","","-1","","","16","19945","2306","l","elianto","#3366ff99","-1","-1","1","+10","[]","0","2","","","19945","105","8","2","win","no-go","0"
"pit-trial","224","1340386","0.0-110.0","battery-v0.2","","""event"",""trial"",""time""
""fullscreenenter"",""1"",""1373""
","
","
","""event"",""trial"",""time""
""fullscreenenter"",""1"",""1373""
","
","","","-1","","","16","19945","2306","g","elianto","#f73b6a7A","-1","-1","1","0","[]","0","2","","","19945","106","6","4","lose","no-go","0"
"pit-trial","225","1344006","0.0-111.0","battery-v0.2","","""event"",""trial"",""time""
""fullscreenenter"",""1"",""1373""
","
","
","""event"",""trial"",""time""
""fullscreenenter"",""1"",""1373""
","
","","","767.5999999940395","","","16","19945","2306","p","elianto","#3366ff99"," "," ","1","+10","[1618.4000000059605]","1","2","","","19945","107","5","1","win","go","0"
"pit-trial","226","1348272","0.0-112.0","battery-v0.2","","""event"",""trial"",""time""
""fullscreenenter"",""1"",""1373""
","
","
","""event"",""trial"",""time""
""fullscreenenter"",""1"",""1373""
","
","","","1412.5999999940395","","","16","19945","2306","u","elianto","#3366ff99","-1"," ","0","0","[2264.0999999940395]","1","2","","","19945","108","9","2","win","no-go","0"
"pit-trial","227","1353126","0.0-113.0","battery-v0.2","","""event"",""trial"",""time""
""fullscreenenter"",""1"",""1373""
","
","
","""event"",""trial"",""time""
""fullscreenenter"",""1"",""1373""
","
","","","-1","","","16","19945","2306","l","elianto","#3366ff99","-1","-1","1","+10","[]","0","2","","","19945","109","8","2","win","no-go","0"
"pit-trial","228","1357979","0.0-114.0","battery-v0.2","","""event"",""trial"",""time""
""fullscreenenter"",""1"",""1373""
","
","
","""event"",""trial"",""time""
""fullscreenenter"",""1"",""1373""
","
","","","-1","","","16","19945","2306","g","elianto","#f73b6a7A","-1","-1","1","0","[]","0","2","","","19945","110","6","4","lose","no-go","0"
"pit-trial","229","1361438","0.0-115.0","battery-v0.2","","""event"",""trial"",""time""
""fullscreenenter"",""1"",""1373""
","
","
","""event"",""trial"",""time""
""fullscreenenter"",""1"",""1373""
","
","","","606.6999999880791","","","16","19945","2306","p","elianto","#3366ff99"," "," ","1","+10","[1457.7999999821186]","1","2","","","19945","111","5","1","win","go","0"
"pit-trial","230","1366292","0.0-116.0","battery-v0.2","","""event"",""trial"",""time""
""fullscreenenter"",""1"",""1373""
","
","
","""event"",""trial"",""time""
""fullscreenenter"",""1"",""1373""
","
","","","-1","","","16","19945","2306","u","elianto","#3366ff99","-1","-1","1","+10","[]","0","2","","","19945","112","9","2","win","no-go","0"
"pit-trial","231","1369911","0.0-117.0","battery-v0.2","","""event"",""trial"",""time""
""fullscreenenter"",""1"",""1373""
","
","
","""event"",""trial"",""time""
""fullscreenenter"",""1"",""1373""
","
","","","766.7000000178814","","","16","19945","2306","p","elianto","#3366ff99"," "," ","1","+10","[1618.0999999940395]","1","2","","","19945","113","5","1","win","go","0"
"pit-trial","232","1374765","0.0-118.0","battery-v0.2","","""event"",""trial"",""time""
""fullscreenenter"",""1"",""1373""
","
","
","""event"",""trial"",""time""
""fullscreenenter"",""1"",""1373""
","
","","","-1","","","16","19945","2306","l","elianto","#3366ff99","-1","-1","1","+10","[]","0","2","","","19945","114","8","2","win","no-go","0"
"pit-trial","233","1379620","0.0-119.0","battery-v0.2","","""event"",""trial"",""time""
""fullscreenenter"",""1"",""1373""
","
","
","""event"",""trial"",""time""
""fullscreenenter"",""1"",""1373""
","
","","","-1","","","16","19945","2306","u","elianto","#3366ff99","-1","-1","1","+10","[]","0","2","","","19945","115","9","2","win","no-go","0"
"pit-trial","234","1383318","0.0-120.0","battery-v0.2","","""event"",""trial"",""time""
""fullscreenenter"",""1"",""1373""
","
","
","""event"",""trial"",""time""
""fullscreenenter"",""1"",""1373""
","
","","","845.5","","","16","19945","2306","a","elianto","#f73b6a7A"," "," ","1","0","[1695.5999999940395]","1","2","","","19945","116","7","3","lose","go","0"
"pit-trial","235","1386898","0.0-121.0","battery-v0.2","","""event"",""trial"",""time""
""fullscreenenter"",""1"",""1373""
","
","
","""event"",""trial"",""time""
""fullscreenenter"",""1"",""1373""
","
","","","728.0999999940395","","","16","19945","2306","p","elianto","#3366ff99"," "," ","1","+10","[1578.199999988079]","1","2","","","19945","117","5","1","win","go","0"
"pit-trial","236","1391750","0.0-122.0","battery-v0.2","","""event"",""trial"",""time""
""fullscreenenter"",""1"",""1373""
","
","
","""event"",""trial"",""time""
""fullscreenenter"",""1"",""1373""
","
","","","-1","","","16","19945","2306","l","elianto","#3366ff99","-1","-1","1","+10","[]","0","2","","","19945","118","8","2","win","no-go","0"
"pit-trial","237","1396604","0.0-123.0","battery-v0.2","","""event"",""trial"",""time""
""fullscreenenter"",""1"",""1373""
","
","
","""event"",""trial"",""time""
""fullscreenenter"",""1"",""1373""
","
","","","-1","","","16","19945","2306","u","elianto","#3366ff99","-1","-1","1","+10","[]","0","2","","","19945","119","9","2","win","no-go","0"
"pit-trial","238","1401116","0.0-124.0","battery-v0.2","","""event"",""trial"",""time""
""fullscreenenter"",""1"",""1373""
","
","
","""event"",""trial"",""time""
""fullscreenenter"",""1"",""1373""
","
","","","1659.4000000059605","","","16","19945","2306","g","elianto","#f73b6a7A","-1"," ","0","0","[2510.2000000178814]","1","2","","","19945","120","6","4","lose","no-go","1"
"pit-trial","239","1405970","0.0-125.0","battery-v0.2","","""event"",""trial"",""time""
""fullscreenenter"",""1"",""1373""
","
","
","""event"",""trial"",""time""
""fullscreenenter"",""1"",""1373""
","
","","","-1","","","16","19945","2306","u","elianto","#3366ff99","-1","-1","1","+10","[]","0","2","","","19945","121","9","2","win","no-go","0"
"pit-trial","240","1409886","0.0-126.0","battery-v0.2","","""event"",""trial"",""time""
""fullscreenenter"",""1"",""1373""
","
","
","""event"",""trial"",""time""
""fullscreenenter"",""1"",""1373""
","
","","","1062.1000000238419","","","16","19945","2306","p","elianto","#3366ff99"," "," ","1","+10","[1912.199999988079]","1","2","","","19945","122","5","1","win","go","0"
"pit-trial","241","1413660","0.0-127.0","battery-v0.2","","""event"",""trial"",""time""
""fullscreenenter"",""1"",""1373""
","
","
","""event"",""trial"",""time""
""fullscreenenter"",""1"",""1373""
","
","","","921.0999999940395","","","16","19945","2306","a","elianto","#f73b6a7A"," "," ","1","0","[1771.2999999821186]","1","2","","","19945","123","7","3","lose","go","0"
"pit-trial","242","1418512","0.0-128.0","battery-v0.2","","""event"",""trial"",""time""
""fullscreenenter"",""1"",""1373""
","
","
","""event"",""trial"",""time""
""fullscreenenter"",""1"",""1373""
","
","","","-1","","","16","19945","2306","l","elianto","#3366ff99","-1","-1","1","+10","[]","0","2","","","19945","124","8","2","win","no-go","0"
"pit-trial","243","1422098","0.0-129.0","battery-v0.2","","""event"",""trial"",""time""
""fullscreenenter"",""1"",""1373""
","
","
","""event"",""trial"",""time""
""fullscreenenter"",""1"",""1373""
","
","","","731.2999999821186","","","16","19945","2306","a","elianto","#f73b6a7A"," "," ","1","0","[1582.5999999940395]","1","2","","","19945","125","7","3","lose","go","0"
"pit-trial","244","1426950","0.0-130.0","battery-v0.2","","""event"",""trial"",""time""
""fullscreenenter"",""1"",""1373""
","
","
","""event"",""trial"",""time""
""fullscreenenter"",""1"",""1373""
","
","","","-1","","","16","19945","2306","g","elianto","#f73b6a7A","-1","-1","1","0","[]","0","2","","","19945","126","6","4","lose","no-go","0"
"pit-trial","245","1431804","0.0-131.0","battery-v0.2","","""event"",""trial"",""time""
""fullscreenenter"",""1"",""1373""
","
","
","""event"",""trial"",""time""
""fullscreenenter"",""1"",""1373""
","
","","","-1","","","16","19945","2306","u","elianto","#3366ff99","-1","-1","1","+10","[]","0","2","","","19945","127","9","2","win","no-go","0"
"pit-trial","246","1436657","0.0-132.0","battery-v0.2","","""event"",""trial"",""time""
""fullscreenenter"",""1"",""1373""
","
","
","""event"",""trial"",""time""
""fullscreenenter"",""1"",""1373""
","
","","","-1","","","16","19945","2306","l","elianto","#3366ff99","-1","-1","1","+10","[]","0","2","","","19945","128","8","2","win","no-go","0"
"pit-trial","247","1441511","0.0-133.0","battery-v0.2","","""event"",""trial"",""time""
""fullscreenenter"",""1"",""1373""
","
","
","""event"",""trial"",""time""
""fullscreenenter"",""1"",""1373""
","
","","","-1","","","16","19945","2306","l","elianto","#3366ff99","-1","-1","1","0","[]","0","2","","","19945","129","8","2","win","no-go","1"
"pit-trial","248","1446364","0.0-134.0","battery-v0.2","","""event"",""trial"",""time""
""fullscreenenter"",""1"",""1373""
","
","
","""event"",""trial"",""time""
""fullscreenenter"",""1"",""1373""
","
","","","-1","","","16","19945","2306","u","elianto","#3366ff99","-1","-1","1","0","[]","0","2","","","19945","130","9","2","win","no-go","1"
"pit-trial","249","1451216","0.0-135.0","battery-v0.2","","""event"",""trial"",""time""
""fullscreenenter"",""1"",""1373""
","
","
","""event"",""trial"",""time""
""fullscreenenter"",""1"",""1373""
","
","","","-1","","","16","19945","2306","g","elianto","#f73b6a7A","-1","-1","1","-10","[]","0","2","","","19945","131","6","4","lose","no-go","1"
"pit-trial","250","1454641","0.0-136.0","battery-v0.2","","""event"",""trial"",""time""
""fullscreenenter"",""1"",""1373""
","
","
","""event"",""trial"",""time""
""fullscreenenter"",""1"",""1373""
","
","","","571.8000000119209","","","16","19945","2306","a","elianto","#f73b6a7A"," "," ","1","0","[1423.2000000178814]","1","2","","","19945","132","7","3","lose","go","0"
"pit-trial","251","1459494","0.0-137.0","battery-v0.2","","""event"",""trial"",""time""
""fullscreenenter"",""1"",""1373""
","
","
","""event"",""trial"",""time""
""fullscreenenter"",""1"",""1373""
","
","","","-1","","","16","19945","2306","u","elianto","#3366ff99","-1","-1","1","+10","[]","0","2","","","19945","133","9","2","win","no-go","0"
"pit-trial","252","1463108","0.0-138.0","battery-v0.2","","""event"",""trial"",""time""
""fullscreenenter"",""1"",""1373""
","
","
","""event"",""trial"",""time""
""fullscreenenter"",""1"",""1373""
","
","","","762.2999999821186","","","16","19945","2306","a","elianto","#f73b6a7A"," "," ","1","0","[1612.4000000059605]","1","2","","","19945","134","7","3","lose","go","0"
"pit-trial","253","1467972","0.0-139.0","battery-v0.2","","""event"",""trial"",""time""
""fullscreenenter"",""1"",""1373""
","
","
","""event"",""trial"",""time""
""fullscreenenter"",""1"",""1373""
","
","","","-1","","","16","19945","2306","g","elianto","#f73b6a7A","-1","-1","1","0","[]","0","2","","","19945","135","6","4","lose","no-go","0"
"pit-trial","254","1472824","0.0-140.0","battery-v0.2","","""event"",""trial"",""time""
""fullscreenenter"",""1"",""1373""
","
","
","""event"",""trial"",""time""
""fullscreenenter"",""1"",""1373""
","
","","","-1","","","16","19945","2306","l","elianto","#3366ff99","-1","-1","1","+10","[]","0","2","","","19945","136","8","2","win","no-go","0"
"pit-trial","255","1477677","0.0-141.0","battery-v0.2","","""event"",""trial"",""time""
""fullscreenenter"",""1"",""1373""
","
","
","""event"",""trial"",""time""
""fullscreenenter"",""1"",""1373""
","
","","","-1","","","16","19945","2306","g","elianto","#f73b6a7A","-1","-1","1","-10","[]","0","2","","","19945","137","6","4","lose","no-go","1"
"pit-trial","256","1482529","0.0-142.0","battery-v0.2","","""event"",""trial"",""time""
""fullscreenenter"",""1"",""1373""
","
","
","""event"",""trial"",""time""
""fullscreenenter"",""1"",""1373""
","
","","","-1","","","16","19945","2306","l","elianto","#3366ff99","-1","-1","1","+10","[]","0","2","","","19945","138","8","2","win","no-go","0"
"pit-trial","257","1486155","0.0-143.0","battery-v0.2","","""event"",""trial"",""time""
""fullscreenenter"",""1"",""1373""
","
","
","""event"",""trial"",""time""
""fullscreenenter"",""1"",""1373""
","
","","","773.7999999821186","","","16","19945","2306","a","elianto","#f73b6a7A"," "," ","1","0","[1624.0999999940395]","1","2","","","19945","139","7","3","lose","go","0"
"pit-trial","258","1491009","0.0-144.0","battery-v0.2","","""event"",""trial"",""time""
""fullscreenenter"",""1"",""1373""
","
","
","""event"",""trial"",""time""
""fullscreenenter"",""1"",""1373""
","
","","","-1","","","16","19945","2306","u","elianto","#3366ff99","-1","-1","1","+10","[]","0","2","","","19945","140","9","2","win","no-go","0"
"pit-instructions","259","1553592","0.0-145.0","battery-v0.2","","""event"",""trial"",""time""
""fullscreenenter"",""1"",""1373""
","
","
","""event"",""trial"",""time""
""fullscreenenter"",""1"",""1373""
","
","","[{""page_index"":0,""viewing_time"":53931.39999997616},{""page_index"":1,""viewing_time"":8652.200000017881}]","62583.69999998808","","","","","","","","","","","","","","","","","","","","","","","",""
"pit-trial","260","1557684","0.0-146.0","battery-v0.2","","""event"",""trial"",""time""
""fullscreenenter"",""1"",""1373""
","
","
","""event"",""trial"",""time""
""fullscreenenter"",""1"",""1373""
","
","","","1233","","","16","19945","2306","n","elianto","#f73b6a7A"," "," ","1","0","[2084.899999976158]","1","3","","","19945","141","0","3","lose","go","0"
"pit-trial","261","1561333","0.0-147.0","battery-v0.2","","""event"",""trial"",""time""
""fullscreenenter"",""1"",""1373""
","
","
","""event"",""trial"",""time""
""fullscreenenter"",""1"",""1373""
","
","","","785","","","16","19945","2306","b","elianto","#f73b6a7A","-1"," ","0","-10","[1638.1000000238419]","1","3","","","19945","142","3","4","lose","no-go","0"
"pit-trial","262","1565243","0.0-148.0","battery-v0.2","","""event"",""trial"",""time""
""fullscreenenter"",""1"",""1373""
","
","
","""event"",""trial"",""time""
""fullscreenenter"",""1"",""1373""
","
","","","1040.9000000059605","","","16","19945","2306","t","elianto","#f73b6a7A"," "," ","1","0","[1893.800000011921]","1","3","","","19945","143","2","3","lose","go","0"
"pit-trial","263","1570107","0.0-149.0","battery-v0.2","","""event"",""trial"",""time""
""fullscreenenter"",""1"",""1373""
","
","
","""event"",""trial"",""time""
""fullscreenenter"",""1"",""1373""
","
","","","-1","","","16","19945","2306","f","elianto","#3366ff99","-1","-1","1","+10","[]","0","3","","","19945","144","1","2","win","no-go","0"
"pit-trial","264","1574974","0.0-150.0","battery-v0.2","","""event"",""trial"",""time""
""fullscreenenter"",""1"",""1373""
","
","
","""event"",""trial"",""time""
""fullscreenenter"",""1"",""1373""
","
