"trial_type","trial_index","time_elapsed","internal_node_id","task_version","subject_id","interactions","blur_events","focus_events","fullscreenenter_events","fullscreenexit_events","success","view_history","rt","responses","num_errors","age","subject","participantId","rune","rune_set","hex","correct","choice","accuracy","outcome","keys","total_keys","block","practice","value","sub","trial","stimulus","robot","valence","action","sham"
"pavlovia","0","8","0.0-0.0","battery-v0.2","","""event"",""trial"",""time""
""fullscreenenter"",""1"",""3001""
","
","
","""event"",""trial"",""time""
""fullscreenenter"",""1"",""3001""
","
","","","","","","","","","","","","","","","","","","","","","","","","","","",""
"fullscreen","1","3986","0.0-1.0","battery-v0.2","","""event"",""trial"",""time""
""fullscreenenter"",""1"",""3001""
","
","
","""event"",""trial"",""time""
""fullscreenenter"",""1"",""3001""
","
","true","","","","","","","","","","","","","","","","","","","","","","","","","",""
"pit-instructions","2","8246","0.0-2.0-0.0","battery-v0.2","","""event"",""trial"",""time""
""fullscreenenter"",""1"",""3001""
","
","
","""event"",""trial"",""time""
""fullscreenenter"",""1"",""3001""
","
","","[{""page_index"":0,""viewing_time"":4257.79999999702}]","4258.0999999940395","","","","","","","","","","","","","","","","","","","","","","","",""
"pit-comprehension","3","11515","0.0-2.0-1.0-0.0","battery-v0.2","","""event"",""trial"",""time""
""fullscreenenter"",""1"",""3001""
","
","
","""event"",""trial"",""time""
""fullscreenenter"",""1"",""3001""
","
","","","3267.2999999970198","[""shark""]","0","14","13513","5914","","","","","","","","","","","","","","","","","","",""
"pit-instructions","4","12928","0.0-2.0-1.0-1.0","battery-v0.2","","""event"",""trial"",""time""
""fullscreenenter"",""1"",""3001""
","
","
","""event"",""trial"",""time""
""fullscreenenter"",""1"",""3001""
","
","","[{""page_index"":0,""viewing_time"":1400.2999999970198}]","1400.5","","","","","","","","","","","","","","","","","","","","","","","",""
"pit-comprehension","5","15930","0.0-2.0-2.0-0.0","battery-v0.2","","""event"",""trial"",""time""
""fullscreenenter"",""1"",""3001""
","
","
","""event"",""trial"",""time""
""fullscreenenter"",""1"",""3001""
","
","","","3000.4000000059605","[""tiger""]","0","14","13513","5914","","","","","","","","","","","","","","","","","","",""
"pit-instructions","6","17100","0.0-2.0-2.0-1.0","battery-v0.2","","""event"",""trial"",""time""
""fullscreenenter"",""1"",""3001""
","
","
","""event"",""trial"",""time""
""fullscreenenter"",""1"",""3001""
","
","","[{""page_index"":0,""viewing_time"":1167.7999999970198}]","1168","","","","","","","","","","","","","","","","","","","","","","","",""
"pit-instructions","7","113263","0.0-2.0-3.0","battery-v0.2","","""event"",""trial"",""time""
""fullscreenenter"",""1"",""3001""
","
","
","""event"",""trial"",""time""
""fullscreenenter"",""1"",""3001""
","
","","[{""page_index"":0,""viewing_time"":8092.29999999702},{""page_index"":1,""viewing_time"":6580.20000000298},{""page_index"":2,""viewing_time"":7109.70000000298},{""page_index"":3,""viewing_time"":7649.9000000059605},{""page_index"":4,""viewing_time"":6568.0999999940395},{""page_index"":5,""viewing_time"":6006.0999999940395},{""page_index"":6,""viewing_time"":5730},{""page_index"":7,""viewing_time"":6761.9000000059605},{""page_index"":8,""viewing_time"":6034.0999999940395},{""page_index"":9,""viewing_time"":7871.9000000059605},{""page_index"":10,""viewing_time"":7514},{""page_index"":11,""viewing_time"":7820.70000000298},{""page_index"":12,""viewing_time"":6478.0999999940395},{""page_index"":13,""viewing_time"":5935.29999999702}]","96152.5","","","","","","","","","","","","","","","","","","","","","","","",""
"pit-trial","8","116606","0.0-2.0-4.0-0.0","battery-v0.2","","""event"",""trial"",""time""
""fullscreenenter"",""1"",""3001""
","
","
","""event"",""trial"",""time""
""fullscreenenter"",""1"",""3001""
","
","","","487.20000000298023","","","14","13513","5914","&#9784;","elianto","#FFFFF080"," "," ","1","&#10004","[1340.5]","1","0","0","","","","","","","",""
"pit-trial","9","120076","0.0-2.0-4.1-0.1","battery-v0.2","","""event"",""trial"",""time""
""fullscreenenter"",""1"",""3001""
","
","
","""event"",""trial"",""time""
""fullscreenenter"",""1"",""3001""
","
","","","602.1000000089407","","","14","13513","5914","&#9784;","elianto","#FFFFF080"," "," ","1","&#10004","[1459.5]","1","0","0","","","","","","","",""
"pit-trial","10","123312","0.0-2.0-4.2-0.2","battery-v0.2","","""event"",""trial"",""time""
""fullscreenenter"",""1"",""3001""
","
","
","""event"",""trial"",""time""
""fullscreenenter"",""1"",""3001""
","
","","","380.90000000596046","","","14","13513","5914","&#9784;","elianto","#FFFFF080"," "," ","1","&#10004","[1234.6000000089407]","1","0","0","","","","","","","",""
"pit-trial","11","126575","0.0-2.0-4.3-0.3","battery-v0.2","","""event"",""trial"",""time""
""fullscreenenter"",""1"",""3001""
","
","
","""event"",""trial"",""time""
""fullscreenenter"",""1"",""3001""
","
","","","380.09999999403954","","","14","13513","5914","&#9784;","elianto","#FFFFF080"," "," ","1","&#10004","[1244.7999999970198]","1","0","0","","","","","","","",""
"pit-trial","12","129932","0.0-2.0-4.4-0.4","battery-v0.2","","""event"",""trial"",""time""
""fullscreenenter"",""1"",""3001""
","
","
","""event"",""trial"",""time""
""fullscreenenter"",""1"",""3001""
","
","","","499.79999999701977","","","14","13513","5914","&#9784;","elianto","#FFFFF080"," "," ","1","&#10004","[1351.2000000029802]","1","0","0","","","","","","","",""
"pit-instructions","13","150318","0.0-2.0-5.0","battery-v0.2","","""event"",""trial"",""time""
""fullscreenenter"",""1"",""3001""
","
","
","""event"",""trial"",""time""
""fullscreenenter"",""1"",""3001""
","
","","[{""page_index"":0,""viewing_time"":4490.100000008941},{""page_index"":1,""viewing_time"":5216.0999999940395},{""page_index"":2,""viewing_time"":4918},{""page_index"":3,""viewing_time"":5760.0999999940395}]","20384.5","","","","","","","","","","","","","","","","","","","","","","","",""
"pit-trial","14","155179","0.0-2.0-6.0-0.0","battery-v0.2","","""event"",""trial"",""time""
""fullscreenenter"",""1"",""3001""
","
","
","""event"",""trial"",""time""
""fullscreenenter"",""1"",""3001""
","
","","","-1","","","14","13513","5914","&#9854;","elianto","#FFFFF080","-1","-1","1","&#10004","[]","0","0","1","","","","","","","",""
"pit-trial","15","160037","0.0-2.0-6.1-0.1","battery-v0.2","","""event"",""trial"",""time""
""fullscreenenter"",""1"",""3001""
","
","
","""event"",""trial"",""time""
""fullscreenenter"",""1"",""3001""
","
","","","-1","","","14","13513","5914","&#9854;","elianto","#FFFFF080","-1","-1","1","&#10004","[]","0","0","1","","","","","","","",""
"pit-trial","16","164899","0.0-2.0-6.2-0.2","battery-v0.2","","""event"",""trial"",""time""
""fullscreenenter"",""1"",""3001""
","
","
","""event"",""trial"",""time""
""fullscreenenter"",""1"",""3001""
","
","","","-1","","","14","13513","5914","&#9854;","elianto","#FFFFF080","-1","-1","1","&#10004","[]","0","0","1","","","","","","","",""
"pit-trial","17","169770","0.0-2.0-6.3-0.3","battery-v0.2","","""event"",""trial"",""time""
""fullscreenenter"",""1"",""3001""
","
","
","""event"",""trial"",""time""
""fullscreenenter"",""1"",""3001""
","
","","","-1","","","14","13513","5914","&#9854;","elianto","#FFFFF080","-1","-1","1","&#10004","[]","0","0","1","","","","","","","",""
"pit-trial","18","174632","0.0-2.0-6.4-0.4","battery-v0.2","","""event"",""trial"",""time""
""fullscreenenter"",""1"",""3001""
""blur"",""19"",""192697""
""focus"",""19"",""192763""
","""event"",""trial"",""time""
""blur"",""19"",""192697""
","""event"",""trial"",""time""
""focus"",""19"",""192763""
","""event"",""trial"",""time""
""fullscreenenter"",""1"",""3001""
","
","","","-1","","","14","13513","5914","&#9854;","elianto","#FFFFF080","-1","-1","1","&#10004","[]","0","0","1","","","","","","","",""
"pit-instructions","19","293098","0.0-2.0-7.0","battery-v0.2","","""event"",""trial"",""time""
""fullscreenenter"",""1"",""3001""
""blur"",""19"",""192697""
""focus"",""19"",""192763""
","""event"",""trial"",""time""
""blur"",""19"",""192697""
","""event"",""trial"",""time""
""focus"",""19"",""192763""
","""event"",""trial"",""time""
""fullscreenenter"",""1"",""3001""
","
","","[{""page_index"":0,""viewing_time"":6786.5999999940395},{""page_index"":1,""viewing_time"":6853.70000000298},{""page_index"":2,""viewing_time"":7055.9000000059605},{""page_index"":3,""viewing_time"":6956.29999999702},{""page_index"":4,""viewing_time"":5968},{""page_index"":5,""viewing_time"":5990},{""page_index"":6,""viewing_time"":4787.9000000059605},{""page_index"":7,""viewing_time"":8116.0999999940395},{""page_index"":8,""viewing_time"":6804},{""page_index"":9,""viewing_time"":6383.79999999702},{""page_index"":10,""viewing_time"":6010.70000000298},{""page_index"":11,""viewing_time"":4507.70000000298},{""page_index"":12,""viewing_time"":6732.5999999940395},{""page_index"":13,""viewing_time"":6783.9000000059605},{""page_index"":14,""viewing_time"":7478.29999999702},{""page_index"":15,""viewing_time"":6129.0999999940395},{""page_index"":16,""viewing_time"":6826.20000000298},{""page_index"":17,""viewing_time"":8293.79999999702}]","118464.70000000298","","","","","","","","","","","","","","","","","","","","","","","",""
"pit-trial","20","296574","0.0-2.0-8.0-0.0","battery-v0.2","","""event"",""trial"",""time""
""fullscreenenter"",""1"",""3001""
""blur"",""19"",""192697""
""focus"",""19"",""192763""
","""event"",""trial"",""time""
""blur"",""19"",""192697""
","""event"",""trial"",""time""
""focus"",""19"",""192763""
","""event"",""trial"",""time""
""fullscreenenter"",""1"",""3001""
","
","","","609.5","","","14","13513","5914","&#9776;","elianto","#3366ff99"," "," ","1","+10","[1464.2999999970198]","1","0","1","","","","","","","",""
"pit-trial","21","299868","0.0-2.0-8.0-1.0","battery-v0.2","","""event"",""trial"",""time""
""fullscreenenter"",""1"",""3001""
""blur"",""19"",""192697""
""focus"",""19"",""192763""
","""event"",""trial"",""time""
""blur"",""19"",""192697""
","""event"",""trial"",""time""
""focus"",""19"",""192763""
","""event"",""trial"",""time""
""fullscreenenter"",""1"",""3001""
","
","","","424.29999999701977","","","14","13513","5914","&#9776;","elianto","#3366ff99"," "," ","1","+10","[1285.5]","1","0","1","","","","","","","",""
"pit-trial","22","303116","0.0-2.0-8.0-2.0","battery-v0.2","","""event"",""trial"",""time""
""fullscreenenter"",""1"",""3001""
""blur"",""19"",""192697""
""focus"",""19"",""192763""
","""event"",""trial"",""time""
""blur"",""19"",""192697""
","""event"",""trial"",""time""
""focus"",""19"",""192763""
","""event"",""trial"",""time""
""fullscreenenter"",""1"",""3001""
","
","","","393.1000000089407","","","14","13513","5914","&#9776;","elianto","#3366ff99"," "," ","1","+10","[1243.2999999970198]","1","0","1","","","","","","","",""
"pit-trial","23","306343","0.0-2.0-8.0-3.0","battery-v0.2","","""event"",""trial"",""time""
""fullscreenenter"",""1"",""3001""
""blur"",""19"",""192697""
""focus"",""19"",""192763""
","""event"",""trial"",""time""
""blur"",""19"",""192697""
","""event"",""trial"",""time""
""focus"",""19"",""192763""
","""event"",""trial"",""time""
""fullscreenenter"",""1"",""3001""
","
","","","365.5","","","14","13513","5914","&#9776;","elianto","#3366ff99"," "," ","1","0","[1216.5999999940395]","1","0","1","","","","","","","",""
"pit-trial","24","309657","0.0-2.0-8.0-4.0","battery-v0.2","","""event"",""trial"",""time""
""fullscreenenter"",""1"",""3001""
""blur"",""19"",""192697""
""focus"",""19"",""192763""
","""event"",""trial"",""time""
""blur"",""19"",""192697""
","""event"",""trial"",""time""
""focus"",""19"",""192763""
","""event"",""trial"",""time""
""fullscreenenter"",""1"",""3001""
","
","","","447.6000000089407","","","14","13513","5914","&#9776;","elianto","#3366ff99"," "," ","1","+10","[1300.6000000089407]","1","0","1","","","","","","","",""
"pit-trial","25","313127","0.0-2.0-8.1-0.1","battery-v0.2","","""event"",""trial"",""time""
""fullscreenenter"",""1"",""3001""
""blur"",""19"",""192697""
""focus"",""19"",""192763""
","""event"",""trial"",""time""
""blur"",""19"",""192697""
","""event"",""trial"",""time""
""focus"",""19"",""192763""
","""event"",""trial"",""time""
""fullscreenenter"",""1"",""3001""
","
","","","599.8000000119209","","","14","13513","5914","&#9776;","elianto","#3366ff99"," "," ","1","+10","[1454.5999999940395]","1","0","1","","","","","","","",""
"pit-trial","26","316203","0.0-2.0-8.1-1.1","battery-v0.2","","""event"",""trial"",""time""
""fullscreenenter"",""1"",""3001""
""blur"",""19"",""192697""
""focus"",""19"",""192763""
","""event"",""trial"",""time""
""blur"",""19"",""192697""
","""event"",""trial"",""time""
""focus"",""19"",""192763""
","""event"",""trial"",""time""
""fullscreenenter"",""1"",""3001""
","
","","","207.8999999910593","","","14","13513","5914","&#9776;","elianto","#3366ff99"," "," ","1","+10","[1058.2000000029802]","1","0","1","","","","","","","",""
"pit-trial","27","321090","0.0-2.0-8.1-2.1","battery-v0.2","","""event"",""trial"",""time""
""fullscreenenter"",""1"",""3001""
""blur"",""19"",""192697""
""focus"",""19"",""192763""
","""event"",""trial"",""time""
""blur"",""19"",""192697""
","""event"",""trial"",""time""
""focus"",""19"",""192763""
","""event"",""trial"",""time""
""fullscreenenter"",""1"",""3001""
","
","","","-1","","","14","13513","5914","&#9776;","elianto","#3366ff99"," ","-1","0","0","[]","0","0","1","","","","","","","",""
"pit-trial","28","324453","0.0-2.0-8.1-3.1","battery-v0.2","","""event"",""trial"",""time""
""fullscreenenter"",""1"",""3001""
""blur"",""19"",""192697""
""focus"",""19"",""192763""
","""event"",""trial"",""time""
""blur"",""19"",""192697""
","""event"",""trial"",""time""
""focus"",""19"",""192763""
","""event"",""trial"",""time""
""fullscreenenter"",""1"",""3001""
","
","","","509.29999999701977","","","14","13513","5914","&#9776;","elianto","#3366ff99"," "," ","1","0","[1359.5]","1","0","1","","","","","","","",""
"pit-trial","29","327811","0.0-2.0-8.1-4.1","battery-v0.2","","""event"",""trial"",""time""
""fullscreenenter"",""1"",""3001""
""blur"",""19"",""192697""
""focus"",""19"",""192763""
","""event"",""trial"",""time""
""blur"",""19"",""192697""
","""event"",""trial"",""time""
""focus"",""19"",""192763""
","""event"",""trial"",""time""
""fullscreenenter"",""1"",""3001""
","
","","","505.20000000298023","","","14","13513","5914","&#9776;","elianto","#3366ff99"," "," ","1","+10","[1356.3999999910593]","1","0","1","","","","","","","",""
"pit-trial","30","331034","0.0-2.0-8.2-0.2","battery-v0.2","","""event"",""trial"",""time""
""fullscreenenter"",""1"",""3001""
""blur"",""19"",""192697""
""focus"",""19"",""192763""
","""event"",""trial"",""time""
""blur"",""19"",""192697""
","""event"",""trial"",""time""
""focus"",""19"",""192763""
","""event"",""trial"",""time""
""fullscreenenter"",""1"",""3001""
","
","","","368.69999998807907","","","14","13513","5914","&#9776;","elianto","#3366ff99"," "," ","1","+10","[1220]","1","0","1","","","","","","","",""
"pit-trial","31","334894","0.0-2.0-8.2-1.2","battery-v0.2","","""event"",""trial"",""time""
""fullscreenenter"",""1"",""3001""
""blur"",""19"",""192697""
""focus"",""19"",""192763""
","""event"",""trial"",""time""
""blur"",""19"",""192697""
","""event"",""trial"",""time""
""focus"",""19"",""192763""
","""event"",""trial"",""time""
""fullscreenenter"",""1"",""3001""
","
","","","1005.5","","","14","13513","5914","&#9776;","elianto","#3366ff99"," "," ","1","+10","[1856.4000000059605]","1","0","1","","","","","","","",""
"pit-trial","32","338114","0.0-2.0-8.2-2.2","battery-v0.2","","""event"",""trial"",""time""
""fullscreenenter"",""1"",""3001""
""blur"",""19"",""192697""
""focus"",""19"",""192763""
","""event"",""trial"",""time""
""blur"",""19"",""192697""
","""event"",""trial"",""time""
""focus"",""19"",""192763""
","""event"",""trial"",""time""
""fullscreenenter"",""1"",""3001""
","
","","","367.20000000298023","","","14","13513","5914","&#9776;","elianto","#3366ff99"," "," ","1","+10","[1217.5]","1","0","1","","","","","","","",""
"pit-trial","33","342966","0.0-2.0-8.2-3.2","battery-v0.2","","""event"",""trial"",""time""
""fullscreenenter"",""1"",""3001""
""blur"",""19"",""192697""
""focus"",""19"",""192763""
","""event"",""trial"",""time""
""blur"",""19"",""192697""
","""event"",""trial"",""time""
""focus"",""19"",""192763""
","""event"",""trial"",""time""
""fullscreenenter"",""1"",""3001""
","
","","","-1","","","14","13513","5914","&#9776;","elianto","#3366ff99"," ","-1","0","+10","[]","0","0","1","","","","","","","",""
"pit-trial","34","346248","0.0-2.0-8.2-4.2","battery-v0.2","","""event"",""trial"",""time""
""fullscreenenter"",""1"",""3001""
""blur"",""19"",""192697""
""focus"",""19"",""192763""
","""event"",""trial"",""time""
""blur"",""19"",""192697""
","""event"",""trial"",""time""
""focus"",""19"",""192763""
","""event"",""trial"",""time""
""fullscreenenter"",""1"",""3001""
","
","","","429","","","14","13513","5914","&#9776;","elianto","#3366ff99"," "," ","1","+10","[1279.199999988079]","1","0","1","","","","","","","",""
"call-function","35","346251","0.0-2.0-9.0","battery-v0.2","","""event"",""trial"",""time""
""fullscreenenter"",""1"",""3001""
""blur"",""19"",""192697""
""focus"",""19"",""192763""
","""event"",""trial"",""time""
""blur"",""19"",""192697""
","""event"",""trial"",""time""
""focus"",""19"",""192763""
","""event"",""trial"",""time""
""fullscreenenter"",""1"",""3001""
","
","","","","","","","","","","","","","","","","","","","","","","","","","","",""
"pit-instructions","36","386003","0.0-2.0-10.0","battery-v0.2","","""event"",""trial"",""time""
""fullscreenenter"",""1"",""3001""
""blur"",""19"",""192697""
""focus"",""19"",""192763""
","""event"",""trial"",""time""
""blur"",""19"",""192697""
","""event"",""trial"",""time""
""focus"",""19"",""192763""
","""event"",""trial"",""time""
""fullscreenenter"",""1"",""3001""
","
","","[{""page_index"":0,""viewing_time"":6710.5},{""page_index"":1,""viewing_time"":6532},{""page_index"":2,""viewing_time"":9196.10000000894},{""page_index"":3,""viewing_time"":9820.20000000298},{""page_index"":4,""viewing_time"":7492.0999999940395}]","39751.10000000894","","","","","","","","","","","","","","","","","","","","","","","",""
"pit-trial","37","390867","0.0-2.0-11.0-0.0","battery-v0.2","","""event"",""trial"",""time""
""fullscreenenter"",""1"",""3001""
""blur"",""19"",""192697""
""focus"",""19"",""192763""
","""event"",""trial"",""time""
""blur"",""19"",""192697""
","""event"",""trial"",""time""
""focus"",""19"",""192763""
","""event"",""trial"",""time""
""fullscreenenter"",""1"",""3001""
","
","","","-1","","","14","13513","5914","&#9761;","elianto","#3366ff99","-1","-1","1","+10","[]","0","0","2","","","","","","","",""
"pit-trial","38","395733","0.0-2.0-11.0-1.0","battery-v0.2","","""event"",""trial"",""time""
""fullscreenenter"",""1"",""3001""
""blur"",""19"",""192697""
""focus"",""19"",""192763""
","""event"",""trial"",""time""
""blur"",""19"",""192697""
","""event"",""trial"",""time""
""focus"",""19"",""192763""
","""event"",""trial"",""time""
""fullscreenenter"",""1"",""3001""
","
","","","-1","","","14","13513","5914","&#9761;","elianto","#3366ff99","-1","-1","1","+10","[]","0","0","2","","","","","","","",""
"pit-trial","39","400604","0.0-2.0-11.0-2.0","battery-v0.2","","""event"",""trial"",""time""
""fullscreenenter"",""1"",""3001""
""blur"",""19"",""192697""
""focus"",""19"",""192763""
","""event"",""trial"",""time""
""blur"",""19"",""192697""
","""event"",""trial"",""time""
""focus"",""19"",""192763""
","""event"",""trial"",""time""
""fullscreenenter"",""1"",""3001""
","
","","","-1","","","14","13513","5914","&#9761;","elianto","#3366ff99","-1","-1","1","+10","[]","0","0","2","","","","","","","",""
"pit-trial","40","405466","0.0-2.0-11.0-3.0","battery-v0.2","","""event"",""trial"",""time""
""fullscreenenter"",""1"",""3001""
""blur"",""19"",""192697""
""focus"",""19"",""192763""
","""event"",""trial"",""time""
""blur"",""19"",""192697""
","""event"",""trial"",""time""
""focus"",""19"",""192763""
","""event"",""trial"",""time""
""fullscreenenter"",""1"",""3001""
","
","","","-1","","","14","13513","5914","&#9761;","elianto","#3366ff99","-1","-1","1","0","[]","0","0","2","","","","","","","",""
"pit-trial","41","410329","0.0-2.0-11.0-4.0","battery-v0.2","","""event"",""trial"",""time""
""fullscreenenter"",""1"",""3001""
""blur"",""19"",""192697""
""focus"",""19"",""192763""
","""event"",""trial"",""time""
""blur"",""19"",""192697""
","""event"",""trial"",""time""
""focus"",""19"",""192763""
","""event"",""trial"",""time""
""fullscreenenter"",""1"",""3001""
","
","","","-1","","","14","13513","5914","&#9761;","elianto","#3366ff99","-1","-1","1","+10","[]","0","0","2","","","","","","","",""
"pit-trial","42","415195","0.0-2.0-11.1-0.1","battery-v0.2","","""event"",""trial"",""time""
""fullscreenenter"",""1"",""3001""
""blur"",""19"",""192697""
""focus"",""19"",""192763""
","""event"",""trial"",""time""
""blur"",""19"",""192697""
","""event"",""trial"",""time""
""focus"",""19"",""192763""
","""event"",""trial"",""time""
""fullscreenenter"",""1"",""3001""
","
","","","-1","","","14","13513","5914","&#9761;","elianto","#3366ff99","-1","-1","1","+10","[]","0","0","2","","","","","","","",""
"pit-trial","43","420049","0.0-2.0-11.1-1.1","battery-v0.2","","""event"",""trial"",""time""
""fullscreenenter"",""1"",""3001""
""blur"",""19"",""192697""
""focus"",""19"",""192763""
","""event"",""trial"",""time""
""blur"",""19"",""192697""
","""event"",""trial"",""time""
""focus"",""19"",""192763""
","""event"",""trial"",""time""
""fullscreenenter"",""1"",""3001""
","
","","","-1","","","14","13513","5914","&#9761;","elianto","#3366ff99","-1","-1","1","+10","[]","0","0","2","","","","","","","",""
"pit-trial","44","423082","0.0-2.0-11.1-2.1","battery-v0.2","","""event"",""trial"",""time""
""fullscreenenter"",""1"",""3001""
""blur"",""19"",""192697""
""focus"",""19"",""192763""
","""event"",""trial"",""time""
""blur"",""19"",""192697""
","""event"",""trial"",""time""
""focus"",""19"",""192763""
","""event"",""trial"",""time""
""fullscreenenter"",""1"",""3001""
","
","","","178.79999999701977","","","14","13513","5914","&#9761;","elianto","#3366ff99","-1"," ","0","0","[1029.5999999940395]","1","0","2","","","","","","","",""
"pit-trial","45","427936","0.0-2.0-11.1-3.1","battery-v0.2","","""event"",""trial"",""time""
""fullscreenenter"",""1"",""3001""
""blur"",""19"",""192697""
""focus"",""19"",""192763""
","""event"",""trial"",""time""
""blur"",""19"",""192697""
","""event"",""trial"",""time""
""focus"",""19"",""192763""
","""event"",""trial"",""time""
""fullscreenenter"",""1"",""3001""
","
","","","-1","","","14","13513","5914","&#9761;","elianto","#3366ff99","-1","-1","1","0","[]","0","0","2","","","","","","","",""
"pit-trial","46","432800","0.0-2.0-11.1-4.1","battery-v0.2","","""event"",""trial"",""time""
""fullscreenenter"",""1"",""3001""
""blur"",""19"",""192697""
""focus"",""19"",""192763""
","""event"",""trial"",""time""
""blur"",""19"",""192697""
","""event"",""trial"",""time""
""focus"",""19"",""192763""
","""event"",""trial"",""time""
""fullscreenenter"",""1"",""3001""
","
","","","-1","","","14","13513","5914","&#9761;","elianto","#3366ff99","-1","-1","1","+10","[]","0","0","2","","","","","","","",""
"pit-trial","47","437655","0.0-2.0-11.2-0.2","battery-v0.2","","""event"",""trial"",""time""
""fullscreenenter"",""1"",""3001""
""blur"",""19"",""192697""
""focus"",""19"",""192763""
","""event"",""trial"",""time""
""blur"",""19"",""192697""
","""event"",""trial"",""time""
""focus"",""19"",""192763""
","""event"",""trial"",""time""
""fullscreenenter"",""1"",""3001""
","
","","","-1","","","14","13513","5914","&#9761;","elianto","#3366ff99","-1","-1","1","+10","[]","0","0","2","","","","","","","",""
"pit-trial","48","442509","0.0-2.0-11.2-1.2","battery-v0.2","","""event"",""trial"",""time""
""fullscreenenter"",""1"",""3001""
""blur"",""19"",""192697""
""focus"",""19"",""192763""
","""event"",""trial"",""time""
""blur"",""19"",""192697""
","""event"",""trial"",""time""
""focus"",""19"",""192763""
","""event"",""trial"",""time""
""fullscreenenter"",""1"",""3001""
","
","","","-1","","","14","13513","5914","&#9761;","elianto","#3366ff99","-1","-1","1","+10","[]","0","0","2","","","","","","","",""
"pit-trial","49","447365","0.0-2.0-11.2-2.2","battery-v0.2","","""event"",""trial"",""time""
""fullscreenenter"",""1"",""3001""
""blur"",""19"",""192697""
""focus"",""19"",""192763""
","""event"",""trial"",""time""
""blur"",""19"",""192697""
","""event"",""trial"",""time""
""focus"",""19"",""192763""
","""event"",""trial"",""time""
""fullscreenenter"",""1"",""3001""
","
","","","-1","","","14","13513","5914","&#9761;","elianto","#3366ff99","-1","-1","1","+10","[]","0","0","2","","","","","","","",""
"pit-trial","50","450778","0.0-2.0-11.2-3.2","battery-v0.2","","""event"",""trial"",""time""
""fullscreenenter"",""1"",""3001""
""blur"",""19"",""192697""
""focus"",""19"",""192763""
","""event"",""trial"",""time""
""blur"",""19"",""192697""
","""event"",""trial"",""time""
""focus"",""19"",""192763""
","""event"",""trial"",""time""
""fullscreenenter"",""1"",""3001""
","
","","","557.2000000029802","","","14","13513","5914","&#9761;","elianto","#3366ff99","-1"," ","0","+10","[1409.5]","1","0","2","","","","","","","",""
"pit-trial","51","455632","0.0-2.0-11.2-4.2","battery-v0.2","","""event"",""trial"",""time""
""fullscreenenter"",""1"",""3001""
""blur"",""19"",""192697""
""focus"",""19"",""192763""
","""event"",""trial"",""time""
""blur"",""19"",""192697""
","""event"",""trial"",""time""
""focus"",""19"",""192763""
","""event"",""trial"",""time""
""fullscreenenter"",""1"",""3001""
","
","","","-1","","","14","13513","5914","&#9761;","elianto","#3366ff99","-1","-1","1","+10","[]","0","0","2","","","","","","","",""
"pit-trial","52","460488","0.0-2.0-11.3-0.3","battery-v0.2","","""event"",""trial"",""time""
""fullscreenenter"",""1"",""3001""
""blur"",""19"",""192697""
""focus"",""19"",""192763""
","""event"",""trial"",""time""
""blur"",""19"",""192697""
","""event"",""trial"",""time""
""focus"",""19"",""192763""
","""event"",""trial"",""time""
""fullscreenenter"",""1"",""3001""
","
","","","-1","","","14","13513","5914","&#9761;","elianto","#3366ff99","-1","-1","1","+10","[]","0","0","2","","","","","","","",""
"pit-trial","53","465342","0.0-2.0-11.3-1.3","battery-v0.2","","""event"",""trial"",""time""
""fullscreenenter"",""1"",""3001""
""blur"",""19"",""192697""
""focus"",""19"",""192763""
","""event"",""trial"",""time""
""blur"",""19"",""192697""
","""event"",""trial"",""time""
""focus"",""19"",""192763""
","""event"",""trial"",""time""
""fullscreenenter"",""1"",""3001""
","
","","","-1","","","14","13513","5914","&#9761;","elianto","#3366ff99","-1","-1","1","+10","[]","0","0","2","","","","","","","",""
"pit-trial","54","470195","0.0-2.0-11.3-2.3","battery-v0.2","","""event"",""trial"",""time""
""fullscreenenter"",""1"",""3001""
""blur"",""19"",""192697""
""focus"",""19"",""192763""
","""event"",""trial"",""time""
""blur"",""19"",""192697""
","""event"",""trial"",""time""
""focus"",""19"",""192763""
","""event"",""trial"",""time""
""fullscreenenter"",""1"",""3001""
","
","","","-1","","","14","13513","5914","&#9761;","elianto","#3366ff99","-1","-1","1","+10","[]","0","0","2","","","","","","","",""
"pit-trial","55","473184","0.0-2.0-11.3-3.3","battery-v0.2","","""event"",""trial"",""time""
""fullscreenenter"",""1"",""3001""
""blur"",""19"",""192697""
""focus"",""19"",""192763""
","""event"",""trial"",""time""
""blur"",""19"",""192697""
","""event"",""trial"",""time""
""focus"",""19"",""192763""
","""event"",""trial"",""time""
""fullscreenenter"",""1"",""3001""
","
","","","124","","","14","13513","5914","&#9761;","elianto","#3366ff99","-1"," ","0","+10","[985.9000000059605]","1","0","2","","","","","","","",""
"pit-trial","56","478037","0.0-2.0-11.3-4.3","battery-v0.2","","""event"",""trial"",""time""
""fullscreenenter"",""1"",""3001""
""blur"",""19"",""192697""
""focus"",""19"",""192763""
","""event"",""trial"",""time""
""blur"",""19"",""192697""
","""event"",""trial"",""time""
""focus"",""19"",""192763""
","""event"",""trial"",""time""
""fullscreenenter"",""1"",""3001""
","
","","","-1","","","14","13513","5914","&#9761;","elianto","#3366ff99","-1","-1","1","+10","[]","0","0","2","","","","","","","",""
"call-function","57","478040","0.0-2.0-12.0","battery-v0.2","","""event"",""trial"",""time""
""fullscreenenter"",""1"",""3001""
""blur"",""19"",""192697""
""focus"",""19"",""192763""
","""event"",""trial"",""time""
""blur"",""19"",""192697""
","""event"",""trial"",""time""
""focus"",""19"",""192763""
","""event"",""trial"",""time""
""fullscreenenter"",""1"",""3001""
","
","","","","","","","","","","","","","","","","","","","","","","","","","","",""
"pit-instructions","58","512070","0.0-2.0-13.0","battery-v0.2","","""event"",""trial"",""time""
""fullscreenenter"",""1"",""3001""
""blur"",""19"",""192697""
""focus"",""19"",""192763""
","""event"",""trial"",""time""
""blur"",""19"",""192697""
","""event"",""trial"",""time""
""focus"",""19"",""192763""
","""event"",""trial"",""time""
""fullscreenenter"",""1"",""3001""
","
","","[{""page_index"":0,""viewing_time"":7738.5999999940395},{""page_index"":1,""viewing_time"":6852.4000000059605},{""page_index"":2,""viewing_time"":4072.2999999970198},{""page_index"":3,""viewing_time"":10219.79999999702},{""page_index"":4,""viewing_time"":5145.5}]","34028.79999999702","","","","","","","","","","","","","","","","","","","","","","","",""
"pit-trial","59","516945","0.0-2.0-14.0-0.0","battery-v0.2","","""event"",""trial"",""time""
""fullscreenenter"",""1"",""3001""
""blur"",""19"",""192697""
""focus"",""19"",""192763""
","""event"",""trial"",""time""
""blur"",""19"",""192697""
","""event"",""trial"",""time""
""focus"",""19"",""192763""
","""event"",""trial"",""time""
""fullscreenenter"",""1"",""3001""
","
","","","-1","","","14","13513","5914","&#9826;","elianto","#f73b6a7A","-1","-1","1","0","[]","0","0","3","","","","","","","",""
"pit-trial","60","521807","0.0-2.0-14.0-1.0","battery-v0.2","","""event"",""trial"",""time""
""fullscreenenter"",""1"",""3001""
""blur"",""19"",""192697""
""focus"",""19"",""192763""
","""event"",""trial"",""time""
""blur"",""19"",""192697""
","""event"",""trial"",""time""
""focus"",""19"",""192763""
","""event"",""trial"",""time""
""fullscreenenter"",""1"",""3001""
","
","","","-1","","","14","13513","5914","&#9826;","elianto","#f73b6a7A","-1","-1","1","0","[]","0","0","3","","","","","","","",""
"pit-trial","61","526667","0.0-2.0-14.0-2.0","battery-v0.2","","""event"",""trial"",""time""
""fullscreenenter"",""1"",""3001""
""blur"",""19"",""192697""
""focus"",""19"",""192763""
","""event"",""trial"",""time""
""blur"",""19"",""192697""
","""event"",""trial"",""time""
""focus"",""19"",""192763""
","""event"",""trial"",""time""
""fullscreenenter"",""1"",""3001""
","
","","","-1","","","14","13513","5914","&#9826;","elianto","#f73b6a7A","-1","-1","1","0","[]","0","0","3","","","","","","","",""
"pit-trial","62","531528","0.0-2.0-14.0-3.0","battery-v0.2","","""event"",""trial"",""time""
""fullscreenenter"",""1"",""3001""
""blur"",""19"",""192697""
""focus"",""19"",""192763""
","""event"",""trial"",""time""
""blur"",""19"",""192697""
","""event"",""trial"",""time""
""focus"",""19"",""192763""
","""event"",""trial"",""time""
""fullscreenenter"",""1"",""3001""
","
","","","-1","","","14","13513","5914","&#9826;","elianto","#f73b6a7A","-1","-1","1","-10","[]","0","0","3","","","","","","","",""
"pit-trial","63","536407","0.0-2.0-14.0-4.0","battery-v0.2","","""event"",""trial"",""time""
""fullscreenenter"",""1"",""3001""
""blur"",""19"",""192697""
""focus"",""19"",""192763""
","""event"",""trial"",""time""
""blur"",""19"",""192697""
","""event"",""trial"",""time""
""focus"",""19"",""192763""
","""event"",""trial"",""time""
""fullscreenenter"",""1"",""3001""
","
","","","-1","","","14","13513","5914","&#9826;","elianto","#f73b6a7A","-1","-1","1","0","[]","0","0","3","","","","","","","",""
"pit-trial","64","541271","0.0-2.0-14.1-0.1","battery-v0.2","","""event"",""trial"",""time""
""fullscreenenter"",""1"",""3001""
""blur"",""19"",""192697""
""focus"",""19"",""192763""
","""event"",""trial"",""time""
""blur"",""19"",""192697""
","""event"",""trial"",""time""
""focus"",""19"",""192763""
","""event"",""trial"",""time""
""fullscreenenter"",""1"",""3001""
","
","","","-1","","","14","13513","5914","&#9826;","elianto","#f73b6a7A","-1","-1","1","0","[]","0","0","3","","","","","","","",""
"pit-trial","65","546126","0.0-2.0-14.1-1.1","battery-v0.2","","""event"",""trial"",""time""
""fullscreenenter"",""1"",""3001""
""blur"",""19"",""192697""
""focus"",""19"",""192763""
","""event"",""trial"",""time""
""blur"",""19"",""192697""
","""event"",""trial"",""time""
""focus"",""19"",""192763""
","""event"",""trial"",""time""
""fullscreenenter"",""1"",""3001""
","
","","","-1","","","14","13513","5914","&#9826;","elianto","#f73b6a7A","-1","-1","1","0","[]","0","0","3","","","","","","","",""
"pit-trial","66","550980","0.0-2.0-14.1-2.1","battery-v0.2","","""event"",""trial"",""time""
""fullscreenenter"",""1"",""3001""
""blur"",""19"",""192697""
""focus"",""19"",""192763""
","""event"",""trial"",""time""
""blur"",""19"",""192697""
","""event"",""trial"",""time""
""focus"",""19"",""192763""
","""event"",""trial"",""time""
""fullscreenenter"",""1"",""3001""
","
","","","-1","","","14","13513","5914","&#9826;","elianto","#f73b6a7A","-1","-1","1","0","[]","0","0","3","","","","","","","",""
"pit-trial","67","553901","0.0-2.0-14.1-3.1","battery-v0.2","","""event"",""trial"",""time""
""fullscreenenter"",""1"",""3001""
""blur"",""19"",""192697""
""focus"",""19"",""192763""
","""event"",""trial"",""time""
""blur"",""19"",""192697""
","""event"",""trial"",""time""
""focus"",""19"",""192763""
","""event"",""trial"",""time""
""fullscreenenter"",""1"",""3001""
","
","","","68.90000000596046","","","14","13513","5914","&#9826;","elianto","#f73b6a7A","-1"," ","0","0","[919.2999999970198]","1","0","3","","","","","","","",""
"pit-trial","68","558756","0.0-2.0-14.1-4.1","battery-v0.2","","""event"",""trial"",""time""
""fullscreenenter"",""1"",""3001""
""blur"",""19"",""192697""
""focus"",""19"",""192763""
","""event"",""trial"",""time""
""blur"",""19"",""192697""
","""event"",""trial"",""time""
""focus"",""19"",""192763""
","""event"",""trial"",""time""
""fullscreenenter"",""1"",""3001""
","
","","","-1","","","14","13513","5914","&#9826;","elianto","#f73b6a7A","-1","-1","1","0","[]","0","0","3","","","","","","","",""
"pit-trial","69","563617","0.0-2.0-14.2-0.2","battery-v0.2","","""event"",""trial"",""time""
""fullscreenenter"",""1"",""3001""
""blur"",""19"",""192697""
""focus"",""19"",""192763""
","""event"",""trial"",""time""
""blur"",""19"",""192697""
","""event"",""trial"",""time""
""focus"",""19"",""192763""
","""event"",""trial"",""time""
""fullscreenenter"",""1"",""3001""
","
","","","-1","","","14","13513","5914","&#9826;","elianto","#f73b6a7A","-1","-1","1","0","[]","0","0","3","","","","","","","",""
"pit-trial","70","568471","0.0-2.0-14.2-1.2","battery-v0.2","","""event"",""trial"",""time""
""fullscreenenter"",""1"",""3001""
""blur"",""19"",""192697""
""focus"",""19"",""192763""
","""event"",""trial"",""time""
""blur"",""19"",""192697""
","""event"",""trial"",""time""
""focus"",""19"",""192763""
","""event"",""trial"",""time""
""fullscreenenter"",""1"",""3001""
","
","","","-1","","","14","13513","5914","&#9826;","elianto","#f73b6a7A","-1","-1","1","0","[]","0","0","3","","","","","","","",""
"pit-trial","71","573326","0.0-2.0-14.2-2.2","battery-v0.2","","""event"",""trial"",""time""
""fullscreenenter"",""1"",""3001""
""blur"",""19"",""192697""
""focus"",""19"",""192763""
","""event"",""trial"",""time""
""blur"",""19"",""192697""
","""event"",""trial"",""time""
""focus"",""19"",""192763""
","""event"",""trial"",""time""
""fullscreenenter"",""1"",""3001""
","
","","","-1","","","14","13513","5914","&#9826;","elianto","#f73b6a7A","-1","-1","1","0","[]","0","0","3","","","","","","","",""
"pit-trial","72","576843","0.0-2.0-14.2-3.2","battery-v0.2","","""event"",""trial"",""time""
""fullscreenenter"",""1"",""3001""
""blur"",""19"",""192697""
""focus"",""19"",""192763""
","""event"",""trial"",""time""
""blur"",""19"",""192697""
","""event"",""trial"",""time""
""focus"",""19"",""192763""
","""event"",""trial"",""time""
""fullscreenenter"",""1"",""3001""
","
","","","662.6000000089407","","","14","13513","5914","&#9826;","elianto","#f73b6a7A","-1"," ","0","0","[1513.2999999970198]","1","0","3","","","","","","","",""
"pit-trial","73","581698","0.0-2.0-14.2-4.2","battery-v0.2","","""event"",""trial"",""time""
""fullscreenenter"",""1"",""3001""
""blur"",""19"",""192697""
""focus"",""19"",""192763""
","""event"",""trial"",""time""
""blur"",""19"",""192697""
","""event"",""trial"",""time""
""focus"",""19"",""192763""
","""event"",""trial"",""time""
""fullscreenenter"",""1"",""3001""
","
","","","-1","","","14","13513","5914","&#9826;","elianto","#f73b6a7A","-1","-1","1","0","[]","0","0","3","","","","","","","",""
"pit-trial","74","586553","0.0-2.0-14.3-0.3","battery-v0.2","","""event"",""trial"",""time""
""fullscreenenter"",""1"",""3001""
""blur"",""19"",""192697""
""focus"",""19"",""192763""
","""event"",""trial"",""time""
""blur"",""19"",""192697""
","""event"",""trial"",""time""
""focus"",""19"",""192763""
","""event"",""trial"",""time""
""fullscreenenter"",""1"",""3001""
","
","","","-1","","","14","13513","5914","&#9826;","elianto","#f73b6a7A","-1","-1","1","0","[]","0","0","3","","","","","","","",""
"pit-trial","75","591405","0.0-2.0-14.3-1.3","battery-v0.2","","""event"",""trial"",""time""
""fullscreenenter"",""1"",""3001""
""blur"",""19"",""192697""
""focus"",""19"",""192763""
","""event"",""trial"",""time""
""blur"",""19"",""192697""
","""event"",""trial"",""time""
""focus"",""19"",""192763""
","""event"",""trial"",""time""
""fullscreenenter"",""1"",""3001""
","
","","","-1","","","14","13513","5914","&#9826;","elianto","#f73b6a7A","-1","-1","1","0","[]","0","0","3","","","","","","","",""
"pit-trial","76","596265","0.0-2.0-14.3-2.3","battery-v0.2","","""event"",""trial"",""time""
""fullscreenenter"",""1"",""3001""
""blur"",""19"",""192697""
""focus"",""19"",""192763""
","""event"",""trial"",""time""
""blur"",""19"",""192697""
","""event"",""trial"",""time""
""focus"",""19"",""192763""
","""event"",""trial"",""time""
""fullscreenenter"",""1"",""3001""
","
","","","-1","","","14","13513","5914","&#9826;","elianto","#f73b6a7A","-1","-1","1","0","[]","0","0","3","","","","","","","",""
"pit-trial","77","600250","0.0-2.0-14.3-3.3","battery-v0.2","","""event"",""trial"",""time""
""fullscreenenter"",""1"",""3001""
""blur"",""19"",""192697""
""focus"",""19"",""192763""
","""event"",""trial"",""time""
""blur"",""19"",""192697""
","""event"",""trial"",""time""
""focus"",""19"",""192763""
","""event"",""trial"",""time""
""fullscreenenter"",""1"",""3001""
","
","","","1130.7000000029802","","","14","13513","5914","&#9826;","elianto","#f73b6a7A","-1"," ","0","0","[1981]","1","0","3","","","","","","","",""
"pit-trial","78","605105","0.0-2.0-14.3-4.3","battery-v0.2","","""event"",""trial"",""time""
""fullscreenenter"",""1"",""3001""
""blur"",""19"",""192697""
""focus"",""19"",""192763""
","""event"",""trial"",""time""
""blur"",""19"",""192697""
","""event"",""trial"",""time""
""focus"",""19"",""192763""
","""event"",""trial"",""time""
""fullscreenenter"",""1"",""3001""
","
","","","-1","","","14","13513","5914","&#9826;","elianto","#f73b6a7A","-1","-1","1","0","[]","0","0","3","","","","","","","",""
"call-function","79","605107","0.0-2.0-15.0","battery-v0.2","","""event"",""trial"",""time""
""fullscreenenter"",""1"",""3001""
""blur"",""19"",""192697""
""focus"",""19"",""192763""
","""event"",""trial"",""time""
""blur"",""19"",""192697""
","""event"",""trial"",""time""
""focus"",""19"",""192763""
","""event"",""trial"",""time""
""fullscreenenter"",""1"",""3001""
","
","","","","","","","","","","","","","","","","","","","","","","","","","","",""
"pit-instructions","80","640327","0.0-2.0-16.0","battery-v0.2","","""event"",""trial"",""time""
""fullscreenenter"",""1"",""3001""
""blur"",""19"",""192697""
""focus"",""19"",""192763""
","""event"",""trial"",""time""
""blur"",""19"",""192697""
","""event"",""trial"",""time""
""focus"",""19"",""192763""
","""event"",""trial"",""time""
""fullscreenenter"",""1"",""3001""
","
","","[{""page_index"":0,""viewing_time"":9442.29999999702},{""page_index"":1,""viewing_time"":10312.20000000298},{""page_index"":2,""viewing_time"":9955.09999999404},{""page_index"":3,""viewing_time"":5508.70000000298}]","35218.5","","","","","","","","","","","","","","","","","","","","","","","",""
"pit-trial","81","644285","0.0-2.0-17.0-0.0","battery-v0.2","","""event"",""trial"",""time""
""fullscreenenter"",""1"",""3001""
""blur"",""19"",""192697""
""focus"",""19"",""192763""
","""event"",""trial"",""time""
""blur"",""19"",""192697""
","""event"",""trial"",""time""
""focus"",""19"",""192763""
","""event"",""trial"",""time""
""fullscreenenter"",""1"",""3001""
","
","","","1089.3999999910593","","","14","13513","5914","&#9789;","elianto","#f73b6a7A"," "," ","1","0","[1945.3999999910593]","1","0","4","","","","","","","",""
"pit-trial","82","647838","0.0-2.0-17.0-1.0","battery-v0.2","","""event"",""trial"",""time""
""fullscreenenter"",""1"",""3001""
""blur"",""19"",""192697""
""focus"",""19"",""192763""
","""event"",""trial"",""time""
""blur"",""19"",""192697""
","""event"",""trial"",""time""
""focus"",""19"",""192763""
","""event"",""trial"",""time""
""fullscreenenter"",""1"",""3001""
","
","","","670.7000000029802","","","14","13513","5914","&#9789;","elianto","#f73b6a7A"," "," ","1","0","[1534]","1","0","4","","","","","","","",""
"pit-trial","83","651101","0.0-2.0-17.0-2.0","battery-v0.2","","""event"",""trial"",""time""
""fullscreenenter"",""1"",""3001""
""blur"",""19"",""192697""
""focus"",""19"",""192763""
","""event"",""trial"",""time""
""blur"",""19"",""192697""
","""event"",""trial"",""time""
""focus"",""19"",""192763""
","""event"",""trial"",""time""
""fullscreenenter"",""1"",""3001""
","
","","","399.40000000596046","","","14","13513","5914","&#9789;","elianto","#f73b6a7A"," "," ","1","0","[1257.300000011921]","1","0","4","","","","","","","",""
"pit-trial","84","655969","0.0-2.0-17.0-3.0","battery-v0.2","","""event"",""trial"",""time""
""fullscreenenter"",""1"",""3001""
""blur"",""19"",""192697""
""focus"",""19"",""192763""
","""event"",""trial"",""time""
""blur"",""19"",""192697""
","""event"",""trial"",""time""
""focus"",""19"",""192763""
","""event"",""trial"",""time""
""fullscreenenter"",""1"",""3001""
","
","","","-1","","","14","13513","5914","&#9789;","elianto","#f73b6a7A"," ","-1","0","0","[]","0","0","4","","","","","","","",""
"pit-trial","85","658982","0.0-2.0-17.0-4.0","battery-v0.2","","""event"",""trial"",""time""
""fullscreenenter"",""1"",""3001""
""blur"",""19"",""192697""
""focus"",""19"",""192763""
","""event"",""trial"",""time""
""blur"",""19"",""192697""
","""event"",""trial"",""time""
""focus"",""19"",""192763""
","""event"",""trial"",""time""
""fullscreenenter"",""1"",""3001""
","
","","","143.20000000298023","","","14","13513","5914","&#9789;","elianto","#f73b6a7A"," "," ","1","0","[999.2000000029802]","1","0","4","","","","","","","",""
"pit-trial","86","662422","0.0-2.0-17.1-0.1","battery-v0.2","","""event"",""trial"",""time""
""fullscreenenter"",""1"",""3001""
""blur"",""19"",""192697""
""focus"",""19"",""192763""
","""event"",""trial"",""time""
""blur"",""19"",""192697""
","""event"",""trial"",""time""
""focus"",""19"",""192763""
","""event"",""trial"",""time""
""fullscreenenter"",""1"",""3001""
","
","","","569.5","","","14","13513","5914","&#9789;","elianto","#f73b6a7A"," "," ","1","0","[1427.199999988079]","1","0","4","","","","","","","",""
"pit-trial","87","666012","0.0-2.0-17.1-1.1","battery-v0.2","","""event"",""trial"",""time""
""fullscreenenter"",""1"",""3001""
""blur"",""19"",""192697""
""focus"",""19"",""192763""
","""event"",""trial"",""time""
""blur"",""19"",""192697""
","""event"",""trial"",""time""
""focus"",""19"",""192763""
","""event"",""trial"",""time""
""fullscreenenter"",""1"",""3001""
","
","","","728.7000000029802","","","14","13513","5914","&#9789;","elianto","#f73b6a7A"," "," ","1","0","[1580.5]","1","0","4","","","","","","","",""
"pit-trial","88","669252","0.0-2.0-17.1-2.1","battery-v0.2","","""event"",""trial"",""time""
""fullscreenenter"",""1"",""3001""
""blur"",""19"",""192697""
""focus"",""19"",""192763""
","""event"",""trial"",""time""
""blur"",""19"",""192697""
","""event"",""trial"",""time""
""focus"",""19"",""192763""
","""event"",""trial"",""time""
""fullscreenenter"",""1"",""3001""
","
","","","376.20000000298023","","","14","13513","5914","&#9789;","elianto","#f73b6a7A"," "," ","1","0","[1233.9000000059605]","1","0","4","","","","","","","",""
"pit-trial","89","674107","0.0-2.0-17.1-3.1","battery-v0.2","","""event"",""trial"",""time""
""fullscreenenter"",""1"",""3001""
""blur"",""19"",""192697""
""focus"",""19"",""192763""
","""event"",""trial"",""time""
""blur"",""19"",""192697""
","""event"",""trial"",""time""
""focus"",""19"",""192763""
","""event"",""trial"",""time""
""fullscreenenter"",""1"",""3001""
","
","","","-1","","","14","13513","5914","&#9789;","elianto","#f73b6a7A"," ","-1","0","0","[]","0","0","4","","","","","","","",""
"pit-trial","90","677400","0.0-2.0-17.1-4.1","battery-v0.2","","""event"",""trial"",""time""
""fullscreenenter"",""1"",""3001""
""blur"",""19"",""192697""
""focus"",""19"",""192763""
","""event"",""trial"",""time""
""blur"",""19"",""192697""
","""event"",""trial"",""time""
""focus"",""19"",""192763""
","""event"",""trial"",""time""
""fullscreenenter"",""1"",""3001""
","
","","","438.29999999701977","","","14","13513","5914","&#9789;","elianto","#f73b6a7A"," "," ","1","0","[1288.9000000059605]","1","0","4","","","","","","","",""
"pit-trial","91","681887","0.0-2.0-17.2-0.2","battery-v0.2","","""event"",""trial"",""time""
""fullscreenenter"",""1"",""3001""
""blur"",""19"",""192697""
""focus"",""19"",""192763""
","""event"",""trial"",""time""
""blur"",""19"",""192697""
","""event"",""trial"",""time""
""focus"",""19"",""192763""
","""event"",""trial"",""time""
""fullscreenenter"",""1"",""3001""
","
","","","1632.8999999910593","","","14","13513","5914","&#9789;","elianto","#f73b6a7A"," "," ","1","0","[2483]","1","0","4","","","","","","","",""
"pit-trial","92","685623","0.0-2.0-17.2-1.2","battery-v0.2","","""event"",""trial"",""time""
""fullscreenenter"",""1"",""3001""
""blur"",""19"",""192697""
""focus"",""19"",""192763""
","""event"",""trial"",""time""
""blur"",""19"",""192697""
","""event"",""trial"",""time""
""focus"",""19"",""192763""
","""event"",""trial"",""time""
""fullscreenenter"",""1"",""3001""
","
","","","883.5","","","14","13513","5914","&#9789;","elianto","#f73b6a7A"," "," ","1","0","[1733.8999999910593]","1","0","4","","","","","","","",""
"pit-trial","93","688980","0.0-2.0-17.2-2.2","battery-v0.2","","""event"",""trial"",""time""
""fullscreenenter"",""1"",""3001""
""blur"",""19"",""192697""
""focus"",""19"",""192763""
","""event"",""trial"",""time""
""blur"",""19"",""192697""
","""event"",""trial"",""time""
""focus"",""19"",""192763""
","""event"",""trial"",""time""
""fullscreenenter"",""1"",""3001""
","
","","","504.5","","","14","13513","5914","&#9789;","elianto","#f73b6a7A"," "," ","1","0","[1355.2000000029802]","1","0","4","","","","","","","",""
"pit-trial","94","693834","0.0-2.0-17.2-3.2","battery-v0.2","","""event"",""trial"",""time""
""fullscreenenter"",""1"",""3001""
""blur"",""19"",""192697""
""focus"",""19"",""192763""
","""event"",""trial"",""time""
""blur"",""19"",""192697""
","""event"",""trial"",""time""
""focus"",""19"",""192763""
","""event"",""trial"",""time""
""fullscreenenter"",""1"",""3001""
","
","","","-1","","","14","13513","5914","&#9789;","elianto","#f73b6a7A"," ","-1","0","0","[]","0","0","4","","","","","","","",""
"pit-trial","95","698689","0.0-2.0-17.2-4.2","battery-v0.2","","""event"",""trial"",""time""
""fullscreenenter"",""1"",""3001""
""blur"",""19"",""192697""
""focus"",""19"",""192763""
","""event"",""trial"",""time""
""blur"",""19"",""192697""
","""event"",""trial"",""time""
""focus"",""19"",""192763""
","""event"",""trial"",""time""
""fullscreenenter"",""1"",""3001""
","
","","","-1","","","14","13513","5914","&#9789;","elianto","#f73b6a7A"," ","-1","0","-10","[]","0","0","4","","","","","","","",""
"pit-trial","96","702237","0.0-2.0-17.3-0.3","battery-v0.2","","""event"",""trial"",""time""
""fullscreenenter"",""1"",""3001""
""blur"",""19"",""192697""
""focus"",""19"",""192763""
","""event"",""trial"",""time""
""blur"",""19"",""192697""
","""event"",""trial"",""time""
""focus"",""19"",""192763""
","""event"",""trial"",""time""
""fullscreenenter"",""1"",""3001""
","
","","","692.4000000059605","","","14","13513","5914","&#9789;","elianto","#f73b6a7A"," "," ","1","0","[1543.5999999940395]","1","0","4","","","","","","","",""
"pit-trial","97","706744","0.0-2.0-17.3-1.3","battery-v0.2","","""event"",""trial"",""time""
""fullscreenenter"",""1"",""3001""
""blur"",""19"",""192697""
""focus"",""19"",""192763""
","""event"",""trial"",""time""
""blur"",""19"",""192697""
","""event"",""trial"",""time""
""focus"",""19"",""192763""
","""event"",""trial"",""time""
""fullscreenenter"",""1"",""3001""
","
","","","1653.7999999970198","","","14","13513","5914","&#9789;","elianto","#f73b6a7A"," "," ","1","0","[2504.0999999940395]","1","0","4","","","","","","","",""
"pit-trial","98","711050","0.0-2.0-17.3-2.3","battery-v0.2","","""event"",""trial"",""time""
""fullscreenenter"",""1"",""3001""
""blur"",""19"",""192697""
""focus"",""19"",""192763""
","""event"",""trial"",""time""
""blur"",""19"",""192697""
","""event"",""trial"",""time""
""focus"",""19"",""192763""
","""event"",""trial"",""time""
""fullscreenenter"",""1"",""3001""
","
","","","1452.3999999910593","","","14","13513","5914","&#9789;","elianto","#f73b6a7A"," "," ","1","0","[2302.5]","1","0","4","","","","","","","",""
"pit-trial","99","715904","0.0-2.0-17.3-3.3","battery-v0.2","","""event"",""trial"",""time""
""fullscreenenter"",""1"",""3001""
""blur"",""19"",""192697""
""focus"",""19"",""192763""
","""event"",""trial"",""time""
""blur"",""19"",""192697""
","""event"",""trial"",""time""
""focus"",""19"",""192763""
","""event"",""trial"",""time""
""fullscreenenter"",""1"",""3001""
","
","","","-1","","","14","13513","5914","&#9789;","elianto","#f73b6a7A"," ","-1","0","0","[]","0","0","4","","","","","","","",""
"pit-trial","100","719539","0.0-2.0-17.3-4.3","battery-v0.2","","""event"",""trial"",""time""
""fullscreenenter"",""1"",""3001""
""blur"",""19"",""192697""
""focus"",""19"",""192763""
","""event"",""trial"",""time""
""blur"",""19"",""192697""
","""event"",""trial"",""time""
""focus"",""19"",""192763""
","""event"",""trial"",""time""
""fullscreenenter"",""1"",""3001""
","
","","","781.3999999910593","","","14","13513","5914","&#9789;","elianto","#f73b6a7A"," "," ","1","0","[1632.8999999910593]","1","0","4","","","","","","","",""
"call-function","101","719542","0.0-2.0-18.0","battery-v0.2","","""event"",""trial"",""time""
""fullscreenenter"",""1"",""3001""
""blur"",""19"",""192697""
""focus"",""19"",""192763""
","""event"",""trial"",""time""
""blur"",""19"",""192697""
","""event"",""trial"",""time""
""focus"",""19"",""192763""
","""event"",""trial"",""time""
""fullscreenenter"",""1"",""3001""
","
","","","","","","","","","","","","","","","","","","","","","","","","","","",""
"pit-instructions","102","776705","0.0-2.0-19.0","battery-v0.2","","""event"",""trial"",""time""
""fullscreenenter"",""1"",""3001""
""blur"",""19"",""192697""
""focus"",""19"",""192763""
","""event"",""trial"",""time""
""blur"",""19"",""192697""
","""event"",""trial"",""time""
""focus"",""19"",""192763""
","""event"",""trial"",""time""
""fullscreenenter"",""1"",""3001""
","
","","[{""page_index"":0,""viewing_time"":8940.5},{""page_index"":1,""viewing_time"":5367.699999988079},{""page_index"":2,""viewing_time"":9387.20000000298},{""page_index"":3,""viewing_time"":4370.79999999702},{""page_index"":4,""viewing_time"":6172.300000011921},{""page_index"":5,""viewing_time"":8226.199999988079},{""page_index"":6,""viewing_time"":4398.20000000298},{""page_index"":7,""viewing_time"":4868.100000008941},{""page_index"":8,""viewing_time"":5430}]","57161.09999999404","","","","","","","","","","","","","","","","","","","","","","","",""
"pit-comprehension","103","780745","0.0-2.0-20.0-0.0","battery-v0.2","","""event"",""trial"",""time""
""fullscreenenter"",""1"",""3001""
""blur"",""19"",""192697""
""focus"",""19"",""192763""
","""event"",""trial"",""time""
""blur"",""19"",""192697""
","""event"",""trial"",""time""
""focus"",""19"",""192763""
","""event"",""trial"",""time""
""fullscreenenter"",""1"",""3001""
","
","","","4037.4000000059605","[""SPACE""]","0","14","13513","5914","","","","","","","","","","","","","","","","","","",""
"pit-instructions","104","785127","0.0-2.0-20.0-1.0","battery-v0.2","","""event"",""trial"",""time""
""fullscreenenter"",""1"",""3001""
""blur"",""19"",""192697""
""focus"",""19"",""192763""
","""event"",""trial"",""time""
""blur"",""19"",""192697""
","""event"",""trial"",""time""
""focus"",""19"",""192763""
","""event"",""trial"",""time""
""fullscreenenter"",""1"",""3001""
","
","","[{""page_index"":0,""viewing_time"":4353}]","4353.20000000298","","","","","","","","","","","","","","","","","","","","","","","",""
"pit-comprehension","105","789558","0.0-2.0-21.0-0.0","battery-v0.2","","""event"",""trial"",""time""
""fullscreenenter"",""1"",""3001""
""blur"",""19"",""192697""
""focus"",""19"",""192763""
","""event"",""trial"",""time""
""blur"",""19"",""192697""
","""event"",""trial"",""time""
""focus"",""19"",""192763""
","""event"",""trial"",""time""
""fullscreenenter"",""1"",""3001""
","
","","","4428.699999988079","[""10""]","0","14","13513","5914","","","","","","","","","","","","","","","","","","",""
"pit-instructions","106","793652","0.0-2.0-21.0-1.0","battery-v0.2","","""event"",""trial"",""time""
""fullscreenenter"",""1"",""3001""
""blur"",""19"",""192697""
""focus"",""19"",""192763""
","""event"",""trial"",""time""
""blur"",""19"",""192697""
","""event"",""trial"",""time""
""focus"",""19"",""192763""
","""event"",""trial"",""time""
""fullscreenenter"",""1"",""3001""
","
","","[{""page_index"":0,""viewing_time"":4066.4000000059605}]","4066.7000000029802","","","","","","","","","","","","","","","","","","","","","","","",""
"pit-comprehension","107","803005","0.0-2.0-22.0-0.0","battery-v0.2","","""event"",""trial"",""time""
""fullscreenenter"",""1"",""3001""
""blur"",""19"",""192697""
""focus"",""19"",""192763""
","""event"",""trial"",""time""
""blur"",""19"",""192697""
","""event"",""trial"",""time""
""focus"",""19"",""192763""
","""event"",""trial"",""time""
""fullscreenenter"",""1"",""3001""
","
","","","9350.59999999404","[""0""]","0","14","13513","5914","","","","","","","","","","","","","","","","","","",""
"pit-instructions","108","804857","0.0-2.0-22.0-1.0","battery-v0.2","","""event"",""trial"",""time""
""fullscreenenter"",""1"",""3001""
""blur"",""19"",""192697""
""focus"",""19"",""192763""
","""event"",""trial"",""time""
""blur"",""19"",""192697""
","""event"",""trial"",""time""
""focus"",""19"",""192763""
","""event"",""trial"",""time""
""fullscreenenter"",""1"",""3001""
","
","","[{""page_index"":0,""viewing_time"":1821.0999999940395}]","1821.199999988079","","","","","","","","","","","","","","","","","","","","","","","",""
"pit-comprehension","109","813495","0.0-2.0-23.0-0.0","battery-v0.2","","""event"",""trial"",""time""
""fullscreenenter"",""1"",""3001""
""blur"",""19"",""192697""
""focus"",""19"",""192763""
","""event"",""trial"",""time""
""blur"",""19"",""192697""
","""event"",""trial"",""time""
""focus"",""19"",""192763""
","""event"",""trial"",""time""
""fullscreenenter"",""1"",""3001""
","
","","","8637","[""True""]","0","14","13513","5914","","","","","","","","","","","","","","","","","","",""
"pit-instructions","110","815380","0.0-2.0-23.0-1.0","battery-v0.2","","""event"",""trial"",""time""
""fullscreenenter"",""1"",""3001""
""blur"",""19"",""192697""
""focus"",""19"",""192763""
","""event"",""trial"",""time""
""blur"",""19"",""192697""
","""event"",""trial"",""time""
""focus"",""19"",""192763""
","""event"",""trial"",""time""
""fullscreenenter"",""1"",""3001""
","
","","[{""page_index"":0,""viewing_time"":1855.6000000089407}]","1855.7999999970198","","","","","","","","","","","","","","","","","","","","","","","",""
"pit-comprehension","111","823030","0.0-2.0-24.0-0.0","battery-v0.2","","""event"",""trial"",""time""
""fullscreenenter"",""1"",""3001""
""blur"",""19"",""192697""
""focus"",""19"",""192763""
","""event"",""trial"",""time""
""blur"",""19"",""192697""
","""event"",""trial"",""time""
""focus"",""19"",""192763""
","""event"",""trial"",""time""
""fullscreenenter"",""1"",""3001""
","
","","","7647.100000008941","[""True""]","0","14","13513","5914","","","","","","","","","","","","","","","","","","",""
"pit-instructions","112","826645","0.0-2.0-24.0-1.0","battery-v0.2","","""event"",""trial"",""time""
""fullscreenenter"",""1"",""3001""
""blur"",""19"",""192697""
""focus"",""19"",""192763""
","""event"",""trial"",""time""
""blur"",""19"",""192697""
","""event"",""trial"",""time""
""focus"",""19"",""192763""
","""event"",""trial"",""time""
""fullscreenenter"",""1"",""3001""
","
","","[{""page_index"":0,""viewing_time"":3582.7000000029802}]","3582.8999999910593","","","","","","","","","","","","","","","","","","","","","","","",""
"pit-comprehension","113","833373","0.0-2.0-25.0-0.0","battery-v0.2","","""event"",""trial"",""time""
""fullscreenenter"",""1"",""3001""
""blur"",""19"",""192697""
""focus"",""19"",""192763""
","""event"",""trial"",""time""
""blur"",""19"",""192697""
","""event"",""trial"",""time""
""focus"",""19"",""192763""
","""event"",""trial"",""time""
""fullscreenenter"",""1"",""3001""
","
","","","6725.29999999702","[""True""]","0","14","13513","5914","","","","","","","","","","","","","","","","","","",""
"pit-instructions","114","837705","0.0-2.0-25.0-1.0","battery-v0.2","","""event"",""trial"",""time""
""fullscreenenter"",""1"",""3001""
""blur"",""19"",""192697""
""focus"",""19"",""192763""
","""event"",""trial"",""time""
""blur"",""19"",""192697""
","""event"",""trial"",""time""
""focus"",""19"",""192763""
","""event"",""trial"",""time""
""fullscreenenter"",""1"",""3001""
","
","","[{""page_index"":0,""viewing_time"":4301.899999991059}]","4302.0999999940395","","","","","","","","","","","","","","","","","","","","","","","",""
"pit-comprehension","115","845445","0.0-2.0-26.0-0.0","battery-v0.2","","""event"",""trial"",""time""
""fullscreenenter"",""1"",""3001""
""blur"",""19"",""192697""
""focus"",""19"",""192763""
","""event"",""trial"",""time""
""blur"",""19"",""192697""
","""event"",""trial"",""time""
""focus"",""19"",""192763""
","""event"",""trial"",""time""
""fullscreenenter"",""1"",""3001""
","
","","","7738.0999999940395","[""False""]","0","14","13513","5914","","","","","","","","","","","","","","","","","","",""
"pit-instructions","116","847169","0.0-2.0-26.0-1.0","battery-v0.2","","""event"",""trial"",""time""
""fullscreenenter"",""1"",""3001""
""blur"",""19"",""192697""
""focus"",""19"",""192763""
","""event"",""trial"",""time""
""blur"",""19"",""192697""
","""event"",""trial"",""time""
""focus"",""19"",""192763""
","""event"",""trial"",""time""
""fullscreenenter"",""1"",""3001""
","
","","[{""page_index"":0,""viewing_time"":1691.2999999970198}]","1691.5","","","","","","","","","","","","","","","","","","","","","","","",""
"pit-instructions","117","865759","0.0-3.0","battery-v0.2","","""event"",""trial"",""time""
""fullscreenenter"",""1"",""3001""
""blur"",""19"",""192697""
""focus"",""19"",""192763""
","""event"",""trial"",""time""
""blur"",""19"",""192697""
","""event"",""trial"",""time""
""focus"",""19"",""192763""
","""event"",""trial"",""time""
""fullscreenenter"",""1"",""3001""
","
","","[{""page_index"":0,""viewing_time"":5904.5},{""page_index"":1,""viewing_time"":5995.20000000298},{""page_index"":2,""viewing_time"":6688.70000000298}]","18588.59999999404","","","","","","","","","","","","","","","","","","","","","","","",""
"pit-trial","118","870631","0.0-4.0","battery-v0.2","","""event"",""trial"",""time""
""fullscreenenter"",""1"",""3001""
""blur"",""19"",""192697""
""focus"",""19"",""192763""
","""event"",""trial"",""time""
""blur"",""19"",""192697""
","""event"",""trial"",""time""
""focus"",""19"",""192763""
","""event"",""trial"",""time""
""fullscreenenter"",""1"",""3001""
","
","","","-1","","","14","13513","5914","&#9752;","elianto","#f73b6a7A"," ","-1","0","0","[]","0","1","","","13513","1","3","3","lose","go","1"
"pit-trial","119","874239","0.0-5.0","battery-v0.2","","""event"",""trial"",""time""
""fullscreenenter"",""1"",""3001""
""blur"",""19"",""192697""
""focus"",""19"",""192763""
","""event"",""trial"",""time""
""blur"",""19"",""192697""
","""event"",""trial"",""time""
""focus"",""19"",""192763""
","""event"",""trial"",""time""
""fullscreenenter"",""1"",""3001""
","
","","","741.5","","","14","13513","5914","&#9733;","elianto","#3366ff99","-1"," ","0","+10","[1591.5]","1","1","","","13513","2","2","2","win","no-go","1"
"pit-trial","120","877675","0.0-6.0","battery-v0.2","","""event"",""trial"",""time""
""fullscreenenter"",""1"",""3001""
""blur"",""19"",""192697""
""focus"",""19"",""192763""
","""event"",""trial"",""time""
""blur"",""19"",""192697""
","""event"",""trial"",""time""
""focus"",""19"",""192763""
","""event"",""trial"",""time""
""fullscreenenter"",""1"",""3001""
","
","","","578.4000000059605","","","14","13513","5914","&#9730;","elianto","#3366ff99"," "," ","1","+10","[1432.5]","1","1","","","13513","3","1","1","win","go","0"
"pit-trial","121","882535","0.0-7.0","battery-v0.2","","""event"",""trial"",""time""
""fullscreenenter"",""1"",""3001""
""blur"",""19"",""192697""
""focus"",""19"",""192763""
","""event"",""trial"",""time""
""blur"",""19"",""192697""
","""event"",""trial"",""time""
""focus"",""19"",""192763""
","""event"",""trial"",""time""
""fullscreenenter"",""1"",""3001""
","
","","","-1","","","14","13513","5914","&#9728;","elianto","#f73b6a7A","-1","-1","1","0","[]","0","1","","","13513","4","0","4","lose","no-go","0"
"pit-trial","122","885989","0.0-8.0","battery-v0.2","","""event"",""trial"",""time""
""fullscreenenter"",""1"",""3001""
""blur"",""19"",""192697""
""focus"",""19"",""192763""
","""event"",""trial"",""time""
""blur"",""19"",""192697""
","""event"",""trial"",""time""
""focus"",""19"",""192763""
","""event"",""trial"",""time""
""fullscreenenter"",""1"",""3001""
","
","","","590.1000000089407","","","14","13513","5914","&#9730;","elianto","#3366ff99"," "," ","1","+10","[1444.5]","1","1","","","13513","5","1","1","win","go","0"
"pit-trial","123","889632","0.0-9.0","battery-v0.2","","""event"",""trial"",""time""
""fullscreenenter"",""1"",""3001""
""blur"",""19"",""192697""
""focus"",""19"",""192763""
","""event"",""trial"",""time""
""blur"",""19"",""192697""
","""event"",""trial"",""time""
""focus"",""19"",""192763""
","""event"",""trial"",""time""
""fullscreenenter"",""1"",""3001""
","
","","","781.1999999880791","","","14","13513","5914","&#9733;","elianto","#3366ff99","-1"," ","0","0","[1633.2999999970198]","1","1","","","13513","6","2","2","win","no-go","0"
"pit-trial","124","894501","0.0-10.0","battery-v0.2","","""event"",""trial"",""time""
""fullscreenenter"",""1"",""3001""
""blur"",""19"",""192697""
""focus"",""19"",""192763""
","""event"",""trial"",""time""
""blur"",""19"",""192697""
","""event"",""trial"",""time""
""focus"",""19"",""192763""
","""event"",""trial"",""time""
""fullscreenenter"",""1"",""3001""
","
","","","-1","","","14","13513","5914","&#9752;","elianto","#f73b6a7A"," ","-1","0","-10","[]","0","1","","","13513","7","3","3","lose","go","0"
"pit-trial","125","899356","0.0-11.0","battery-v0.2","","""event"",""trial"",""time""
""fullscreenenter"",""1"",""3001""
""blur"",""19"",""192697""
""focus"",""19"",""192763""
","""event"",""trial"",""time""
""blur"",""19"",""192697""
","""event"",""trial"",""time""
""focus"",""19"",""192763""
","""event"",""trial"",""time""
""fullscreenenter"",""1"",""3001""
","
","","","-1","","","14","13513","5914","&#9728;","elianto","#f73b6a7A","-1","-1","1","0","[]","0","1","","","13513","8","0","4","lose","no-go","0"
"pit-trial","126","904210","0.0-12.0","battery-v0.2","","""event"",""trial"",""time""
""fullscreenenter"",""1"",""3001""
""blur"",""19"",""192697""
""focus"",""19"",""192763""
","""event"",""trial"",""time""
""blur"",""19"",""192697""
","""event"",""trial"",""time""
""focus"",""19"",""192763""
","""event"",""trial"",""time""
""fullscreenenter"",""1"",""3001""
","
","","","-1","","","14","13513","5914","&#9728;","elianto","#f73b6a7A","-1","-1","1","0","[]","0","1","","","13513","9","0","4","lose","no-go","0"
"pit-trial","127","907736","0.0-13.0","battery-v0.2","","""event"",""trial"",""time""
""fullscreenenter"",""1"",""3001""
""blur"",""19"",""192697""
""focus"",""19"",""192763""
","""event"",""trial"",""time""
""blur"",""19"",""192697""
","""event"",""trial"",""time""
""focus"",""19"",""192763""
","""event"",""trial"",""time""
""fullscreenenter"",""1"",""3001""
","
","","","671.9000000059605","","","14","13513","5914","&#9730;","elianto","#3366ff99"," "," ","1","+10","[1523.2000000029802]","1","1","","","13513","10","1","1","win","go","0"
"pit-trial","128","911890","0.0-14.0","battery-v0.2","","""event"",""trial"",""time""
""fullscreenenter"",""1"",""3001""
""blur"",""19"",""192697""
""focus"",""19"",""192763""
","""event"",""trial"",""time""
""blur"",""19"",""192697""
","""event"",""trial"",""time""
""focus"",""19"",""192763""
","""event"",""trial"",""time""
""fullscreenenter"",""1"",""3001""
","
","","","1299.5999999940395","","","14","13513","5914","&#9752;","elianto","#f73b6a7A"," "," ","1","0","[2150.3999999910593]","1","1","","","13513","11","3","3","lose","go","0"
"pit-trial","129","915664","0.0-15.0","battery-v0.2","","""event"",""trial"",""time""
""fullscreenenter"",""1"",""3001""
""blur"",""19"",""192697""
""focus"",""19"",""192763""
","""event"",""trial"",""time""
""blur"",""19"",""192697""
","""event"",""trial"",""time""
""focus"",""19"",""192763""
","""event"",""trial"",""time""
""fullscreenenter"",""1"",""3001""
","
","","","920.7000000029802","","","14","13513","5914","&#9733;","elianto","#3366ff99","-1"," ","0","0","[1771.2999999970198]","1","1","","","13513","12","2","2","win","no-go","0"
"pit-trial","130","919321","0.0-16.0","battery-v0.2","","""event"",""trial"",""time""
""fullscreenenter"",""1"",""3001""
""blur"",""19"",""192697""
""focus"",""19"",""192763""
","""event"",""trial"",""time""
""blur"",""19"",""192697""
","""event"",""trial"",""time""
""focus"",""19"",""192763""
","""event"",""trial"",""time""
""fullscreenenter"",""1"",""3001""
","
","","","794.9000000059605","","","14","13513","5914","&#9730;","elianto","#3366ff99"," "," ","1","+10","[1645]","1","1","","","13513","13","1","1","win","go","0"
"pit-trial","131","923033","0.0-17.0","battery-v0.2","","""event"",""trial"",""time""
""fullscreenenter"",""1"",""3001""
""blur"",""19"",""192697""
""focus"",""19"",""192763""
","""event"",""trial"",""time""
""blur"",""19"",""192697""
","""event"",""trial"",""time""
""focus"",""19"",""192763""
","""event"",""trial"",""time""
""fullscreenenter"",""1"",""3001""
","
","","","857.5999999940395","","","14","13513","5914","&#9752;","elianto","#f73b6a7A"," "," ","1","0","[1708.7000000029802]","1","1","","","13513","14","3","3","lose","go","0"
"pit-trial","132","927887","0.0-18.0","battery-v0.2","","""event"",""trial"",""time""
""fullscreenenter"",""1"",""3001""
""blur"",""19"",""192697""
""focus"",""19"",""192763""
","""event"",""trial"",""time""
""blur"",""19"",""192697""
","""event"",""trial"",""time""
""focus"",""19"",""192763""
","""event"",""trial"",""time""
""fullscreenenter"",""1"",""3001""
","
","","","-1","","","14","13513","5914","&#9728;","elianto","#f73b6a7A","-1","-1","1","0","[]","0","1","","","13513","15","0","4","lose","no-go","0"
"pit-trial","133","932741","0.0-19.0","battery-v0.2","","""event"",""trial"",""time""
""fullscreenenter"",""1"",""3001""
""blur"",""19"",""192697""
""focus"",""19"",""192763""
","""event"",""trial"",""time""
""blur"",""19"",""192697""
","""event"",""trial"",""time""
""focus"",""19"",""192763""
","""event"",""trial"",""time""
""fullscreenenter"",""1"",""3001""
","
","","","-1","","","14","13513","5914","&#9733;","elianto","#3366ff99","-1","-1","1","+10","[]","0","1","","","13513","16","2","2","win","no-go","0"
"pit-trial","134","937596","0.0-20.0","battery-v0.2","","""event"",""trial"",""time""
""fullscreenenter"",""1"",""3001""
""blur"",""19"",""192697""
""focus"",""19"",""192763""
","""event"",""trial"",""time""
""blur"",""19"",""192697""
","""event"",""trial"",""time""
""focus"",""19"",""192763""
","""event"",""trial"",""time""
""fullscreenenter"",""1"",""3001""
","
","","","-1","","","14","13513","5914","&#9733;","elianto","#3366ff99","-1","-1","1","+10","[]","0","1","","","13513","17","2","2","win","no-go","0"
"pit-trial","135","942451","0.0-21.0","battery-v0.2","","""event"",""trial"",""time""
""fullscreenenter"",""1"",""3001""
""blur"",""19"",""192697""
""focus"",""19"",""192763""
","""event"",""trial"",""time""
""blur"",""19"",""192697""
","""event"",""trial"",""time""
""focus"",""19"",""192763""
","""event"",""trial"",""time""
""fullscreenenter"",""1"",""3001""
","
","","","-1","","","14","13513","5914","&#9728;","elianto","#f73b6a7A","-1","-1","1","0","[]","0","1","","","13513","18","0","4","lose","no-go","0"
"pit-trial","136","946188","0.0-22.0","battery-v0.2","","""event"",""trial"",""time""
""fullscreenenter"",""1"",""3001""
""blur"",""19"",""192697""
""focus"",""19"",""192763""
","""event"",""trial"",""time""
""blur"",""19"",""192697""
","""event"",""trial"",""time""
""focus"",""19"",""192763""
","""event"",""trial"",""time""
""fullscreenenter"",""1"",""3001""
","
","","","881.8999999910593","","","14","13513","5914","&#9730;","elianto","#3366ff99"," "," ","1","+10","[1733]","1","1","","","13513","19","1","1","win","go","0"
"pit-trial","137","949930","0.0-23.0","battery-v0.2","","""event"",""trial"",""time""
""fullscreenenter"",""1"",""3001""
""blur"",""19"",""192697""
""focus"",""19"",""192763""
","""event"",""trial"",""time""
""blur"",""19"",""192697""
","""event"",""trial"",""time""
""focus"",""19"",""192763""
","""event"",""trial"",""time""
""fullscreenenter"",""1"",""3001""
","
","","","888","","","14","13513","5914","&#9752;","elianto","#f73b6a7A"," "," ","1","0","[1738.4000000059605]","1","1","","","13513","20","3","3","lose","go","0"
"pit-instructions","138","962223","0.0-24.0","battery-v0.2","","""event"",""trial"",""time""
""fullscreenenter"",""1"",""3001""
""blur"",""19"",""192697""
""focus"",""19"",""192763""
","""event"",""trial"",""time""
""blur"",""19"",""192697""
","""event"",""trial"",""time""
""focus"",""19"",""192763""
","""event"",""trial"",""time""
""fullscreenenter"",""1"",""3001""
","
","","[{""page_index"":0,""viewing_time"":5604.899999991059},{""page_index"":1,""viewing_time"":6686.300000011921}]","12291.39999999106","","","","","","","","","","","","","","","","","","","","","","","",""
"pit-trial","139","967089","0.0-25.0","battery-v0.2","","""event"",""trial"",""time""
""fullscreenenter"",""1"",""3001""
""blur"",""19"",""192697""
""focus"",""19"",""192763""
","""event"",""trial"",""time""
""blur"",""19"",""192697""
","""event"",""trial"",""time""
""focus"",""19"",""192763""
","""event"",""trial"",""time""
""fullscreenenter"",""1"",""3001""
","
","","","-1","","","14","13513","5914","w","elianto","#f73b6a7A"," ","-1","0","0","[]","0","2","","","13513","21","3","3","lose","go","1"
"pit-trial","140","971951","0.0-26.0","battery-v0.2","","""event"",""trial"",""time""
""fullscreenenter"",""1"",""3001""
""blur"",""19"",""192697""
""focus"",""19"",""192763""
","""event"",""trial"",""time""
""blur"",""19"",""192697""
","""event"",""trial"",""time""
""focus"",""19"",""192763""
","""event"",""trial"",""time""
""fullscreenenter"",""1"",""3001""
","
","","","-1","","","14","13513","5914","e","elianto","#f73b6a7A","-1","-1","1","0","[]","0","2","","","13513","22","2","4","lose","no-go","0"
"pit-trial","141","976829","0.0-27.0","battery-v0.2","","""event"",""trial"",""time""
""fullscreenenter"",""1"",""3001""
""blur"",""19"",""192697""
""focus"",""19"",""192763""
","""event"",""trial"",""time""
""blur"",""19"",""192697""
","""event"",""trial"",""time""
""focus"",""19"",""192763""
","""event"",""trial"",""time""
""fullscreenenter"",""1"",""3001""
","
","","","-1","","","14","13513","5914","j","elianto","#f73b6a7A","-1","-1","1","0","[]","0","2","","","13513","23","0","4","lose","no-go","0"
"pit-trial","142","980841","0.0-28.0","battery-v0.2","","""event"",""trial"",""time""
""fullscreenenter"",""1"",""3001""
""blur"",""19"",""192697""
""focus"",""19"",""192763""
","""event"",""trial"",""time""
""blur"",""19"",""192697""
","""event"",""trial"",""time""
""focus"",""19"",""192763""
","""event"",""trial"",""time""
""fullscreenenter"",""1"",""3001""
","
","","","1153.0999999940395","","","14","13513","5914","d","elianto","#3366ff99"," "," ","1","+10","[2005.2999999970198]","1","2","","","13513","24","1","1","win","go","0"
"pit-trial","143","985712","0.0-29.0","battery-v0.2","","""event"",""trial"",""time""
""fullscreenenter"",""1"",""3001""
""blur"",""19"",""192697""
""focus"",""19"",""192763""
","""event"",""trial"",""time""
""blur"",""19"",""192697""
","""event"",""trial"",""time""
""focus"",""19"",""192763""
","""event"",""trial"",""time""
""fullscreenenter"",""1"",""3001""
","
","","","-1","","","14","13513","5914","e","elianto","#f73b6a7A","-1","-1","1","0","[]","0","2","","","13513","25","2","4","lose","no-go","0"
"pit-trial","144","990590","0.0-30.0","battery-v0.2","","""event"",""trial"",""time""
""fullscreenenter"",""1"",""3001""
""blur"",""19"",""192697""
""focus"",""19"",""192763""
","""event"",""trial"",""time""
""blur"",""19"",""192697""
","""event"",""trial"",""time""
""focus"",""19"",""192763""
","""event"",""trial"",""time""
""fullscreenenter"",""1"",""3001""
","
","","","-1","","","14","13513","5914","j","elianto","#f73b6a7A","-1","-1","1","-10","[]","0","2","","","13513","26","0","4","lose","no-go","1"
"pit-trial","145","994232","0.0-31.0","battery-v0.2","","""event"",""trial"",""time""
""fullscreenenter"",""1"",""3001""
""blur"",""19"",""192697""
""focus"",""19"",""192763""
","""event"",""trial"",""time""
""blur"",""19"",""192697""
","""event"",""trial"",""time""
""focus"",""19"",""192763""
","""event"",""trial"",""time""
""fullscreenenter"",""1"",""3001""
","
","","","786.7999999970198","","","14","13513","5914","d","elianto","#3366ff99"," "," ","1","+10","[1638.0999999940395]","1","2","","","13513","27","1","1","win","go","0"
"pit-trial","146","999087","0.0-32.0","battery-v0.2","","""event"",""trial"",""time""
""fullscreenenter"",""1"",""3001""
""blur"",""19"",""192697""
""focus"",""19"",""192763""
","""event"",""trial"",""time""
""blur"",""19"",""192697""
","""event"",""trial"",""time""
""focus"",""19"",""192763""
","""event"",""trial"",""time""
""fullscreenenter"",""1"",""3001""
","
","","","-1","","","14","13513","5914","w","elianto","#f73b6a7A"," ","-1","0","-10","[]","0","2","","","13513","28","3","3","lose","go","0"
"pit-trial","147","1003941","0.0-33.0","battery-v0.2","","""event"",""trial"",""time""
""fullscreenenter"",""1"",""3001""
""blur"",""19"",""192697""
""focus"",""19"",""192763""
","""event"",""trial"",""time""
""blur"",""19"",""192697""
","""event"",""trial"",""time""
""focus"",""19"",""192763""
","""event"",""trial"",""time""
""fullscreenenter"",""1"",""3001""
","
","","","-1","","","14","13513","5914","e","elianto","#f73b6a7A","-1","-1","1","0","[]","0","2","","","13513","29","2","4","lose","no-go","0"
"pit-trial","148","1007877","0.0-34.0","battery-v0.2","","""event"",""trial"",""time""
""fullscreenenter"",""1"",""3001""
""blur"",""19"",""192697""
""focus"",""19"",""192763""
","""event"",""trial"",""time""
""blur"",""19"",""192697""
","""event"",""trial"",""time""
""focus"",""19"",""192763""
","""event"",""trial"",""time""
""fullscreenenter"",""1"",""3001""
","
","","","1081.5","","","14","13513","5914","j","elianto","#f73b6a7A","-1"," ","0","-10","[1932.3999999910593]","1","2","","","13513","30","0","4","lose","no-go","0"
"pit-trial","149","1011732","0.0-35.0","battery-v0.2","","""event"",""trial"",""time""
""fullscreenenter"",""1"",""3001""
""blur"",""19"",""192697""
""focus"",""19"",""192763""
","""event"",""trial"",""time""
""blur"",""19"",""192697""
","""event"",""trial"",""time""
""focus"",""19"",""192763""
","""event"",""trial"",""time""
""fullscreenenter"",""1"",""3001""
","
","","","1000.2999999970198","","","14","13513","5914","d","elianto","#3366ff99"," "," ","1","+10","[1851]","1","2","","","13513","31","1","1","win","go","0"
"pit-trial","150","1016586","0.0-36.0","battery-v0.2","","""event"",""trial"",""time""
""fullscreenenter"",""1"",""3001""
""blur"",""19"",""192697""
""focus"",""19"",""192763""
","""event"",""trial"",""time""
""blur"",""19"",""192697""
","""event"",""trial"",""time""
""focus"",""19"",""192763""
","""event"",""trial"",""time""
""fullscreenenter"",""1"",""3001""
","
","","","-1","","","14","13513","5914","w","elianto","#f73b6a7A"," ","-1","0","-10","[]","0","2","","","13513","32","3","3","lose","go","0"
"pit-trial","151","1020604","0.0-37.0","battery-v0.2","","""event"",""trial"",""time""
""fullscreenenter"",""1"",""3001""
""blur"",""19"",""192697""
""focus"",""19"",""192763""
","""event"",""trial"",""time""
""blur"",""19"",""192697""
","""event"",""trial"",""time""
""focus"",""19"",""192763""
","""event"",""trial"",""time""
""fullscreenenter"",""1"",""3001""
","
","","","1163.5","","","14","13513","5914","j","elianto","#f73b6a7A","-1"," ","0","-10","[2014.199999988079]","1","2","","","13513","33","0","4","lose","no-go","0"
"pit-trial","152","1025458","0.0-38.0","battery-v0.2","","""event"",""trial"",""time""
""fullscreenenter"",""1"",""3001""
""blur"",""19"",""192697""
""focus"",""19"",""192763""
","""event"",""trial"",""time""
""blur"",""19"",""192697""
","""event"",""trial"",""time""
""focus"",""19"",""192763""
","""event"",""trial"",""time""
""fullscreenenter"",""1"",""3001""
","
","","","-1","","","14","13513","5914","e","elianto","#f73b6a7A","-1","-1","1","0","[]","0","2","","","13513","34","2","4","lose","no-go","0"
"pit-trial","153","1029645","0.0-39.0","battery-v0.2","","""event"",""trial"",""time""
""fullscreenenter"",""1"",""3001""
""blur"",""19"",""192697""
""focus"",""19"",""192763""
","""event"",""trial"",""time""
""blur"",""19"",""192697""
","""event"",""trial"",""time""
""focus"",""19"",""192763""
","""event"",""trial"",""time""
""fullscreenenter"",""1"",""3001""
","
","","","1332.5","","","14","13513","5914","w","elianto","#f73b6a7A"," "," ","1","0","[2183.4000000059605]","1","2","","","13513","35","3","3","lose","go","0"
"pit-trial","154","1033171","0.0-40.0","battery-v0.2","","""event"",""trial"",""time""
""fullscreenenter"",""1"",""3001""
""blur"",""19"",""192697""
""focus"",""19"",""192763""
","""event"",""trial"",""time""
""blur"",""19"",""192697""
","""event"",""trial"",""time""
""focus"",""19"",""192763""
","""event"",""trial"",""time""
""fullscreenenter"",""1"",""3001""
","
","","","672.2000000029802","","","14","13513","5914","d","elianto","#3366ff99"," "," ","1","+10","[1524.2000000029802]","1","2","","","13513","36","1","1","win","go","0"
"pit-trial","155","1036744","0.0-41.0","battery-v0.2","","""event"",""trial"",""time""
""fullscreenenter"",""1"",""3001""
""blur"",""19"",""192697""
""focus"",""19"",""192763""
","""event"",""trial"",""time""
""blur"",""19"",""192697""
","""event"",""trial"",""time""
""focus"",""19"",""192763""
","""event"",""trial"",""time""
""fullscreenenter"",""1"",""3001""
","
","","","719.7000000029802","","","14","13513","5914","d","elianto","#3366ff99"," "," ","1","0","[1570]","1","2","","","13513","37","1","1","win","go","1"
"pit-trial","156","1041599","0.0-42.0","battery-v0.2","","""event"",""trial"",""time""
""fullscreenenter"",""1"",""3001""
""blur"",""19"",""192697""
""focus"",""19"",""192763""
","""event"",""trial"",""time""
""blur"",""19"",""192697""
","""event"",""trial"",""time""
""focus"",""19"",""192763""
","""event"",""trial"",""time""
""fullscreenenter"",""1"",""3001""
","
","","","-1","","","14","13513","5914","e","elianto","#f73b6a7A","-1","-1","1","-10","[]","0","2","","","13513","38","2","4","lose","no-go","1"
"pit-trial","157","1045689","0.0-43.0","battery-v0.2","","""event"",""trial"",""time""
""fullscreenenter"",""1"",""3001""
""blur"",""19"",""192697""
""focus"",""19"",""192763""
","""event"",""trial"",""time""
""blur"",""19"",""192697""
","""event"",""trial"",""time""
""focus"",""19"",""192763""
","""event"",""trial"",""time""
""fullscreenenter"",""1"",""3001""
","
","","","1237.6000000089407","","","14","13513","5914","j","elianto","#f73b6a7A","-1"," ","0","0","[2088.3999999910593]","1","2","","","13513","39","0","4","lose","no-go","1"
"pit-trial","158","1049694","0.0-44.0","battery-v0.2","","""event"",""trial"",""time""
""fullscreenenter"",""1"",""3001""
""blur"",""19"",""192697""
""focus"",""19"",""192763""
","""event"",""trial"",""time""
""blur"",""19"",""192697""
","""event"",""trial"",""time""
""focus"",""19"",""192763""
","""event"",""trial"",""time""
""fullscreenenter"",""1"",""3001""
","
","","","1150.5","","","14","13513","5914","w","elianto","#f73b6a7A"," "," ","1","-10","[2001.0999999940395]","1","2","","","13513","40","3","3","lose","go","1"
"pit-trial","159","1053251","0.0-45.0","battery-v0.2","","""event"",""trial"",""time""
""fullscreenenter"",""1"",""3001""
""blur"",""19"",""192697""
""focus"",""19"",""192763""
","""event"",""trial"",""time""
""blur"",""19"",""192697""
","""event"",""trial"",""time""
""focus"",""19"",""192763""
","""event"",""trial"",""time""
""fullscreenenter"",""1"",""3001""
","
","","","703.8999999910593","","","14","13513","5914","d","elianto","#3366ff99"," "," ","1","+10","[1554.2999999970198]","1","2","","","13513","41","1","1","win","go","0"
"pit-trial","160","1057447","0.0-46.0","battery-v0.2","","""event"",""trial"",""time""
""fullscreenenter"",""1"",""3001""
""blur"",""19"",""192697""
""focus"",""19"",""192763""
","""event"",""trial"",""time""
""blur"",""19"",""192697""
","""event"",""trial"",""time""
""focus"",""19"",""192763""
","""event"",""trial"",""time""
""fullscreenenter"",""1"",""3001""
","
","","","1331.7000000029802","","","14","13513","5914","e","elianto","#f73b6a7A","-1"," ","0","0","[2192.0999999940395]","1","2","","","13513","42","2","4","lose","no-go","1"
"pit-trial","161","1061403","0.0-47.0","battery-v0.2","","""event"",""trial"",""time""
""fullscreenenter"",""1"",""3001""
""blur"",""19"",""192697""
""focus"",""19"",""192763""
","""event"",""trial"",""time""
""blur"",""19"",""192697""
","""event"",""trial"",""time""
""focus"",""19"",""192763""
","""event"",""trial"",""time""
""fullscreenenter"",""1"",""3001""
","
","","","1099.5","","","14","13513","5914","j","elianto","#f73b6a7A","-1"," ","0","-10","[1951.5]","1","2","","","13513","43","0","4","lose","no-go","0"
"pit-trial","162","1065171","0.0-48.0","battery-v0.2","","""event"",""trial"",""time""
""fullscreenenter"",""1"",""3001""
""blur"",""19"",""192697""
""focus"",""19"",""192763""
","""event"",""trial"",""time""
""blur"",""19"",""192697""
","""event"",""trial"",""time""
""focus"",""19"",""192763""
","""event"",""trial"",""time""
""fullscreenenter"",""1"",""3001""
","
","","","914.9000000059605","","","14","13513","5914","w","elianto","#f73b6a7A"," "," ","1","0","[1765.5999999940395]","1","2","","","13513","44","3","3","lose","go","0"
"pit-trial","163","1070026","0.0-49.0","battery-v0.2","","""event"",""trial"",""time""
""fullscreenenter"",""1"",""3001""
""blur"",""19"",""192697""
""focus"",""19"",""192763""
","""event"",""trial"",""time""
""blur"",""19"",""192697""
","""event"",""trial"",""time""
""focus"",""19"",""192763""
","""event"",""trial"",""time""
""fullscreenenter"",""1"",""3001""
","
","","","-1","","","14","13513","5914","e","elianto","#f73b6a7A","-1","-1","1","-10","[]","0","2","","","13513","45","2","4","lose","no-go","1"
"pit-trial","164","1073592","0.0-50.0","battery-v0.2","","""event"",""trial"",""time""
""fullscreenenter"",""1"",""3001""
""blur"",""19"",""192697""
""focus"",""19"",""192763""
","""event"",""trial"",""time""
""blur"",""19"",""192697""
","""event"",""trial"",""time""
""focus"",""19"",""192763""
","""event"",""trial"",""time""
""fullscreenenter"",""1"",""3001""
","
","","","711.5","","","14","13513","5914","s","elianto","#3366ff99","-1"," ","0","+10","[1562.0999999940395]","1","2","","","13513","46","4","2","win","no-go","1"
"pit-trial","165","1077985","0.0-51.0","battery-v0.2","","""event"",""trial"",""time""
""fullscreenenter"",""1"",""3001""
""blur"",""19"",""192697""
""focus"",""19"",""192763""
","""event"",""trial"",""time""
""blur"",""19"",""192697""
","""event"",""trial"",""time""
""focus"",""19"",""192763""
","""event"",""trial"",""time""
""fullscreenenter"",""1"",""3001""
","
","","","1541.0999999940395","","","14","13513","5914","w","elianto","#f73b6a7A"," "," ","1","0","[2391.0999999940395]","1","2","","","13513","47","3","3","lose","go","0"
"pit-trial","166","1082850","0.0-52.0","battery-v0.2","","""event"",""trial"",""time""
""fullscreenenter"",""1"",""3001""
""blur"",""19"",""192697""
""focus"",""19"",""192763""
","""event"",""trial"",""time""
""blur"",""19"",""192697""
","""event"",""trial"",""time""
""focus"",""19"",""192763""
","""event"",""trial"",""time""
""fullscreenenter"",""1"",""3001""
","
","","","-1","","","14","13513","5914","j","elianto","#f73b6a7A","-1","-1","1","-10","[]","0","2","","","13513","48","0","4","lose","no-go","1"
"pit-trial","167","1087273","0.0-53.0","battery-v0.2","","""event"",""trial"",""time""
""fullscreenenter"",""1"",""3001""
""blur"",""19"",""192697""
""focus"",""19"",""192763""
","""event"",""trial"",""time""
""blur"",""19"",""192697""
","""event"",""trial"",""time""
""focus"",""19"",""192763""
","""event"",""trial"",""time""
""fullscreenenter"",""1"",""3001""
","
","","","1569.0999999940395","","","14","13513","5914","j","elianto","#f73b6a7A","-1"," ","0","-10","[2420.3999999910593]","1","2","","","13513","49","0","4","lose","no-go","0"
"pit-trial","168","1091041","0.0-54.0","battery-v0.2","","""event"",""trial"",""time""
""fullscreenenter"",""1"",""3001""
""blur"",""19"",""192697""
""focus"",""19"",""192763""
","""event"",""trial"",""time""
""blur"",""19"",""192697""
","""event"",""trial"",""time""
""focus"",""19"",""192763""
","""event"",""trial"",""time""
""fullscreenenter"",""1"",""3001""
","
","","","914","","","14","13513","5914","s","elianto","#3366ff99","-1"," ","0","0","[1764.5999999940395]","1","2","","","13513","50","4","2","win","no-go","0"
"pit-trial","169","1094830","0.0-55.0","battery-v0.2","","""event"",""trial"",""time""
""fullscreenenter"",""1"",""3001""
""blur"",""19"",""192697""
""focus"",""19"",""192763""
","""event"",""trial"",""time""
""blur"",""19"",""192697""
","""event"",""trial"",""time""
""focus"",""19"",""192763""
","""event"",""trial"",""time""
""fullscreenenter"",""1"",""3001""
","
","","","935.6000000089407","","","14","13513","5914","d","elianto","#3366ff99"," "," ","1","+10","[1786.1000000089407]","1","2","","","13513","51","1","1","win","go","0"
"pit-trial","170","1099499","0.0-56.0","battery-v0.2","","""event"",""trial"",""time""
""fullscreenenter"",""1"",""3001""
""blur"",""19"",""192697""
""focus"",""19"",""192763""
","""event"",""trial"",""time""
""blur"",""19"",""192697""
","""event"",""trial"",""time""
""focus"",""19"",""192763""
","""event"",""trial"",""time""
""fullscreenenter"",""1"",""3001""
","
","","","1814.8999999910593","","","14","13513","5914","w","elianto","#f73b6a7A"," "," ","1","0","[2666.7000000029802]","1","2","","","13513","52","3","3","lose","go","0"
"pit-trial","171","1104354","0.0-57.0","battery-v0.2","","""event"",""trial"",""time""
""fullscreenenter"",""1"",""3001""
""blur"",""19"",""192697""
""focus"",""19"",""192763""
","""event"",""trial"",""time""
""blur"",""19"",""192697""
","""event"",""trial"",""time""
""focus"",""19"",""192763""
","""event"",""trial"",""time""
""fullscreenenter"",""1"",""3001""
","
","","","-1","","","14","13513","5914","s","elianto","#3366ff99","-1","-1","1","+10","[]","0","2","","","13513","53","4","2","win","no-go","0"
"pit-trial","172","1109207","0.0-58.0","battery-v0.2","","""event"",""trial"",""time""
""fullscreenenter"",""1"",""3001""
""blur"",""19"",""192697""
""focus"",""19"",""192763""
","""event"",""trial"",""time""
""blur"",""19"",""192697""
","""event"",""trial"",""time""
""focus"",""19"",""192763""
","""event"",""trial"",""time""
""fullscreenenter"",""1"",""3001""
","
","","","-1","","","14","13513","5914","e","elianto","#f73b6a7A","-1","-1","1","0","[]","0","2","","","13513","54","2","4","lose","no-go","0"
"pit-trial","173","1112905","0.0-59.0","battery-v0.2","","""event"",""trial"",""time""
""fullscreenenter"",""1"",""3001""
""blur"",""19"",""192697""
""focus"",""19"",""192763""
","""event"",""trial"",""time""
""blur"",""19"",""192697""
","""event"",""trial"",""time""
""focus"",""19"",""192763""
","""event"",""trial"",""time""
""fullscreenenter"",""1"",""3001""
","
","","","847.0999999940395","","","14","13513","5914","d","elianto","#3366ff99"," "," ","1","0","[1697.2000000029802]","1","2","","","13513","55","1","1","win","go","1"
"pit-trial","174","1117759","0.0-60.0","battery-v0.2","","""event"",""trial"",""time""
""fullscreenenter"",""1"",""3001""
""blur"",""19"",""192697""
""focus"",""19"",""192763""
","""event"",""trial"",""time""
""blur"",""19"",""192697""
","""event"",""trial"",""time""
""focus"",""19"",""192763""
","""event"",""trial"",""time""
""fullscreenenter"",""1"",""3001""
","
","","","-1","","","14","13513","5914","j","elianto","#f73b6a7A","-1","-1","1","0","[]","0","2","","","13513","56","0","4","lose","no-go","0"
"pit-trial","175","1121222","0.0-61.0","battery-v0.2","","""event"",""trial"",""time""
""fullscreenenter"",""1"",""3001""
""blur"",""19"",""192697""
""focus"",""19"",""192763""
","""event"",""trial"",""time""
""blur"",""19"",""192697""
","""event"",""trial"",""time""
""focus"",""19"",""192763""
","""event"",""trial"",""time""
""fullscreenenter"",""1"",""3001""
","
","","","608.7000000029802","","","14","13513","5914","s","elianto","#3366ff99","-1"," ","0","0","[1459.7000000029802]","1","2","","","13513","57","4","2","win","no-go","0"
"pit-trial","176","1124794","0.0-62.0","battery-v0.2","","""event"",""trial"",""time""
""fullscreenenter"",""1"",""3001""
""blur"",""19"",""192697""
""focus"",""19"",""192763""
","""event"",""trial"",""time""
""blur"",""19"",""192697""
","""event"",""trial"",""time""
""focus"",""19"",""192763""
","""event"",""trial"",""time""
""fullscreenenter"",""1"",""3001""
","
","","","717.5","","","14","13513","5914","d","elianto","#3366ff99"," "," ","1","+10","[1567.699999988079]","1","2","","","13513","58","1","1","win","go","0"
"pit-trial","177","1129649","0.0-63.0","battery-v0.2","","""event"",""trial"",""time""
""fullscreenenter"",""1"",""3001""
""blur"",""19"",""192697""
""focus"",""19"",""192763""
","""event"",""trial"",""time""
""blur"",""19"",""192697""
","""event"",""trial"",""time""
""focus"",""19"",""192763""
","""event"",""trial"",""time""
""fullscreenenter"",""1"",""3001""
","
","","","-1","","","14","13513","5914","j","elianto","#f73b6a7A","-1","-1","1","-10","[]","0","2","","","13513","59","0","4","lose","no-go","1"
"pit-trial","178","1134370","0.0-64.0","battery-v0.2","","""event"",""trial"",""time""
""fullscreenenter"",""1"",""3001""
""blur"",""19"",""192697""
""focus"",""19"",""192763""
","""event"",""trial"",""time""
""blur"",""19"",""192697""
","""event"",""trial"",""time""
""focus"",""19"",""192763""
","""event"",""trial"",""time""
""fullscreenenter"",""1"",""3001""
","
","","","1868.800000011921","","","14","13513","5914","w","elianto","#f73b6a7A"," "," ","1","0","[2719.4000000059605]","1","2","","","13513","60","3","3","lose","go","0"
"pit-trial","179","1139224","0.0-65.0","battery-v0.2","","""event"",""trial"",""time""
""fullscreenenter"",""1"",""3001""
""blur"",""19"",""192697""
""focus"",""19"",""192763""
","""event"",""trial"",""time""
""blur"",""19"",""192697""
","""event"",""trial"",""time""
""focus"",""19"",""192763""
","""event"",""trial"",""time""
""fullscreenenter"",""1"",""3001""
","
","","","-1","","","14","13513","5914","s","elianto","#3366ff99","-1","-1","1","0","[]","0","2","","","13513","61","4","2","win","no-go","1"
"pit-trial","180","1144080","0.0-66.0","battery-v0.2","","""event"",""trial"",""time""
""fullscreenenter"",""1"",""3001""
""blur"",""19"",""192697""
""focus"",""19"",""192763""
","""event"",""trial"",""time""
""blur"",""19"",""192697""
","""event"",""trial"",""time""
""focus"",""19"",""192763""
","""event"",""trial"",""time""
""fullscreenenter"",""1"",""3001""
","
","","","-1","","","14","13513","5914","e","elianto","#f73b6a7A","-1","-1","1","0","[]","0","2","","","13513","62","2","4","lose","no-go","0"
"pit-trial","181","1148216","0.0-67.0","battery-v0.2","","""event"",""trial"",""time""
""fullscreenenter"",""1"",""3001""
""blur"",""19"",""192697""
""focus"",""19"",""192763""
","""event"",""trial"",""time""
""blur"",""19"",""192697""
","""event"",""trial"",""time""
""focus"",""19"",""192763""
","""event"",""trial"",""time""
""fullscreenenter"",""1"",""3001""
","
","","","1283.2000000029802","","","14","13513","5914","d","elianto","#3366ff99"," "," ","1","+10","[2133.7000000029802]","1","2","","","13513","63","1","1","win","go","0"
"pit-trial","182","1152408","0.0-68.0","battery-v0.2","","""event"",""trial"",""time""
""fullscreenenter"",""1"",""3001""
""blur"",""19"",""192697""
""focus"",""19"",""192763""
","""event"",""trial"",""time""
""blur"",""19"",""192697""
","""event"",""trial"",""time""
""focus"",""19"",""192763""
","""event"",""trial"",""time""
""fullscreenenter"",""1"",""3001""
","
","","","1327","","","14","13513","5914","w","elianto","#f73b6a7A"," "," ","1","0","[2177.2999999970198]","1","2","","","13513","64","3","3","lose","go","0"
"pit-trial","183","1156087","0.0-69.0","battery-v0.2","","""event"",""trial"",""time""
""fullscreenenter"",""1"",""3001""
""blur"",""19"",""192697""
""focus"",""19"",""192763""
","""event"",""trial"",""time""
""blur"",""19"",""192697""
","""event"",""trial"",""time""
""focus"",""19"",""192763""
","""event"",""trial"",""time""
""fullscreenenter"",""1"",""3001""
","
","","","824.9000000059605","","","14","13513","5914","d","elianto","#3366ff99"," "," ","1","+10","[1675]","1","2","","","13513","65","1","1","win","go","0"
"pit-trial","184","1160941","0.0-70.0","battery-v0.2","","""event"",""trial"",""time""
""fullscreenenter"",""1"",""3001""
""blur"",""19"",""192697""
""focus"",""19"",""192763""
","""event"",""trial"",""time""
""blur"",""19"",""192697""
","""event"",""trial"",""time""
""focus"",""19"",""192763""
","""event"",""trial"",""time""
""fullscreenenter"",""1"",""3001""
","
","","","-1","","","14","13513","5914","e","elianto","#f73b6a7A","-1","-1","1","0","[]","0","2","","","13513","66","2","4","lose","no-go","0"
"pit-trial","185","1165260","0.0-71.0","battery-v0.2","","""event"",""trial"",""time""
""fullscreenenter"",""1"",""3001""
""blur"",""19"",""192697""
""focus"",""19"",""192763""
","""event"",""trial"",""time""
""blur"",""19"",""192697""
","""event"",""trial"",""time""
""focus"",""19"",""192763""
","""event"",""trial"",""time""
""fullscreenenter"",""1"",""3001""
","
","","","1464.8999999910593","","","14","13513","5914","w","elianto","#f73b6a7A"," "," ","1","0","[2315.1000000089407]","1","2","","","13513","67","3","3","lose","go","0"
"pit-trial","186","1170126","0.0-72.0","battery-v0.2","","""event"",""trial"",""time""
""fullscreenenter"",""1"",""3001""
""blur"",""19"",""192697""
""focus"",""19"",""192763""
","""event"",""trial"",""time""
""blur"",""19"",""192697""
","""event"",""trial"",""time""
""focus"",""19"",""192763""
","""event"",""trial"",""time""
""fullscreenenter"",""1"",""3001""
","
","","","-1","","","14","13513","5914","s","elianto","#3366ff99","-1","-1","1","+10","[]","0","2","","","13513","68","4","2","win","no-go","0"
"pit-trial","187","1174991","0.0-73.0","battery-v0.2","","""event"",""trial"",""time""
""fullscreenenter"",""1"",""3001""
""blur"",""19"",""192697""
""focus"",""19"",""192763""
","""event"",""trial"",""time""
""blur"",""19"",""192697""
","""event"",""trial"",""time""
""focus"",""19"",""192763""
","""event"",""trial"",""time""
""fullscreenenter"",""1"",""3001""
","
","","","-1","","","14","13513","5914","s","elianto","#3366ff99","-1","-1","1","0","[]","0","2","","","13513","69","4","2","win","no-go","1"
"pit-trial","188","1179846","0.0-74.0","battery-v0.2","","""event"",""trial"",""time""
""fullscreenenter"",""1"",""3001""
""blur"",""19"",""192697""
""focus"",""19"",""192763""
","""event"",""trial"",""time""
""blur"",""19"",""192697""
","""event"",""trial"",""time""
""focus"",""19"",""192763""
