"trial_type","trial_index","time_elapsed","internal_node_id","task_version","subject_id","interactions","blur_events","focus_events","fullscreenenter_events","fullscreenexit_events","success","view_history","rt","responses","num_errors","age","subject","participantId","rune","rune_set","hex","correct","choice","accuracy","outcome","keys","total_keys","block","practice","value","sub","trial","stimulus","robot","valence","action","sham"
"pavlovia","0","23","0.0-0.0","battery-v0.2","","""event"",""trial"",""time""
""fullscreenenter"",""1"",""3558""
","
","
","""event"",""trial"",""time""
""fullscreenenter"",""1"",""3558""
","
","","","","","","","","","","","","","","","","","","","","","","","","","","",""
"fullscreen","1","4293","0.0-1.0","battery-v0.2","","""event"",""trial"",""time""
""fullscreenenter"",""1"",""3558""
","
","
","""event"",""trial"",""time""
""fullscreenenter"",""1"",""3558""
","
","true","","","","","","","","","","","","","","","","","","","","","","","","","",""
"pit-instructions","2","8340","0.0-2.0-0.0","battery-v0.2","","""event"",""trial"",""time""
""fullscreenenter"",""1"",""3558""
","
","
","""event"",""trial"",""time""
""fullscreenenter"",""1"",""3558""
","
","","[{""page_index"":0,""viewing_time"":4035}]","4036","","","","","","","","","","","","","","","","","","","","","","","",""
"pit-comprehension","3","12930","0.0-2.0-1.0-0.0","battery-v0.2","","""event"",""trial"",""time""
""fullscreenenter"",""1"",""3558""
","
","
","""event"",""trial"",""time""
""fullscreenenter"",""1"",""3558""
","
","","","4575","[""shark""]","0","25","5241","472","","","","","","","","","","","","","","","","","","",""
"pit-instructions","4","16964","0.0-2.0-1.0-1.0","battery-v0.2","","""event"",""trial"",""time""
""fullscreenenter"",""1"",""3558""
","
","
","""event"",""trial"",""time""
""fullscreenenter"",""1"",""3558""
","
","","[{""page_index"":0,""viewing_time"":4023}]","4024","","","","","","","","","","","","","","","","","","","","","","","",""
"pit-comprehension","5","19975","0.0-2.0-2.0-0.0","battery-v0.2","","""event"",""trial"",""time""
""fullscreenenter"",""1"",""3558""
","
","
","""event"",""trial"",""time""
""fullscreenenter"",""1"",""3558""
","
","","","2996","[""tiger""]","0","25","5241","472","","","","","","","","","","","","","","","","","","",""
"pit-instructions","6","21328","0.0-2.0-2.0-1.0","battery-v0.2","","""event"",""trial"",""time""
""fullscreenenter"",""1"",""3558""
","
","
","""event"",""trial"",""time""
""fullscreenenter"",""1"",""3558""
","
","","[{""page_index"":0,""viewing_time"":1342}]","1343","","","","","","","","","","","","","","","","","","","","","","","",""
"pit-instructions","7","119616","0.0-2.0-3.0","battery-v0.2","","""event"",""trial"",""time""
""fullscreenenter"",""1"",""3558""
","
","
","""event"",""trial"",""time""
""fullscreenenter"",""1"",""3558""
","
","","[{""page_index"":0,""viewing_time"":8141},{""page_index"":1,""viewing_time"":6225},{""page_index"":2,""viewing_time"":8359},{""page_index"":3,""viewing_time"":5474},{""page_index"":4,""viewing_time"":6172},{""page_index"":5,""viewing_time"":6523},{""page_index"":6,""viewing_time"":7111},{""page_index"":7,""viewing_time"":6961},{""page_index"":8,""viewing_time"":6897},{""page_index"":9,""viewing_time"":8994},{""page_index"":10,""viewing_time"":7533},{""page_index"":11,""viewing_time"":7843},{""page_index"":12,""viewing_time"":6641},{""page_index"":13,""viewing_time"":5402}]","98277","","","","","","","","","","","","","","","","","","","","","","","",""
"pit-trial","8","123015","0.0-2.0-4.0-0.0","battery-v0.2","","""event"",""trial"",""time""
""fullscreenenter"",""1"",""3558""
","
","
","""event"",""trial"",""time""
""fullscreenenter"",""1"",""3558""
","
","","","517","","","25","5241","472","&#9784;","elianto","#FFFFF080"," "," ","1","&#10004","[1379]","1","0","0","","","","","","","",""
"pit-trial","9","126425","0.0-2.0-4.1-0.1","battery-v0.2","","""event"",""trial"",""time""
""fullscreenenter"",""1"",""3558""
","
","
","""event"",""trial"",""time""
""fullscreenenter"",""1"",""3558""
","
","","","536","","","25","5241","472","&#9784;","elianto","#FFFFF080"," "," ","1","&#10004","[1393]","1","0","0","","","","","","","",""
"pit-trial","10","129836","0.0-2.0-4.2-0.2","battery-v0.2","","""event"",""trial"",""time""
""fullscreenenter"",""1"",""3558""
","
","
","""event"",""trial"",""time""
""fullscreenenter"",""1"",""3558""
","
","","","545","","","25","5241","472","&#9784;","elianto","#FFFFF080"," "," ","1","&#10004","[1398]","1","0","0","","","","","","","",""
"pit-trial","11","133578","0.0-2.0-4.3-0.3","battery-v0.2","","""event"",""trial"",""time""
""fullscreenenter"",""1"",""3558""
","
","
","""event"",""trial"",""time""
""fullscreenenter"",""1"",""3558""
","
","","","877","","","25","5241","472","&#9784;","elianto","#FFFFF080"," "," ","1","&#10004","[1732]","1","0","0","","","","","","","",""
"pit-trial","12","136946","0.0-2.0-4.4-0.4","battery-v0.2","","""event"",""trial"",""time""
""fullscreenenter"",""1"",""3558""
","
","
","""event"",""trial"",""time""
""fullscreenenter"",""1"",""3558""
","
","","","498","","","25","5241","472","&#9784;","elianto","#FFFFF080"," "," ","1","&#10004","[1355]","1","0","0","","","","","","","",""
"pit-instructions","13","159093","0.0-2.0-5.0","battery-v0.2","","""event"",""trial"",""time""
""fullscreenenter"",""1"",""3558""
","
","
","""event"",""trial"",""time""
""fullscreenenter"",""1"",""3558""
","
","","[{""page_index"":0,""viewing_time"":5204},{""page_index"":1,""viewing_time"":6126},{""page_index"":2,""viewing_time"":5381},{""page_index"":3,""viewing_time"":5422}]","22133","","","","","","","","","","","","","","","","","","","","","","","",""
"pit-trial","14","163959","0.0-2.0-6.0-0.0","battery-v0.2","","""event"",""trial"",""time""
""fullscreenenter"",""1"",""3558""
","
","
","""event"",""trial"",""time""
""fullscreenenter"",""1"",""3558""
","
","","","-1","","","25","5241","472","&#9854;","elianto","#FFFFF080","-1","-1","1","&#10004","[]","0","0","1","","","","","","","",""
"pit-trial","15","168822","0.0-2.0-6.1-0.1","battery-v0.2","","""event"",""trial"",""time""
""fullscreenenter"",""1"",""3558""
","
","
","""event"",""trial"",""time""
""fullscreenenter"",""1"",""3558""
","
","","","-1","","","25","5241","472","&#9854;","elianto","#FFFFF080","-1","-1","1","&#10004","[]","0","0","1","","","","","","","",""
"pit-trial","16","173680","0.0-2.0-6.2-0.2","battery-v0.2","","""event"",""trial"",""time""
""fullscreenenter"",""1"",""3558""
","
","
","""event"",""trial"",""time""
""fullscreenenter"",""1"",""3558""
","
","","","-1","","","25","5241","472","&#9854;","elianto","#FFFFF080","-1","-1","1","&#10004","[]","0","0","1","","","","","","","",""
"pit-trial","17","178544","0.0-2.0-6.3-0.3","battery-v0.2","","""event"",""trial"",""time""
""fullscreenenter"",""1"",""3558""
","
","
","""event"",""trial"",""time""
""fullscreenenter"",""1"",""3558""
","
","","","-1","","","25","5241","472","&#9854;","elianto","#FFFFF080","-1","-1","1","&#10004","[]","0","0","1","","","","","","","",""
"pit-trial","18","183411","0.0-2.0-6.4-0.4","battery-v0.2","","""event"",""trial"",""time""
""fullscreenenter"",""1"",""3558""
","
","
","""event"",""trial"",""time""
""fullscreenenter"",""1"",""3558""
","
","","","-1","","","25","5241","472","&#9854;","elianto","#FFFFF080","-1","-1","1","&#10004","[]","0","0","1","","","","","","","",""
"pit-instructions","19","323591","0.0-2.0-7.0","battery-v0.2","","""event"",""trial"",""time""
""fullscreenenter"",""1"",""3558""
","
","
","""event"",""trial"",""time""
""fullscreenenter"",""1"",""3558""
","
","","[{""page_index"":0,""viewing_time"":29526},{""page_index"":1,""viewing_time"":7739},{""page_index"":2,""viewing_time"":6549},{""page_index"":3,""viewing_time"":6941},{""page_index"":4,""viewing_time"":5504},{""page_index"":5,""viewing_time"":5746},{""page_index"":6,""viewing_time"":5057},{""page_index"":7,""viewing_time"":8121},{""page_index"":8,""viewing_time"":7019},{""page_index"":9,""viewing_time"":6381},{""page_index"":10,""viewing_time"":6578},{""page_index"":11,""viewing_time"":4206},{""page_index"":12,""viewing_time"":6544},{""page_index"":13,""viewing_time"":6765},{""page_index"":14,""viewing_time"":7261},{""page_index"":15,""viewing_time"":6343},{""page_index"":16,""viewing_time"":6465},{""page_index"":17,""viewing_time"":7422}]","140167","","","","","","","","","","","","","","","","","","","","","","","",""
"pit-trial","20","327022","0.0-2.0-8.0-0.0","battery-v0.2","","""event"",""trial"",""time""
""fullscreenenter"",""1"",""3558""
","
","
","""event"",""trial"",""time""
""fullscreenenter"",""1"",""3558""
","
","","","567","","","25","5241","472","&#9776;","elianto","#3366ff99"," "," ","1","+10","[1423]","1","0","1","","","","","","","",""
"pit-trial","21","330220","0.0-2.0-8.0-1.0","battery-v0.2","","""event"",""trial"",""time""
""fullscreenenter"",""1"",""3558""
","
","
","""event"",""trial"",""time""
""fullscreenenter"",""1"",""3558""
","
","","","330","","","25","5241","472","&#9776;","elianto","#3366ff99"," "," ","1","+10","[1187]","1","0","1","","","","","","","",""
"pit-trial","22","333423","0.0-2.0-8.0-2.0","battery-v0.2","","""event"",""trial"",""time""
""fullscreenenter"",""1"",""3558""
","
","
","""event"",""trial"",""time""
""fullscreenenter"",""1"",""3558""
","
","","","337","","","25","5241","472","&#9776;","elianto","#3366ff99"," "," ","1","+10","[1192]","1","0","1","","","","","","","",""
"pit-trial","23","336693","0.0-2.0-8.0-3.0","battery-v0.2","","""event"",""trial"",""time""
""fullscreenenter"",""1"",""3558""
","
","
","""event"",""trial"",""time""
""fullscreenenter"",""1"",""3558""
","
","","","390","","","25","5241","472","&#9776;","elianto","#3366ff99"," "," ","1","0","[1252]","1","0","1","","","","","","","",""
"pit-trial","24","339919","0.0-2.0-8.0-4.0","battery-v0.2","","""event"",""trial"",""time""
""fullscreenenter"",""1"",""3558""
","
","
","""event"",""trial"",""time""
""fullscreenenter"",""1"",""3558""
","
","","","361","","","25","5241","472","&#9776;","elianto","#3366ff99"," "," ","1","+10","[1214]","1","0","1","","","","","","","",""
"pit-trial","25","343202","0.0-2.0-8.1-0.1","battery-v0.2","","""event"",""trial"",""time""
""fullscreenenter"",""1"",""3558""
","
","
","""event"",""trial"",""time""
""fullscreenenter"",""1"",""3558""
","
","","","418","","","25","5241","472","&#9776;","elianto","#3366ff99"," "," ","1","+10","[1270]","1","0","1","","","","","","","",""
"pit-trial","26","346455","0.0-2.0-8.1-1.1","battery-v0.2","","""event"",""trial"",""time""
""fullscreenenter"",""1"",""3558""
","
","
","""event"",""trial"",""time""
""fullscreenenter"",""1"",""3558""
","
","","","385","","","25","5241","472","&#9776;","elianto","#3366ff99"," "," ","1","+10","[1249]","1","0","1","","","","","","","",""
"pit-trial","27","349729","0.0-2.0-8.1-2.1","battery-v0.2","","""event"",""trial"",""time""
""fullscreenenter"",""1"",""3558""
","
","
","""event"",""trial"",""time""
""fullscreenenter"",""1"",""3558""
","
","","","395","","","25","5241","472","&#9776;","elianto","#3366ff99"," "," ","1","+10","[1253]","1","0","1","","","","","","","",""
"pit-trial","28","352959","0.0-2.0-8.1-3.1","battery-v0.2","","""event"",""trial"",""time""
""fullscreenenter"",""1"",""3558""
","
","
","""event"",""trial"",""time""
""fullscreenenter"",""1"",""3558""
","
","","","356","","","25","5241","472","&#9776;","elianto","#3366ff99"," "," ","1","0","[1211]","1","0","1","","","","","","","",""
"pit-trial","29","356214","0.0-2.0-8.1-4.1","battery-v0.2","","""event"",""trial"",""time""
""fullscreenenter"",""1"",""3558""
","
","
","""event"",""trial"",""time""
""fullscreenenter"",""1"",""3558""
","
","","","385","","","25","5241","472","&#9776;","elianto","#3366ff99"," "," ","1","+10","[1244]","1","0","1","","","","","","","",""
"pit-trial","30","359435","0.0-2.0-8.2-0.2","battery-v0.2","","""event"",""trial"",""time""
""fullscreenenter"",""1"",""3558""
","
","
","""event"",""trial"",""time""
""fullscreenenter"",""1"",""3558""
","
","","","350","","","25","5241","472","&#9776;","elianto","#3366ff99"," "," ","1","+10","[1207]","1","0","1","","","","","","","",""
"pit-trial","31","362683","0.0-2.0-8.2-1.2","battery-v0.2","","""event"",""trial"",""time""
""fullscreenenter"",""1"",""3558""
","
","
","""event"",""trial"",""time""
""fullscreenenter"",""1"",""3558""
","
","","","381","","","25","5241","472","&#9776;","elianto","#3366ff99"," "," ","1","+10","[1242]","1","0","1","","","","","","","",""
"pit-trial","32","365931","0.0-2.0-8.2-2.2","battery-v0.2","","""event"",""trial"",""time""
""fullscreenenter"",""1"",""3558""
","
","
","""event"",""trial"",""time""
""fullscreenenter"",""1"",""3558""
","
","","","384","","","25","5241","472","&#9776;","elianto","#3366ff99"," "," ","1","+10","[1238]","1","0","1","","","","","","","",""
"pit-trial","33","369116","0.0-2.0-8.2-3.2","battery-v0.2","","""event"",""trial"",""time""
""fullscreenenter"",""1"",""3558""
","
","
","""event"",""trial"",""time""
""fullscreenenter"",""1"",""3558""
","
","","","310","","","25","5241","472","&#9776;","elianto","#3366ff99"," "," ","1","0","[1168]","1","0","1","","","","","","","",""
"pit-trial","34","372347","0.0-2.0-8.2-4.2","battery-v0.2","","""event"",""trial"",""time""
""fullscreenenter"",""1"",""3558""
","
","
","""event"",""trial"",""time""
""fullscreenenter"",""1"",""3558""
","
","","","361","","","25","5241","472","&#9776;","elianto","#3366ff99"," "," ","1","+10","[1220]","1","0","1","","","","","","","",""
"call-function","35","372352","0.0-2.0-9.0","battery-v0.2","","""event"",""trial"",""time""
""fullscreenenter"",""1"",""3558""
","
","
","""event"",""trial"",""time""
""fullscreenenter"",""1"",""3558""
","
","","","","","","","","","","","","","","","","","","","","","","","","","","",""
"pit-instructions","36","410876","0.0-2.0-10.0","battery-v0.2","","""event"",""trial"",""time""
""fullscreenenter"",""1"",""3558""
","
","
","""event"",""trial"",""time""
""fullscreenenter"",""1"",""3558""
","
","","[{""page_index"":0,""viewing_time"":5516},{""page_index"":1,""viewing_time"":6843},{""page_index"":2,""viewing_time"":9465},{""page_index"":3,""viewing_time"":9280},{""page_index"":4,""viewing_time"":7417}]","38522","","","","","","","","","","","","","","","","","","","","","","","",""
"pit-trial","37","414343","0.0-2.0-11.0-0.0","battery-v0.2","","""event"",""trial"",""time""
""fullscreenenter"",""1"",""3558""
","
","
","""event"",""trial"",""time""
""fullscreenenter"",""1"",""3558""
","
","","","597","","","25","5241","472","&#9761;","elianto","#3366ff99","-1"," ","0","0","[1457]","1","0","2","","","","","","","",""
"pit-trial","38","417578","0.0-2.0-11.0-1.0","battery-v0.2","","""event"",""trial"",""time""
""fullscreenenter"",""1"",""3558""
","
","
","""event"",""trial"",""time""
""fullscreenenter"",""1"",""3558""
","
","","","372","","","25","5241","472","&#9761;","elianto","#3366ff99","-1"," ","0","0","[1230]","1","0","2","","","","","","","",""
"pit-trial","39","420612","0.0-2.0-11.0-2.0","battery-v0.2","","""event"",""trial"",""time""
""fullscreenenter"",""1"",""3558""
","
","
","""event"",""trial"",""time""
""fullscreenenter"",""1"",""3558""
","
","","","165","","","25","5241","472","&#9761;","elianto","#3366ff99","-1"," ","0","0","[1026]","1","0","2","","","","","","","",""
"pit-trial","40","425483","0.0-2.0-11.0-3.0","battery-v0.2","","""event"",""trial"",""time""
""fullscreenenter"",""1"",""3558""
","
","
","""event"",""trial"",""time""
""fullscreenenter"",""1"",""3558""
","
","","","-1","","","25","5241","472","&#9761;","elianto","#3366ff99","-1","-1","1","0","[]","0","0","2","","","","","","","",""
"pit-trial","41","430356","0.0-2.0-11.0-4.0","battery-v0.2","","""event"",""trial"",""time""
""fullscreenenter"",""1"",""3558""
","
","
","""event"",""trial"",""time""
""fullscreenenter"",""1"",""3558""
","
","","","-1","","","25","5241","472","&#9761;","elianto","#3366ff99","-1","-1","1","+10","[]","0","0","2","","","","","","","",""
"pit-trial","42","435226","0.0-2.0-11.1-0.1","battery-v0.2","","""event"",""trial"",""time""
""fullscreenenter"",""1"",""3558""
","
","
","""event"",""trial"",""time""
""fullscreenenter"",""1"",""3558""
","
","","","-1","","","25","5241","472","&#9761;","elianto","#3366ff99","-1","-1","1","+10","[]","0","0","2","","","","","","","",""
"pit-trial","43","440100","0.0-2.0-11.1-1.1","battery-v0.2","","""event"",""trial"",""time""
""fullscreenenter"",""1"",""3558""
","
","
","""event"",""trial"",""time""
""fullscreenenter"",""1"",""3558""
","
","","","-1","","","25","5241","472","&#9761;","elianto","#3366ff99","-1","-1","1","+10","[]","0","0","2","","","","","","","",""
"pit-trial","44","444979","0.0-2.0-11.1-2.1","battery-v0.2","","""event"",""trial"",""time""
""fullscreenenter"",""1"",""3558""
","
","
","""event"",""trial"",""time""
""fullscreenenter"",""1"",""3558""
","
","","","-1","","","25","5241","472","&#9761;","elianto","#3366ff99","-1","-1","1","+10","[]","0","0","2","","","","","","","",""
"pit-trial","45","449838","0.0-2.0-11.1-3.1","battery-v0.2","","""event"",""trial"",""time""
""fullscreenenter"",""1"",""3558""
","
","
","""event"",""trial"",""time""
""fullscreenenter"",""1"",""3558""
","
","","","-1","","","25","5241","472","&#9761;","elianto","#3366ff99","-1","-1","1","0","[]","0","0","2","","","","","","","",""
"pit-trial","46","454709","0.0-2.0-11.1-4.1","battery-v0.2","","""event"",""trial"",""time""
""fullscreenenter"",""1"",""3558""
","
","
","""event"",""trial"",""time""
""fullscreenenter"",""1"",""3558""
","
","","","-1","","","25","5241","472","&#9761;","elianto","#3366ff99","-1","-1","1","+10","[]","0","0","2","","","","","","","",""
"pit-trial","47","459575","0.0-2.0-11.2-0.2","battery-v0.2","","""event"",""trial"",""time""
""fullscreenenter"",""1"",""3558""
","
","
","""event"",""trial"",""time""
""fullscreenenter"",""1"",""3558""
","
","","","-1","","","25","5241","472","&#9761;","elianto","#3366ff99","-1","-1","1","+10","[]","0","0","2","","","","","","","",""
"pit-trial","48","464439","0.0-2.0-11.2-1.2","battery-v0.2","","""event"",""trial"",""time""
""fullscreenenter"",""1"",""3558""
","
","
","""event"",""trial"",""time""
""fullscreenenter"",""1"",""3558""
","
","","","-1","","","25","5241","472","&#9761;","elianto","#3366ff99","-1","-1","1","+10","[]","0","0","2","","","","","","","",""
"pit-trial","49","469317","0.0-2.0-11.2-2.2","battery-v0.2","","""event"",""trial"",""time""
""fullscreenenter"",""1"",""3558""
","
","
","""event"",""trial"",""time""
""fullscreenenter"",""1"",""3558""
","
","","","-1","","","25","5241","472","&#9761;","elianto","#3366ff99","-1","-1","1","+10","[]","0","0","2","","","","","","","",""
"pit-trial","50","474184","0.0-2.0-11.2-3.2","battery-v0.2","","""event"",""trial"",""time""
""fullscreenenter"",""1"",""3558""
","
","
","""event"",""trial"",""time""
""fullscreenenter"",""1"",""3558""
","
","","","-1","","","25","5241","472","&#9761;","elianto","#3366ff99","-1","-1","1","0","[]","0","0","2","","","","","","","",""
"pit-trial","51","479056","0.0-2.0-11.2-4.2","battery-v0.2","","""event"",""trial"",""time""
""fullscreenenter"",""1"",""3558""
","
","
","""event"",""trial"",""time""
""fullscreenenter"",""1"",""3558""
","
","","","-1","","","25","5241","472","&#9761;","elianto","#3366ff99","-1","-1","1","+10","[]","0","0","2","","","","","","","",""
"pit-trial","52","483930","0.0-2.0-11.3-0.3","battery-v0.2","","""event"",""trial"",""time""
""fullscreenenter"",""1"",""3558""
","
","
","""event"",""trial"",""time""
""fullscreenenter"",""1"",""3558""
","
","","","-1","","","25","5241","472","&#9761;","elianto","#3366ff99","-1","-1","1","+10","[]","0","0","2","","","","","","","",""
"pit-trial","53","488798","0.0-2.0-11.3-1.3","battery-v0.2","","""event"",""trial"",""time""
""fullscreenenter"",""1"",""3558""
","
","
","""event"",""trial"",""time""
""fullscreenenter"",""1"",""3558""
","
","","","-1","","","25","5241","472","&#9761;","elianto","#3366ff99","-1","-1","1","+10","[]","0","0","2","","","","","","","",""
"pit-trial","54","493674","0.0-2.0-11.3-2.3","battery-v0.2","","""event"",""trial"",""time""
""fullscreenenter"",""1"",""3558""
","
","
","""event"",""trial"",""time""
""fullscreenenter"",""1"",""3558""
","
","","","-1","","","25","5241","472","&#9761;","elianto","#3366ff99","-1","-1","1","+10","[]","0","0","2","","","","","","","",""
"pit-trial","55","498545","0.0-2.0-11.3-3.3","battery-v0.2","","""event"",""trial"",""time""
""fullscreenenter"",""1"",""3558""
","
","
","""event"",""trial"",""time""
""fullscreenenter"",""1"",""3558""
","
","","","-1","","","25","5241","472","&#9761;","elianto","#3366ff99","-1","-1","1","0","[]","0","0","2","","","","","","","",""
"pit-trial","56","503414","0.0-2.0-11.3-4.3","battery-v0.2","","""event"",""trial"",""time""
""fullscreenenter"",""1"",""3558""
","
","
","""event"",""trial"",""time""
""fullscreenenter"",""1"",""3558""
","
","","","-1","","","25","5241","472","&#9761;","elianto","#3366ff99","-1","-1","1","+10","[]","0","0","2","","","","","","","",""
"call-function","57","503416","0.0-2.0-12.0","battery-v0.2","","""event"",""trial"",""time""
""fullscreenenter"",""1"",""3558""
","
","
","""event"",""trial"",""time""
""fullscreenenter"",""1"",""3558""
","
","","","","","","","","","","","","","","","","","","","","","","","","","","",""
"pit-instructions","58","537274","0.0-2.0-13.0","battery-v0.2","","""event"",""trial"",""time""
""fullscreenenter"",""1"",""3558""
","
","
","""event"",""trial"",""time""
""fullscreenenter"",""1"",""3558""
","
","","[{""page_index"":0,""viewing_time"":4894},{""page_index"":1,""viewing_time"":8709},{""page_index"":2,""viewing_time"":3556},{""page_index"":3,""viewing_time"":11250},{""page_index"":4,""viewing_time"":5446}]","33856","","","","","","","","","","","","","","","","","","","","","","","",""
"pit-trial","59","540589","0.0-2.0-14.0-0.0","battery-v0.2","","""event"",""trial"",""time""
""fullscreenenter"",""1"",""3558""
","
","
","""event"",""trial"",""time""
""fullscreenenter"",""1"",""3558""
","
","","","445","","","25","5241","472","&#9826;","elianto","#f73b6a7A","-1"," ","0","-10","[1297]","1","0","3","","","","","","","",""
"pit-trial","60","543641","0.0-2.0-14.0-1.0","battery-v0.2","","""event"",""trial"",""time""
""fullscreenenter"",""1"",""3558""
","
","
","""event"",""trial"",""time""
""fullscreenenter"",""1"",""3558""
","
","","","181","","","25","5241","472","&#9826;","elianto","#f73b6a7A","-1"," ","0","-10","[1037]","1","0","3","","","","","","","",""
"pit-trial","61","546713","0.0-2.0-14.0-2.0","battery-v0.2","","""event"",""trial"",""time""
""fullscreenenter"",""1"",""3558""
","
","
","""event"",""trial"",""time""
""fullscreenenter"",""1"",""3558""
","
","","","201","","","25","5241","472","&#9826;","elianto","#f73b6a7A","-1"," ","0","-10","[1064]","1","0","3","","","","","","","",""
"pit-trial","62","551575","0.0-2.0-14.0-3.0","battery-v0.2","","""event"",""trial"",""time""
""fullscreenenter"",""1"",""3558""
","
","
","""event"",""trial"",""time""
""fullscreenenter"",""1"",""3558""
","
","","","-1","","","25","5241","472","&#9826;","elianto","#f73b6a7A","-1","-1","1","-10","[]","0","0","3","","","","","","","",""
"pit-trial","63","556446","0.0-2.0-14.0-4.0","battery-v0.2","","""event"",""trial"",""time""
""fullscreenenter"",""1"",""3558""
","
","
","""event"",""trial"",""time""
""fullscreenenter"",""1"",""3558""
","
","","","-1","","","25","5241","472","&#9826;","elianto","#f73b6a7A","-1","-1","1","0","[]","0","0","3","","","","","","","",""
"pit-trial","64","561316","0.0-2.0-14.1-0.1","battery-v0.2","","""event"",""trial"",""time""
""fullscreenenter"",""1"",""3558""
","
","
","""event"",""trial"",""time""
""fullscreenenter"",""1"",""3558""
","
","","","-1","","","25","5241","472","&#9826;","elianto","#f73b6a7A","-1","-1","1","0","[]","0","0","3","","","","","","","",""
"pit-trial","65","566197","0.0-2.0-14.1-1.1","battery-v0.2","","""event"",""trial"",""time""
""fullscreenenter"",""1"",""3558""
","
","
","""event"",""trial"",""time""
""fullscreenenter"",""1"",""3558""
","
","","","-1","","","25","5241","472","&#9826;","elianto","#f73b6a7A","-1","-1","1","0","[]","0","0","3","","","","","","","",""
"pit-trial","66","571057","0.0-2.0-14.1-2.1","battery-v0.2","","""event"",""trial"",""time""
""fullscreenenter"",""1"",""3558""
","
","
","""event"",""trial"",""time""
""fullscreenenter"",""1"",""3558""
","
","","","-1","","","25","5241","472","&#9826;","elianto","#f73b6a7A","-1","-1","1","0","[]","0","0","3","","","","","","","",""
"pit-trial","67","575934","0.0-2.0-14.1-3.1","battery-v0.2","","""event"",""trial"",""time""
""fullscreenenter"",""1"",""3558""
","
","
","""event"",""trial"",""time""
""fullscreenenter"",""1"",""3558""
","
","","","-1","","","25","5241","472","&#9826;","elianto","#f73b6a7A","-1","-1","1","-10","[]","0","0","3","","","","","","","",""
"pit-trial","68","580794","0.0-2.0-14.1-4.1","battery-v0.2","","""event"",""trial"",""time""
""fullscreenenter"",""1"",""3558""
","
","
","""event"",""trial"",""time""
""fullscreenenter"",""1"",""3558""
","
","","","-1","","","25","5241","472","&#9826;","elianto","#f73b6a7A","-1","-1","1","0","[]","0","0","3","","","","","","","",""
"pit-trial","69","585655","0.0-2.0-14.2-0.2","battery-v0.2","","""event"",""trial"",""time""
""fullscreenenter"",""1"",""3558""
","
","
","""event"",""trial"",""time""
""fullscreenenter"",""1"",""3558""
","
","","","-1","","","25","5241","472","&#9826;","elianto","#f73b6a7A","-1","-1","1","0","[]","0","0","3","","","","","","","",""
"pit-trial","70","590525","0.0-2.0-14.2-1.2","battery-v0.2","","""event"",""trial"",""time""
""fullscreenenter"",""1"",""3558""
","
","
","""event"",""trial"",""time""
""fullscreenenter"",""1"",""3558""
","
","","","-1","","","25","5241","472","&#9826;","elianto","#f73b6a7A","-1","-1","1","0","[]","0","0","3","","","","","","","",""
"pit-trial","71","595397","0.0-2.0-14.2-2.2","battery-v0.2","","""event"",""trial"",""time""
""fullscreenenter"",""1"",""3558""
","
","
","""event"",""trial"",""time""
""fullscreenenter"",""1"",""3558""
","
","","","-1","","","25","5241","472","&#9826;","elianto","#f73b6a7A","-1","-1","1","0","[]","0","0","3","","","","","","","",""
"pit-trial","72","600272","0.0-2.0-14.2-3.2","battery-v0.2","","""event"",""trial"",""time""
""fullscreenenter"",""1"",""3558""
","
","
","""event"",""trial"",""time""
""fullscreenenter"",""1"",""3558""
","
","","","-1","","","25","5241","472","&#9826;","elianto","#f73b6a7A","-1","-1","1","-10","[]","0","0","3","","","","","","","",""
"pit-trial","73","605133","0.0-2.0-14.2-4.2","battery-v0.2","","""event"",""trial"",""time""
""fullscreenenter"",""1"",""3558""
","
","
","""event"",""trial"",""time""
""fullscreenenter"",""1"",""3558""
","
","","","-1","","","25","5241","472","&#9826;","elianto","#f73b6a7A","-1","-1","1","0","[]","0","0","3","","","","","","","",""
"pit-trial","74","610014","0.0-2.0-14.3-0.3","battery-v0.2","","""event"",""trial"",""time""
""fullscreenenter"",""1"",""3558""
","
","
","""event"",""trial"",""time""
""fullscreenenter"",""1"",""3558""
","
","","","-1","","","25","5241","472","&#9826;","elianto","#f73b6a7A","-1","-1","1","0","[]","0","0","3","","","","","","","",""
"pit-trial","75","614886","0.0-2.0-14.3-1.3","battery-v0.2","","""event"",""trial"",""time""
""fullscreenenter"",""1"",""3558""
","
","
","""event"",""trial"",""time""
""fullscreenenter"",""1"",""3558""
","
","","","-1","","","25","5241","472","&#9826;","elianto","#f73b6a7A","-1","-1","1","0","[]","0","0","3","","","","","","","",""
"pit-trial","76","619755","0.0-2.0-14.3-2.3","battery-v0.2","","""event"",""trial"",""time""
""fullscreenenter"",""1"",""3558""
","
","
","""event"",""trial"",""time""
""fullscreenenter"",""1"",""3558""
","
","","","-1","","","25","5241","472","&#9826;","elianto","#f73b6a7A","-1","-1","1","0","[]","0","0","3","","","","","","","",""
"pit-trial","77","624621","0.0-2.0-14.3-3.3","battery-v0.2","","""event"",""trial"",""time""
""fullscreenenter"",""1"",""3558""
","
","
","""event"",""trial"",""time""
""fullscreenenter"",""1"",""3558""
","
","","","-1","","","25","5241","472","&#9826;","elianto","#f73b6a7A","-1","-1","1","-10","[]","0","0","3","","","","","","","",""
"pit-trial","78","629481","0.0-2.0-14.3-4.3","battery-v0.2","","""event"",""trial"",""time""
""fullscreenenter"",""1"",""3558""
","
","
","""event"",""trial"",""time""
""fullscreenenter"",""1"",""3558""
","
","","","-1","","","25","5241","472","&#9826;","elianto","#f73b6a7A","-1","-1","1","0","[]","0","0","3","","","","","","","",""
"call-function","79","629483","0.0-2.0-15.0","battery-v0.2","","""event"",""trial"",""time""
""fullscreenenter"",""1"",""3558""
","
","
","""event"",""trial"",""time""
""fullscreenenter"",""1"",""3558""
","
","","","","","","","","","","","","","","","","","","","","","","","","","","",""
"pit-instructions","80","653932","0.0-2.0-16.0","battery-v0.2","","""event"",""trial"",""time""
""fullscreenenter"",""1"",""3558""
","
","
","""event"",""trial"",""time""
""fullscreenenter"",""1"",""3558""
","
","","[{""page_index"":0,""viewing_time"":6783},{""page_index"":1,""viewing_time"":8135},{""page_index"":2,""viewing_time"":4527},{""page_index"":3,""viewing_time"":5001}]","24446","","","","","","","","","","","","","","","","","","","","","","","",""
"pit-trial","81","657573","0.0-2.0-17.0-0.0","battery-v0.2","","""event"",""trial"",""time""
""fullscreenenter"",""1"",""3558""
","
","
","""event"",""trial"",""time""
""fullscreenenter"",""1"",""3558""
","
","","","780","","","25","5241","472","&#9789;","elianto","#f73b6a7A"," "," ","1","0","[1630]","1","0","4","","","","","","","",""
"pit-trial","82","660913","0.0-2.0-17.0-1.0","battery-v0.2","","""event"",""trial"",""time""
""fullscreenenter"",""1"",""3558""
","
","
","""event"",""trial"",""time""
""fullscreenenter"",""1"",""3558""
","
","","","472","","","25","5241","472","&#9789;","elianto","#f73b6a7A"," "," ","1","0","[1334]","1","0","4","","","","","","","",""
"pit-trial","83","664261","0.0-2.0-17.0-2.0","battery-v0.2","","""event"",""trial"",""time""
""fullscreenenter"",""1"",""3558""
","
","
","""event"",""trial"",""time""
""fullscreenenter"",""1"",""3558""
","
","","","467","","","25","5241","472","&#9789;","elianto","#f73b6a7A"," "," ","1","0","[1329]","1","0","4","","","","","","","",""
"pit-trial","84","667507","0.0-2.0-17.0-3.0","battery-v0.2","","""event"",""trial"",""time""
""fullscreenenter"",""1"",""3558""
","
","
","""event"",""trial"",""time""
""fullscreenenter"",""1"",""3558""
","
","","","381","","","25","5241","472","&#9789;","elianto","#f73b6a7A"," "," ","1","-10","[1237]","1","0","4","","","","","","","",""
"pit-trial","85","670755","0.0-2.0-17.0-4.0","battery-v0.2","","""event"",""trial"",""time""
""fullscreenenter"",""1"",""3558""
","
","
","""event"",""trial"",""time""
""fullscreenenter"",""1"",""3558""
","
","","","381","","","25","5241","472","&#9789;","elianto","#f73b6a7A"," "," ","1","0","[1241,1527]","2","0","4","","","","","","","",""
"pit-trial","86","674209","0.0-2.0-17.1-0.1","battery-v0.2","","""event"",""trial"",""time""
""fullscreenenter"",""1"",""3558""
","
","
","""event"",""trial"",""time""
""fullscreenenter"",""1"",""3558""
","
","","","581","","","25","5241","472","&#9789;","elianto","#f73b6a7A"," "," ","1","0","[1434]","1","0","4","","","","","","","",""
"pit-trial","87","677506","0.0-2.0-17.1-1.1","battery-v0.2","","""event"",""trial"",""time""
""fullscreenenter"",""1"",""3558""
","
","
","""event"",""trial"",""time""
""fullscreenenter"",""1"",""3558""
","
","","","422","","","25","5241","472","&#9789;","elianto","#f73b6a7A"," "," ","1","0","[1278]","1","0","4","","","","","","","",""
"pit-trial","88","680628","0.0-2.0-17.1-2.1","battery-v0.2","","""event"",""trial"",""time""
""fullscreenenter"",""1"",""3558""
","
","
","""event"",""trial"",""time""
""fullscreenenter"",""1"",""3558""
","
","","","253","","","25","5241","472","&#9789;","elianto","#f73b6a7A"," "," ","1","0","[1114]","1","0","4","","","","","","","",""
"pit-trial","89","683970","0.0-2.0-17.1-3.1","battery-v0.2","","""event"",""trial"",""time""
""fullscreenenter"",""1"",""3558""
","
","
","""event"",""trial"",""time""
""fullscreenenter"",""1"",""3558""
","
","","","471","","","25","5241","472","&#9789;","elianto","#f73b6a7A"," "," ","1","-10","[1328]","1","0","4","","","","","","","",""
"pit-trial","90","687034","0.0-2.0-17.1-4.1","battery-v0.2","","""event"",""trial"",""time""
""fullscreenenter"",""1"",""3558""
","
","
","""event"",""trial"",""time""
""fullscreenenter"",""1"",""3558""
","
","","","191","","","25","5241","472","&#9789;","elianto","#f73b6a7A"," "," ","1","0","[1047]","1","0","4","","","","","","","",""
"pit-trial","91","690295","0.0-2.0-17.2-0.2","battery-v0.2","","""event"",""trial"",""time""
""fullscreenenter"",""1"",""3558""
","
","
","""event"",""trial"",""time""
""fullscreenenter"",""1"",""3558""
","
","","","395","","","25","5241","472","&#9789;","elianto","#f73b6a7A"," "," ","1","0","[1253]","1","0","4","","","","","","","",""
"pit-trial","92","693553","0.0-2.0-17.2-1.2","battery-v0.2","","""event"",""trial"",""time""
""fullscreenenter"",""1"",""3558""
","
","
","""event"",""trial"",""time""
""fullscreenenter"",""1"",""3558""
","
","","","390","","","25","5241","472","&#9789;","elianto","#f73b6a7A"," "," ","1","0","[1248]","1","0","4","","","","","","","",""
"pit-trial","93","696944","0.0-2.0-17.2-2.2","battery-v0.2","","""event"",""trial"",""time""
""fullscreenenter"",""1"",""3558""
","
","
","""event"",""trial"",""time""
""fullscreenenter"",""1"",""3558""
","
","","","522","","","25","5241","472","&#9789;","elianto","#f73b6a7A"," "," ","1","0","[1384]","1","0","4","","","","","","","",""
"pit-trial","94","700447","0.0-2.0-17.2-3.2","battery-v0.2","","""event"",""trial"",""time""
""fullscreenenter"",""1"",""3558""
","
","
","""event"",""trial"",""time""
""fullscreenenter"",""1"",""3558""
","
","","","635","","","25","5241","472","&#9789;","elianto","#f73b6a7A"," "," ","1","-10","[1496]","1","0","4","","","","","","","",""
"pit-trial","95","703337","0.0-2.0-17.2-4.2","battery-v0.2","","""event"",""trial"",""time""
""fullscreenenter"",""1"",""3558""
","
","
","""event"",""trial"",""time""
""fullscreenenter"",""1"",""3558""
","
","","","23","","","25","5241","472","&#9789;","elianto","#f73b6a7A"," "," ","1","0","[880]","1","0","4","","","","","","","",""
"pit-trial","96","706499","0.0-2.0-17.3-0.3","battery-v0.2","","""event"",""trial"",""time""
""fullscreenenter"",""1"",""3558""
","
","
","""event"",""trial"",""time""
""fullscreenenter"",""1"",""3558""
","
","","","296","","","25","5241","472","&#9789;","elianto","#f73b6a7A"," "," ","1","0","[1158]","1","0","4","","","","","","","",""
"pit-trial","97","709645","0.0-2.0-17.3-1.3","battery-v0.2","","""event"",""trial"",""time""
""fullscreenenter"",""1"",""3558""
","
","
","""event"",""trial"",""time""
""fullscreenenter"",""1"",""3558""
","
","","","271","","","25","5241","472","&#9789;","elianto","#f73b6a7A"," "," ","1","0","[1127]","1","0","4","","","","","","","",""
"pit-trial","98","713013","0.0-2.0-17.3-2.3","battery-v0.2","","""event"",""trial"",""time""
""fullscreenenter"",""1"",""3558""
","
","
","""event"",""trial"",""time""
""fullscreenenter"",""1"",""3558""
","
","","","506","","","25","5241","472","&#9789;","elianto","#f73b6a7A"," "," ","1","0","[1357]","1","0","4","","","","","","","",""
"pit-trial","99","716368","0.0-2.0-17.3-3.3","battery-v0.2","","""event"",""trial"",""time""
""fullscreenenter"",""1"",""3558""
","
","
","""event"",""trial"",""time""
""fullscreenenter"",""1"",""3558""
","
","","","486","","","25","5241","472","&#9789;","elianto","#f73b6a7A"," "," ","1","-10","[1345]","1","0","4","","","","","","","",""
"pit-trial","100","719655","0.0-2.0-17.3-4.3","battery-v0.2","","""event"",""trial"",""time""
""fullscreenenter"",""1"",""3558""
","
","
","""event"",""trial"",""time""
""fullscreenenter"",""1"",""3558""
","
","","","420","","","25","5241","472","&#9789;","elianto","#f73b6a7A"," "," ","1","0","[1278]","1","0","4","","","","","","","",""
"call-function","101","719657","0.0-2.0-18.0","battery-v0.2","","""event"",""trial"",""time""
""fullscreenenter"",""1"",""3558""
","
","
","""event"",""trial"",""time""
""fullscreenenter"",""1"",""3558""
","
","","","","","","","","","","","","","","","","","","","","","","","","","","",""
"pit-instructions","102","791669","0.0-2.0-19.0","battery-v0.2","","""event"",""trial"",""time""
""fullscreenenter"",""1"",""3558""
","
","
","""event"",""trial"",""time""
""fullscreenenter"",""1"",""3558""
","
","","[{""page_index"":0,""viewing_time"":6645},{""page_index"":1,""viewing_time"":6109},{""page_index"":2,""viewing_time"":14973},{""page_index"":3,""viewing_time"":7968},{""page_index"":4,""viewing_time"":8624},{""page_index"":5,""viewing_time"":9300},{""page_index"":6,""viewing_time"":8433},{""page_index"":7,""viewing_time"":5986},{""page_index"":8,""viewing_time"":3971}]","72010","","","","","","","","","","","","","","","","","","","","","","","",""
"pit-comprehension","103","796078","0.0-2.0-20.0-0.0","battery-v0.2","","""event"",""trial"",""time""
""fullscreenenter"",""1"",""3558""
","
","
","""event"",""trial"",""time""
""fullscreenenter"",""1"",""3558""
","
","","","4398","[""SPACE""]","0","25","5241","472","","","","","","","","","","","","","","","","","","",""
"pit-instructions","104","798587","0.0-2.0-20.0-1.0","battery-v0.2","","""event"",""trial"",""time""
""fullscreenenter"",""1"",""3558""
","
","
","""event"",""trial"",""time""
""fullscreenenter"",""1"",""3558""
","
","","[{""page_index"":0,""viewing_time"":2404}]","2405","","","","","","","","","","","","","","","","","","","","","","","",""
"pit-comprehension","105","804001","0.0-2.0-21.0-0.0","battery-v0.2","","""event"",""trial"",""time""
""fullscreenenter"",""1"",""3558""
","
","
","""event"",""trial"",""time""
""fullscreenenter"",""1"",""3558""
","
","","","5408","[""10""]","0","25","5241","472","","","","","","","","","","","","","","","","","","",""
"pit-instructions","106","805533","0.0-2.0-21.0-1.0","battery-v0.2","","""event"",""trial"",""time""
""fullscreenenter"",""1"",""3558""
","
","
","""event"",""trial"",""time""
""fullscreenenter"",""1"",""3558""
","
","","[{""page_index"":0,""viewing_time"":1459}]","1460","","","","","","","","","","","","","","","","","","","","","","","",""
"pit-comprehension","107","812022","0.0-2.0-22.0-0.0","battery-v0.2","","""event"",""trial"",""time""
""fullscreenenter"",""1"",""3558""
","
","
","""event"",""trial"",""time""
""fullscreenenter"",""1"",""3558""
","
","","","6483","[""0""]","0","25","5241","472","","","","","","","","","","","","","","","","","","",""
"pit-instructions","108","814094","0.0-2.0-22.0-1.0","battery-v0.2","","""event"",""trial"",""time""
""fullscreenenter"",""1"",""3558""
","
","
","""event"",""trial"",""time""
""fullscreenenter"",""1"",""3558""
","
","","[{""page_index"":0,""viewing_time"":1976}]","1977","","","","","","","","","","","","","","","","","","","","","","","",""
"pit-comprehension","109","822537","0.0-2.0-23.0-0.0","battery-v0.2","","""event"",""trial"",""time""
""fullscreenenter"",""1"",""3558""
","
","
","""event"",""trial"",""time""
""fullscreenenter"",""1"",""3558""
","
","","","8431","[""True""]","0","25","5241","472","","","","","","","","","","","","","","","","","","",""
"pit-instructions","110","824303","0.0-2.0-23.0-1.0","battery-v0.2","","""event"",""trial"",""time""
""fullscreenenter"",""1"",""3558""
","
","
","""event"",""trial"",""time""
""fullscreenenter"",""1"",""3558""
","
","","[{""page_index"":0,""viewing_time"":1658}]","1659","","","","","","","","","","","","","","","","","","","","","","","",""
"pit-comprehension","111","831859","0.0-2.0-24.0-0.0","battery-v0.2","","""event"",""trial"",""time""
""fullscreenenter"",""1"",""3558""
","
","
","""event"",""trial"",""time""
""fullscreenenter"",""1"",""3558""
","
","","","7544","[""True""]","0","25","5241","472","","","","","","","","","","","","","","","","","","",""
"pit-instructions","112","833616","0.0-2.0-24.0-1.0","battery-v0.2","","""event"",""trial"",""time""
""fullscreenenter"",""1"",""3558""
","
","
","""event"",""trial"",""time""
""fullscreenenter"",""1"",""3558""
","
","","[{""page_index"":0,""viewing_time"":1637}]","1639","","","","","","","","","","","","","","","","","","","","","","","",""
"pit-comprehension","113","840226","0.0-2.0-25.0-0.0","battery-v0.2","","""event"",""trial"",""time""
""fullscreenenter"",""1"",""3558""
","
","
","""event"",""trial"",""time""
""fullscreenenter"",""1"",""3558""
","
","","","6606","[""True""]","0","25","5241","472","","","","","","","","","","","","","","","","","","",""
"pit-instructions","114","841933","0.0-2.0-25.0-1.0","battery-v0.2","","""event"",""trial"",""time""
""fullscreenenter"",""1"",""3558""
","
","
","""event"",""trial"",""time""
""fullscreenenter"",""1"",""3558""
","
","","[{""page_index"":0,""viewing_time"":1608}]","1608","","","","","","","","","","","","","","","","","","","","","","","",""
"pit-comprehension","115","846741","0.0-2.0-26.0-0.0","battery-v0.2","","""event"",""trial"",""time""
""fullscreenenter"",""1"",""3558""
","
","
","""event"",""trial"",""time""
""fullscreenenter"",""1"",""3558""
","
","","","4796","[""False""]","0","25","5241","472","","","","","","","","","","","","","","","","","","",""
"pit-instructions","116","848518","0.0-2.0-26.0-1.0","battery-v0.2","","""event"",""trial"",""time""
""fullscreenenter"",""1"",""3558""
","
","
","""event"",""trial"",""time""
""fullscreenenter"",""1"",""3558""
","
","","[{""page_index"":0,""viewing_time"":1636}]","1637","","","","","","","","","","","","","","","","","","","","","","","",""
"pit-instructions","117","866747","0.0-3.0","battery-v0.2","","""event"",""trial"",""time""
""fullscreenenter"",""1"",""3558""
","
","
","""event"",""trial"",""time""
""fullscreenenter"",""1"",""3558""
","
","","[{""page_index"":0,""viewing_time"":3850},{""page_index"":1,""viewing_time"":6731},{""page_index"":2,""viewing_time"":7642}]","18223","","","","","","","","","","","","","","","","","","","","","","","",""
"pit-trial","118","870129","0.0-4.0","battery-v0.2","","""event"",""trial"",""time""
""fullscreenenter"",""1"",""3558""
","
","
","""event"",""trial"",""time""
""fullscreenenter"",""1"",""3558""
","
","","","511","","","25","5241","472","&#9752;","elianto","#f73b6a7A"," "," ","1","-10","[1369]","1","1","","","5241","1","3","3","lose","go","1"
"pit-trial","119","873627","0.0-5.0","battery-v0.2","","""event"",""trial"",""time""
""fullscreenenter"",""1"",""3558""
","
","
","""event"",""trial"",""time""
""fullscreenenter"",""1"",""3558""
","
","","","622","","","25","5241","472","&#9733;","elianto","#3366ff99","-1"," ","0","+10","[1479]","1","1","","","5241","2","2","2","win","no-go","1"
"pit-trial","120","877165","0.0-6.0","battery-v0.2","","""event"",""trial"",""time""
""fullscreenenter"",""1"",""3558""
","
","
","""event"",""trial"",""time""
""fullscreenenter"",""1"",""3558""
","
","","","665","","","25","5241","472","&#9728;","elianto","#f73b6a7A","-1"," ","0","0","[1528]","1","1","","","5241","3","0","4","lose","no-go","1"
"pit-trial","121","880696","0.0-7.0","battery-v0.2","","""event"",""trial"",""time""
""fullscreenenter"",""1"",""3558""
","
","
","""event"",""trial"",""time""
""fullscreenenter"",""1"",""3558""
","
","","","654","","","25","5241","472","&#9730;","elianto","#3366ff99"," "," ","1","0","[1515]","1","1","","","5241","4","1","1","win","go","1"
"pit-trial","122","884614","0.0-8.0","battery-v0.2","","""event"",""trial"",""time""
""fullscreenenter"",""1"",""3558""
","
","
","""event"",""trial"",""time""
""fullscreenenter"",""1"",""3558""
","
","","","1052","","","25","5241","472","&#9730;","elianto","#3366ff99"," "," ","1","+10","[1913]","1","1","","","5241","5","1","1","win","go","0"
"pit-trial","123","888201","0.0-9.0","battery-v0.2","","""event"",""trial"",""time""
""fullscreenenter"",""1"",""3558""
","
","
","""event"",""trial"",""time""
""fullscreenenter"",""1"",""3558""
","
","","","706","","","25","5241","472","&#9752;","elianto","#f73b6a7A"," "," ","1","0","[1568]","1","1","","","5241","6","3","3","lose","go","0"
"pit-trial","124","891788","0.0-10.0","battery-v0.2","","""event"",""trial"",""time""
""fullscreenenter"",""1"",""3558""
","
","
","""event"",""trial"",""time""
""fullscreenenter"",""1"",""3558""
","
","","","712","","","25","5241","472","&#9728;","elianto","#f73b6a7A","-1"," ","0","-10","[1570]","1","1","","","5241","7","0","4","lose","no-go","0"
"pit-trial","125","895291","0.0-11.0","battery-v0.2","","""event"",""trial"",""time""
""fullscreenenter"",""1"",""3558""
","
","
","""event"",""trial"",""time""
""fullscreenenter"",""1"",""3558""
","
","","","632","","","25","5241","472","&#9733;","elianto","#3366ff99","-1"," ","0","0","[1488]","1","1","","","5241","8","2","2","win","no-go","0"
"pit-trial","126","898848","0.0-12.0","battery-v0.2","","""event"",""trial"",""time""
""fullscreenenter"",""1"",""3558""
","
","
","""event"",""trial"",""time""
""fullscreenenter"",""1"",""3558""
","
","","","687","","","25","5241","472","&#9752;","elianto","#f73b6a7A"," "," ","1","-10","[1542]","1","1","","","5241","9","3","3","lose","go","1"
"pit-trial","127","902589","0.0-13.0","battery-v0.2","","""event"",""trial"",""time""
""fullscreenenter"",""1"",""3558""
","
","
","""event"",""trial"",""time""
""fullscreenenter"",""1"",""3558""
","
","","","866","","","25","5241","472","&#9730;","elianto","#3366ff99"," "," ","1","+10","[1722]","1","1","","","5241","10","1","1","win","go","0"
"pit-trial","128","906600","0.0-14.0","battery-v0.2","","""event"",""trial"",""time""
""fullscreenenter"",""1"",""3558""
","
","
","""event"",""trial"",""time""
""fullscreenenter"",""1"",""3558""
","
","","","1137","","","25","5241","472","&#9728;","elianto","#f73b6a7A","-1"," ","0","-10","[1990]","1","1","","","5241","11","0","4","lose","no-go","0"
"pit-trial","129","911461","0.0-15.0","battery-v0.2","","""event"",""trial"",""time""
""fullscreenenter"",""1"",""3558""
","
","
","""event"",""trial"",""time""
""fullscreenenter"",""1"",""3558""
","
","","","-1","","","25","5241","472","&#9733;","elianto","#3366ff99","-1","-1","1","0","[]","0","1","","","5241","12","2","2","win","no-go","1"
"pit-trial","130","916326","0.0-16.0","battery-v0.2","","""event"",""trial"",""time""
""fullscreenenter"",""1"",""3558""
","
","
","""event"",""trial"",""time""
""fullscreenenter"",""1"",""3558""
","
","","","-1","","","25","5241","472","&#9728;","elianto","#f73b6a7A","-1","-1","1","0","[]","0","1","","","5241","13","0","4","lose","no-go","0"
"pit-trial","131","920052","0.0-17.0","battery-v0.2","","""event"",""trial"",""time""
""fullscreenenter"",""1"",""3558""
","
","
","""event"",""trial"",""time""
""fullscreenenter"",""1"",""3558""
","
","","","862","","","25","5241","472","&#9730;","elianto","#3366ff99"," "," ","1","+10","[1719]","1","1","","","5241","14","1","1","win","go","0"
"pit-trial","132","924922","0.0-18.0","battery-v0.2","","""event"",""trial"",""time""
""fullscreenenter"",""1"",""3558""
","
","
","""event"",""trial"",""time""
""fullscreenenter"",""1"",""3558""
","
","","","-1","","","25","5241","472","&#9752;","elianto","#f73b6a7A"," ","-1","0","-10","[]","0","1","","","5241","15","3","3","lose","go","0"
"pit-trial","133","929792","0.0-19.0","battery-v0.2","","""event"",""trial"",""time""
""fullscreenenter"",""1"",""3558""
","
","
","""event"",""trial"",""time""
""fullscreenenter"",""1"",""3558""
","
","","","-1","","","25","5241","472","&#9733;","elianto","#3366ff99","-1","-1","1","+10","[]","0","1","","","5241","16","2","2","win","no-go","0"
"pit-trial","134","934667","0.0-20.0","battery-v0.2","","""event"",""trial"",""time""
""fullscreenenter"",""1"",""3558""
","
","
","""event"",""trial"",""time""
""fullscreenenter"",""1"",""3558""
","
","","","-1","","","25","5241","472","&#9728;","elianto","#f73b6a7A","-1","-1","1","0","[]","0","1","","","5241","17","0","4","lose","no-go","0"
"pit-trial","135","938548","0.0-21.0","battery-v0.2","","""event"",""trial"",""time""
""fullscreenenter"",""1"",""3558""
","
","
","""event"",""trial"",""time""
""fullscreenenter"",""1"",""3558""
","
","","","1007","","","25","5241","472","&#9730;","elianto","#3366ff99"," "," ","1","+10","[1864]","1","1","","","5241","18","1","1","win","go","0"
"pit-trial","136","943409","0.0-22.0","battery-v0.2","","""event"",""trial"",""time""
""fullscreenenter"",""1"",""3558""
","
","
","""event"",""trial"",""time""
""fullscreenenter"",""1"",""3558""
","
","","","-1","","","25","5241","472","&#9752;","elianto","#f73b6a7A"," ","-1","0","-10","[]","0","1","","","5241","19","3","3","lose","go","0"
"pit-trial","137","948286","0.0-23.0","battery-v0.2","","""event"",""trial"",""time""
""fullscreenenter"",""1"",""3558""
","
","
","""event"",""trial"",""time""
""fullscreenenter"",""1"",""3558""
","
","","","-1","","","25","5241","472","&#9733;","elianto","#3366ff99","-1","-1","1","+10","[]","0","1","","","5241","20","2","2","win","no-go","0"
"pit-instructions","138","961374","0.0-24.0","battery-v0.2","","""event"",""trial"",""time""
""fullscreenenter"",""1"",""3558""
","
","
","""event"",""trial"",""time""
""fullscreenenter"",""1"",""3558""
","
","","[{""page_index"":0,""viewing_time"":6025},{""page_index"":1,""viewing_time"":7059}]","13084","","","","","","","","","","","","","","","","","","","","","","","",""
"pit-trial","139","965199","0.0-25.0","battery-v0.2","","""event"",""trial"",""time""
""fullscreenenter"",""1"",""3558""
","
","
","""event"",""trial"",""time""
""fullscreenenter"",""1"",""3558""
","
","","","952","","","25","5241","472","e","elianto","#f73b6a7A","-1"," ","0","-10","[1812]","1","2","","","5241","21","2","4","lose","no-go","0"
"pit-trial","140","968732","0.0-26.0","battery-v0.2","","""event"",""trial"",""time""
""fullscreenenter"",""1"",""3558""
","
","
","""event"",""trial"",""time""
""fullscreenenter"",""1"",""3558""
","
","","","663","","","25","5241","472","w","elianto","#f73b6a7A"," "," ","1","0","[1522]","1","2","","","5241","22","3","3","lose","go","0"
"pit-trial","141","972171","0.0-27.0","battery-v0.2","","""event"",""trial"",""time""
""fullscreenenter"",""1"",""3558""
","
","
","""event"",""trial"",""time""
""fullscreenenter"",""1"",""3558""
","
","","","575","","","25","5241","472","d","elianto","#3366ff99"," "," ","1","+10","[1426]","1","2","","","5241","23","1","1","win","go","0"
"pit-trial","142","975599","0.0-28.0","battery-v0.2","","""event"",""trial"",""time""
""fullscreenenter"",""1"",""3558""
","
","
","""event"",""trial"",""time""
""fullscreenenter"",""1"",""3558""
","
","","","566","","","25","5241","472","j","elianto","#f73b6a7A","-1"," ","0","0","[1422]","1","2","","","5241","24","0","4","lose","no-go","1"
"pit-trial","143","979010","0.0-29.0","battery-v0.2","","""event"",""trial"",""time""
""fullscreenenter"",""1"",""3558""
","
","
","""event"",""trial"",""time""
""fullscreenenter"",""1"",""3558""
","
","","","544","","","25","5241","472","d","elianto","#3366ff99"," "," ","1","+10","[1406]","1","2","","","5241","25","1","1","win","go","0"
"pit-trial","144","982402","0.0-30.0","battery-v0.2","","""event"",""trial"",""time""
""fullscreenenter"",""1"",""3558""
","
","
","""event"",""trial"",""time""
""fullscreenenter"",""1"",""3558""
","
","","","515","","","25","5241","472","e","elianto","#f73b6a7A","-1"," ","0","0","[1374]","1","2","","","5241","26","2","4","lose","no-go","1"
"pit-trial","145","985707","0.0-31.0","battery-v0.2","","""event"",""trial"",""time""
""fullscreenenter"",""1"",""3558""
","
","
","""event"",""trial"",""time""
""fullscreenenter"",""1"",""3558""
","
","","","444","","","25","5241","472","j","elianto","#f73b6a7A","-1"," ","0","-10","[1300]","1","2","","","5241","27","0","4","lose","no-go","0"
"pit-trial","146","989075","0.0-32.0","battery-v0.2","","""event"",""trial"",""time""
""fullscreenenter"",""1"",""3558""
","
","
","""event"",""trial"",""time""
""fullscreenenter"",""1"",""3558""
","
","","","493","","","25","5241","472","w","elianto","#f73b6a7A"," "," ","1","0","[1348]","1","2","","","5241","28","3","3","lose","go","0"
"pit-trial","147","992517","0.0-33.0","battery-v0.2","","""event"",""trial"",""time""
""fullscreenenter"",""1"",""3558""
","
","
","""event"",""trial"",""time""
""fullscreenenter"",""1"",""3558""
","
","","","568","","","25","5241","472","w","elianto","#f73b6a7A"," "," ","1","0","[1430]","1","2","","","5241","29","3","3","lose","go","0"
"pit-trial","148","996019","0.0-34.0","battery-v0.2","","""event"",""trial"",""time""
""fullscreenenter"",""1"",""3558""
","
","
","""event"",""trial"",""time""
""fullscreenenter"",""1"",""3558""
","
","","","636","","","25","5241","472","e","elianto","#f73b6a7A","-1"," ","0","-10","[1492]","1","2","","","5241","30","2","4","lose","no-go","0"
"pit-trial","149","999581","0.0-35.0","battery-v0.2","","""event"",""trial"",""time""
""fullscreenenter"",""1"",""3558""
","
","
","""event"",""trial"",""time""
""fullscreenenter"",""1"",""3558""
","
","","","691","","","25","5241","472","d","elianto","#3366ff99"," "," ","1","0","[1546]","1","2","","","5241","31","1","1","win","go","1"
"pit-trial","150","1004458","0.0-36.0","battery-v0.2","","""event"",""trial"",""time""
""fullscreenenter"",""1"",""3558""
","
","
","""event"",""trial"",""time""
""fullscreenenter"",""1"",""3558""
","
","","","-1","","","25","5241","472","j","elianto","#f73b6a7A","-1","-1","1","0","[]","0","2","","","5241","32","0","4","lose","no-go","0"
"pit-trial","151","1007874","0.0-37.0","battery-v0.2","","""event"",""trial"",""time""
""fullscreenenter"",""1"",""3558""
","
","
","""event"",""trial"",""time""
""fullscreenenter"",""1"",""3558""
","
","","","535","","","25","5241","472","e","elianto","#f73b6a7A","-1"," ","0","-10","[1396]","1","2","","","5241","33","2","4","lose","no-go","0"
"pit-trial","152","1012749","0.0-38.0","battery-v0.2","","""event"",""trial"",""time""
""fullscreenenter"",""1"",""3558""
","
","
","""event"",""trial"",""time""
""fullscreenenter"",""1"",""3558""
","
","","","-1","","","25","5241","472","j","elianto","#f73b6a7A","-1","-1","1","0","[]","0","2","","","5241","34","0","4","lose","no-go","0"
"pit-trial","153","1016305","0.0-39.0","battery-v0.2","","""event"",""trial"",""time""
""fullscreenenter"",""1"",""3558""
","
","
","""event"",""trial"",""time""
""fullscreenenter"",""1"",""3558""
","
","","","691","","","25","5241","472","w","elianto","#f73b6a7A"," "," ","1","0","[1549]","1","2","","","5241","35","3","3","lose","go","0"
"pit-trial","154","1019843","0.0-40.0","battery-v0.2","","""event"",""trial"",""time""
""fullscreenenter"",""1"",""3558""
","
","
","""event"",""trial"",""time""
""fullscreenenter"",""1"",""3558""
","
","","","671","","","25","5241","472","d","elianto","#3366ff99"," "," ","1","0","[1530]","1","2","","","5241","36","1","1","win","go","1"
"pit-trial","155","1024711","0.0-41.0","battery-v0.2","","""event"",""trial"",""time""
""fullscreenenter"",""1"",""3558""
","
","
","""event"",""trial"",""time""
""fullscreenenter"",""1"",""3558""
","
","","","-1","","","25","5241","472","j","elianto","#f73b6a7A","-1","-1","1","0","[]","0","2","","","5241","37","0","4","lose","no-go","0"
"pit-trial","156","1029580","0.0-42.0","battery-v0.2","","""event"",""trial"",""time""
""fullscreenenter"",""1"",""3558""
","
","
","""event"",""trial"",""time""
""fullscreenenter"",""1"",""3558""
","
","","","-1","","","25","5241","472","e","elianto","#f73b6a7A","-1","-1","1","-10","[]","0","2","","","5241","38","2","4","lose","no-go","1"
"pit-trial","157","1034451","0.0-43.0","battery-v0.2","","""event"",""trial"",""time""
""fullscreenenter"",""1"",""3558""
","
","
","""event"",""trial"",""time""
""fullscreenenter"",""1"",""3558""
","
","","","-1","","","25","5241","472","d","elianto","#3366ff99"," ","-1","0","0","[]","0","2","","","5241","39","1","1","win","go","0"
"pit-trial","158","1038527","0.0-44.0","battery-v0.2","","""event"",""trial"",""time""
""fullscreenenter"",""1"",""3558""
","
","
","""event"",""trial"",""time""
""fullscreenenter"",""1"",""3558""
","
","","","1205","","","25","5241","472","w","elianto","#f73b6a7A"," "," ","1","0","[2065]","1","2","","","5241","40","3","3","lose","go","0"
"pit-trial","159","1043402","0.0-45.0","battery-v0.2","","""event"",""trial"",""time""
""fullscreenenter"",""1"",""3558""
","
","
","""event"",""trial"",""time""
""fullscreenenter"",""1"",""3558""
","
","","","-1","","","25","5241","472","e","elianto","#f73b6a7A","-1","-1","1","0","[]","0","2","","","5241","41","2","4","lose","no-go","0"
"pit-trial","160","1048280","0.0-46.0","battery-v0.2","","""event"",""trial"",""time""
""fullscreenenter"",""1"",""3558""
","
","
","""event"",""trial"",""time""
""fullscreenenter"",""1"",""3558""
","
","","","-1","","","25","5241","472","d","elianto","#3366ff99"," ","-1","0","0","[]","0","2","","","5241","42","1","1","win","go","0"
"pit-trial","161","1053156","0.0-47.0","battery-v0.2","","""event"",""trial"",""time""
""fullscreenenter"",""1"",""3558""
","
","
","""event"",""trial"",""time""
""fullscreenenter"",""1"",""3558""
","
","","","-1","","","25","5241","472","j","elianto","#f73b6a7A","-1","-1","1","0","[]","0","2","","","5241","43","0","4","lose","no-go","0"
"pit-trial","162","1056723","0.0-48.0","battery-v0.2","","""event"",""trial"",""time""
""fullscreenenter"",""1"",""3558""
","
","
","""event"",""trial"",""time""
""fullscreenenter"",""1"",""3558""
","
","","","695","","","25","5241","472","w","elianto","#f73b6a7A"," "," ","1","0","[1554]","1","2","","","5241","44","3","3","lose","go","0"
"pit-trial","163","1061584","0.0-49.0","battery-v0.2","","""event"",""trial"",""time""
""fullscreenenter"",""1"",""3558""
","
","
","""event"",""trial"",""time""
""fullscreenenter"",""1"",""3558""
","
","","","-1","","","25","5241","472","e","elianto","#f73b6a7A","-1","-1","1","0","[]","0","2","","","5241","45","2","4","lose","no-go","0"
"pit-trial","164","1066451","0.0-50.0","battery-v0.2","","""event"",""trial"",""time""
""fullscreenenter"",""1"",""3558""
","
","
","""event"",""trial"",""time""
""fullscreenenter"",""1"",""3558""
","
","","","-1","","","25","5241","472","j","elianto","#f73b6a7A","-1","-1","1","-10","[]","0","2","","","5241","46","0","4","lose","no-go","1"
"pit-trial","165","1070151","0.0-51.0","battery-v0.2","","""event"",""trial"",""time""
""fullscreenenter"",""1"",""3558""
","
","
","""event"",""trial"",""time""
""fullscreenenter"",""1"",""3558""
","
","","","824","","","25","5241","472","s","elianto","#3366ff99","-1"," ","0","0","[1680]","1","2","","","5241","47","4","2","win","no-go","0"
"pit-trial","166","1073794","0.0-52.0","battery-v0.2","","""event"",""trial"",""time""
""fullscreenenter"",""1"",""3558""
","
","
","""event"",""trial"",""time""
""fullscreenenter"",""1"",""3558""
","
","","","779","","","25","5241","472","w","elianto","#f73b6a7A"," "," ","1","0","[1632]","1","2","","","5241","48","3","3","lose","go","0"
"pit-trial","167","1078665","0.0-53.0","battery-v0.2","","""event"",""trial"",""time""
""fullscreenenter"",""1"",""3558""
","
","
","""event"",""trial"",""time""
""fullscreenenter"",""1"",""3558""
","
","","","-1","","","25","5241","472","j","elianto","#f73b6a7A","-1","-1","1","-10","[]","0","2","","","5241","49","0","4","lose","no-go","1"
"pit-trial","168","1082564","0.0-54.0","battery-v0.2","","""event"",""trial"",""time""
""fullscreenenter"",""1"",""3558""
","
","
","""event"",""trial"",""time""
""fullscreenenter"",""1"",""3558""
","
","","","1037","","","25","5241","472","s","elianto","#3366ff99","-1"," ","0","0","[1895]","1","2","","","5241","50","4","2","win","no-go","0"
"pit-trial","169","1086092","0.0-55.0","battery-v0.2","","""event"",""trial"",""time""
""fullscreenenter"",""1"",""3558""
","
","
","""event"",""trial"",""time""
""fullscreenenter"",""1"",""3558""
","
","","","667","","","25","5241","472","w","elianto","#f73b6a7A"," "," ","1","0","[1524]","1","2","","","5241","51","3","3","lose","go","0"
"pit-trial","170","1089971","0.0-56.0","battery-v0.2","","""event"",""trial"",""time""
""fullscreenenter"",""1"",""3558""
","
","
","""event"",""trial"",""time""
""fullscreenenter"",""1"",""3558""
","
","","","1011","","","25","5241","472","d","elianto","#3366ff99"," "," ","1","+10","[1862]","1","2","","","5241","52","1","1","win","go","0"
"pit-trial","171","1094042","0.0-57.0","battery-v0.2","","""event"",""trial"",""time""
""fullscreenenter"",""1"",""3558""
","
","
","""event"",""trial"",""time""
""fullscreenenter"",""1"",""3558""
","
","","","1198","","","25","5241","472","d","elianto","#3366ff99"," "," ","1","0","[2056]","1","2","","","5241","53","1","1","win","go","1"
"pit-trial","172","1098916","0.0-58.0","battery-v0.2","","""event"",""trial"",""time""
""fullscreenenter"",""1"",""3558""
","
","
","""event"",""trial"",""time""
""fullscreenenter"",""1"",""3558""
","
","","","-1","","","25","5241","472","j","elianto","#f73b6a7A","-1","-1","1","0","[]","0","2","","","5241","54","0","4","lose","no-go","0"
"pit-trial","173","1103792","0.0-59.0","battery-v0.2","","""event"",""trial"",""time""
""fullscreenenter"",""1"",""3558""
","
","
","""event"",""trial"",""time""
""fullscreenenter"",""1"",""3558""
","
","","","-1","","","25","5241","472","s","elianto","#3366ff99","-1","-1","1","+10","[]","0","2","","","5241","55","4","2","win","no-go","0"
"pit-trial","174","1107374","0.0-60.0","battery-v0.2","","""event"",""trial"",""time""
""fullscreenenter"",""1"",""3558""
","
","
","""event"",""trial"",""time""
""fullscreenenter"",""1"",""3558""
","
","","","712","","","25","5241","472","e","elianto","#f73b6a7A","-1"," ","0","-10","[1569]","1","2","","","5241","56","2","4","lose","no-go","0"
"pit-trial","175","1112237","0.0-61.0","battery-v0.2","","""event"",""trial"",""time""
""fullscreenenter"",""1"",""3558""
","
","
","""event"",""trial"",""time""
""fullscreenenter"",""1"",""3558""
","
","","","-1","","","25","5241","472","s","elianto","#3366ff99","-1","-1","1","0","[]","0","2","","","5241","57","4","2","win","no-go","1"
"pit-trial","176","1117111","0.0-62.0","battery-v0.2","","""event"",""trial"",""time""
""fullscreenenter"",""1"",""3558""
","
","
","""event"",""trial"",""time""
""fullscreenenter"",""1"",""3558""
","
","","","-1","","","25","5241","472","j","elianto","#f73b6a7A","-1","-1","1","0","[]","0","2","","","5241","58","0","4","lose","no-go","0"
"pit-trial","177","1120614","0.0-63.0","battery-v0.2","","""event"",""trial"",""time""
""fullscreenenter"",""1"",""3558""
","
","
","""event"",""trial"",""time""
""fullscreenenter"",""1"",""3558""
","
","","","630","","","25","5241","472","w","elianto","#f73b6a7A"," "," ","1","0","[1491]","1","2","","","5241","59","3","3","lose","go","0"
"pit-trial","178","1124670","0.0-64.0","battery-v0.2","","""event"",""trial"",""time""
""fullscreenenter"",""1"",""3558""
","
","
","""event"",""trial"",""time""
""fullscreenenter"",""1"",""3558""
","
","","","1193","","","25","5241","472","d","elianto","#3366ff99"," "," ","1","0","[2051]","1","2","","","5241","60","1","1","win","go","1"
"pit-trial","179","1129538","0.0-65.0","battery-v0.2","","""event"",""trial"",""time""
""fullscreenenter"",""1"",""3558""
","
","
","""event"",""trial"",""time""
""fullscreenenter"",""1"",""3558""
","
","","","-1","","","25","5241","472","s","elianto","#3366ff99","-1","-1","1","+10","[]","0","2","","","5241","61","4","2","win","no-go","0"
"pit-trial","180","1133820","0.0-66.0","battery-v0.2","","""event"",""trial"",""time""
""fullscreenenter"",""1"",""3558""
","
","
","""event"",""trial"",""time""
""fullscreenenter"",""1"",""3558""
","
","","","1417","","","25","5241","472","d","elianto","#3366ff99"," "," ","1","+10","[2270]","1","2","","","5241","62","1","1","win","go","0"
"pit-trial","181","1137654","0.0-67.0","battery-v0.2","","""event"",""trial"",""time""
""fullscreenenter"",""1"",""3558""
","
","
","""event"",""trial"",""time""
""fullscreenenter"",""1"",""3558""
","
","","","958","","","25","5241","472","w","elianto","#f73b6a7A"," "," ","1","0","[1813]","1","2","","","5241","63","3","3","lose","go","0"
"pit-trial","182","1142528","0.0-68.0","battery-v0.2","","""event"",""trial"",""time""
""fullscreenenter"",""1"",""3558""
","
","
","""event"",""trial"",""time""
""fullscreenenter"",""1"",""3558""
","
","","","-1","","","25","5241","472","e","elianto","#f73b6a7A","-1","-1","1","-10","[]","0","2","","","5241","64","2","4","lose","no-go","1"
"pit-trial","183","1147399","0.0-69.0","battery-v0.2","","""event"",""trial"",""time""
""fullscreenenter"",""1"",""3558""
","
","
","""event"",""trial"",""time""
""fullscreenenter"",""1"",""3558""
","
","","","-1","","","25","5241","472","s","elianto","#3366ff99","-1","-1","1","+10","[]","0","2","","","5241","65","4","2","win","no-go","0"
"pit-trial","184","1151181","0.0-70.0","battery-v0.2","","""event"",""trial"",""time""
""fullscreenenter"",""1"",""3558""
","
","
","""event"",""trial"",""time""
""fullscreenenter"",""1"",""3558""
","
","","","910","","","25","5241","472","w","elianto","#f73b6a7A"," "," ","1","0","[1767]","1","2","","","5241","66","3","3","lose","go","0"
"pit-trial","185","1156054","0.0-71.0","battery-v0.2","","""event"",""trial"",""time""
""fullscreenenter"",""1"",""3558""
","
","
","""event"",""trial"",""time""
""fullscreenenter"",""1"",""3558""
","
","","","-1","","","25","5241","472","e","elianto","#f73b6a7A","-1","-1","1","0","[]","0","2","","","5241","67","2","4","lose","no-go","0"
"pit-trial","186","1159972","0.0-72.0","battery-v0.2","","""event"",""trial"",""time""
""fullscreenenter"",""1"",""3558""
","
","
","""event"",""trial"",""time""
""fullscreenenter"",""1"",""3558""
","
","","","1045","","","25","5241","472","d","elianto","#3366ff99"," "," ","1","+10","[1901]","1","2","","","5241","68","1","1","win","go","0"
"pit-trial","187","1163604","0.0-73.0","battery-v0.2","","""event"",""trial"",""time""
""fullscreenenter"",""1"",""3558""
","
","
","""event"",""trial"",""time""
""fullscreenenter"",""1"",""3558""
","
","","","769","","","25","5241","472","d","elianto","#3366ff99"," "," ","1","+10","[1625]","1","2","","","5241","69","1","1","win","go","0"
"pit-trial","188","1167172","0.0-74.0","battery-v0.2","","""event"",""trial"",""time""
""fullscreenenter"",""1"",""3558""
","
","
","""event"",""trial"",""time""
""fullscreenenter"",""1"",""3558""
","
","","","690","","","25","5241","472","w","elianto","#f73b6a7A"," "," ","1","0","[1553]","1","2","","","5241","70","3","3","lose","go","0"
"pit-trial","189","1172048","0.0-75.0","battery-v0.2","","""event"",""trial"",""time""
""fullscreenenter"",""1"",""3558""
","
","
","""event"",""trial"",""time""
""fullscreenenter"",""1"",""3558""
","
","","","-1","","","25","5241","472","s","elianto","#3366ff99","-1","-1","1","+10","[]","0","2","","","5241","71","4","2","win","no-go","0"
"pit-trial","190","1175904","0.0-76.0","battery-v0.2","","""event"",""trial"",""time""
""fullscreenenter"",""1"",""3558""
","
","
","""event"",""trial"",""time""
""fullscreenenter"",""1"",""3558""
","
","","","978","","","25","5241","472","p","elianto","#3366ff99"," "," ","1","+10","[1836]","1","2","","","5241","72","5","1","win","go","0"
"pit-trial","191","1179429","0.0-77.0","battery-v0.2","","""event"",""trial"",""time""
""fullscreenenter"",""1"",""3558""
","
","
","""event"",""trial"",""time""
""fullscreenenter"",""1"",""3558""
","
","","","662","","","25","5241","472","w","elianto","#f73b6a7A"," "," ","1","0","[1515]","1","2","","","5241","73","3","3","lose","go","0"
"pit-trial","192","1182890","0.0-78.0","battery-v0.2","","""event"",""trial"",""time""
""fullscreenenter"",""1"",""3558""
","
","
","""event"",""trial"",""time""
""fullscreenenter"",""1"",""3558""
","
","","","585","","","25","5241","472","p","elianto","#3366ff99"," "," ","1","+10","[1448]","1","2","","","5241","74","5","1","win","go","0"
"pit-trial","193","1186989","0.0-79.0","battery-v0.2","","""event"",""trial"",""time""
""fullscreenenter"",""1"",""3558""
","
","
","""event"",""trial"",""time""
""fullscreenenter"",""1"",""3558""
","
","","","1232","","","25","5241","472","d","elianto","#3366ff99"," "," ","1","+10","[2082]","1","2","","","5241","75","1","1","win","go","0"
"pit-trial","194","1191858","0.0-80.0","battery-v0.2","","""event"",""trial"",""time""
""fullscreenenter"",""1"",""3558""
","
","
","""event"",""trial"",""time""
""fullscreenenter"",""1"",""3558""
","
","","","-1","","","25","5241","472","s","elianto","#3366ff99","-1","-1","1","+10","[]","0","2","","","5241","76","4","2","win","no-go","0"
"pit-trial","195","1195486","0.0-81.0","battery-v0.2","","""event"",""trial"",""time""
""fullscreenenter"",""1"",""3558""
","
","
","""event"",""trial"",""time""
""fullscreenenter"",""1"",""3558""
","
","","","766","","","25","5241","472","p","elianto","#3366ff99"," "," ","1","+10","[1625]","1","2","","","5241","77","5","1","win","go","0"
"pit-trial","196","1199243","0.0-82.0","battery-v0.2","","""event"",""trial"",""time""
""fullscreenenter"",""1"",""3558""
","
","
","""event"",""trial"",""time""
""fullscreenenter"",""1"",""3558""
","
","","","882","","","25","5241","472","g","elianto","#f73b6a7A","-1"," ","0","-10","[1743]","1","2","","","5241","78","6","4","lose","no-go","0"
"pit-trial","197","1204128","0.0-83.0","battery-v0.2","","""event"",""trial"",""time""
""fullscreenenter"",""1"",""3558""
","
","
","""event"",""trial"",""time""
""fullscreenenter"",""1"",""3558""
","
","","","-1","","","25","5241","472","s","elianto","#3366ff99","-1","-1","1","0","[]","0","2","","","5241","79","4","2","win","no-go","1"
"pit-trial","198","1207712","0.0-84.0","battery-v0.2","","""event"",""trial"",""time""
""fullscreenenter"",""1"",""3558""
","
","
","""event"",""trial"",""time""
""fullscreenenter"",""1"",""3558""
","
","","","714","","","25","5241","472","w","elianto","#f73b6a7A"," "," ","1","-10","[1572]","1","2","","","5241","80","3","3","lose","go","1"
"pit-trial","199","1211448","0.0-85.0","battery-v0.2","","""event"",""trial"",""time""
""fullscreenenter"",""1"",""3558""
","
","
","""event"",""trial"",""time""
""fullscreenenter"",""1"",""3558""
","
","","","874","","","25","5241","472","a","elianto","#f73b6a7A"," "," ","1","0","[1729]","1","2","","","5241","81","7","3","lose","go","0"
"pit-trial","200","1215058","0.0-86.0","battery-v0.2","","""event"",""trial"",""time""
""fullscreenenter"",""1"",""3558""
","
","
","""event"",""trial"",""time""
""fullscreenenter"",""1"",""3558""
","
","","","733","","","25","5241","472","p","elianto","#3366ff99"," "," ","1","+10","[1597]","1","2","","","5241","82","5","1","win","go","0"
"pit-trial","201","1219938","0.0-87.0","battery-v0.2","","""event"",""trial"",""time""
""fullscreenenter"",""1"",""3558""
","
","
","""event"",""trial"",""time""
""fullscreenenter"",""1"",""3558""
","
","","","-1","","","25","5241","472","s","elianto","#3366ff99","-1","-1","1","+10","[]","0","2","","","5241","83","4","2","win","no-go","0"
"pit-trial","202","1223613","0.0-88.0","battery-v0.2","","""event"",""trial"",""time""
""fullscreenenter"",""1"",""3558""
","
","
","""event"",""trial"",""time""
""fullscreenenter"",""1"",""3558""
","
","","","799","","","25","5241","472","g","elianto","#f73b6a7A","-1"," ","0","0","[1660]","1","2","","","5241","84","6","4","lose","no-go","1"
"pit-trial","203","1227195","0.0-89.0","battery-v0.2","","""event"",""trial"",""time""
""fullscreenenter"",""1"",""3558""
","
","
","""event"",""trial"",""time""
""fullscreenenter"",""1"",""3558""
","
","","","705","","","25","5241","472","g","elianto","#f73b6a7A","-1"," ","0","-10","[1567]","1","2","","","5241","85","6","4","lose","no-go","0"
"pit-trial","204","1230843","0.0-90.0","battery-v0.2","","""event"",""trial"",""time""
""fullscreenenter"",""1"",""3558""
","
","
","""event"",""trial"",""time""
""fullscreenenter"",""1"",""3558""
","
","","","788","","","25","5241","472","p","elianto","#3366ff99"," "," ","1","+10","[1640]","1","2","","","5241","86","5","1","win","go","0"
"pit-trial","205","1234528","0.0-91.0","battery-v0.2","","""event"",""trial"",""time""
""fullscreenenter"",""1"",""3558""
","
","
","""event"",""trial"",""time""
""fullscreenenter"",""1"",""3558""
","
","","","813","","","25","5241","472","a","elianto","#f73b6a7A"," "," ","1","0","[1676]","1","2","","","5241","87","7","3","lose","go","0"
"pit-trial","206","1239399","0.0-92.0","battery-v0.2","","""event"",""trial"",""time""
""fullscreenenter"",""1"",""3558""
","
","
","""event"",""trial"",""time""
""fullscreenenter"",""1"",""3558""
","
","","","-1","","","25","5241","472","s","elianto","#3366ff99","-1","-1","1","+10","[]","0","2","","","5241","88","4","2","win","no-go","0"
"pit-trial","207","1243371","0.0-93.0","battery-v0.2","","""event"",""trial"",""time""
""fullscreenenter"",""1"",""3558""
","
","
","""event"",""trial"",""time""
""fullscreenenter"",""1"",""3558""
","
","","","1096","","","25","5241","472","a","elianto","#f73b6a7A"," "," ","1","0","[1957]","1","2","","","5241","89","7","3","lose","go","0"
"pit-trial","208","1247049","0.0-94.0","battery-v0.2","","""event"",""trial"",""time""
""fullscreenenter"",""1"",""3558""
","
","
","""event"",""trial"",""time""
""fullscreenenter"",""1"",""3558""
","
","","","800","","","25","5241","472","p","elianto","#3366ff99"," "," ","1","+10","[1661]","1","2","","","5241","90","5","1","win","go","0"
"pit-trial","209","1251918","0.0-95.0","battery-v0.2","","""event"",""trial"",""time""
""fullscreenenter"",""1"",""3558""
","
","
","""event"",""trial"",""time""
""fullscreenenter"",""1"",""3558""
","
","","","-1","","","25","5241","472","g","elianto","#f73b6a7A","-1","-1","1","0","[]","0","2","","","5241","91","6","4","lose","no-go","0"
"pit-trial","210","1256781","0.0-96.0","battery-v0.2","","""event"",""trial"",""time""
""fullscreenenter"",""1"",""3558""
","
","
","""event"",""trial"",""time""
""fullscreenenter"",""1"",""3558""
","
","","","-1","","","25","5241","472","s","elianto","#3366ff99","-1","-1","1","+10","[]","0","2","","","5241","92","4","2","win","no-go","0"
"pit-trial","211","1260586","0.0-97.0","battery-v0.2","","""event"",""trial"",""time""
""fullscreenenter"",""1"",""3558""
","
","
","""event"",""trial"",""time""
""fullscreenenter"",""1"",""3558""
","
","","","929","","","25","5241","472","a","elianto","#f73b6a7A"," "," ","1","0","[1787]","1","2","","","5241","93","7","3","lose","go","0"
"pit-trial","212","1264388","0.0-98.0","battery-v0.2","","""event"",""trial"",""time""
""fullscreenenter"",""1"",""3558""
","
","
","""event"",""trial"",""time""
""fullscreenenter"",""1"",""3558""
","
","","","932","","","25","5241","472","l","elianto","#3366ff99","-1"," ","0","0","[1786]","1","2","","","5241","94","8","2","win","no-go","0"
"pit-trial","213","1269244","0.0-99.0","battery-v0.2","","""event"",""trial"",""time""
""fullscreenenter"",""1"",""3558""
","
","
","""event"",""trial"",""time""
""fullscreenenter"",""1"",""3558""
","
","","","-1","","","25","5241","472","g","elianto","#f73b6a7A","-1","-1","1","0","[]","0","2","","","5241","95","6","4","lose","no-go","0"
"pit-trial","214","1272798","0.0-100.0","battery-v0.2","","""event"",""trial"",""time""
""fullscreenenter"",""1"",""3558""
","
","
","""event"",""trial"",""time""
""fullscreenenter"",""1"",""3558""
","
","","","679","","","25","5241","472","p","elianto","#3366ff99"," "," ","1","+10","[1543]","1","2","","","5241","96","5","1","win","go","0"
"pit-trial","215","1276607","0.0-101.0","battery-v0.2","","""event"",""trial"",""time""
""fullscreenenter"",""1"",""3558""
","
","
","""event"",""trial"",""time""
""fullscreenenter"",""1"",""3558""
","
","","","942","","","25","5241","472","l","elianto","#3366ff99","-1"," ","0","0","[1795]","1","2","","","5241","97","8","2","win","no-go","0"
"pit-trial","216","1280302","0.0-102.0","battery-v0.2","","""event"",""trial"",""time""
""fullscreenenter"",""1"",""3558""
","
","
","""event"",""trial"",""time""
""fullscreenenter"",""1"",""3558""
","
","","","828","","","25","5241","472","a","elianto","#f73b6a7A"," "," ","1","0","[1683]","1","2","","","5241","98","7","3","lose","go","0"
"pit-trial","217","1283998","0.0-103.0","battery-v0.2","","""event"",""trial"",""time""
""fullscreenenter"",""1"",""3558""
","
","
","""event"",""trial"",""time""
""fullscreenenter"",""1"",""3558""
","
","","","820","","","25","5241","472","p","elianto","#3366ff99"," "," ","1","+10","[1680]","1","2","","","5241","99","5","1","win","go","0"
"pit-trial","218","1288862","0.0-104.0","battery-v0.2","","""event"",""trial"",""time""
""fullscreenenter"",""1"",""3558""
","
","
","""event"",""trial"",""time""
""fullscreenenter"",""1"",""3558""
","
","","","-1","","","25","5241","472","g","elianto","#f73b6a7A","-1","-1","1","0","[]","0","2","","","5241","100","6","4","lose","no-go","0"
"pit-trial","219","1293740","0.0-105.0","battery-v0.2","","""event"",""trial"",""time""
""fullscreenenter"",""1"",""3558""
","
","
","""event"",""trial"",""time""
""fullscreenenter"",""1"",""3558""
","
","","","-1","","","25","5241","472","l","elianto","#3366ff99","-1","-1","1","+10","[]","0","2","","","5241","101","8","2","win","no-go","0"
"pit-trial","220","1298619","0.0-106.0","battery-v0.2","","""event"",""trial"",""time""
""fullscreenenter"",""1"",""3558""
","
","
","""event"",""trial"",""time""
""fullscreenenter"",""1"",""3558""
","
","","","-1","","","25","5241","472","g","elianto","#f73b6a7A","-1","-1","1","0","[]","0","2","","","5241","102","6","4","lose","no-go","0"
"pit-trial","221","1302375","0.0-107.0","battery-v0.2","","""event"",""trial"",""time""
""fullscreenenter"",""1"",""3558""
","
","
","""event"",""trial"",""time""
""fullscreenenter"",""1"",""3558""
","
","","","884","","","25","5241","472","u","elianto","#3366ff99","-1"," ","0","0","[1739]","1","2","","","5241","103","9","2","win","no-go","0"
"pit-trial","222","1306629","0.0-108.0","battery-v0.2","","""event"",""trial"",""time""
""fullscreenenter"",""1"",""3558""
","
","
","""event"",""trial"",""time""
""fullscreenenter"",""1"",""3558""
","
","","","1382","","","25","5241","472","p","elianto","#3366ff99"," "," ","1","+10","[2237]","1","2","","","5241","104","5","1","win","go","0"
"pit-trial","223","1310118","0.0-109.0","battery-v0.2","","""event"",""trial"",""time""
""fullscreenenter"",""1"",""3558""
","
","
","""event"",""trial"",""time""
""fullscreenenter"",""1"",""3558""
","
","","","613","","","25","5241","472","p","elianto","#3366ff99"," "," ","1","+10","[1472]","1","2","","","5241","105","5","1","win","go","0"
"pit-trial","224","1314993","0.0-110.0","battery-v0.2","","""event"",""trial"",""time""
""fullscreenenter"",""1"",""3558""
","
","
","""event"",""trial"",""time""
""fullscreenenter"",""1"",""3558""
","
","","","-1","","","25","5241","472","l","elianto","#3366ff99","-1","-1","1","0","[]","0","2","","","5241","106","8","2","win","no-go","1"
"pit-trial","225","1319317","0.0-111.0","battery-v0.2","","""event"",""trial"",""time""
""fullscreenenter"",""1"",""3558""
","
","
","""event"",""trial"",""time""
""fullscreenenter"",""1"",""3558""
","
","","","1453","","","25","5241","472","u","elianto","#3366ff99","-1"," ","0","0","[2314]","1","2","","","5241","107","9","2","win","no-go","0"
"pit-trial","226","1324186","0.0-112.0","battery-v0.2","","""event"",""trial"",""time""
""fullscreenenter"",""1"",""3558""
","
","
","""event"",""trial"",""time""
""fullscreenenter"",""1"",""3558""
","
","","","-1","","","25","5241","472","g","elianto","#f73b6a7A","-1","-1","1","0","[]","0","2","","","5241","108","6","4","lose","no-go","0"
"pit-trial","227","1329046","0.0-113.0","battery-v0.2","","""event"",""trial"",""time""
""fullscreenenter"",""1"",""3558""
","
","
","""event"",""trial"",""time""
""fullscreenenter"",""1"",""3558""
","
","","","-1","","","25","5241","472","u","elianto","#3366ff99","-1","-1","1","0","[]","0","2","","","5241","109","9","2","win","no-go","1"
"pit-trial","228","1332631","0.0-114.0","battery-v0.2","","""event"",""trial"",""time""
""fullscreenenter"",""1"",""3558""
","
","
","""event"",""trial"",""time""
""fullscreenenter"",""1"",""3558""
","
","","","713","","","25","5241","472","p","elianto","#3366ff99"," "," ","1","+10","[1573]","1","2","","","5241","110","5","1","win","go","0"
"pit-trial","229","1337506","0.0-115.0","battery-v0.2","","""event"",""trial"",""time""
""fullscreenenter"",""1"",""3558""
","
","
","""event"",""trial"",""time""
""fullscreenenter"",""1"",""3558""
","
","","","-1","","","25","5241","472","g","elianto","#f73b6a7A","-1","-1","1","0","[]","0","2","","","5241","111","6","4","lose","no-go","0"
"pit-trial","230","1342381","0.0-116.0","battery-v0.2","","""event"",""trial"",""time""
""fullscreenenter"",""1"",""3558""
","
","
","""event"",""trial"",""time""
""fullscreenenter"",""1"",""3558""
","
","","","-1","","","25","5241","472","l","elianto","#3366ff99","-1","-1","1","+10","[]","0","2","","","5241","112","8","2","win","no-go","0"
"pit-trial","231","1347258","0.0-117.0","battery-v0.2","","""event"",""trial"",""time""
""fullscreenenter"",""1"",""3558""
","
","
","""event"",""trial"",""time""
""fullscreenenter"",""1"",""3558""
","
","","","-1","","","25","5241","472","u","elianto","#3366ff99","-1","-1","1","+10","[]","0","2","","","5241","113","9","2","win","no-go","0"
"pit-trial","232","1352126","0.0-118.0","battery-v0.2","","""event"",""trial"",""time""
""fullscreenenter"",""1"",""3558""
","
","
","""event"",""trial"",""time""
""fullscreenenter"",""1"",""3558""
","
","","","-1","","","25","5241","472","l","elianto","#3366ff99","-1","-1","1","+10","[]","0","2","","","5241","114","8","2","win","no-go","0"
"pit-trial","233","1355628","0.0-119.0","battery-v0.2","","""event"",""trial"",""time""
""fullscreenenter"",""1"",""3558""
","
","
","""event"",""trial"",""time""
""fullscreenenter"",""1"",""3558""
","
","","","632","","","25","5241","472","p","elianto","#3366ff99"," "," ","1","+10","[1491]","1","2","","","5241","115","5","1","win","go","0"
"pit-trial","234","1359100","0.0-120.0","battery-v0.2","","""event"",""trial"",""time""
""fullscreenenter"",""1"",""3558""
","
","
","""event"",""trial"",""time""
""fullscreenenter"",""1"",""3558""
","
","","","608","","","25","5241","472","a","elianto","#f73b6a7A"," "," ","1","0","[1466]","1","2","","","5241","116","7","3","lose","go","0"
"pit-trial","235","1362718","0.0-121.0","battery-v0.2","","""event"",""trial"",""time""
""fullscreenenter"",""1"",""3558""
","
","
","""event"",""trial"",""time""
""fullscreenenter"",""1"",""3558""
","
","","","747","","","25","5241","472","p","elianto","#3366ff99"," "," ","1","+10","[1608]","1","2","","","5241","117","5","1","win","go","0"
"pit-trial","236","1367593","0.0-122.0","battery-v0.2","","""event"",""trial"",""time""
""fullscreenenter"",""1"",""3558""
","
","
","""event"",""trial"",""time""
""fullscreenenter"",""1"",""3558""
","
","","","-1","","","25","5241","472","u","elianto","#3366ff99","-1","-1","1","0","[]","0","2","","","5241","118","9","2","win","no-go","1"
"pit-trial","237","1372463","0.0-123.0","battery-v0.2","","""event"",""trial"",""time""
""fullscreenenter"",""1"",""3558""
","
","
","""event"",""trial"",""time""
""fullscreenenter"",""1"",""3558""
","
","","","-1","","","25","5241","472","l","elianto","#3366ff99","-1","-1","1","+10","[]","0","2","","","5241","119","8","2","win","no-go","0"
"pit-trial","238","1377344","0.0-124.0","battery-v0.2","","""event"",""trial"",""time""
""fullscreenenter"",""1"",""3558""
","
","
","""event"",""trial"",""time""
""fullscreenenter"",""1"",""3558""
","
","","","-1","","","25","5241","472","g","elianto","#f73b6a7A","-1","-1","1","0","[]","0","2","","","5241","120","6","4","lose","no-go","0"
"pit-trial","239","1380794","0.0-125.0","battery-v0.2","","""event"",""trial"",""time""
""fullscreenenter"",""1"",""3558""
","
","
","""event"",""trial"",""time""
""fullscreenenter"",""1"",""3558""
","
","","","568","","","25","5241","472","p","elianto","#3366ff99"," "," ","1","+10","[1431]","1","2","","","5241","121","5","1","win","go","0"
"pit-trial","240","1384440","0.0-126.0","battery-v0.2","","""event"",""trial"",""time""
""fullscreenenter"",""1"",""3558""
","
","
","""event"",""trial"",""time""
""fullscreenenter"",""1"",""3558""
","
","","","783","","","25","5241","472","a","elianto","#f73b6a7A"," "," ","1","0","[1639]","1","2","","","5241","122","7","3","lose","go","0"
"pit-trial","241","1389312","0.0-127.0","battery-v0.2","","""event"",""trial"",""time""
""fullscreenenter"",""1"",""3558""
","
","
","""event"",""trial"",""time""
""fullscreenenter"",""1"",""3558""
","
","","","-1","","","25","5241","472","l","elianto","#3366ff99","-1","-1","1","+10","[]","0","2","","","5241","123","8","2","win","no-go","0"
"pit-trial","242","1394179","0.0-128.0","battery-v0.2","","""event"",""trial"",""time""
""fullscreenenter"",""1"",""3558""
","
","
","""event"",""trial"",""time""
""fullscreenenter"",""1"",""3558""
","
","","","-1","","","25","5241","472","u","elianto","#3366ff99","-1","-1","1","+10","[]","0","2","","","5241","124","9","2","win","no-go","0"
"pit-trial","243","1399044","0.0-129.0","battery-v0.2","","""event"",""trial"",""time""
""fullscreenenter"",""1"",""3558""
","
","
","""event"",""trial"",""time""
""fullscreenenter"",""1"",""3558""
","
","","","-1","","","25","5241","472","g","elianto","#f73b6a7A","-1","-1","1","0","[]","0","2","","","5241","125","6","4","lose","no-go","0"
"pit-trial","244","1403908","0.0-130.0","battery-v0.2","","""event"",""trial"",""time""
""fullscreenenter"",""1"",""3558""
","
","
","""event"",""trial"",""time""
""fullscreenenter"",""1"",""3558""
","
","","","-1","","","25","5241","472","u","elianto","#3366ff99","-1","-1","1","0","[]","0","2","","","5241","126","9","2","win","no-go","1"
"pit-trial","245","1407476","0.0-131.0","battery-v0.2","","""event"",""trial"",""time""
""fullscreenenter"",""1"",""3558""
","
","
","""event"",""trial"",""time""
""fullscreenenter"",""1"",""3558""
","
","","","709","","","25","5241","472","a","elianto","#f73b6a7A"," "," ","1","-10","[1563]","1","2","","","5241","127","7","3","lose","go","1"
"pit-trial","246","1412353","0.0-132.0","battery-v0.2","","""event"",""trial"",""time""
""fullscreenenter"",""1"",""3558""
","
","
","""event"",""trial"",""time""
""fullscreenenter"",""1"",""3558""
","
","","","-1","","","25","5241","472","l","elianto","#3366ff99","-1","-1","1","+10","[]","0","2","","","5241","128","8","2","win","no-go","0"
"pit-trial","247","1417212","0.0-133.0","battery-v0.2","","""event"",""trial"",""time""
""fullscreenenter"",""1"",""3558""
","
","
","""event"",""trial"",""time""
""fullscreenenter"",""1"",""3558""
","
","","","-1","","","25","5241","472","g","elianto","#f73b6a7A","-1","-1","1","-10","[]","0","2","","","5241","129","6","4","lose","no-go","1"
"pit-trial","248","1420858","0.0-134.0","battery-v0.2","","""event"",""trial"",""time""
""fullscreenenter"",""1"",""3558""
","
","
","""event"",""trial"",""time""
""fullscreenenter"",""1"",""3558""
","
","","","770","","","25","5241","472","a","elianto","#f73b6a7A"," "," ","1","0","[1630]","1","2","","","5241","130","7","3","lose","go","0"
"pit-trial","249","1425725","0.0-135.0","battery-v0.2","","""event"",""trial"",""time""
""fullscreenenter"",""1"",""3558""
","
","
","""event"",""trial"",""time""
""fullscreenenter"",""1"",""3558""
","
","","","-1","","","25","5241","472","l","elianto","#3366ff99","-1","-1","1","+10","[]","0","2","","","5241","131","8","2","win","no-go","0"
"pit-trial","250","1430587","0.0-136.0","battery-v0.2","","""event"",""trial"",""time""
""fullscreenenter"",""1"",""3558""
","
","
","""event"",""trial"",""time""
""fullscreenenter"",""1"",""3558""
","
","","","-1","","","25","5241","472","u","elianto","#3366ff99","-1","-1","1","+10","[]","0","2","","","5241","132","9","2","win","no-go","0"
"pit-trial","251","1435468","0.0-137.0","battery-v0.2","","""event"",""trial"",""time""
""fullscreenenter"",""1"",""3558""
","
","
","""event"",""trial"",""time""
""fullscreenenter"",""1"",""3558""
","
","","","-1","","","25","5241","472","u","elianto","#3366ff99","-1","-1","1","+10","[]","0","2","","","5241","133","9","2","win","no-go","0"
"pit-trial","252","1440349","0.0-138.0","battery-v0.2","","""event"",""trial"",""time""
""fullscreenenter"",""1"",""3558""
","
","
","""event"",""trial"",""time""
""fullscreenenter"",""1"",""3558""
","
","","","-1","","","25","5241","472","g","elianto","#f73b6a7A","-1","-1","1","0","[]","0","2","","","5241","134","6","4","lose","no-go","0"
"pit-trial","253","1443934","0.0-139.0","battery-v0.2","","""event"",""trial"",""time""
""fullscreenenter"",""1"",""3558""
","
","
","""event"",""trial"",""time""
""fullscreenenter"",""1"",""3558""
","
","","","714","","","25","5241","472","a","elianto","#f73b6a7A"," "," ","1","0","[1574]","1","2","","","5241","135","7","3","lose","go","0"
"pit-trial","254","1448806","0.0-140.0","battery-v0.2","","""event"",""trial"",""time""
""fullscreenenter"",""1"",""3558""
","
","
","""event"",""trial"",""time""
""fullscreenenter"",""1"",""3558""
","
","","","-1","","","25","5241","472","l","elianto","#3366ff99","-1","-1","1","+10","[]","0","2","","","5241","136","8","2","win","no-go","0"
"pit-trial","255","1453666","0.0-141.0","battery-v0.2","","""event"",""trial"",""time""
""fullscreenenter"",""1"",""3558""
","
","
","""event"",""trial"",""time""
""fullscreenenter"",""1"",""3558""
","
","","","-1","","","25","5241","472","g","elianto","#f73b6a7A","-1","-1","1","0","[]","0","2","","","5241","137","6","4","lose","no-go","0"
"pit-trial","256","1458542","0.0-142.0","battery-v0.2","","""event"",""trial"",""time""
""fullscreenenter"",""1"",""3558""
","
","
","""event"",""trial"",""time""
""fullscreenenter"",""1"",""3558""
","
","","","-1","","","25","5241","472","l","elianto","#3366ff99","-1","-1","1","+10","[]","0","2","","","5241","138","8","2","win","no-go","0"
"pit-trial","257","1462088","0.0-143.0","battery-v0.2","","""event"",""trial"",""time""
""fullscreenenter"",""1"",""3558""
","
","
","""event"",""trial"",""time""
""fullscreenenter"",""1"",""3558""
","
","","","681","","","25","5241","472","a","elianto","#f73b6a7A"," "," ","1","-10","[1533]","1","2","","","5241","139","7","3","lose","go","1"
"pit-trial","258","1466952","0.0-144.0","battery-v0.2","","""event"",""trial"",""time""
""fullscreenenter"",""1"",""3558""
","
","
","""event"",""trial"",""time""
""fullscreenenter"",""1"",""3558""
","
","","","-1","","","25","5241","472","u","elianto","#3366ff99","-1","-1","1","+10","[]","0","2","","","5241","140","9","2","win","no-go","0"
"pit-instructions","259","1698904","0.0-145.0","battery-v0.2","","""event"",""trial"",""time""
""fullscreenenter"",""1"",""3558""
","
","
","""event"",""trial"",""time""
""fullscreenenter"",""1"",""3558""
","
","","[{""page_index"":0,""viewing_time"":222490},{""page_index"":1,""viewing_time"":9458}]","231949","","","","","","","","","","","","","","","","","","","","","","","",""
"pit-trial","260","1702518","0.0-146.0","battery-v0.2","","""event"",""trial"",""time""
""fullscreenenter"",""1"",""3558""
","
","
","""event"",""trial"",""time""
""fullscreenenter"",""1"",""3558""
","
","","","744","","","25","5241","472","y","elianto","#f73b6a7A"," "," ","1","0","[1595]","1","3","","","5241","141","2","3","lose","go","0"
"pit-trial","261","1705875","0.0-147.0","battery-v0.2","","""event"",""trial"",""time""
""fullscreenenter"",""1"",""3558""
","
","
","""event"",""trial"",""time""
""fullscreenenter"",""1"",""3558""
","
","","","489","","","25","5241","472","r","elianto","#3366ff99","-1"," ","0","0","[1347]","1","3","","","5241","142","1","2","win","no-go","0"
"pit-trial","262","1709258","0.0-148.0","battery-v0.2","","""event"",""trial"",""time""
""fullscreenenter"",""1"",""3558""
","
","
","""event"",""trial"",""time""
""fullscreenenter"",""1"",""3558""
","
","","","509","","","25","5241","472","h","elianto","#f73b6a7A","-1"," ","0","0","[1363]","1","3","","","5241","143","3","4","lose","no-go","1"
"pit-trial","263","1712599","0.0-149.0","battery-v0.2","","""event"",""trial"",""time""
""fullscreenenter"",""1"",""3558""
","
","
","""event"",""trial"",""time""
""fullscreenenter"",""1"",""3558""
","
","","","473","","","25","5241","472","m","elianto","#f73b6a7A"," "," ","1","0","[1333]","1","3","","","5241","144","0","3","lose","go","0"
"pit-trial","264","1716005","0.0-150.0","battery-v0.2","","""event"",""trial"",""time""
""fullscreenenter"",""1"",""3558""
","
","
","""event"",""trial"",""time""
""fullscreenenter"",""1"",""3558""
","
","","","533","","","25","5241","472","h","elianto","#f73b6a7A","-1"," ","0","-10","[1389]","1","3","","","5241","145","3","4","lose","no-go","0"
"pit-trial","265","1719453","0.0-151.0","battery-v0.2","","""event"",""trial"",""time""
""fullscreenenter"",""1"",""3558""
","
","
","""event"",""trial"",""time""
""fullscreenenter"",""1"",""3558""
","
","","","586","","","25","5241","472","r","elianto","#3366ff99","-1"," ","0","+10","[1442]","1","3","","","5241","146","1","2","win","no-go","1"
"pit-trial","266","1722768","0.0-152.0","battery-v0.2","","""event"",""trial"",""time""
""fullscreenenter"",""1"",""3558""
","
","
","""event"",""trial"",""time""
""fullscreenenter"",""1"",""3558""
","
","","","438","","","25","5241","472","y","elianto","#f73b6a7A"," "," ","1","0","[1298]","1","3","","","5241","147","2","3","lose","go","0"
"pit-trial","267","1726174","0.0-153.0","battery-v0.2","","""event"",""trial"",""time""
""fullscreenenter"",""1"",""3558""
","
","
","""event"",""trial"",""time""
""fullscreenenter"",""1"",""3558""
","
","","","543","","","25","5241","472","m","elianto","#f73b6a7A"," "," ","1","0","[1397]","1","3","","","5241","148","0","3","lose","go","0"
"pit-trial","268","1729594","0.0-154.0","battery-v0.2","","""event"",""trial"",""time""
""fullscreenenter"",""1"",""3558""
","
","
","""event"",""trial"",""time""
""fullscreenenter"",""1"",""3558""
","
","","","559","","","25","5241","472","y","elianto","#f73b6a7A"," "," ","1","0","[1413]","1","3","","","5241","149","2","3","lose","go","0"
"pit-trial","269","1732973","0.0-155.0","battery-v0.2","","""event"",""trial"",""time""
""fullscreenenter"",""1"",""3558""
","
","
","""event"",""trial"",""time""
""fullscreenenter"",""1"",""3558""
","
","","","511","","","25","5241","472","h","elianto","#f73b6a7A","-1"," ","0","-10","[1362]","1","3","","","5241","150","3","4","lose","no-go","0"
"pit-trial","270","1736268","0.0-156.0","battery-v0.2","","""event"",""trial"",""time""
""fullscreenenter"",""1"",""3558""
","
","
","""event"",""trial"",""time""
""fullscreenenter"",""1"",""3558""
","
","","","418","","","25","5241","472","r","elianto","#3366ff99","-1"," ","0","0","[1277]","1","3","","","5241","151","1","2","win","no-go","0"
"pit-trial","271","1739621","0.0-157.0","battery-v0.2","","""event"",""trial"",""time""
""fullscreenenter"",""1"",""3558""
","
","
","""event"",""trial"",""time""
""fullscreenenter"",""1"",""3558""
","
","","","473","","","25","5241","472","m","elianto","#f73b6a7A"," "," ","1","-10","[1334]","1","3","","","5241","152","0","3","lose","go","1"
"pit-trial","272","1742920","0.0-158.0","battery-v0.2","","""event"",""trial"",""time""
""fullscreenenter"",""1"",""3558""
","
","
","""event"",""trial"",""time""
""fullscreenenter"",""1"",""3558""
","
","","","425","","","25","5241","472","m","elianto","#f73b6a7A"," "," ","1","-10","[1290]","1","3","","","5241","153","0","3","lose","go","1"
"pit-trial","273","1746265","0.0-159.0","battery-v0.2","","""event"",""trial"",""time""
""fullscreenenter"",""1"",""3558""
","
","
","""event"",""trial"",""time""
""fullscreenenter"",""1"",""3558""
","
","","","462","","","25","5241","472","h","elianto","#f73b6a7A","-1"," ","0","0","[1326]","1","3","","","5241","154","3","4","lose","no-go","1"
"pit-trial","274","1749790","0.0-160.0","battery-v0.2","","""event"",""trial"",""time""
""fullscreenenter"",""1"",""3558""
","
","
","""event"",""trial"",""time""
""fullscreenenter"",""1"",""3558""
","
","","","645","","","25","5241","472","y","elianto","#f73b6a7A"," "," ","1","-10","[1505]","1","3","","","5241","155","2","3","lose","go","1"
"pit-trial","275","1754664","0.0-161.0","battery-v0.2","","""event"",""trial"",""time""
""fullscreenenter"",""1"",""3558""
","
","
","""event"",""trial"",""time""
""fullscreenenter"",""1"",""3558""
","
","","","-1","","","25","5241","472","r","elianto","#3366ff99","-1","-1","1","+10","[]","0","3","","","5241","156","1","2","win","no-go","0"
"pit-trial","276","1758189","0.0-162.0","battery-v0.2","","""event"",""trial"",""time""
""fullscreenenter"",""1"",""3558""
","
","
","""event"",""trial"",""time""
""fullscreenenter"",""1"",""3558""
","
","","","654","","","25","5241","472","m","elianto","#f73b6a7A"," "," ","1","0","[1519]","1","3","","","5241","157","0","3","lose","go","0"
"pit-trial","277","1763060","0.0-163.0","battery-v0.2","","""event"",""trial"",""time""
""fullscreenenter"",""1"",""3558""
","
","
","""event"",""trial"",""time""
""fullscreenenter"",""1"",""3558""
","
","","","-1","","","25","5241","472","r","elianto","#3366ff99","-1","-1","1","+10","[]","0","3","","","5241","158","1","2","win","no-go","0"
"pit-trial","278","1767105","0.0-164.0","battery-v0.2","","""event"",""trial"",""time""
""fullscreenenter"",""1"",""3558""
","
","
","""event"",""trial"",""time""
""fullscreenenter"",""1"",""3558""
","
","","","1165","","","25","5241","472","y","elianto","#f73b6a7A"," "," ","1","0","[2028]","1","3","","","5241","159","2","3","lose","go","0"
"pit-trial","279","1771972","0.0-165.0","battery-v0.2","","""event"",""trial"",""time""
""fullscreenenter"",""1"",""3558""
","
","
","""event"",""trial"",""time""
""fullscreenenter"",""1"",""3558""
","
","","","-1","","","25","5241","472","h","elianto","#f73b6a7A","-1","-1","1","0","[]","0","3","","","5241","160","3","4","lose","no-go","0"
