"trial_type","trial_index","time_elapsed","internal_node_id","task_version","subject_id","interactions","blur_events","focus_events","fullscreenenter_events","fullscreenexit_events","success","view_history","rt","responses","num_errors","age","subject","participantId","rune","rune_set","hex","correct","choice","accuracy","outcome","keys","total_keys","block","practice","value","sub","trial","stimulus","robot","valence","action","sham"
"pavlovia","0","7","0.0-0.0","battery-v0.2","","""event"",""trial"",""time""
""fullscreenenter"",""1"",""1670""
","
","
","""event"",""trial"",""time""
""fullscreenenter"",""1"",""1670""
","
","","","","","","","","","","","","","","","","","","","","","","","","","","",""
"fullscreen","1","2661","0.0-1.0","battery-v0.2","","""event"",""trial"",""time""
""fullscreenenter"",""1"",""1670""
","
","
","""event"",""trial"",""time""
""fullscreenenter"",""1"",""1670""
","
","true","","","","","","","","","","","","","","","","","","","","","","","","","",""
"pit-instructions","2","13201","0.0-2.0-0.0","battery-v0.2","","""event"",""trial"",""time""
""fullscreenenter"",""1"",""1670""
","
","
","""event"",""trial"",""time""
""fullscreenenter"",""1"",""1670""
","
","","[{""page_index"":0,""viewing_time"":10535.400000000373}]","10536","","","","","","","","","","","","","","","","","","","","","","","",""
"pit-comprehension","3","20580","0.0-2.0-1.0-0.0","battery-v0.2","","""event"",""trial"",""time""
""fullscreenenter"",""1"",""1670""
","
","
","""event"",""trial"",""time""
""fullscreenenter"",""1"",""1670""
","
","","","7376.0999999996275","[""shark""]","0","11","3758","917","","","","","","","","","","","","","","","","","","",""
"pit-instructions","4","22166","0.0-2.0-1.0-1.0","battery-v0.2","","""event"",""trial"",""time""
""fullscreenenter"",""1"",""1670""
""fullscreenexit"",""5"",""26393""
""blur"",""5"",""27979""
""focus"",""5"",""38761""
","""event"",""trial"",""time""
""blur"",""5"",""27979""
","""event"",""trial"",""time""
""focus"",""5"",""38761""
","""event"",""trial"",""time""
""fullscreenenter"",""1"",""1670""
","""event"",""trial"",""time""
""fullscreenexit"",""5"",""26393""
","","[{""page_index"":0,""viewing_time"":1576.3999999985099}]","1576.7999999988824","","","","","","","","","","","","","","","","","","","","","","","",""
"pit-comprehension","5","43934","0.0-2.0-2.0-0.0","battery-v0.2","","""event"",""trial"",""time""
""fullscreenenter"",""1"",""1670""
""fullscreenexit"",""5"",""26393""
""blur"",""5"",""27979""
""focus"",""5"",""38761""
","""event"",""trial"",""time""
""blur"",""5"",""27979""
","""event"",""trial"",""time""
""focus"",""5"",""38761""
","""event"",""trial"",""time""
""fullscreenenter"",""1"",""1670""
","""event"",""trial"",""time""
""fullscreenexit"",""5"",""26393""
","","","21766","[""tiger""]","0","11","3758","917","","","","","","","","","","","","","","","","","","",""
"pit-instructions","6","45398","0.0-2.0-2.0-1.0","battery-v0.2","","""event"",""trial"",""time""
""fullscreenenter"",""1"",""1670""
""fullscreenexit"",""5"",""26393""
""blur"",""5"",""27979""
""focus"",""5"",""38761""
","""event"",""trial"",""time""
""blur"",""5"",""27979""
","""event"",""trial"",""time""
""focus"",""5"",""38761""
","""event"",""trial"",""time""
""fullscreenenter"",""1"",""1670""
","""event"",""trial"",""time""
""fullscreenexit"",""5"",""26393""
","","[{""page_index"":0,""viewing_time"":1459.300000000745}]","1459.7000000011176","","","","","","","","","","","","","","","","","","","","","","","",""
"pit-instructions","7","155987","0.0-2.0-3.0","battery-v0.2","","""event"",""trial"",""time""
""fullscreenenter"",""1"",""1670""
""fullscreenexit"",""5"",""26393""
""blur"",""5"",""27979""
""focus"",""5"",""38761""
","""event"",""trial"",""time""
""blur"",""5"",""27979""
","""event"",""trial"",""time""
""focus"",""5"",""38761""
","""event"",""trial"",""time""
""fullscreenenter"",""1"",""1670""
","""event"",""trial"",""time""
""fullscreenexit"",""5"",""26393""
","","[{""page_index"":0,""viewing_time"":13735.599999999627},{""page_index"":1,""viewing_time"":9752.900000000373},{""page_index"":2,""viewing_time"":8941.39999999851},{""page_index"":3,""viewing_time"":5443.700000001118},{""page_index"":4,""viewing_time"":5898.5999999996275},{""page_index"":5,""viewing_time"":7356.5999999996275},{""page_index"":6,""viewing_time"":8226},{""page_index"":7,""viewing_time"":6844.5999999996275},{""page_index"":8,""viewing_time"":6603.10000000149},{""page_index"":9,""viewing_time"":8352.39999999851},{""page_index"":10,""viewing_time"":8766.10000000149},{""page_index"":11,""viewing_time"":7712.299999998882},{""page_index"":12,""viewing_time"":7611.4000000003725},{""page_index"":13,""viewing_time"":5341.5}]","110586.79999999888","","","","","","","","","","","","","","","","","","","","","","","",""
"pit-trial","8","159464","0.0-2.0-4.0-0.0","battery-v0.2","","""event"",""trial"",""time""
""fullscreenenter"",""1"",""1670""
""fullscreenexit"",""5"",""26393""
""blur"",""5"",""27979""
""focus"",""5"",""38761""
","""event"",""trial"",""time""
""blur"",""5"",""27979""
","""event"",""trial"",""time""
""focus"",""5"",""38761""
","""event"",""trial"",""time""
""fullscreenenter"",""1"",""1670""
","""event"",""trial"",""time""
""fullscreenexit"",""5"",""26393""
","","","606","","","11","3758","917","&#9784;","elianto","#FFFFF080"," "," ","1","&#10004","[1456.199999999255]","1","0","0","","","","","","","",""
"pit-trial","9","163057","0.0-2.0-4.1-0.1","battery-v0.2","","""event"",""trial"",""time""
""fullscreenenter"",""1"",""1670""
""fullscreenexit"",""5"",""26393""
""blur"",""5"",""27979""
""focus"",""5"",""38761""
","""event"",""trial"",""time""
""blur"",""5"",""27979""
","""event"",""trial"",""time""
""focus"",""5"",""38761""
","""event"",""trial"",""time""
""fullscreenenter"",""1"",""1670""
","""event"",""trial"",""time""
""fullscreenexit"",""5"",""26393""
","","","728","","","11","3758","917","&#9784;","elianto","#FFFFF080"," "," ","1","&#10004","[1579.800000000745]","1","0","0","","","","","","","",""
"pit-trial","10","166573","0.0-2.0-4.2-0.2","battery-v0.2","","""event"",""trial"",""time""
""fullscreenenter"",""1"",""1670""
""fullscreenexit"",""5"",""26393""
""blur"",""5"",""27979""
""focus"",""5"",""38761""
","""event"",""trial"",""time""
""blur"",""5"",""27979""
","""event"",""trial"",""time""
""focus"",""5"",""38761""
","""event"",""trial"",""time""
""fullscreenenter"",""1"",""1670""
","""event"",""trial"",""time""
""fullscreenexit"",""5"",""26393""
","","","644.4000000003725","","","11","3758","917","&#9784;","elianto","#FFFFF080"," "," ","1","&#10004","[1494.9000000003725]","1","0","0","","","","","","","",""
"pit-trial","11","170033","0.0-2.0-4.3-0.3","battery-v0.2","","""event"",""trial"",""time""
""fullscreenenter"",""1"",""1670""
""fullscreenexit"",""5"",""26393""
""blur"",""5"",""27979""
""focus"",""5"",""38761""
","""event"",""trial"",""time""
""blur"",""5"",""27979""
","""event"",""trial"",""time""
""focus"",""5"",""38761""
","""event"",""trial"",""time""
""fullscreenenter"",""1"",""1670""
","""event"",""trial"",""time""
""fullscreenexit"",""5"",""26393""
","","","602.7000000011176","","","11","3758","917","&#9784;","elianto","#FFFFF080"," "," ","1","&#10004","[1453.0999999996275]","1","0","0","","","","","","","",""
"pit-trial","12","173542","0.0-2.0-4.4-0.4","battery-v0.2","","""event"",""trial"",""time""
""fullscreenenter"",""1"",""1670""
""fullscreenexit"",""5"",""26393""
""blur"",""5"",""27979""
""focus"",""5"",""38761""
","""event"",""trial"",""time""
""blur"",""5"",""27979""
","""event"",""trial"",""time""
""focus"",""5"",""38761""
","""event"",""trial"",""time""
""fullscreenenter"",""1"",""1670""
","""event"",""trial"",""time""
""fullscreenexit"",""5"",""26393""
","","","643.5999999996275","","","11","3758","917","&#9784;","elianto","#FFFFF080"," "," ","1","&#10004","[1495.5]","1","0","0","","","","","","","",""
"pit-instructions","13","200994","0.0-2.0-5.0","battery-v0.2","","""event"",""trial"",""time""
""fullscreenenter"",""1"",""1670""
""fullscreenexit"",""5"",""26393""
""blur"",""5"",""27979""
""focus"",""5"",""38761""
","""event"",""trial"",""time""
""blur"",""5"",""27979""
","""event"",""trial"",""time""
""focus"",""5"",""38761""
","""event"",""trial"",""time""
""fullscreenenter"",""1"",""1670""
","""event"",""trial"",""time""
""fullscreenexit"",""5"",""26393""
","","[{""page_index"":0,""viewing_time"":8204.400000000373},{""page_index"":1,""viewing_time"":6418.5999999996275},{""page_index"":2,""viewing_time"":5452.0999999996275},{""page_index"":3,""viewing_time"":7374.300000000745}]","27450","","","","","","","","","","","","","","","","","","","","","","","",""
"pit-trial","14","205873","0.0-2.0-6.0-0.0","battery-v0.2","","""event"",""trial"",""time""
""fullscreenenter"",""1"",""1670""
""fullscreenexit"",""5"",""26393""
""blur"",""5"",""27979""
""focus"",""5"",""38761""
","""event"",""trial"",""time""
""blur"",""5"",""27979""
","""event"",""trial"",""time""
""focus"",""5"",""38761""
","""event"",""trial"",""time""
""fullscreenenter"",""1"",""1670""
","""event"",""trial"",""time""
""fullscreenexit"",""5"",""26393""
","","","-1","","","11","3758","917","&#9854;","elianto","#FFFFF080","-1","-1","1","&#10004","[]","0","0","1","","","","","","","",""
"pit-trial","15","210754","0.0-2.0-6.1-0.1","battery-v0.2","","""event"",""trial"",""time""
""fullscreenenter"",""1"",""1670""
""fullscreenexit"",""5"",""26393""
""blur"",""5"",""27979""
""focus"",""5"",""38761""
","""event"",""trial"",""time""
""blur"",""5"",""27979""
","""event"",""trial"",""time""
""focus"",""5"",""38761""
","""event"",""trial"",""time""
""fullscreenenter"",""1"",""1670""
","""event"",""trial"",""time""
""fullscreenexit"",""5"",""26393""
","","","-1","","","11","3758","917","&#9854;","elianto","#FFFFF080","-1","-1","1","&#10004","[]","0","0","1","","","","","","","",""
"pit-trial","16","215627","0.0-2.0-6.2-0.2","battery-v0.2","","""event"",""trial"",""time""
""fullscreenenter"",""1"",""1670""
""fullscreenexit"",""5"",""26393""
""blur"",""5"",""27979""
""focus"",""5"",""38761""
","""event"",""trial"",""time""
""blur"",""5"",""27979""
","""event"",""trial"",""time""
""focus"",""5"",""38761""
","""event"",""trial"",""time""
""fullscreenenter"",""1"",""1670""
","""event"",""trial"",""time""
""fullscreenexit"",""5"",""26393""
","","","-1","","","11","3758","917","&#9854;","elianto","#FFFFF080","-1","-1","1","&#10004","[]","0","0","1","","","","","","","",""
"pit-trial","17","220505","0.0-2.0-6.3-0.3","battery-v0.2","","""event"",""trial"",""time""
""fullscreenenter"",""1"",""1670""
""fullscreenexit"",""5"",""26393""
""blur"",""5"",""27979""
""focus"",""5"",""38761""
","""event"",""trial"",""time""
""blur"",""5"",""27979""
","""event"",""trial"",""time""
""focus"",""5"",""38761""
","""event"",""trial"",""time""
""fullscreenenter"",""1"",""1670""
","""event"",""trial"",""time""
""fullscreenexit"",""5"",""26393""
","","","-1","","","11","3758","917","&#9854;","elianto","#FFFFF080","-1","-1","1","&#10004","[]","0","0","1","","","","","","","",""
"pit-trial","18","225375","0.0-2.0-6.4-0.4","battery-v0.2","","""event"",""trial"",""time""
""fullscreenenter"",""1"",""1670""
""fullscreenexit"",""5"",""26393""
""blur"",""5"",""27979""
""focus"",""5"",""38761""
","""event"",""trial"",""time""
""blur"",""5"",""27979""
","""event"",""trial"",""time""
""focus"",""5"",""38761""
","""event"",""trial"",""time""
""fullscreenenter"",""1"",""1670""
","""event"",""trial"",""time""
""fullscreenexit"",""5"",""26393""
","","","-1","","","11","3758","917","&#9854;","elianto","#FFFFF080","-1","-1","1","&#10004","[]","0","0","1","","","","","","","",""
"pit-instructions","19","347861","0.0-2.0-7.0","battery-v0.2","","""event"",""trial"",""time""
""fullscreenenter"",""1"",""1670""
""fullscreenexit"",""5"",""26393""
""blur"",""5"",""27979""
""focus"",""5"",""38761""
","""event"",""trial"",""time""
""blur"",""5"",""27979""
","""event"",""trial"",""time""
""focus"",""5"",""38761""
","""event"",""trial"",""time""
""fullscreenenter"",""1"",""1670""
","""event"",""trial"",""time""
""fullscreenexit"",""5"",""26393""
","","[{""page_index"":0,""viewing_time"":7934.9000000003725},{""page_index"":1,""viewing_time"":7425.39999999851},{""page_index"":2,""viewing_time"":6339.200000001118},{""page_index"":3,""viewing_time"":6066.699999999255},{""page_index"":4,""viewing_time"":5768.5999999996275},{""page_index"":5,""viewing_time"":5864.800000000745},{""page_index"":6,""viewing_time"":4813.5},{""page_index"":7,""viewing_time"":8069.5999999996275},{""page_index"":8,""viewing_time"":7067.0999999996275},{""page_index"":9,""viewing_time"":6482.700000001118},{""page_index"":10,""viewing_time"":6933.799999998882},{""page_index"":11,""viewing_time"":4491},{""page_index"":12,""viewing_time"":7590},{""page_index"":13,""viewing_time"":8086.800000000745},{""page_index"":14,""viewing_time"":7732.9000000003725},{""page_index"":15,""viewing_time"":7237.4000000003725},{""page_index"":16,""viewing_time"":6785.89999999851},{""page_index"":17,""viewing_time"":7793.300000000745}]","122484.09999999963","","","","","","","","","","","","","","","","","","","","","","","",""
"pit-trial","20","351345","0.0-2.0-8.0-0.0","battery-v0.2","","""event"",""trial"",""time""
""fullscreenenter"",""1"",""1670""
""fullscreenexit"",""5"",""26393""
""blur"",""5"",""27979""
""focus"",""5"",""38761""
","""event"",""trial"",""time""
""blur"",""5"",""27979""
","""event"",""trial"",""time""
""focus"",""5"",""38761""
","""event"",""trial"",""time""
""fullscreenenter"",""1"",""1670""
","""event"",""trial"",""time""
""fullscreenexit"",""5"",""26393""
","","","617.7000000011176","","","11","3758","917","&#9776;","elianto","#3366ff99"," "," ","1","+10","[1473.0999999996275]","1","0","1","","","","","","","",""
"pit-trial","21","354252","0.0-2.0-8.0-1.0","battery-v0.2","","""event"",""trial"",""time""
""fullscreenenter"",""1"",""1670""
""fullscreenexit"",""5"",""26393""
""blur"",""5"",""27979""
""focus"",""5"",""38761""
","""event"",""trial"",""time""
""blur"",""5"",""27979""
","""event"",""trial"",""time""
""focus"",""5"",""38761""
","""event"",""trial"",""time""
""fullscreenenter"",""1"",""1670""
","""event"",""trial"",""time""
""fullscreenexit"",""5"",""26393""
","","","45.899999998509884","","","11","3758","917","&#9776;","elianto","#3366ff99"," "," ","1","+10","[896.8999999985099]","1","0","1","","","","","","","",""
"pit-trial","22","358216","0.0-2.0-8.0-2.0","battery-v0.2","","""event"",""trial"",""time""
""fullscreenenter"",""1"",""1670""
""fullscreenexit"",""5"",""26393""
""blur"",""5"",""27979""
""focus"",""5"",""38761""
","""event"",""trial"",""time""
""blur"",""5"",""27979""
","""event"",""trial"",""time""
""focus"",""5"",""38761""
","""event"",""trial"",""time""
""fullscreenenter"",""1"",""1670""
","""event"",""trial"",""time""
""fullscreenexit"",""5"",""26393""
","","","1094.2999999988824","","","11","3758","917","&#9776;","elianto","#3366ff99"," "," ","1","+10","[836.7999999988824,1945.5999999996275]","2","0","1","","","","","","","",""
"pit-trial","23","361233","0.0-2.0-8.0-3.0","battery-v0.2","","""event"",""trial"",""time""
""fullscreenenter"",""1"",""1670""
""fullscreenexit"",""5"",""26393""
""blur"",""5"",""27979""
""focus"",""5"",""38761""
","""event"",""trial"",""time""
""blur"",""5"",""27979""
","""event"",""trial"",""time""
""focus"",""5"",""38761""
","""event"",""trial"",""time""
""fullscreenenter"",""1"",""1670""
","""event"",""trial"",""time""
""fullscreenexit"",""5"",""26393""
","","","147.5","","","11","3758","917","&#9776;","elianto","#3366ff99"," "," ","1","0","[999.4000000003725]","1","0","1","","","","","","","",""
"pit-trial","24","364227","0.0-2.0-8.0-4.0","battery-v0.2","","""event"",""trial"",""time""
""fullscreenenter"",""1"",""1670""
""fullscreenexit"",""5"",""26393""
""blur"",""5"",""27979""
""focus"",""5"",""38761""
","""event"",""trial"",""time""
""blur"",""5"",""27979""
","""event"",""trial"",""time""
""focus"",""5"",""38761""
","""event"",""trial"",""time""
""fullscreenenter"",""1"",""1670""
","""event"",""trial"",""time""
""fullscreenexit"",""5"",""26393""
","","","122.5","","","11","3758","917","&#9776;","elianto","#3366ff99"," "," ","1","+10","[974.4000000003725]","1","0","1","","","","","","","",""
"pit-trial","25","367126","0.0-2.0-8.1-0.1","battery-v0.2","","""event"",""trial"",""time""
""fullscreenenter"",""1"",""1670""
""fullscreenexit"",""5"",""26393""
""blur"",""5"",""27979""
""focus"",""5"",""38761""
","""event"",""trial"",""time""
""blur"",""5"",""27979""
","""event"",""trial"",""time""
""focus"",""5"",""38761""
","""event"",""trial"",""time""
""fullscreenenter"",""1"",""1670""
","""event"",""trial"",""time""
""fullscreenexit"",""5"",""26393""
","","","32.5","","","11","3758","917","&#9776;","elianto","#3366ff99"," "," ","1","+10","[888.9000000003725]","1","0","1","","","","","","","",""
"pit-trial","26","370154","0.0-2.0-8.1-1.1","battery-v0.2","","""event"",""trial"",""time""
""fullscreenenter"",""1"",""1670""
""fullscreenexit"",""5"",""26393""
""blur"",""5"",""27979""
""focus"",""5"",""38761""
","""event"",""trial"",""time""
""blur"",""5"",""27979""
","""event"",""trial"",""time""
""focus"",""5"",""38761""
","""event"",""trial"",""time""
""fullscreenenter"",""1"",""1670""
","""event"",""trial"",""time""
""fullscreenexit"",""5"",""26393""
","","","154.30000000074506","","","11","3758","917","&#9776;","elianto","#3366ff99"," "," ","1","+10","[1007.5999999996275]","1","0","1","","","","","","","",""
"pit-trial","27","373095","0.0-2.0-8.1-2.1","battery-v0.2","","""event"",""trial"",""time""
""fullscreenenter"",""1"",""1670""
""fullscreenexit"",""5"",""26393""
""blur"",""5"",""27979""
""focus"",""5"",""38761""
","""event"",""trial"",""time""
""blur"",""5"",""27979""
","""event"",""trial"",""time""
""focus"",""5"",""38761""
","""event"",""trial"",""time""
""fullscreenenter"",""1"",""1670""
","""event"",""trial"",""time""
""fullscreenexit"",""5"",""26393""
","","","73.80000000074506","","","11","3758","917","&#9776;","elianto","#3366ff99"," "," ","1","+10","[924.6000000014901]","1","0","1","","","","","","","",""
"pit-trial","28","376025","0.0-2.0-8.1-3.1","battery-v0.2","","""event"",""trial"",""time""
""fullscreenenter"",""1"",""1670""
""fullscreenexit"",""5"",""26393""
""blur"",""5"",""27979""
""focus"",""5"",""38761""
","""event"",""trial"",""time""
""blur"",""5"",""27979""
","""event"",""trial"",""time""
""focus"",""5"",""38761""
","""event"",""trial"",""time""
""fullscreenenter"",""1"",""1670""
","""event"",""trial"",""time""
""fullscreenexit"",""5"",""26393""
","","","57.5","","","11","3758","917","&#9776;","elianto","#3366ff99"," "," ","1","0","[910.8000000007451]","1","0","1","","","","","","","",""
"pit-trial","29","379143","0.0-2.0-8.1-4.1","battery-v0.2","","""event"",""trial"",""time""
""fullscreenenter"",""1"",""1670""
""fullscreenexit"",""5"",""26393""
""blur"",""5"",""27979""
""focus"",""5"",""38761""
","""event"",""trial"",""time""
""blur"",""5"",""27979""
","""event"",""trial"",""time""
""focus"",""5"",""38761""
","""event"",""trial"",""time""
""fullscreenenter"",""1"",""1670""
","""event"",""trial"",""time""
""fullscreenexit"",""5"",""26393""
","","","255.09999999962747","","","11","3758","917","&#9776;","elianto","#3366ff99"," "," ","1","+10","[717.3000000007451,1107.2000000011176]","2","0","1","","","","","","","",""
"pit-trial","30","382094","0.0-2.0-8.2-0.2","battery-v0.2","","""event"",""trial"",""time""
""fullscreenenter"",""1"",""1670""
""fullscreenexit"",""5"",""26393""
""blur"",""5"",""27979""
""focus"",""5"",""38761""
","""event"",""trial"",""time""
""blur"",""5"",""27979""
","""event"",""trial"",""time""
""focus"",""5"",""38761""
","""event"",""trial"",""time""
""fullscreenenter"",""1"",""1670""
","""event"",""trial"",""time""
""fullscreenexit"",""5"",""26393""
","","","94.90000000037253","","","11","3758","917","&#9776;","elianto","#3366ff99"," "," ","1","+10","[755.9000000003725,948.4000000003725,1116.800000000745,1301.2000000011176,1489,1639.5,1833.4000000003725,2029.7000000011176,2186.9000000003725,2419.2000000011176,2641,2929.7000000011176]","12","0","1","","","","","","","",""
"pit-trial","31","385110","0.0-2.0-8.2-1.2","battery-v0.2","","""event"",""trial"",""time""
""fullscreenenter"",""1"",""1670""
""fullscreenexit"",""5"",""26393""
""blur"",""5"",""27979""
""focus"",""5"",""38761""
","""event"",""trial"",""time""
""blur"",""5"",""27979""
","""event"",""trial"",""time""
""focus"",""5"",""38761""
","""event"",""trial"",""time""
""fullscreenenter"",""1"",""1670""
","""event"",""trial"",""time""
""fullscreenexit"",""5"",""26393""
","","","154.19999999925494","","","11","3758","917","&#9776;","elianto","#3366ff99"," "," ","1","+10","[178,361.59999999962747,594.8000000007451,788.5999999996275,1009,1220.300000000745,1420.2000000011176,1678.800000000745,1876.800000000745,2301.300000000745,2551,2790]","12","0","1","","","","","","","",""
"pit-trial","32","388028","0.0-2.0-8.2-2.2","battery-v0.2","","""event"",""trial"",""time""
""fullscreenenter"",""1"",""1670""
""fullscreenexit"",""5"",""26393""
""blur"",""5"",""27979""
""focus"",""5"",""38761""
","""event"",""trial"",""time""
""blur"",""5"",""27979""
","""event"",""trial"",""time""
""focus"",""5"",""38761""
","""event"",""trial"",""time""
""fullscreenenter"",""1"",""1670""
","""event"",""trial"",""time""
""fullscreenexit"",""5"",""26393""
","","","52.5","","","11","3758","917","&#9776;","elianto","#3366ff99"," "," ","1","+10","[57.30000000074506,291.40000000037253,516.6999999992549,730.5,907.6999999992549,1141,1256.5,1496.300000000745,1721.5,2219.5,2440.9000000003725]","11","0","1","","","","","","","",""
"pit-trial","33","391071","0.0-2.0-8.2-3.2","battery-v0.2","","""event"",""trial"",""time""
""fullscreenenter"",""1"",""1670""
""fullscreenexit"",""5"",""26393""
""blur"",""5"",""27979""
""focus"",""5"",""38761""
","""event"",""trial"",""time""
""blur"",""5"",""27979""
","""event"",""trial"",""time""
""focus"",""5"",""38761""
","""event"",""trial"",""time""
""fullscreenenter"",""1"",""1670""
","""event"",""trial"",""time""
""fullscreenexit"",""5"",""26393""
","","","178.09999999962747","","","11","3758","917","&#9776;","elianto","#3366ff99"," "," ","1","0","[80.29999999888241,347,596.1999999992549,832,1035.199999999255,1242.2999999988824,1469.5999999996275,1894.7999999988824,2147.0999999996275,2396.7999999988824,2682.0999999996275,2890.0999999996275]","12","0","1","","","","","","","",""
"pit-trial","34","394161","0.0-2.0-8.2-4.2","battery-v0.2","","""event"",""trial"",""time""
""fullscreenenter"",""1"",""1670""
""fullscreenexit"",""5"",""26393""
""blur"",""5"",""27979""
""focus"",""5"",""38761""
","""event"",""trial"",""time""
""blur"",""5"",""27979""
","""event"",""trial"",""time""
""focus"",""5"",""38761""
","""event"",""trial"",""time""
""fullscreenenter"",""1"",""1670""
","""event"",""trial"",""time""
""fullscreenexit"",""5"",""26393""
","","","235.2000000011176","","","11","3758","917","&#9776;","elianto","#3366ff99"," "," ","1","+10","[126.90000000037253,355.2000000011176,585,818.9000000003725,1085.800000000745,1322.4000000003725,1735.5,1965.7000000011176,2393.4000000003725]","9","0","1","","","","","","","",""
"call-function","35","394163","0.0-2.0-9.0","battery-v0.2","","""event"",""trial"",""time""
""fullscreenenter"",""1"",""1670""
""fullscreenexit"",""5"",""26393""
""blur"",""5"",""27979""
""focus"",""5"",""38761""
","""event"",""trial"",""time""
""blur"",""5"",""27979""
","""event"",""trial"",""time""
""focus"",""5"",""38761""
","""event"",""trial"",""time""
""fullscreenenter"",""1"",""1670""
","""event"",""trial"",""time""
""fullscreenexit"",""5"",""26393""
","","","","","","","","","","","","","","","","","","","","","","","","","","",""
"pit-instructions","36","438918","0.0-2.0-10.0","battery-v0.2","","""event"",""trial"",""time""
""fullscreenenter"",""1"",""1670""
""fullscreenexit"",""5"",""26393""
""blur"",""5"",""27979""
""focus"",""5"",""38761""
","""event"",""trial"",""time""
""blur"",""5"",""27979""
","""event"",""trial"",""time""
""focus"",""5"",""38761""
","""event"",""trial"",""time""
""fullscreenenter"",""1"",""1670""
","""event"",""trial"",""time""
""fullscreenexit"",""5"",""26393""
","","[{""page_index"":0,""viewing_time"":8992.800000000745},{""page_index"":1,""viewing_time"":7492.0999999996275},{""page_index"":2,""viewing_time"":10567.599999999627},{""page_index"":3,""viewing_time"":9947.800000000745},{""page_index"":4,""viewing_time"":7753.5}]","44754.20000000112","","","","","","","","","","","","","","","","","","","","","","","",""
"pit-trial","37","443793","0.0-2.0-11.0-0.0","battery-v0.2","","""event"",""trial"",""time""
""fullscreenenter"",""1"",""1670""
""fullscreenexit"",""5"",""26393""
""blur"",""5"",""27979""
""focus"",""5"",""38761""
","""event"",""trial"",""time""
""blur"",""5"",""27979""
","""event"",""trial"",""time""
""focus"",""5"",""38761""
","""event"",""trial"",""time""
""fullscreenenter"",""1"",""1670""
","""event"",""trial"",""time""
""fullscreenexit"",""5"",""26393""
","","","-1","","","11","3758","917","&#9761;","elianto","#3366ff99","-1","-1","1","+10","[]","0","0","2","","","","","","","",""
"pit-trial","38","448665","0.0-2.0-11.0-1.0","battery-v0.2","","""event"",""trial"",""time""
""fullscreenenter"",""1"",""1670""
""fullscreenexit"",""5"",""26393""
""blur"",""5"",""27979""
""focus"",""5"",""38761""
","""event"",""trial"",""time""
""blur"",""5"",""27979""
","""event"",""trial"",""time""
""focus"",""5"",""38761""
","""event"",""trial"",""time""
""fullscreenenter"",""1"",""1670""
","""event"",""trial"",""time""
""fullscreenexit"",""5"",""26393""
","","","-1","","","11","3758","917","&#9761;","elianto","#3366ff99","-1","-1","1","+10","[]","0","0","2","","","","","","","",""
"pit-trial","39","453535","0.0-2.0-11.0-2.0","battery-v0.2","","""event"",""trial"",""time""
""fullscreenenter"",""1"",""1670""
""fullscreenexit"",""5"",""26393""
""blur"",""5"",""27979""
""focus"",""5"",""38761""
","""event"",""trial"",""time""
""blur"",""5"",""27979""
","""event"",""trial"",""time""
""focus"",""5"",""38761""
","""event"",""trial"",""time""
""fullscreenenter"",""1"",""1670""
","""event"",""trial"",""time""
""fullscreenexit"",""5"",""26393""
","","","-1","","","11","3758","917","&#9761;","elianto","#3366ff99","-1","-1","1","+10","[]","0","0","2","","","","","","","",""
"pit-trial","40","458412","0.0-2.0-11.0-3.0","battery-v0.2","","""event"",""trial"",""time""
""fullscreenenter"",""1"",""1670""
""fullscreenexit"",""5"",""26393""
""blur"",""5"",""27979""
""focus"",""5"",""38761""
","""event"",""trial"",""time""
""blur"",""5"",""27979""
","""event"",""trial"",""time""
""focus"",""5"",""38761""
","""event"",""trial"",""time""
""fullscreenenter"",""1"",""1670""
","""event"",""trial"",""time""
""fullscreenexit"",""5"",""26393""
","","","-1","","","11","3758","917","&#9761;","elianto","#3366ff99","-1","-1","1","0","[]","0","0","2","","","","","","","",""
"pit-trial","41","463299","0.0-2.0-11.0-4.0","battery-v0.2","","""event"",""trial"",""time""
""fullscreenenter"",""1"",""1670""
""fullscreenexit"",""5"",""26393""
""blur"",""5"",""27979""
""focus"",""5"",""38761""
","""event"",""trial"",""time""
""blur"",""5"",""27979""
","""event"",""trial"",""time""
""focus"",""5"",""38761""
","""event"",""trial"",""time""
""fullscreenenter"",""1"",""1670""
","""event"",""trial"",""time""
""fullscreenexit"",""5"",""26393""
","","","-1","","","11","3758","917","&#9761;","elianto","#3366ff99","-1","-1","1","+10","[]","0","0","2","","","","","","","",""
"pit-trial","42","468170","0.0-2.0-11.1-0.1","battery-v0.2","","""event"",""trial"",""time""
""fullscreenenter"",""1"",""1670""
""fullscreenexit"",""5"",""26393""
""blur"",""5"",""27979""
""focus"",""5"",""38761""
","""event"",""trial"",""time""
""blur"",""5"",""27979""
","""event"",""trial"",""time""
""focus"",""5"",""38761""
","""event"",""trial"",""time""
""fullscreenenter"",""1"",""1670""
","""event"",""trial"",""time""
""fullscreenexit"",""5"",""26393""
","","","-1","","","11","3758","917","&#9761;","elianto","#3366ff99","-1","-1","1","+10","[]","0","0","2","","","","","","","",""
"pit-trial","43","473039","0.0-2.0-11.1-1.1","battery-v0.2","","""event"",""trial"",""time""
""fullscreenenter"",""1"",""1670""
""fullscreenexit"",""5"",""26393""
""blur"",""5"",""27979""
""focus"",""5"",""38761""
","""event"",""trial"",""time""
""blur"",""5"",""27979""
","""event"",""trial"",""time""
""focus"",""5"",""38761""
","""event"",""trial"",""time""
""fullscreenenter"",""1"",""1670""
","""event"",""trial"",""time""
""fullscreenexit"",""5"",""26393""
","","","-1","","","11","3758","917","&#9761;","elianto","#3366ff99","-1","-1","1","+10","[]","0","0","2","","","","","","","",""
"pit-trial","44","477905","0.0-2.0-11.1-2.1","battery-v0.2","","""event"",""trial"",""time""
""fullscreenenter"",""1"",""1670""
""fullscreenexit"",""5"",""26393""
""blur"",""5"",""27979""
""focus"",""5"",""38761""
","""event"",""trial"",""time""
""blur"",""5"",""27979""
","""event"",""trial"",""time""
""focus"",""5"",""38761""
","""event"",""trial"",""time""
""fullscreenenter"",""1"",""1670""
","""event"",""trial"",""time""
""fullscreenexit"",""5"",""26393""
","","","-1","","","11","3758","917","&#9761;","elianto","#3366ff99","-1","-1","1","+10","[]","0","0","2","","","","","","","",""
"pit-trial","45","482779","0.0-2.0-11.1-3.1","battery-v0.2","","""event"",""trial"",""time""
""fullscreenenter"",""1"",""1670""
""fullscreenexit"",""5"",""26393""
""blur"",""5"",""27979""
""focus"",""5"",""38761""
","""event"",""trial"",""time""
""blur"",""5"",""27979""
","""event"",""trial"",""time""
""focus"",""5"",""38761""
","""event"",""trial"",""time""
""fullscreenenter"",""1"",""1670""
","""event"",""trial"",""time""
""fullscreenexit"",""5"",""26393""
","","","-1","","","11","3758","917","&#9761;","elianto","#3366ff99","-1","-1","1","0","[]","0","0","2","","","","","","","",""
"pit-trial","46","487647","0.0-2.0-11.1-4.1","battery-v0.2","","""event"",""trial"",""time""
""fullscreenenter"",""1"",""1670""
""fullscreenexit"",""5"",""26393""
""blur"",""5"",""27979""
""focus"",""5"",""38761""
","""event"",""trial"",""time""
""blur"",""5"",""27979""
","""event"",""trial"",""time""
""focus"",""5"",""38761""
","""event"",""trial"",""time""
""fullscreenenter"",""1"",""1670""
","""event"",""trial"",""time""
""fullscreenexit"",""5"",""26393""
","","","-1","","","11","3758","917","&#9761;","elianto","#3366ff99","-1","-1","1","+10","[]","0","0","2","","","","","","","",""
"pit-trial","47","492511","0.0-2.0-11.2-0.2","battery-v0.2","","""event"",""trial"",""time""
""fullscreenenter"",""1"",""1670""
""fullscreenexit"",""5"",""26393""
""blur"",""5"",""27979""
""focus"",""5"",""38761""
","""event"",""trial"",""time""
""blur"",""5"",""27979""
","""event"",""trial"",""time""
""focus"",""5"",""38761""
","""event"",""trial"",""time""
""fullscreenenter"",""1"",""1670""
","""event"",""trial"",""time""
""fullscreenexit"",""5"",""26393""
","","","-1","","","11","3758","917","&#9761;","elianto","#3366ff99","-1","-1","1","+10","[]","0","0","2","","","","","","","",""
"pit-trial","48","497388","0.0-2.0-11.2-1.2","battery-v0.2","","""event"",""trial"",""time""
""fullscreenenter"",""1"",""1670""
""fullscreenexit"",""5"",""26393""
""blur"",""5"",""27979""
""focus"",""5"",""38761""
","""event"",""trial"",""time""
""blur"",""5"",""27979""
","""event"",""trial"",""time""
""focus"",""5"",""38761""
","""event"",""trial"",""time""
""fullscreenenter"",""1"",""1670""
","""event"",""trial"",""time""
""fullscreenexit"",""5"",""26393""
","","","-1","","","11","3758","917","&#9761;","elianto","#3366ff99","-1","-1","1","+10","[]","0","0","2","","","","","","","",""
"pit-trial","49","502260","0.0-2.0-11.2-2.2","battery-v0.2","","""event"",""trial"",""time""
""fullscreenenter"",""1"",""1670""
""fullscreenexit"",""5"",""26393""
""blur"",""5"",""27979""
""focus"",""5"",""38761""
","""event"",""trial"",""time""
""blur"",""5"",""27979""
","""event"",""trial"",""time""
""focus"",""5"",""38761""
","""event"",""trial"",""time""
""fullscreenenter"",""1"",""1670""
","""event"",""trial"",""time""
""fullscreenexit"",""5"",""26393""
","","","-1","","","11","3758","917","&#9761;","elianto","#3366ff99","-1","-1","1","+10","[]","0","0","2","","","","","","","",""
"pit-trial","50","507126","0.0-2.0-11.2-3.2","battery-v0.2","","""event"",""trial"",""time""
""fullscreenenter"",""1"",""1670""
""fullscreenexit"",""5"",""26393""
""blur"",""5"",""27979""
""focus"",""5"",""38761""
","""event"",""trial"",""time""
""blur"",""5"",""27979""
","""event"",""trial"",""time""
""focus"",""5"",""38761""
","""event"",""trial"",""time""
""fullscreenenter"",""1"",""1670""
","""event"",""trial"",""time""
""fullscreenexit"",""5"",""26393""
","","","-1","","","11","3758","917","&#9761;","elianto","#3366ff99","-1","-1","1","0","[]","0","0","2","","","","","","","",""
"pit-trial","51","512008","0.0-2.0-11.2-4.2","battery-v0.2","","""event"",""trial"",""time""
""fullscreenenter"",""1"",""1670""
""fullscreenexit"",""5"",""26393""
""blur"",""5"",""27979""
""focus"",""5"",""38761""
","""event"",""trial"",""time""
""blur"",""5"",""27979""
","""event"",""trial"",""time""
""focus"",""5"",""38761""
","""event"",""trial"",""time""
""fullscreenenter"",""1"",""1670""
","""event"",""trial"",""time""
""fullscreenexit"",""5"",""26393""
","","","-1","","","11","3758","917","&#9761;","elianto","#3366ff99","-1","-1","1","+10","[]","0","0","2","","","","","","","",""
"pit-trial","52","516871","0.0-2.0-11.3-0.3","battery-v0.2","","""event"",""trial"",""time""
""fullscreenenter"",""1"",""1670""
""fullscreenexit"",""5"",""26393""
""blur"",""5"",""27979""
""focus"",""5"",""38761""
","""event"",""trial"",""time""
""blur"",""5"",""27979""
","""event"",""trial"",""time""
""focus"",""5"",""38761""
","""event"",""trial"",""time""
""fullscreenenter"",""1"",""1670""
","""event"",""trial"",""time""
""fullscreenexit"",""5"",""26393""
","","","-1","","","11","3758","917","&#9761;","elianto","#3366ff99","-1","-1","1","+10","[]","0","0","2","","","","","","","",""
"pit-trial","53","521735","0.0-2.0-11.3-1.3","battery-v0.2","","""event"",""trial"",""time""
""fullscreenenter"",""1"",""1670""
""fullscreenexit"",""5"",""26393""
""blur"",""5"",""27979""
""focus"",""5"",""38761""
","""event"",""trial"",""time""
""blur"",""5"",""27979""
","""event"",""trial"",""time""
""focus"",""5"",""38761""
","""event"",""trial"",""time""
""fullscreenenter"",""1"",""1670""
","""event"",""trial"",""time""
""fullscreenexit"",""5"",""26393""
","","","-1","","","11","3758","917","&#9761;","elianto","#3366ff99","-1","-1","1","+10","[]","0","0","2","","","","","","","",""
"pit-trial","54","526598","0.0-2.0-11.3-2.3","battery-v0.2","","""event"",""trial"",""time""
""fullscreenenter"",""1"",""1670""
""fullscreenexit"",""5"",""26393""
""blur"",""5"",""27979""
""focus"",""5"",""38761""
","""event"",""trial"",""time""
""blur"",""5"",""27979""
","""event"",""trial"",""time""
""focus"",""5"",""38761""
","""event"",""trial"",""time""
""fullscreenenter"",""1"",""1670""
","""event"",""trial"",""time""
""fullscreenexit"",""5"",""26393""
","","","-1","","","11","3758","917","&#9761;","elianto","#3366ff99","-1","-1","1","+10","[]","0","0","2","","","","","","","",""
"pit-trial","55","531477","0.0-2.0-11.3-3.3","battery-v0.2","","""event"",""trial"",""time""
""fullscreenenter"",""1"",""1670""
""fullscreenexit"",""5"",""26393""
""blur"",""5"",""27979""
""focus"",""5"",""38761""
","""event"",""trial"",""time""
""blur"",""5"",""27979""
","""event"",""trial"",""time""
""focus"",""5"",""38761""
","""event"",""trial"",""time""
""fullscreenenter"",""1"",""1670""
","""event"",""trial"",""time""
""fullscreenexit"",""5"",""26393""
","","","-1","","","11","3758","917","&#9761;","elianto","#3366ff99","-1","-1","1","0","[]","0","0","2","","","","","","","",""
"pit-trial","56","536351","0.0-2.0-11.3-4.3","battery-v0.2","","""event"",""trial"",""time""
""fullscreenenter"",""1"",""1670""
""fullscreenexit"",""5"",""26393""
""blur"",""5"",""27979""
""focus"",""5"",""38761""
","""event"",""trial"",""time""
""blur"",""5"",""27979""
","""event"",""trial"",""time""
""focus"",""5"",""38761""
","""event"",""trial"",""time""
""fullscreenenter"",""1"",""1670""
","""event"",""trial"",""time""
""fullscreenexit"",""5"",""26393""
","","","-1","","","11","3758","917","&#9761;","elianto","#3366ff99","-1","-1","1","+10","[]","0","0","2","","","","","","","",""
"call-function","57","536353","0.0-2.0-12.0","battery-v0.2","","""event"",""trial"",""time""
""fullscreenenter"",""1"",""1670""
""fullscreenexit"",""5"",""26393""
""blur"",""5"",""27979""
""focus"",""5"",""38761""
","""event"",""trial"",""time""
""blur"",""5"",""27979""
","""event"",""trial"",""time""
""focus"",""5"",""38761""
","""event"",""trial"",""time""
""fullscreenenter"",""1"",""1670""
","""event"",""trial"",""time""
""fullscreenexit"",""5"",""26393""
","","","","","","","","","","","","","","","","","","","","","","","","","","",""
"pit-instructions","58","569698","0.0-2.0-13.0","battery-v0.2","","""event"",""trial"",""time""
""fullscreenenter"",""1"",""1670""
""fullscreenexit"",""5"",""26393""
""blur"",""5"",""27979""
""focus"",""5"",""38761""
","""event"",""trial"",""time""
""blur"",""5"",""27979""
","""event"",""trial"",""time""
""focus"",""5"",""38761""
","""event"",""trial"",""time""
""fullscreenenter"",""1"",""1670""
","""event"",""trial"",""time""
""fullscreenexit"",""5"",""26393""
","","[{""page_index"":0,""viewing_time"":8917.900000000373},{""page_index"":1,""viewing_time"":6819},{""page_index"":2,""viewing_time"":3132.300000000745},{""page_index"":3,""viewing_time"":10242.599999999627},{""page_index"":4,""viewing_time"":4231.800000000745}]","33344.40000000037","","","","","","","","","","","","","","","","","","","","","","","",""
"pit-trial","59","573236","0.0-2.0-14.0-0.0","battery-v0.2","","""event"",""trial"",""time""
""fullscreenenter"",""1"",""1670""
""fullscreenexit"",""5"",""26393""
""blur"",""5"",""27979""
""focus"",""5"",""38761""
","""event"",""trial"",""time""
""blur"",""5"",""27979""
","""event"",""trial"",""time""
""focus"",""5"",""38761""
","""event"",""trial"",""time""
""fullscreenenter"",""1"",""1670""
","""event"",""trial"",""time""
""fullscreenexit"",""5"",""26393""
","","","680.8999999985099","","","11","3758","917","&#9826;","elianto","#f73b6a7A","-1"," ","0","-10","[1531.2999999988824]","1","0","3","","","","","","","",""
"pit-trial","60","578104","0.0-2.0-14.0-1.0","battery-v0.2","","""event"",""trial"",""time""
""fullscreenenter"",""1"",""1670""
""fullscreenexit"",""5"",""26393""
""blur"",""5"",""27979""
""focus"",""5"",""38761""
","""event"",""trial"",""time""
""blur"",""5"",""27979""
","""event"",""trial"",""time""
""focus"",""5"",""38761""
","""event"",""trial"",""time""
""fullscreenenter"",""1"",""1670""
","""event"",""trial"",""time""
""fullscreenexit"",""5"",""26393""
","","","-1","","","11","3758","917","&#9826;","elianto","#f73b6a7A","-1","-1","1","0","[]","0","0","3","","","","","","","",""
"pit-trial","61","582967","0.0-2.0-14.0-2.0","battery-v0.2","","""event"",""trial"",""time""
""fullscreenenter"",""1"",""1670""
""fullscreenexit"",""5"",""26393""
""blur"",""5"",""27979""
""focus"",""5"",""38761""
","""event"",""trial"",""time""
""blur"",""5"",""27979""
","""event"",""trial"",""time""
""focus"",""5"",""38761""
","""event"",""trial"",""time""
""fullscreenenter"",""1"",""1670""
","""event"",""trial"",""time""
""fullscreenexit"",""5"",""26393""
","","","-1","","","11","3758","917","&#9826;","elianto","#f73b6a7A","-1","-1","1","0","[]","0","0","3","","","","","","","",""
"pit-trial","62","587831","0.0-2.0-14.0-3.0","battery-v0.2","","""event"",""trial"",""time""
""fullscreenenter"",""1"",""1670""
""fullscreenexit"",""5"",""26393""
""blur"",""5"",""27979""
""focus"",""5"",""38761""
","""event"",""trial"",""time""
""blur"",""5"",""27979""
","""event"",""trial"",""time""
""focus"",""5"",""38761""
","""event"",""trial"",""time""
""fullscreenenter"",""1"",""1670""
","""event"",""trial"",""time""
""fullscreenexit"",""5"",""26393""
","","","-1","","","11","3758","917","&#9826;","elianto","#f73b6a7A","-1","-1","1","-10","[]","0","0","3","","","","","","","",""
"pit-trial","63","592687","0.0-2.0-14.0-4.0","battery-v0.2","","""event"",""trial"",""time""
""fullscreenenter"",""1"",""1670""
""fullscreenexit"",""5"",""26393""
""blur"",""5"",""27979""
""focus"",""5"",""38761""
","""event"",""trial"",""time""
""blur"",""5"",""27979""
","""event"",""trial"",""time""
""focus"",""5"",""38761""
","""event"",""trial"",""time""
""fullscreenenter"",""1"",""1670""
","""event"",""trial"",""time""
""fullscreenexit"",""5"",""26393""
","","","-1","","","11","3758","917","&#9826;","elianto","#f73b6a7A","-1","-1","1","0","[]","0","0","3","","","","","","","",""
"pit-trial","64","597550","0.0-2.0-14.1-0.1","battery-v0.2","","""event"",""trial"",""time""
""fullscreenenter"",""1"",""1670""
""fullscreenexit"",""5"",""26393""
""blur"",""5"",""27979""
""focus"",""5"",""38761""
","""event"",""trial"",""time""
""blur"",""5"",""27979""
","""event"",""trial"",""time""
""focus"",""5"",""38761""
","""event"",""trial"",""time""
""fullscreenenter"",""1"",""1670""
","""event"",""trial"",""time""
""fullscreenexit"",""5"",""26393""
","","","-1","","","11","3758","917","&#9826;","elianto","#f73b6a7A","-1","-1","1","0","[]","0","0","3","","","","","","","",""
"pit-trial","65","602406","0.0-2.0-14.1-1.1","battery-v0.2","","""event"",""trial"",""time""
""fullscreenenter"",""1"",""1670""
""fullscreenexit"",""5"",""26393""
""blur"",""5"",""27979""
""focus"",""5"",""38761""
","""event"",""trial"",""time""
""blur"",""5"",""27979""
","""event"",""trial"",""time""
""focus"",""5"",""38761""
","""event"",""trial"",""time""
""fullscreenenter"",""1"",""1670""
","""event"",""trial"",""time""
""fullscreenexit"",""5"",""26393""
","","","-1","","","11","3758","917","&#9826;","elianto","#f73b6a7A","-1","-1","1","0","[]","0","0","3","","","","","","","",""
"pit-trial","66","607267","0.0-2.0-14.1-2.1","battery-v0.2","","""event"",""trial"",""time""
""fullscreenenter"",""1"",""1670""
""fullscreenexit"",""5"",""26393""
""blur"",""5"",""27979""
""focus"",""5"",""38761""
","""event"",""trial"",""time""
""blur"",""5"",""27979""
","""event"",""trial"",""time""
""focus"",""5"",""38761""
","""event"",""trial"",""time""
""fullscreenenter"",""1"",""1670""
","""event"",""trial"",""time""
""fullscreenexit"",""5"",""26393""
","","","-1","","","11","3758","917","&#9826;","elianto","#f73b6a7A","-1","-1","1","0","[]","0","0","3","","","","","","","",""
"pit-trial","67","612121","0.0-2.0-14.1-3.1","battery-v0.2","","""event"",""trial"",""time""
""fullscreenenter"",""1"",""1670""
""fullscreenexit"",""5"",""26393""
""blur"",""5"",""27979""
""focus"",""5"",""38761""
","""event"",""trial"",""time""
""blur"",""5"",""27979""
","""event"",""trial"",""time""
""focus"",""5"",""38761""
","""event"",""trial"",""time""
""fullscreenenter"",""1"",""1670""
","""event"",""trial"",""time""
""fullscreenexit"",""5"",""26393""
","","","-1","","","11","3758","917","&#9826;","elianto","#f73b6a7A","-1","-1","1","-10","[]","0","0","3","","","","","","","",""
"pit-trial","68","616983","0.0-2.0-14.1-4.1","battery-v0.2","","""event"",""trial"",""time""
""fullscreenenter"",""1"",""1670""
""fullscreenexit"",""5"",""26393""
""blur"",""5"",""27979""
""focus"",""5"",""38761""
""blur"",""69"",""621613""
","""event"",""trial"",""time""
""blur"",""5"",""27979""
""blur"",""69"",""621613""
","""event"",""trial"",""time""
""focus"",""5"",""38761""
","""event"",""trial"",""time""
""fullscreenenter"",""1"",""1670""
","""event"",""trial"",""time""
""fullscreenexit"",""5"",""26393""
","","","-1","","","11","3758","917","&#9826;","elianto","#f73b6a7A","-1","-1","1","0","[]","0","0","3","","","","","","","",""
"pit-trial","69","621846","0.0-2.0-14.2-0.2","battery-v0.2","","""event"",""trial"",""time""
""fullscreenenter"",""1"",""1670""
""fullscreenexit"",""5"",""26393""
""blur"",""5"",""27979""
""focus"",""5"",""38761""
""blur"",""69"",""621613""
","""event"",""trial"",""time""
""blur"",""5"",""27979""
""blur"",""69"",""621613""
","""event"",""trial"",""time""
""focus"",""5"",""38761""
","""event"",""trial"",""time""
""fullscreenenter"",""1"",""1670""
","""event"",""trial"",""time""
""fullscreenexit"",""5"",""26393""
","","","-1","","","11","3758","917","&#9826;","elianto","#f73b6a7A","-1","-1","1","0","[]","0","0","3","","","","","","","",""
"pit-trial","70","626711","0.0-2.0-14.2-1.2","battery-v0.2","","""event"",""trial"",""time""
""fullscreenenter"",""1"",""1670""
""fullscreenexit"",""5"",""26393""
""blur"",""5"",""27979""
""focus"",""5"",""38761""
""blur"",""69"",""621613""
""focus"",""71"",""628151""
","""event"",""trial"",""time""
""blur"",""5"",""27979""
""blur"",""69"",""621613""
","""event"",""trial"",""time""
""focus"",""5"",""38761""
""focus"",""71"",""628151""
","""event"",""trial"",""time""
""fullscreenenter"",""1"",""1670""
","""event"",""trial"",""time""
""fullscreenexit"",""5"",""26393""
","","","-1","","","11","3758","917","&#9826;","elianto","#f73b6a7A","-1","-1","1","0","[]","0","0","3","","","","","","","",""
"pit-trial","71","631576","0.0-2.0-14.2-2.2","battery-v0.2","","""event"",""trial"",""time""
""fullscreenenter"",""1"",""1670""
""fullscreenexit"",""5"",""26393""
""blur"",""5"",""27979""
""focus"",""5"",""38761""
""blur"",""69"",""621613""
""focus"",""71"",""628151""
","""event"",""trial"",""time""
""blur"",""5"",""27979""
""blur"",""69"",""621613""
","""event"",""trial"",""time""
""focus"",""5"",""38761""
""focus"",""71"",""628151""
","""event"",""trial"",""time""
""fullscreenenter"",""1"",""1670""
","""event"",""trial"",""time""
""fullscreenexit"",""5"",""26393""
","","","-1","","","11","3758","917","&#9826;","elianto","#f73b6a7A","-1","-1","1","0","[]","0","0","3","","","","","","","",""
"pit-trial","72","636439","0.0-2.0-14.2-3.2","battery-v0.2","","""event"",""trial"",""time""
""fullscreenenter"",""1"",""1670""
""fullscreenexit"",""5"",""26393""
""blur"",""5"",""27979""
""focus"",""5"",""38761""
""blur"",""69"",""621613""
""focus"",""71"",""628151""
","""event"",""trial"",""time""
""blur"",""5"",""27979""
""blur"",""69"",""621613""
","""event"",""trial"",""time""
""focus"",""5"",""38761""
""focus"",""71"",""628151""
","""event"",""trial"",""time""
""fullscreenenter"",""1"",""1670""
","""event"",""trial"",""time""
""fullscreenexit"",""5"",""26393""
","","","-1","","","11","3758","917","&#9826;","elianto","#f73b6a7A","-1","-1","1","-10","[]","0","0","3","","","","","","","",""
"pit-trial","73","641303","0.0-2.0-14.2-4.2","battery-v0.2","","""event"",""trial"",""time""
""fullscreenenter"",""1"",""1670""
""fullscreenexit"",""5"",""26393""
""blur"",""5"",""27979""
""focus"",""5"",""38761""
""blur"",""69"",""621613""
""focus"",""71"",""628151""
","""event"",""trial"",""time""
""blur"",""5"",""27979""
""blur"",""69"",""621613""
","""event"",""trial"",""time""
""focus"",""5"",""38761""
""focus"",""71"",""628151""
","""event"",""trial"",""time""
""fullscreenenter"",""1"",""1670""
","""event"",""trial"",""time""
""fullscreenexit"",""5"",""26393""
","","","-1","","","11","3758","917","&#9826;","elianto","#f73b6a7A","-1","-1","1","0","[]","0","0","3","","","","","","","",""
"pit-trial","74","646167","0.0-2.0-14.3-0.3","battery-v0.2","","""event"",""trial"",""time""
""fullscreenenter"",""1"",""1670""
""fullscreenexit"",""5"",""26393""
""blur"",""5"",""27979""
""focus"",""5"",""38761""
""blur"",""69"",""621613""
""focus"",""71"",""628151""
","""event"",""trial"",""time""
""blur"",""5"",""27979""
""blur"",""69"",""621613""
","""event"",""trial"",""time""
""focus"",""5"",""38761""
""focus"",""71"",""628151""
","""event"",""trial"",""time""
""fullscreenenter"",""1"",""1670""
","""event"",""trial"",""time""
""fullscreenexit"",""5"",""26393""
","","","-1","","","11","3758","917","&#9826;","elianto","#f73b6a7A","-1","-1","1","0","[]","0","0","3","","","","","","","",""
"pit-trial","75","651034","0.0-2.0-14.3-1.3","battery-v0.2","","""event"",""trial"",""time""
""fullscreenenter"",""1"",""1670""
""fullscreenexit"",""5"",""26393""
""blur"",""5"",""27979""
""focus"",""5"",""38761""
""blur"",""69"",""621613""
""focus"",""71"",""628151""
","""event"",""trial"",""time""
""blur"",""5"",""27979""
""blur"",""69"",""621613""
","""event"",""trial"",""time""
""focus"",""5"",""38761""
""focus"",""71"",""628151""
","""event"",""trial"",""time""
""fullscreenenter"",""1"",""1670""
","""event"",""trial"",""time""
""fullscreenexit"",""5"",""26393""
","","","-1","","","11","3758","917","&#9826;","elianto","#f73b6a7A","-1","-1","1","0","[]","0","0","3","","","","","","","",""
"pit-trial","76","655902","0.0-2.0-14.3-2.3","battery-v0.2","","""event"",""trial"",""time""
""fullscreenenter"",""1"",""1670""
""fullscreenexit"",""5"",""26393""
""blur"",""5"",""27979""
""focus"",""5"",""38761""
""blur"",""69"",""621613""
""focus"",""71"",""628151""
","""event"",""trial"",""time""
""blur"",""5"",""27979""
""blur"",""69"",""621613""
","""event"",""trial"",""time""
""focus"",""5"",""38761""
""focus"",""71"",""628151""
","""event"",""trial"",""time""
""fullscreenenter"",""1"",""1670""
","""event"",""trial"",""time""
""fullscreenexit"",""5"",""26393""
","","","-1","","","11","3758","917","&#9826;","elianto","#f73b6a7A","-1","-1","1","0","[]","0","0","3","","","","","","","",""
"pit-trial","77","660768","0.0-2.0-14.3-3.3","battery-v0.2","","""event"",""trial"",""time""
""fullscreenenter"",""1"",""1670""
""fullscreenexit"",""5"",""26393""
""blur"",""5"",""27979""
""focus"",""5"",""38761""
""blur"",""69"",""621613""
""focus"",""71"",""628151""
","""event"",""trial"",""time""
""blur"",""5"",""27979""
""blur"",""69"",""621613""
","""event"",""trial"",""time""
""focus"",""5"",""38761""
""focus"",""71"",""628151""
","""event"",""trial"",""time""
""fullscreenenter"",""1"",""1670""
","""event"",""trial"",""time""
""fullscreenexit"",""5"",""26393""
","","","-1","","","11","3758","917","&#9826;","elianto","#f73b6a7A","-1","-1","1","-10","[]","0","0","3","","","","","","","",""
"pit-trial","78","665630","0.0-2.0-14.3-4.3","battery-v0.2","","""event"",""trial"",""time""
""fullscreenenter"",""1"",""1670""
""fullscreenexit"",""5"",""26393""
""blur"",""5"",""27979""
""focus"",""5"",""38761""
""blur"",""69"",""621613""
""focus"",""71"",""628151""
","""event"",""trial"",""time""
""blur"",""5"",""27979""
""blur"",""69"",""621613""
","""event"",""trial"",""time""
""focus"",""5"",""38761""
""focus"",""71"",""628151""
","""event"",""trial"",""time""
""fullscreenenter"",""1"",""1670""
","""event"",""trial"",""time""
""fullscreenexit"",""5"",""26393""
","","","-1","","","11","3758","917","&#9826;","elianto","#f73b6a7A","-1","-1","1","0","[]","0","0","3","","","","","","","",""
"call-function","79","665632","0.0-2.0-15.0","battery-v0.2","","""event"",""trial"",""time""
""fullscreenenter"",""1"",""1670""
""fullscreenexit"",""5"",""26393""
""blur"",""5"",""27979""
""focus"",""5"",""38761""
""blur"",""69"",""621613""
""focus"",""71"",""628151""
","""event"",""trial"",""time""
""blur"",""5"",""27979""
""blur"",""69"",""621613""
","""event"",""trial"",""time""
""focus"",""5"",""38761""
""focus"",""71"",""628151""
","""event"",""trial"",""time""
""fullscreenenter"",""1"",""1670""
","""event"",""trial"",""time""
""fullscreenexit"",""5"",""26393""
","","","","","","","","","","","","","","","","","","","","","","","","","","",""
"pit-instructions","80","689070","0.0-2.0-16.0","battery-v0.2","","""event"",""trial"",""time""
""fullscreenenter"",""1"",""1670""
""fullscreenexit"",""5"",""26393""
""blur"",""5"",""27979""
""focus"",""5"",""38761""
""blur"",""69"",""621613""
""focus"",""71"",""628151""
","""event"",""trial"",""time""
""blur"",""5"",""27979""
""blur"",""69"",""621613""
","""event"",""trial"",""time""
""focus"",""5"",""38761""
""focus"",""71"",""628151""
","""event"",""trial"",""time""
""fullscreenenter"",""1"",""1670""
","""event"",""trial"",""time""
""fullscreenexit"",""5"",""26393""
","","[{""page_index"":0,""viewing_time"":6910.5},{""page_index"":1,""viewing_time"":8175.5999999996275},{""page_index"":2,""viewing_time"":4151},{""page_index"":3,""viewing_time"":4199.4000000003725}]","23437","","","","","","","","","","","","","","","","","","","","","","","",""
"pit-trial","81","691936","0.0-2.0-17.0-0.0","battery-v0.2","","""event"",""trial"",""time""
""fullscreenenter"",""1"",""1670""
""fullscreenexit"",""5"",""26393""
""blur"",""5"",""27979""
""focus"",""5"",""38761""
""blur"",""69"",""621613""
""focus"",""71"",""628151""
","""event"",""trial"",""time""
""blur"",""5"",""27979""
""blur"",""69"",""621613""
","""event"",""trial"",""time""
""focus"",""5"",""38761""
""focus"",""71"",""628151""
","""event"",""trial"",""time""
""fullscreenenter"",""1"",""1670""
","""event"",""trial"",""time""
""fullscreenexit"",""5"",""26393""
","","","1.099999999627471","","","11","3758","917","&#9789;","elianto","#f73b6a7A"," "," ","1","0","[856.2000000011176,1475.5]","2","0","4","","","","","","","",""
"pit-trial","82","694867","0.0-2.0-17.0-1.0","battery-v0.2","","""event"",""trial"",""time""
""fullscreenenter"",""1"",""1670""
""fullscreenexit"",""5"",""26393""
""blur"",""5"",""27979""
""focus"",""5"",""38761""
""blur"",""69"",""621613""
""focus"",""71"",""628151""
","""event"",""trial"",""time""
""blur"",""5"",""27979""
""blur"",""69"",""621613""
","""event"",""trial"",""time""
""focus"",""5"",""38761""
""focus"",""71"",""628151""
","""event"",""trial"",""time""
""fullscreenenter"",""1"",""1670""
","""event"",""trial"",""time""
""fullscreenexit"",""5"",""26393""
","","","62.90000000037253","","","11","3758","917","&#9789;","elianto","#f73b6a7A"," "," ","1","0","[915.4000000003725]","1","0","4","","","","","","","",""
"pit-trial","83","697835","0.0-2.0-17.0-2.0","battery-v0.2","","""event"",""trial"",""time""
""fullscreenenter"",""1"",""1670""
""fullscreenexit"",""5"",""26393""
""blur"",""5"",""27979""
""focus"",""5"",""38761""
""blur"",""69"",""621613""
""focus"",""71"",""628151""
","""event"",""trial"",""time""
""blur"",""5"",""27979""
""blur"",""69"",""621613""
","""event"",""trial"",""time""
""focus"",""5"",""38761""
""focus"",""71"",""628151""
","""event"",""trial"",""time""
""fullscreenenter"",""1"",""1670""
","""event"",""trial"",""time""
""fullscreenexit"",""5"",""26393""
","","","92.19999999925494","","","11","3758","917","&#9789;","elianto","#f73b6a7A"," "," ","1","0","[950.5999999996275]","1","0","4","","","","","","","",""
"pit-trial","84","702391","0.0-2.0-17.0-3.0","battery-v0.2","","""event"",""trial"",""time""
""fullscreenenter"",""1"",""1670""
""fullscreenexit"",""5"",""26393""
""blur"",""5"",""27979""
""focus"",""5"",""38761""
""blur"",""69"",""621613""
""focus"",""71"",""628151""
","""event"",""trial"",""time""
""blur"",""5"",""27979""
""blur"",""69"",""621613""
","""event"",""trial"",""time""
""focus"",""5"",""38761""
""focus"",""71"",""628151""
","""event"",""trial"",""time""
""fullscreenenter"",""1"",""1670""
","""event"",""trial"",""time""
""fullscreenexit"",""5"",""26393""
","","","1692.8999999985099","","","11","3758","917","&#9789;","elianto","#f73b6a7A"," "," ","1","-10","[802.2000000011176,2550.9000000003725]","2","0","4","","","","","","","",""
"pit-trial","85","705529","0.0-2.0-17.0-4.0","battery-v0.2","","""event"",""trial"",""time""
""fullscreenenter"",""1"",""1670""
""fullscreenexit"",""5"",""26393""
""blur"",""5"",""27979""
""focus"",""5"",""38761""
""blur"",""69"",""621613""
""focus"",""71"",""628151""
","""event"",""trial"",""time""
""blur"",""5"",""27979""
""blur"",""69"",""621613""
","""event"",""trial"",""time""
""focus"",""5"",""38761""
""focus"",""71"",""628151""
","""event"",""trial"",""time""
""fullscreenenter"",""1"",""1670""
","""event"",""trial"",""time""
""fullscreenexit"",""5"",""26393""
","","","268.19999999925494","","","11","3758","917","&#9789;","elianto","#f73b6a7A"," "," ","1","0","[179.10000000149012,1121.9000000003725]","2","0","4","","","","","","","",""
"pit-trial","86","708525","0.0-2.0-17.1-0.1","battery-v0.2","","""event"",""trial"",""time""
""fullscreenenter"",""1"",""1670""
""fullscreenexit"",""5"",""26393""
""blur"",""5"",""27979""
""focus"",""5"",""38761""
""blur"",""69"",""621613""
""focus"",""71"",""628151""
","""event"",""trial"",""time""
""blur"",""5"",""27979""
""blur"",""69"",""621613""
","""event"",""trial"",""time""
""focus"",""5"",""38761""
""focus"",""71"",""628151""
","""event"",""trial"",""time""
""fullscreenenter"",""1"",""1670""
","""event"",""trial"",""time""
""fullscreenexit"",""5"",""26393""
","","","121.80000000074506","","","11","3758","917","&#9789;","elianto","#f73b6a7A"," "," ","1","0","[971.8999999985099]","1","0","4","","","","","","","",""
"pit-trial","87","711492","0.0-2.0-17.1-1.1","battery-v0.2","","""event"",""trial"",""time""
""fullscreenenter"",""1"",""1670""
""fullscreenexit"",""5"",""26393""
""blur"",""5"",""27979""
""focus"",""5"",""38761""
""blur"",""69"",""621613""
""focus"",""71"",""628151""
","""event"",""trial"",""time""
""blur"",""5"",""27979""
""blur"",""69"",""621613""
","""event"",""trial"",""time""
""focus"",""5"",""38761""
""focus"",""71"",""628151""
","""event"",""trial"",""time""
""fullscreenenter"",""1"",""1670""
","""event"",""trial"",""time""
""fullscreenexit"",""5"",""26393""
","","","91.29999999888241","","","11","3758","917","&#9789;","elianto","#f73b6a7A"," "," ","1","0","[946.5]","1","0","4","","","","","","","",""
"pit-trial","88","714443","0.0-2.0-17.1-2.1","battery-v0.2","","""event"",""trial"",""time""
""fullscreenenter"",""1"",""1670""
""fullscreenexit"",""5"",""26393""
""blur"",""5"",""27979""
""focus"",""5"",""38761""
""blur"",""69"",""621613""
""focus"",""71"",""628151""
","""event"",""trial"",""time""
""blur"",""5"",""27979""
""blur"",""69"",""621613""
","""event"",""trial"",""time""
""focus"",""5"",""38761""
""focus"",""71"",""628151""
","""event"",""trial"",""time""
""fullscreenenter"",""1"",""1670""
","""event"",""trial"",""time""
""fullscreenexit"",""5"",""26393""
","","","84.59999999962747","","","11","3758","917","&#9789;","elianto","#f73b6a7A"," "," ","1","0","[941.0999999996275]","1","0","4","","","","","","","",""
"pit-trial","89","717509","0.0-2.0-17.1-3.1","battery-v0.2","","""event"",""trial"",""time""
""fullscreenenter"",""1"",""1670""
""fullscreenexit"",""5"",""26393""
""blur"",""5"",""27979""
""focus"",""5"",""38761""
""blur"",""69"",""621613""
""focus"",""71"",""628151""
","""event"",""trial"",""time""
""blur"",""5"",""27979""
""blur"",""69"",""621613""
","""event"",""trial"",""time""
""focus"",""5"",""38761""
""focus"",""71"",""628151""
","""event"",""trial"",""time""
""fullscreenenter"",""1"",""1670""
","""event"",""trial"",""time""
""fullscreenexit"",""5"",""26393""
","","","200.30000000074506","","","11","3758","917","&#9789;","elianto","#f73b6a7A"," "," ","1","-10","[1053.2999999988824]","1","0","4","","","","","","","",""
"pit-trial","90","720567","0.0-2.0-17.1-4.1","battery-v0.2","","""event"",""trial"",""time""
""fullscreenenter"",""1"",""1670""
""fullscreenexit"",""5"",""26393""
""blur"",""5"",""27979""
""focus"",""5"",""38761""
""blur"",""69"",""621613""
""focus"",""71"",""628151""
","""event"",""trial"",""time""
""blur"",""5"",""27979""
""blur"",""69"",""621613""
","""event"",""trial"",""time""
""focus"",""5"",""38761""
""focus"",""71"",""628151""
","""event"",""trial"",""time""
""fullscreenenter"",""1"",""1670""
","""event"",""trial"",""time""
""fullscreenexit"",""5"",""26393""
","","","192.59999999962747","","","11","3758","917","&#9789;","elianto","#f73b6a7A"," "," ","1","0","[1047.0999999996275]","1","0","4","","","","","","","",""
"pit-trial","91","723590","0.0-2.0-17.2-0.2","battery-v0.2","","""event"",""trial"",""time""
""fullscreenenter"",""1"",""1670""
""fullscreenexit"",""5"",""26393""
""blur"",""5"",""27979""
""focus"",""5"",""38761""
""blur"",""69"",""621613""
""focus"",""71"",""628151""
","""event"",""trial"",""time""
""blur"",""5"",""27979""
""blur"",""69"",""621613""
","""event"",""trial"",""time""
""focus"",""5"",""38761""
""focus"",""71"",""628151""
","""event"",""trial"",""time""
""fullscreenenter"",""1"",""1670""
","""event"",""trial"",""time""
""fullscreenexit"",""5"",""26393""
","","","164.80000000074506","","","11","3758","917","&#9789;","elianto","#f73b6a7A"," "," ","1","0","[1016.8000000007451]","1","0","4","","","","","","","",""
"pit-trial","92","726694","0.0-2.0-17.2-1.2","battery-v0.2","","""event"",""trial"",""time""
""fullscreenenter"",""1"",""1670""
""fullscreenexit"",""5"",""26393""
""blur"",""5"",""27979""
""focus"",""5"",""38761""
""blur"",""69"",""621613""
""focus"",""71"",""628151""
","""event"",""trial"",""time""
""blur"",""5"",""27979""
""blur"",""69"",""621613""
","""event"",""trial"",""time""
""focus"",""5"",""38761""
""focus"",""71"",""628151""
","""event"",""trial"",""time""
""fullscreenenter"",""1"",""1670""
","""event"",""trial"",""time""
""fullscreenexit"",""5"",""26393""
","","","243.69999999925494","","","11","3758","917","&#9789;","elianto","#f73b6a7A"," "," ","1","0","[1097.0999999996275]","1","0","4","","","","","","","",""
"pit-trial","93","729567","0.0-2.0-17.2-2.2","battery-v0.2","","""event"",""trial"",""time""
""fullscreenenter"",""1"",""1670""
""fullscreenexit"",""5"",""26393""
""blur"",""5"",""27979""
""focus"",""5"",""38761""
""blur"",""69"",""621613""
""focus"",""71"",""628151""
","""event"",""trial"",""time""
""blur"",""5"",""27979""
""blur"",""69"",""621613""
","""event"",""trial"",""time""
""focus"",""5"",""38761""
""focus"",""71"",""628151""
","""event"",""trial"",""time""
""fullscreenenter"",""1"",""1670""
","""event"",""trial"",""time""
""fullscreenexit"",""5"",""26393""
","","","9.599999999627471","","","11","3758","917","&#9789;","elianto","#f73b6a7A"," "," ","1","0","[861.6999999992549,2641]","2","0","4","","","","","","","",""
"pit-trial","94","732455","0.0-2.0-17.2-3.2","battery-v0.2","","""event"",""trial"",""time""
""fullscreenenter"",""1"",""1670""
""fullscreenexit"",""5"",""26393""
""blur"",""5"",""27979""
""focus"",""5"",""38761""
""blur"",""69"",""621613""
""focus"",""71"",""628151""
","""event"",""trial"",""time""
""blur"",""5"",""27979""
""blur"",""69"",""621613""
","""event"",""trial"",""time""
""focus"",""5"",""38761""
""focus"",""71"",""628151""
","""event"",""trial"",""time""
""fullscreenenter"",""1"",""1670""
","""event"",""trial"",""time""
""fullscreenexit"",""5"",""26393""
","","","30.799999998882413","","","11","3758","917","&#9789;","elianto","#f73b6a7A"," "," ","1","-10","[85.60000000149012,401.6000000014901,654,883.9000000003725]","4","0","4","","","","","","","",""
"pit-trial","95","735758","0.0-2.0-17.2-4.2","battery-v0.2","","""event"",""trial"",""time""
""fullscreenenter"",""1"",""1670""
""fullscreenexit"",""5"",""26393""
""blur"",""5"",""27979""
""focus"",""5"",""38761""
""blur"",""69"",""621613""
""focus"",""71"",""628151""
","""event"",""trial"",""time""
""blur"",""5"",""27979""
""blur"",""69"",""621613""
","""event"",""trial"",""time""
""focus"",""5"",""38761""
""focus"",""71"",""628151""
","""event"",""trial"",""time""
""fullscreenenter"",""1"",""1670""
","""event"",""trial"",""time""
""fullscreenexit"",""5"",""26393""
","","","444.69999999925494","","","11","3758","917","&#9789;","elianto","#f73b6a7A"," "," ","1","0","[820.7000000011176,1298]","2","0","4","","","","","","","",""
"pit-trial","96","738711","0.0-2.0-17.3-0.3","battery-v0.2","","""event"",""trial"",""time""
""fullscreenenter"",""1"",""1670""
""fullscreenexit"",""5"",""26393""
""blur"",""5"",""27979""
""focus"",""5"",""38761""
""blur"",""69"",""621613""
""focus"",""71"",""628151""
","""event"",""trial"",""time""
""blur"",""5"",""27979""
""blur"",""69"",""621613""
","""event"",""trial"",""time""
""focus"",""5"",""38761""
""focus"",""71"",""628151""
","""event"",""trial"",""time""
""fullscreenenter"",""1"",""1670""
","""event"",""trial"",""time""
""fullscreenexit"",""5"",""26393""
","","","95.20000000111759","","","11","3758","917","&#9789;","elianto","#f73b6a7A"," "," ","1","0","[948.4000000003725]","1","0","4","","","","","","","",""
"pit-trial","97","742048","0.0-2.0-17.3-1.3","battery-v0.2","","""event"",""trial"",""time""
""fullscreenenter"",""1"",""1670""
""fullscreenexit"",""5"",""26393""
""blur"",""5"",""27979""
""focus"",""5"",""38761""
""blur"",""69"",""621613""
""focus"",""71"",""628151""
","""event"",""trial"",""time""
""blur"",""5"",""27979""
""blur"",""69"",""621613""
","""event"",""trial"",""time""
""focus"",""5"",""38761""
""focus"",""71"",""628151""
","""event"",""trial"",""time""
""fullscreenenter"",""1"",""1670""
","""event"",""trial"",""time""
""fullscreenexit"",""5"",""26393""
","","","476.2000000011176","","","11","3758","917","&#9789;","elianto","#f73b6a7A"," "," ","1","0","[1328.699999999255]","1","0","4","","","","","","","",""
"pit-trial","98","744983","0.0-2.0-17.3-2.3","battery-v0.2","","""event"",""trial"",""time""
""fullscreenenter"",""1"",""1670""
""fullscreenexit"",""5"",""26393""
""blur"",""5"",""27979""
""focus"",""5"",""38761""
""blur"",""69"",""621613""
""focus"",""71"",""628151""
","""event"",""trial"",""time""
""blur"",""5"",""27979""
""blur"",""69"",""621613""
","""event"",""trial"",""time""
""focus"",""5"",""38761""
""focus"",""71"",""628151""
","""event"",""trial"",""time""
""fullscreenenter"",""1"",""1670""
","""event"",""trial"",""time""
""fullscreenexit"",""5"",""26393""
","","","77.40000000037253","","","11","3758","917","&#9789;","elianto","#f73b6a7A"," "," ","1","0","[927.5999999996275]","1","0","4","","","","","","","",""
"pit-trial","99","747854","0.0-2.0-17.3-3.3","battery-v0.2","","""event"",""trial"",""time""
""fullscreenenter"",""1"",""1670""
""fullscreenexit"",""5"",""26393""
""blur"",""5"",""27979""
""focus"",""5"",""38761""
""blur"",""69"",""621613""
""focus"",""71"",""628151""
","""event"",""trial"",""time""
""blur"",""5"",""27979""
""blur"",""69"",""621613""
","""event"",""trial"",""time""
""focus"",""5"",""38761""
""focus"",""71"",""628151""
","""event"",""trial"",""time""
""fullscreenenter"",""1"",""1670""
","""event"",""trial"",""time""
""fullscreenexit"",""5"",""26393""
","","","9.099999999627471","","","11","3758","917","&#9789;","elianto","#f73b6a7A"," "," ","1","-10","[862.5999999996275]","1","0","4","","","","","","","",""
"pit-trial","100","751326","0.0-2.0-17.3-4.3","battery-v0.2","","""event"",""trial"",""time""
""fullscreenenter"",""1"",""1670""
""fullscreenexit"",""5"",""26393""
""blur"",""5"",""27979""
""focus"",""5"",""38761""
""blur"",""69"",""621613""
""focus"",""71"",""628151""
","""event"",""trial"",""time""
""blur"",""5"",""27979""
""blur"",""69"",""621613""
","""event"",""trial"",""time""
""focus"",""5"",""38761""
""focus"",""71"",""628151""
","""event"",""trial"",""time""
""fullscreenenter"",""1"",""1670""
","""event"",""trial"",""time""
""fullscreenexit"",""5"",""26393""
","","","614.2000000011176","","","11","3758","917","&#9789;","elianto","#f73b6a7A"," "," ","1","0","[773.1000000014901,1469.1000000014901]","2","0","4","","","","","","","",""
"call-function","101","751328","0.0-2.0-18.0","battery-v0.2","","""event"",""trial"",""time""
""fullscreenenter"",""1"",""1670""
""fullscreenexit"",""5"",""26393""
""blur"",""5"",""27979""
""focus"",""5"",""38761""
""blur"",""69"",""621613""
""focus"",""71"",""628151""
","""event"",""trial"",""time""
""blur"",""5"",""27979""
""blur"",""69"",""621613""
","""event"",""trial"",""time""
""focus"",""5"",""38761""
""focus"",""71"",""628151""
","""event"",""trial"",""time""
""fullscreenenter"",""1"",""1670""
","""event"",""trial"",""time""
""fullscreenexit"",""5"",""26393""
","","","","","","","","","","","","","","","","","","","","","","","","","","",""
"pit-instructions","102","821338","0.0-2.0-19.0","battery-v0.2","","""event"",""trial"",""time""
""fullscreenenter"",""1"",""1670""
""fullscreenexit"",""5"",""26393""
""blur"",""5"",""27979""
""focus"",""5"",""38761""
""blur"",""69"",""621613""
""focus"",""71"",""628151""
","""event"",""trial"",""time""
""blur"",""5"",""27979""
""blur"",""69"",""621613""
","""event"",""trial"",""time""
""focus"",""5"",""38761""
""focus"",""71"",""628151""
","""event"",""trial"",""time""
""fullscreenenter"",""1"",""1670""
","""event"",""trial"",""time""
""fullscreenexit"",""5"",""26393""
","","[{""page_index"":0,""viewing_time"":6062.0999999996275},{""page_index"":1,""viewing_time"":4126.5},{""page_index"":2,""viewing_time"":14008.299999998882},{""page_index"":3,""viewing_time"":8977.900000000373},{""page_index"":4,""viewing_time"":8400},{""page_index"":5,""viewing_time"":9320.900000000373},{""page_index"":6,""viewing_time"":8744.300000000745},{""page_index"":7,""viewing_time"":6316.5},{""page_index"":8,""viewing_time"":4052.5}]","70009.5","","","","","","","","","","","","","","","","","","","","","","","",""
"pit-comprehension","103","826707","0.0-2.0-20.0-0.0","battery-v0.2","","""event"",""trial"",""time""
""fullscreenenter"",""1"",""1670""
""fullscreenexit"",""5"",""26393""
""blur"",""5"",""27979""
""focus"",""5"",""38761""
""blur"",""69"",""621613""
""focus"",""71"",""628151""
","""event"",""trial"",""time""
""blur"",""5"",""27979""
""blur"",""69"",""621613""
","""event"",""trial"",""time""
""focus"",""5"",""38761""
""focus"",""71"",""628151""
","""event"",""trial"",""time""
""fullscreenenter"",""1"",""1670""
","""event"",""trial"",""time""
""fullscreenexit"",""5"",""26393""
","","","5366.10000000149","[""SPACE""]","0","11","3758","917","","","","","","","","","","","","","","","","","","",""
"pit-instructions","104","831592","0.0-2.0-20.0-1.0","battery-v0.2","","""event"",""trial"",""time""
""fullscreenenter"",""1"",""1670""
""fullscreenexit"",""5"",""26393""
""blur"",""5"",""27979""
""focus"",""5"",""38761""
""blur"",""69"",""621613""
""focus"",""71"",""628151""
","""event"",""trial"",""time""
""blur"",""5"",""27979""
""blur"",""69"",""621613""
","""event"",""trial"",""time""
""focus"",""5"",""38761""
""focus"",""71"",""628151""
","""event"",""trial"",""time""
""fullscreenenter"",""1"",""1670""
","""event"",""trial"",""time""
""fullscreenexit"",""5"",""26393""
","","[{""page_index"":0,""viewing_time"":4855.5}]","4856.099999997765","","","","","","","","","","","","","","","","","","","","","","","",""
"pit-comprehension","105","837023","0.0-2.0-21.0-0.0","battery-v0.2","","""event"",""trial"",""time""
""fullscreenenter"",""1"",""1670""
""fullscreenexit"",""5"",""26393""
""blur"",""5"",""27979""
""focus"",""5"",""38761""
""blur"",""69"",""621613""
""focus"",""71"",""628151""
","""event"",""trial"",""time""
""blur"",""5"",""27979""
""blur"",""69"",""621613""
","""event"",""trial"",""time""
""focus"",""5"",""38761""
""focus"",""71"",""628151""
","""event"",""trial"",""time""
""fullscreenenter"",""1"",""1670""
","""event"",""trial"",""time""
""fullscreenexit"",""5"",""26393""
","","","5427","[""10""]","0","11","3758","917","","","","","","","","","","","","","","","","","","",""
"pit-instructions","106","838719","0.0-2.0-21.0-1.0","battery-v0.2","","""event"",""trial"",""time""
""fullscreenenter"",""1"",""1670""
""fullscreenexit"",""5"",""26393""
""blur"",""5"",""27979""
""focus"",""5"",""38761""
""blur"",""69"",""621613""
""focus"",""71"",""628151""
","""event"",""trial"",""time""
""blur"",""5"",""27979""
""blur"",""69"",""621613""
","""event"",""trial"",""time""
""focus"",""5"",""38761""
""focus"",""71"",""628151""
","""event"",""trial"",""time""
""fullscreenenter"",""1"",""1670""
","""event"",""trial"",""time""
""fullscreenexit"",""5"",""26393""
","","[{""page_index"":0,""viewing_time"":1662.7000000029802}]","1663.1000000014901","","","","","","","","","","","","","","","","","","","","","","","",""
"pit-comprehension","107","844920","0.0-2.0-22.0-0.0","battery-v0.2","","""event"",""trial"",""time""
""fullscreenenter"",""1"",""1670""
""fullscreenexit"",""5"",""26393""
""blur"",""5"",""27979""
""focus"",""5"",""38761""
""blur"",""69"",""621613""
""focus"",""71"",""628151""
","""event"",""trial"",""time""
""blur"",""5"",""27979""
""blur"",""69"",""621613""
","""event"",""trial"",""time""
""focus"",""5"",""38761""
""focus"",""71"",""628151""
","""event"",""trial"",""time""
""fullscreenenter"",""1"",""1670""
","""event"",""trial"",""time""
""fullscreenexit"",""5"",""26393""
","","","6197.099999997765","[""0""]","0","11","3758","917","","","","","","","","","","","","","","","","","","",""
"pit-instructions","108","846101","0.0-2.0-22.0-1.0","battery-v0.2","","""event"",""trial"",""time""
""fullscreenenter"",""1"",""1670""
""fullscreenexit"",""5"",""26393""
""blur"",""5"",""27979""
""focus"",""5"",""38761""
""blur"",""69"",""621613""
""focus"",""71"",""628151""
","""event"",""trial"",""time""
""blur"",""5"",""27979""
""blur"",""69"",""621613""
","""event"",""trial"",""time""
""focus"",""5"",""38761""
""focus"",""71"",""628151""
","""event"",""trial"",""time""
""fullscreenenter"",""1"",""1670""
","""event"",""trial"",""time""
""fullscreenexit"",""5"",""26393""
","","[{""page_index"":0,""viewing_time"":1155.699999999255}]","1155.9000000022352","","","","","","","","","","","","","","","","","","","","","","","",""
"pit-comprehension","109","854322","0.0-2.0-23.0-0.0","battery-v0.2","","""event"",""trial"",""time""
""fullscreenenter"",""1"",""1670""
""fullscreenexit"",""5"",""26393""
""blur"",""5"",""27979""
""focus"",""5"",""38761""
""blur"",""69"",""621613""
""focus"",""71"",""628151""
","""event"",""trial"",""time""
""blur"",""5"",""27979""
""blur"",""69"",""621613""
","""event"",""trial"",""time""
""focus"",""5"",""38761""
""focus"",""71"",""628151""
","""event"",""trial"",""time""
""fullscreenenter"",""1"",""1670""
","""event"",""trial"",""time""
""fullscreenexit"",""5"",""26393""
","","","8218.800000000745","[""True""]","0","11","3758","917","","","","","","","","","","","","","","","","","","",""
"pit-instructions","110","855507","0.0-2.0-23.0-1.0","battery-v0.2","","""event"",""trial"",""time""
""fullscreenenter"",""1"",""1670""
""fullscreenexit"",""5"",""26393""
""blur"",""5"",""27979""
""focus"",""5"",""38761""
""blur"",""69"",""621613""
""focus"",""71"",""628151""
","""event"",""trial"",""time""
""blur"",""5"",""27979""
""blur"",""69"",""621613""
","""event"",""trial"",""time""
""focus"",""5"",""38761""
""focus"",""71"",""628151""
","""event"",""trial"",""time""
""fullscreenenter"",""1"",""1670""
","""event"",""trial"",""time""
""fullscreenexit"",""5"",""26393""
","","[{""page_index"":0,""viewing_time"":1154.8999999985099}]","1155.0999999977648","","","","","","","","","","","","","","","","","","","","","","","",""
"pit-comprehension","111","862671","0.0-2.0-24.0-0.0","battery-v0.2","","""event"",""trial"",""time""
""fullscreenenter"",""1"",""1670""
""fullscreenexit"",""5"",""26393""
""blur"",""5"",""27979""
""focus"",""5"",""38761""
""blur"",""69"",""621613""
""focus"",""71"",""628151""
","""event"",""trial"",""time""
""blur"",""5"",""27979""
""blur"",""69"",""621613""
","""event"",""trial"",""time""
""focus"",""5"",""38761""
""focus"",""71"",""628151""
","""event"",""trial"",""time""
""fullscreenenter"",""1"",""1670""
","""event"",""trial"",""time""
""fullscreenexit"",""5"",""26393""
","","","7162.60000000149","[""True""]","0","11","3758","917","","","","","","","","","","","","","","","","","","",""
"pit-instructions","112","863709","0.0-2.0-24.0-1.0","battery-v0.2","","""event"",""trial"",""time""
""fullscreenenter"",""1"",""1670""
""fullscreenexit"",""5"",""26393""
""blur"",""5"",""27979""
""focus"",""5"",""38761""
""blur"",""69"",""621613""
""focus"",""71"",""628151""
","""event"",""trial"",""time""
""blur"",""5"",""27979""
""blur"",""69"",""621613""
","""event"",""trial"",""time""
""focus"",""5"",""38761""
""focus"",""71"",""628151""
","""event"",""trial"",""time""
""fullscreenenter"",""1"",""1670""
","""event"",""trial"",""time""
""fullscreenexit"",""5"",""26393""
","","[{""page_index"":0,""viewing_time"":1008.7999999970198}]","1008.8999999985099","","","","","","","","","","","","","","","","","","","","","","","",""
"pit-comprehension","113","869973","0.0-2.0-25.0-0.0","battery-v0.2","","""event"",""trial"",""time""
""fullscreenenter"",""1"",""1670""
""fullscreenexit"",""5"",""26393""
""blur"",""5"",""27979""
""focus"",""5"",""38761""
""blur"",""69"",""621613""
""focus"",""71"",""628151""
","""event"",""trial"",""time""
""blur"",""5"",""27979""
""blur"",""69"",""621613""
","""event"",""trial"",""time""
""focus"",""5"",""38761""
""focus"",""71"",""628151""
","""event"",""trial"",""time""
""fullscreenenter"",""1"",""1670""
","""event"",""trial"",""time""
""fullscreenexit"",""5"",""26393""
","","","6262.39999999851","[""True""]","0","11","3758","917","","","","","","","","","","","","","","","","","","",""
"pit-instructions","114","872153","0.0-2.0-25.0-1.0","battery-v0.2","","""event"",""trial"",""time""
""fullscreenenter"",""1"",""1670""
""fullscreenexit"",""5"",""26393""
""blur"",""5"",""27979""
""focus"",""5"",""38761""
""blur"",""69"",""621613""
""focus"",""71"",""628151""
","""event"",""trial"",""time""
""blur"",""5"",""27979""
""blur"",""69"",""621613""
","""event"",""trial"",""time""
""focus"",""5"",""38761""
""focus"",""71"",""628151""
","""event"",""trial"",""time""
""fullscreenenter"",""1"",""1670""
","""event"",""trial"",""time""
""fullscreenexit"",""5"",""26393""
","","[{""page_index"":0,""viewing_time"":2152.300000000745}]","2152.39999999851","","","","","","","","","","","","","","","","","","","","","","","",""
"pit-comprehension","115","876970","0.0-2.0-26.0-0.0","battery-v0.2","","""event"",""trial"",""time""
""fullscreenenter"",""1"",""1670""
""fullscreenexit"",""5"",""26393""
""blur"",""5"",""27979""
""focus"",""5"",""38761""
""blur"",""69"",""621613""
""focus"",""71"",""628151""
","""event"",""trial"",""time""
""blur"",""5"",""27979""
""blur"",""69"",""621613""
","""event"",""trial"",""time""
""focus"",""5"",""38761""
""focus"",""71"",""628151""
","""event"",""trial"",""time""
""fullscreenenter"",""1"",""1670""
","""event"",""trial"",""time""
""fullscreenexit"",""5"",""26393""
","","","4815.39999999851","[""False""]","0","11","3758","917","","","","","","","","","","","","","","","","","","",""
"pit-instructions","116","878385","0.0-2.0-26.0-1.0","battery-v0.2","","""event"",""trial"",""time""
""fullscreenenter"",""1"",""1670""
""fullscreenexit"",""5"",""26393""
""blur"",""5"",""27979""
""focus"",""5"",""38761""
""blur"",""69"",""621613""
""focus"",""71"",""628151""
","""event"",""trial"",""time""
""blur"",""5"",""27979""
""blur"",""69"",""621613""
","""event"",""trial"",""time""
""focus"",""5"",""38761""
""focus"",""71"",""628151""
","""event"",""trial"",""time""
""fullscreenenter"",""1"",""1670""
","""event"",""trial"",""time""
""fullscreenexit"",""5"",""26393""
","","[{""page_index"":0,""viewing_time"":1386.5}]","1386.699999999255","","","","","","","","","","","","","","","","","","","","","","","",""
"pit-instructions","117","903399","0.0-3.0","battery-v0.2","","""event"",""trial"",""time""
""fullscreenenter"",""1"",""1670""
""fullscreenexit"",""5"",""26393""
""blur"",""5"",""27979""
""focus"",""5"",""38761""
""blur"",""69"",""621613""
""focus"",""71"",""628151""
","""event"",""trial"",""time""
""blur"",""5"",""27979""
""blur"",""69"",""621613""
","""event"",""trial"",""time""
""focus"",""5"",""38761""
""focus"",""71"",""628151""
","""event"",""trial"",""time""
""fullscreenenter"",""1"",""1670""
","""event"",""trial"",""time""
""fullscreenexit"",""5"",""26393""
","","[{""page_index"":0,""viewing_time"":5969.89999999851},{""page_index"":1,""viewing_time"":7098.800000000745},{""page_index"":2,""viewing_time"":11943.599999997765}]","25012.599999997765","","","","","","","","","","","","","","","","","","","","","","","",""
"pit-trial","118","906889","0.0-4.0","battery-v0.2","","""event"",""trial"",""time""
""fullscreenenter"",""1"",""1670""
""fullscreenexit"",""5"",""26393""
""blur"",""5"",""27979""
""focus"",""5"",""38761""
""blur"",""69"",""621613""
""focus"",""71"",""628151""
","""event"",""trial"",""time""
""blur"",""5"",""27979""
""blur"",""69"",""621613""
","""event"",""trial"",""time""
""focus"",""5"",""38761""
""focus"",""71"",""628151""
","""event"",""trial"",""time""
""fullscreenenter"",""1"",""1670""
","""event"",""trial"",""time""
""fullscreenexit"",""5"",""26393""
","","","622.6999999992549","","","11","3758","917","&#9752;","elianto","#f73b6a7A"," "," ","1","0","[1474.699999999255]","1","1","","","3758","1","3","3","lose","go","0"
"pit-trial","119","910317","0.0-5.0","battery-v0.2","","""event"",""trial"",""time""
""fullscreenenter"",""1"",""1670""
""fullscreenexit"",""5"",""26393""
""blur"",""5"",""27979""
""focus"",""5"",""38761""
""blur"",""69"",""621613""
""focus"",""71"",""628151""
","""event"",""trial"",""time""
""blur"",""5"",""27979""
""blur"",""69"",""621613""
","""event"",""trial"",""time""
""focus"",""5"",""38761""
""focus"",""71"",""628151""
","""event"",""trial"",""time""
""fullscreenenter"",""1"",""1670""
","""event"",""trial"",""time""
""fullscreenexit"",""5"",""26393""
","","","557.6999999992549","","","11","3758","917","&#9730;","elianto","#3366ff99"," "," ","1","+10","[1413.5999999977648]","1","1","","","3758","2","1","1","win","go","0"
"pit-trial","120","915201","0.0-6.0","battery-v0.2","","""event"",""trial"",""time""
""fullscreenenter"",""1"",""1670""
""fullscreenexit"",""5"",""26393""
""blur"",""5"",""27979""
""focus"",""5"",""38761""
""blur"",""69"",""621613""
""focus"",""71"",""628151""
","""event"",""trial"",""time""
""blur"",""5"",""27979""
""blur"",""69"",""621613""
","""event"",""trial"",""time""
""focus"",""5"",""38761""
""focus"",""71"",""628151""
","""event"",""trial"",""time""
""fullscreenenter"",""1"",""1670""
","""event"",""trial"",""time""
""fullscreenexit"",""5"",""26393""
","","","-1","","","11","3758","917","&#9733;","elianto","#3366ff99","-1","-1","1","+10","[]","0","1","","","3758","3","2","2","win","no-go","0"
"pit-trial","121","920082","0.0-7.0","battery-v0.2","","""event"",""trial"",""time""
""fullscreenenter"",""1"",""1670""
""fullscreenexit"",""5"",""26393""
""blur"",""5"",""27979""
""focus"",""5"",""38761""
""blur"",""69"",""621613""
""focus"",""71"",""628151""
","""event"",""trial"",""time""
""blur"",""5"",""27979""
""blur"",""69"",""621613""
","""event"",""trial"",""time""
""focus"",""5"",""38761""
""focus"",""71"",""628151""
","""event"",""trial"",""time""
""fullscreenenter"",""1"",""1670""
","""event"",""trial"",""time""
""fullscreenexit"",""5"",""26393""
","","","-1","","","11","3758","917","&#9728;","elianto","#f73b6a7A","-1","-1","1","0","[]","0","1","","","3758","4","0","4","lose","no-go","0"
"pit-trial","122","924946","0.0-8.0","battery-v0.2","","""event"",""trial"",""time""
""fullscreenenter"",""1"",""1670""
""fullscreenexit"",""5"",""26393""
""blur"",""5"",""27979""
""focus"",""5"",""38761""
""blur"",""69"",""621613""
""focus"",""71"",""628151""
","""event"",""trial"",""time""
""blur"",""5"",""27979""
""blur"",""69"",""621613""
","""event"",""trial"",""time""
""focus"",""5"",""38761""
""focus"",""71"",""628151""
","""event"",""trial"",""time""
""fullscreenenter"",""1"",""1670""
","""event"",""trial"",""time""
""fullscreenexit"",""5"",""26393""
","","","-1","","","11","3758","917","&#9733;","elianto","#3366ff99","-1","-1","1","0","[]","0","1","","","3758","5","2","2","win","no-go","1"
"pit-trial","123","928648","0.0-9.0","battery-v0.2","","""event"",""trial"",""time""
""fullscreenenter"",""1"",""1670""
""fullscreenexit"",""5"",""26393""
""blur"",""5"",""27979""
""focus"",""5"",""38761""
""blur"",""69"",""621613""
""focus"",""71"",""628151""
","""event"",""trial"",""time""
""blur"",""5"",""27979""
""blur"",""69"",""621613""
","""event"",""trial"",""time""
""focus"",""5"",""38761""
""focus"",""71"",""628151""
","""event"",""trial"",""time""
""fullscreenenter"",""1"",""1670""
","""event"",""trial"",""time""
""fullscreenexit"",""5"",""26393""
","","","845.3000000007451","","","11","3758","917","&#9730;","elianto","#3366ff99"," "," ","1","0","[1695.7000000029802]","1","1","","","3758","6","1","1","win","go","1"
"pit-trial","124","933158","0.0-10.0","battery-v0.2","","""event"",""trial"",""time""
""fullscreenenter"",""1"",""1670""
""fullscreenexit"",""5"",""26393""
""blur"",""5"",""27979""
""focus"",""5"",""38761""
""blur"",""69"",""621613""
""focus"",""71"",""628151""
","""event"",""trial"",""time""
""blur"",""5"",""27979""
""blur"",""69"",""621613""
","""event"",""trial"",""time""
""focus"",""5"",""38761""
""focus"",""71"",""628151""
","""event"",""trial"",""time""
""fullscreenenter"",""1"",""1670""
","""event"",""trial"",""time""
""fullscreenexit"",""5"",""26393""
","","","1654.300000000745","","","11","3758","917","&#9752;","elianto","#f73b6a7A"," "," ","1","0","[2507.099999997765]","1","1","","","3758","7","3","3","lose","go","0"
"pit-trial","125","937046","0.0-11.0","battery-v0.2","","""event"",""trial"",""time""
""fullscreenenter"",""1"",""1670""
""fullscreenexit"",""5"",""26393""
""blur"",""5"",""27979""
""focus"",""5"",""38761""
""blur"",""69"",""621613""
""focus"",""71"",""628151""
","""event"",""trial"",""time""
""blur"",""5"",""27979""
""blur"",""69"",""621613""
","""event"",""trial"",""time""
""focus"",""5"",""38761""
""focus"",""71"",""628151""
","""event"",""trial"",""time""
""fullscreenenter"",""1"",""1670""
","""event"",""trial"",""time""
""fullscreenexit"",""5"",""26393""
","","","1029.9000000022352","","","11","3758","917","&#9728;","elianto","#f73b6a7A","-1"," ","0","-10","[1881.6000000014901]","1","1","","","3758","8","0","4","lose","no-go","0"
"pit-trial","126","941911","0.0-12.0","battery-v0.2","","""event"",""trial"",""time""
""fullscreenenter"",""1"",""1670""
""fullscreenexit"",""5"",""26393""
""blur"",""5"",""27979""
""focus"",""5"",""38761""
""blur"",""69"",""621613""
""focus"",""71"",""628151""
","""event"",""trial"",""time""
""blur"",""5"",""27979""
""blur"",""69"",""621613""
","""event"",""trial"",""time""
""focus"",""5"",""38761""
""focus"",""71"",""628151""
","""event"",""trial"",""time""
""fullscreenenter"",""1"",""1670""
","""event"",""trial"",""time""
""fullscreenexit"",""5"",""26393""
","","","-1","","","11","3758","917","&#9733;","elianto","#3366ff99","-1","-1","1","+10","[]","0","1","","","3758","9","2","2","win","no-go","0"
"pit-trial","127","946783","0.0-13.0","battery-v0.2","","""event"",""trial"",""time""
""fullscreenenter"",""1"",""1670""
""fullscreenexit"",""5"",""26393""
""blur"",""5"",""27979""
""focus"",""5"",""38761""
""blur"",""69"",""621613""
""focus"",""71"",""628151""
","""event"",""trial"",""time""
""blur"",""5"",""27979""
""blur"",""69"",""621613""
","""event"",""trial"",""time""
""focus"",""5"",""38761""
""focus"",""71"",""628151""
","""event"",""trial"",""time""
""fullscreenenter"",""1"",""1670""
","""event"",""trial"",""time""
""fullscreenexit"",""5"",""26393""
","","","-1","","","11","3758","917","&#9730;","elianto","#3366ff99"," ","-1","0","+10","[]","0","1","","","3758","10","1","1","win","go","1"
"pit-trial","128","951630","0.0-14.0","battery-v0.2","","""event"",""trial"",""time""
""fullscreenenter"",""1"",""1670""
""fullscreenexit"",""5"",""26393""
""blur"",""5"",""27979""
""focus"",""5"",""38761""
""blur"",""69"",""621613""
""focus"",""71"",""628151""
","""event"",""trial"",""time""
""blur"",""5"",""27979""
""blur"",""69"",""621613""
","""event"",""trial"",""time""
""focus"",""5"",""38761""
""focus"",""71"",""628151""
","""event"",""trial"",""time""
""fullscreenenter"",""1"",""1670""
","""event"",""trial"",""time""
""fullscreenexit"",""5"",""26393""
","","","1984.7000000029802","","","11","3758","917","&#9728;","elianto","#f73b6a7A","-1"," ","0","-10","[2838.400000002235]","1","1","","","3758","11","0","4","lose","no-go","0"
"pit-trial","129","955574","0.0-15.0","battery-v0.2","","""event"",""trial"",""time""
""fullscreenenter"",""1"",""1670""
""fullscreenexit"",""5"",""26393""
""blur"",""5"",""27979""
""focus"",""5"",""38761""
""blur"",""69"",""621613""
""focus"",""71"",""628151""
","""event"",""trial"",""time""
""blur"",""5"",""27979""
""blur"",""69"",""621613""
","""event"",""trial"",""time""
""focus"",""5"",""38761""
""focus"",""71"",""628151""
","""event"",""trial"",""time""
""fullscreenenter"",""1"",""1670""
","""event"",""trial"",""time""
""fullscreenexit"",""5"",""26393""
","","","1084.8999999985099","","","11","3758","917","&#9752;","elianto","#f73b6a7A"," "," ","1","0","[1938.4000000022352,3675.10000000149]","2","1","","","3758","12","3","3","lose","go","0"
"pit-trial","130","960438","0.0-16.0","battery-v0.2","","""event"",""trial"",""time""
""fullscreenenter"",""1"",""1670""
""fullscreenexit"",""5"",""26393""
""blur"",""5"",""27979""
""focus"",""5"",""38761""
""blur"",""69"",""621613""
""focus"",""71"",""628151""
","""event"",""trial"",""time""
""blur"",""5"",""27979""
""blur"",""69"",""621613""
","""event"",""trial"",""time""
""focus"",""5"",""38761""
""focus"",""71"",""628151""
","""event"",""trial"",""time""
""fullscreenenter"",""1"",""1670""
","""event"",""trial"",""time""
""fullscreenexit"",""5"",""26393""
","","","-1","","","11","3758","917","&#9728;","elianto","#f73b6a7A","-1","-1","1","0","[]","0","1","","","3758","13","0","4","lose","no-go","0"
"pit-trial","131","965310","0.0-17.0","battery-v0.2","","""event"",""trial"",""time""
""fullscreenenter"",""1"",""1670""
""fullscreenexit"",""5"",""26393""
""blur"",""5"",""27979""
""focus"",""5"",""38761""
""blur"",""69"",""621613""
""focus"",""71"",""628151""
","""event"",""trial"",""time""
""blur"",""5"",""27979""
""blur"",""69"",""621613""
","""event"",""trial"",""time""
""focus"",""5"",""38761""
""focus"",""71"",""628151""
","""event"",""trial"",""time""
""fullscreenenter"",""1"",""1670""
","""event"",""trial"",""time""
""fullscreenexit"",""5"",""26393""
","","","-1","","","11","3758","917","&#9730;","elianto","#3366ff99"," ","-1","0","0","[4772.300000000745]","1","1","","","3758","14","1","1","win","go","0"
"pit-trial","132","968782","0.0-18.0","battery-v0.2","","""event"",""trial"",""time""
""fullscreenenter"",""1"",""1670""
""fullscreenexit"",""5"",""26393""
""blur"",""5"",""27979""
""focus"",""5"",""38761""
""blur"",""69"",""621613""
""focus"",""71"",""628151""
","""event"",""trial"",""time""
""blur"",""5"",""27979""
""blur"",""69"",""621613""
","""event"",""trial"",""time""
""focus"",""5"",""38761""
""focus"",""71"",""628151""
","""event"",""trial"",""time""
""fullscreenenter"",""1"",""1670""
","""event"",""trial"",""time""
""fullscreenexit"",""5"",""26393""
","","","613.6999999992549","","","11","3758","917","&#9733;","elianto","#3366ff99","-1"," ","0","+10","[1464.3999999985099]","1","1","","","3758","15","2","2","win","no-go","1"
"pit-trial","133","972896","0.0-19.0","battery-v0.2","","""event"",""trial"",""time""
""fullscreenenter"",""1"",""1670""
""fullscreenexit"",""5"",""26393""
""blur"",""5"",""27979""
""focus"",""5"",""38761""
""blur"",""69"",""621613""
""focus"",""71"",""628151""
","""event"",""trial"",""time""
""blur"",""5"",""27979""
""blur"",""69"",""621613""
","""event"",""trial"",""time""
""focus"",""5"",""38761""
""focus"",""71"",""628151""
","""event"",""trial"",""time""
""fullscreenenter"",""1"",""1670""
","""event"",""trial"",""time""
""fullscreenexit"",""5"",""26393""
","","","1254.3999999985099","","","11","3758","917","&#9752;","elianto","#f73b6a7A"," "," ","1","0","[2109.599999997765]","1","1","","","3758","16","3","3","lose","go","0"
"pit-trial","134","977759","0.0-20.0","battery-v0.2","","""event"",""trial"",""time""
""fullscreenenter"",""1"",""1670""
""fullscreenexit"",""5"",""26393""
""blur"",""5"",""27979""
""focus"",""5"",""38761""
""blur"",""69"",""621613""
""focus"",""71"",""628151""
","""event"",""trial"",""time""
""blur"",""5"",""27979""
""blur"",""69"",""621613""
","""event"",""trial"",""time""
""focus"",""5"",""38761""
""focus"",""71"",""628151""
","""event"",""trial"",""time""
""fullscreenenter"",""1"",""1670""
","""event"",""trial"",""time""
""fullscreenexit"",""5"",""26393""
","","","-1","","","11","3758","917","&#9733;","elianto","#3366ff99","-1","-1","1","+10","[]","0","1","","","3758","17","2","2","win","no-go","0"
"pit-trial","135","982623","0.0-21.0","battery-v0.2","","""event"",""trial"",""time""
""fullscreenenter"",""1"",""1670""
""fullscreenexit"",""5"",""26393""
""blur"",""5"",""27979""
""focus"",""5"",""38761""
""blur"",""69"",""621613""
""focus"",""71"",""628151""
","""event"",""trial"",""time""
""blur"",""5"",""27979""
""blur"",""69"",""621613""
","""event"",""trial"",""time""
""focus"",""5"",""38761""
""focus"",""71"",""628151""
","""event"",""trial"",""time""
""fullscreenenter"",""1"",""1670""
","""event"",""trial"",""time""
""fullscreenexit"",""5"",""26393""
","","","-1","","","11","3758","917","&#9752;","elianto","#f73b6a7A"," ","-1","0","-10","[2951.300000000745,3984.60000000149,4241.5,4597.800000000745]","4","1","","","3758","18","3","3","lose","go","0"
"pit-trial","136","987487","0.0-22.0","battery-v0.2","","""event"",""trial"",""time""
""fullscreenenter"",""1"",""1670""
""fullscreenexit"",""5"",""26393""
""blur"",""5"",""27979""
""focus"",""5"",""38761""
""blur"",""69"",""621613""
""focus"",""71"",""628151""
","""event"",""trial"",""time""
""blur"",""5"",""27979""
""blur"",""69"",""621613""
","""event"",""trial"",""time""
""focus"",""5"",""38761""
""focus"",""71"",""628151""
","""event"",""trial"",""time""
""fullscreenenter"",""1"",""1670""
","""event"",""trial"",""time""
""fullscreenexit"",""5"",""26393""
","","","-1","","","11","3758","917","&#9728;","elianto","#f73b6a7A","-1","-1","1","0","[157.60000000149012]","1","1","","","3758","19","0","4","lose","no-go","0"
"pit-trial","137","992360","0.0-23.0","battery-v0.2","","""event"",""trial"",""time""
""fullscreenenter"",""1"",""1670""
""fullscreenexit"",""5"",""26393""
""blur"",""5"",""27979""
""focus"",""5"",""38761""
""blur"",""69"",""621613""
""focus"",""71"",""628151""
","""event"",""trial"",""time""
""blur"",""5"",""27979""
""blur"",""69"",""621613""
","""event"",""trial"",""time""
""focus"",""5"",""38761""
""focus"",""71"",""628151""
","""event"",""trial"",""time""
""fullscreenenter"",""1"",""1670""
","""event"",""trial"",""time""
""fullscreenexit"",""5"",""26393""
","","","-1","","","11","3758","917","&#9730;","elianto","#3366ff99"," ","-1","0","0","[]","0","1","","","3758","20","1","1","win","go","0"
"pit-instructions","138","1005379","0.0-24.0","battery-v0.2","","""event"",""trial"",""time""
""fullscreenenter"",""1"",""1670""
""fullscreenexit"",""5"",""26393""
""blur"",""5"",""27979""
""focus"",""5"",""38761""
""blur"",""69"",""621613""
""focus"",""71"",""628151""
","""event"",""trial"",""time""
""blur"",""5"",""27979""
""blur"",""69"",""621613""
","""event"",""trial"",""time""
""focus"",""5"",""38761""
""focus"",""71"",""628151""
","""event"",""trial"",""time""
""fullscreenenter"",""1"",""1670""
","""event"",""trial"",""time""
""fullscreenexit"",""5"",""26393""
","","[{""page_index"":0,""viewing_time"":6086.300000000745},{""page_index"":1,""viewing_time"":6931.10000000149}]","13018","","","","","","","","","","","","","","","","","","","","","","","",""
"pit-trial","139","1009023","0.0-25.0","battery-v0.2","","""event"",""trial"",""time""
""fullscreenenter"",""1"",""1670""
""fullscreenexit"",""5"",""26393""
""blur"",""5"",""27979""
""focus"",""5"",""38761""
""blur"",""69"",""621613""
""focus"",""71"",""628151""
","""event"",""trial"",""time""
""blur"",""5"",""27979""
""blur"",""69"",""621613""
","""event"",""trial"",""time""
""focus"",""5"",""38761""
""focus"",""71"",""628151""
","""event"",""trial"",""time""
""fullscreenenter"",""1"",""1670""
","""event"",""trial"",""time""
""fullscreenexit"",""5"",""26393""
","","","767.6000000014901","","","11","3758","917","y","elianto","#f73b6a7A","-1"," ","0","0","[1622.8999999985099]","1","2","","","3758","21","2","4","lose","no-go","1"
"pit-trial","140","1012679","0.0-26.0","battery-v0.2","","""event"",""trial"",""time""
""fullscreenenter"",""1"",""1670""
""fullscreenexit"",""5"",""26393""
""blur"",""5"",""27979""
""focus"",""5"",""38761""
""blur"",""69"",""621613""
""focus"",""71"",""628151""
","""event"",""trial"",""time""
""blur"",""5"",""27979""
""blur"",""69"",""621613""
","""event"",""trial"",""time""
""focus"",""5"",""38761""
""focus"",""71"",""628151""
","""event"",""trial"",""time""
""fullscreenenter"",""1"",""1670""
","""event"",""trial"",""time""
""fullscreenexit"",""5"",""26393""
","","","788.7999999970198","","","11","3758","917","r","elianto","#3366ff99"," "," ","1","+10","[1641.8999999985099]","1","2","","","3758","22","1","1","win","go","0"
"pit-trial","141","1016738","0.0-27.0","battery-v0.2","","""event"",""trial"",""time""
""fullscreenenter"",""1"",""1670""
""fullscreenexit"",""5"",""26393""
""blur"",""5"",""27979""
""focus"",""5"",""38761""
""blur"",""69"",""621613""
""focus"",""71"",""628151""
","""event"",""trial"",""time""
""blur"",""5"",""27979""
""blur"",""69"",""621613""
","""event"",""trial"",""time""
""focus"",""5"",""38761""
""focus"",""71"",""628151""
","""event"",""trial"",""time""
""fullscreenenter"",""1"",""1670""
","""event"",""trial"",""time""
""fullscreenexit"",""5"",""26393""
","","","1195.6000000014901","","","11","3758","917","m","elianto","#f73b6a7A","-1"," ","0","-10","[2046.0999999977648]","1","2","","","3758","23","0","4","lose","no-go","0"
"pit-trial","142","1021620","0.0-28.0","battery-v0.2","","""event"",""trial"",""time""
""fullscreenenter"",""1"",""1670""
""fullscreenexit"",""5"",""26393""
""blur"",""5"",""27979""
""focus"",""5"",""38761""
""blur"",""69"",""621613""
""focus"",""71"",""628151""
","""event"",""trial"",""time""
""blur"",""5"",""27979""
""blur"",""69"",""621613""
","""event"",""trial"",""time""
""focus"",""5"",""38761""
""focus"",""71"",""628151""
","""event"",""trial"",""time""
""fullscreenenter"",""1"",""1670""
