"trial_type","trial_index","time_elapsed","internal_node_id","task_version","subject_id","interactions","blur_events","focus_events","fullscreenenter_events","fullscreenexit_events","success","view_history","rt","responses","num_errors","age","subject","participantId","rune","rune_set","hex","correct","choice","accuracy","outcome","keys","total_keys","block","practice","value","sub","trial","stimulus","robot","valence","action","sham"
"pavlovia","0","6","0.0-0.0","battery-v0.2","","""event"",""trial"",""time""
""fullscreenenter"",""1"",""2402""
","
","
","""event"",""trial"",""time""
""fullscreenenter"",""1"",""2402""
","
","","","","","","","","","","","","","","","","","","","","","","","","","","",""
"fullscreen","1","3392","0.0-1.0","battery-v0.2","","""event"",""trial"",""time""
""fullscreenenter"",""1"",""2402""
","
","
","""event"",""trial"",""time""
""fullscreenenter"",""1"",""2402""
","
","true","","","","","","","","","","","","","","","","","","","","","","","","","",""
"pit-instructions","2","7200","0.0-2.0-0.0","battery-v0.2","","""event"",""trial"",""time""
""fullscreenenter"",""1"",""2402""
","
","
","""event"",""trial"",""time""
""fullscreenenter"",""1"",""2402""
","
","","[{""page_index"":0,""viewing_time"":3806.3000000715256}]","3806.600000023842","","","","","","","","","","","","","","","","","","","","","","","",""
"pit-comprehension","3","9871","0.0-2.0-1.0-0.0","battery-v0.2","","""event"",""trial"",""time""
""fullscreenenter"",""1"",""2402""
","
","
","""event"",""trial"",""time""
""fullscreenenter"",""1"",""2402""
","
","","","2668.399999976158","[""shark""]","0","11","7845","4065","","","","","","","","","","","","","","","","","","",""
"pit-instructions","4","11550","0.0-2.0-1.0-1.0","battery-v0.2","","""event"",""trial"",""time""
""fullscreenenter"",""1"",""2402""
","
","
","""event"",""trial"",""time""
""fullscreenenter"",""1"",""2402""
","
","","[{""page_index"":0,""viewing_time"":1674.8999999761581}]","1675.1999999284744","","","","","","","","","","","","","","","","","","","","","","","",""
"pit-comprehension","5","15520","0.0-2.0-2.0-0.0","battery-v0.2","","""event"",""trial"",""time""
""fullscreenenter"",""1"",""2402""
","
","
","""event"",""trial"",""time""
""fullscreenenter"",""1"",""2402""
","
","","","3968.5999999046326","[""tiger""]","0","11","7845","4065","","","","","","","","","","","","","","","","","","",""
"pit-instructions","6","16760","0.0-2.0-2.0-1.0","battery-v0.2","","""event"",""trial"",""time""
""fullscreenenter"",""1"",""2402""
","
","
","""event"",""trial"",""time""
""fullscreenenter"",""1"",""2402""
","
","","[{""page_index"":0,""viewing_time"":1238}]","1238.2000000476837","","","","","","","","","","","","","","","","","","","","","","","",""
"pit-instructions","7","117277","0.0-2.0-3.0","battery-v0.2","","""event"",""trial"",""time""
""fullscreenenter"",""1"",""2402""
","
","
","""event"",""trial"",""time""
""fullscreenenter"",""1"",""2402""
","
","","[{""page_index"":0,""viewing_time"":8248.399999976158},{""page_index"":1,""viewing_time"":6279.899999976158},{""page_index"":2,""viewing_time"":6509.800000071526},{""page_index"":3,""viewing_time"":6100.299999952316},{""page_index"":4,""viewing_time"":6850},{""page_index"":5,""viewing_time"":6220},{""page_index"":6,""viewing_time"":9959.600000023842},{""page_index"":7,""viewing_time"":8050.5},{""page_index"":8,""viewing_time"":7000},{""page_index"":9,""viewing_time"":8320},{""page_index"":10,""viewing_time"":7406.100000023842},{""page_index"":11,""viewing_time"":6613},{""page_index"":12,""viewing_time"":6220.599999904633},{""page_index"":13,""viewing_time"":6729.600000023842}]","100508.10000002384","","","","","","","","","","","","","","","","","","","","","","","",""
"pit-trial","8","120997","0.0-2.0-4.0-0.0","battery-v0.2","","""event"",""trial"",""time""
""fullscreenenter"",""1"",""2402""
","
","
","""event"",""trial"",""time""
""fullscreenenter"",""1"",""2402""
","
","","","851","","","11","7845","4065","&#9784;","elianto","#FFFFF080"," "," ","1","&#10004","[1702.3000000715256]","1","0","0","","","","","","","",""
"pit-trial","9","124547","0.0-2.0-4.1-0.1","battery-v0.2","","""event"",""trial"",""time""
""fullscreenenter"",""1"",""2402""
","
","
","""event"",""trial"",""time""
""fullscreenenter"",""1"",""2402""
","
","","","686","","","11","7845","4065","&#9784;","elianto","#FFFFF080"," "," ","1","&#10004","[1536.2999999523163]","1","0","0","","","","","","","",""
"pit-trial","10","128117","0.0-2.0-4.2-0.2","battery-v0.2","","""event"",""trial"",""time""
""fullscreenenter"",""1"",""2402""
","
","
","""event"",""trial"",""time""
""fullscreenenter"",""1"",""2402""
","
","","","701.2000000476837","","","11","7845","4065","&#9784;","elianto","#FFFFF080"," "," ","1","&#10004","[1565.1000000238419]","1","0","0","","","","","","","",""
"pit-trial","11","131757","0.0-2.0-4.3-0.3","battery-v0.2","","""event"",""trial"",""time""
""fullscreenenter"",""1"",""2402""
","
","
","""event"",""trial"",""time""
""fullscreenenter"",""1"",""2402""
","
","","","778.1000000238419","","","11","7845","4065","&#9784;","elianto","#FFFFF080"," "," ","1","&#10004","[1637.1000000238419]","1","0","0","","","","","","","",""
"pit-trial","12","135145","0.0-2.0-4.4-0.4","battery-v0.2","","""event"",""trial"",""time""
""fullscreenenter"",""1"",""2402""
","
","
","""event"",""trial"",""time""
""fullscreenenter"",""1"",""2402""
","
","","","529.5999999046326","","","11","7845","4065","&#9784;","elianto","#FFFFF080"," "," ","1","&#10004","[1383.8000000715256]","1","0","0","","","","","","","",""
"pit-instructions","13","156638","0.0-2.0-5.0","battery-v0.2","","""event"",""trial"",""time""
""fullscreenenter"",""1"",""2402""
","
","
","""event"",""trial"",""time""
""fullscreenenter"",""1"",""2402""
","
","","[{""page_index"":0,""viewing_time"":4831.300000071526},{""page_index"":1,""viewing_time"":5587.299999952316},{""page_index"":2,""viewing_time"":5413.399999976158},{""page_index"":3,""viewing_time"":5668.300000071526}]","21500.5","","","","","","","","","","","","","","","","","","","","","","","",""
"pit-trial","14","161528","0.0-2.0-6.0-0.0","battery-v0.2","","""event"",""trial"",""time""
""fullscreenenter"",""1"",""2402""
","
","
","""event"",""trial"",""time""
""fullscreenenter"",""1"",""2402""
","
","","","-1","","","11","7845","4065","&#9854;","elianto","#FFFFF080","-1","-1","1","&#10004","[]","0","0","1","","","","","","","",""
"pit-trial","15","166419","0.0-2.0-6.1-0.1","battery-v0.2","","""event"",""trial"",""time""
""fullscreenenter"",""1"",""2402""
","
","
","""event"",""trial"",""time""
""fullscreenenter"",""1"",""2402""
","
","","","-1","","","11","7845","4065","&#9854;","elianto","#FFFFF080","-1","-1","1","&#10004","[]","0","0","1","","","","","","","",""
"pit-trial","16","171287","0.0-2.0-6.2-0.2","battery-v0.2","","""event"",""trial"",""time""
""fullscreenenter"",""1"",""2402""
","
","
","""event"",""trial"",""time""
""fullscreenenter"",""1"",""2402""
","
","","","-1","","","11","7845","4065","&#9854;","elianto","#FFFFF080","-1","-1","1","&#10004","[]","0","0","1","","","","","","","",""
"pit-trial","17","176169","0.0-2.0-6.3-0.3","battery-v0.2","","""event"",""trial"",""time""
""fullscreenenter"",""1"",""2402""
","
","
","""event"",""trial"",""time""
""fullscreenenter"",""1"",""2402""
","
","","","-1","","","11","7845","4065","&#9854;","elianto","#FFFFF080","-1","-1","1","&#10004","[]","0","0","1","","","","","","","",""
"pit-trial","18","181038","0.0-2.0-6.4-0.4","battery-v0.2","","""event"",""trial"",""time""
""fullscreenenter"",""1"",""2402""
","
","
","""event"",""trial"",""time""
""fullscreenenter"",""1"",""2402""
","
","","","-1","","","11","7845","4065","&#9854;","elianto","#FFFFF080","-1","-1","1","&#10004","[]","0","0","1","","","","","","","",""
"pit-instructions","19","305701","0.0-2.0-7.0","battery-v0.2","","""event"",""trial"",""time""
""fullscreenenter"",""1"",""2402""
","
","
","""event"",""trial"",""time""
""fullscreenenter"",""1"",""2402""
","
","","[{""page_index"":0,""viewing_time"":7378.799999952316},{""page_index"":1,""viewing_time"":7666.800000071526},{""page_index"":2,""viewing_time"":6057.5},{""page_index"":3,""viewing_time"":5994},{""page_index"":4,""viewing_time"":5690.5},{""page_index"":5,""viewing_time"":5488.799999952316},{""page_index"":6,""viewing_time"":4214.200000047684},{""page_index"":7,""viewing_time"":7529.399999976158},{""page_index"":8,""viewing_time"":6472.899999976158},{""page_index"":9,""viewing_time"":6597.5},{""page_index"":10,""viewing_time"":6218},{""page_index"":11,""viewing_time"":4752.100000023842},{""page_index"":12,""viewing_time"":6762},{""page_index"":13,""viewing_time"":6700.199999928474},{""page_index"":14,""viewing_time"":9768.400000095367},{""page_index"":15,""viewing_time"":9057.699999928474},{""page_index"":16,""viewing_time"":8516.600000023842},{""page_index"":17,""viewing_time"":9793.700000047684}]","124659.29999995232","","","","","","","","","","","","","","","","","","","","","","","",""
"pit-trial","20","309190","0.0-2.0-8.0-0.0","battery-v0.2","","""event"",""trial"",""time""
""fullscreenenter"",""1"",""2402""
","
","
","""event"",""trial"",""time""
""fullscreenenter"",""1"",""2402""
","
","","","620.3999999761581","","","11","7845","4065","&#9776;","elianto","#3366ff99"," "," ","1","+10","[1471.6999999284744]","1","0","1","","","","","","","",""
"pit-trial","21","312650","0.0-2.0-8.0-1.0","battery-v0.2","","""event"",""trial"",""time""
""fullscreenenter"",""1"",""2402""
","
","
","""event"",""trial"",""time""
""fullscreenenter"",""1"",""2402""
","
","","","589.1000000238419","","","11","7845","4065","&#9776;","elianto","#3366ff99"," "," ","1","+10","[1447.8999999761581]","1","0","1","","","","","","","",""
"pit-trial","22","316120","0.0-2.0-8.0-2.0","battery-v0.2","","""event"",""trial"",""time""
""fullscreenenter"",""1"",""2402""
","
","
","""event"",""trial"",""time""
""fullscreenenter"",""1"",""2402""
","
","","","597.7000000476837","","","11","7845","4065","&#9776;","elianto","#3366ff99"," "," ","1","+10","[1449.3000000715256]","1","0","1","","","","","","","",""
"pit-trial","23","319580","0.0-2.0-8.0-3.0","battery-v0.2","","""event"",""trial"",""time""
""fullscreenenter"",""1"",""2402""
","
","
","""event"",""trial"",""time""
""fullscreenenter"",""1"",""2402""
","
","","","593.8999999761581","","","11","7845","4065","&#9776;","elianto","#3366ff99"," "," ","1","0","[1456.1000000238419]","1","0","1","","","","","","","",""
"pit-trial","24","323169","0.0-2.0-8.0-4.0","battery-v0.2","","""event"",""trial"",""time""
""fullscreenenter"",""1"",""2402""
","
","
","""event"",""trial"",""time""
""fullscreenenter"",""1"",""2402""
","
","","","718.2000000476837","","","11","7845","4065","&#9776;","elianto","#3366ff99"," "," ","1","+10","[1570.4000000953674]","1","0","1","","","","","","","",""
"pit-trial","25","326700","0.0-2.0-8.1-0.1","battery-v0.2","","""event"",""trial"",""time""
""fullscreenenter"",""1"",""2402""
","
","
","""event"",""trial"",""time""
""fullscreenenter"",""1"",""2402""
","
","","","653","","","11","7845","4065","&#9776;","elianto","#3366ff99"," "," ","1","+10","[1516.1999999284744]","1","0","1","","","","","","","",""
"pit-trial","26","330277","0.0-2.0-8.1-1.1","battery-v0.2","","""event"",""trial"",""time""
""fullscreenenter"",""1"",""2402""
","
","
","""event"",""trial"",""time""
""fullscreenenter"",""1"",""2402""
","
","","","709.2000000476837","","","11","7845","4065","&#9776;","elianto","#3366ff99"," "," ","1","+10","[1559.3999999761581]","1","0","1","","","","","","","",""
"pit-trial","27","334054","0.0-2.0-8.1-2.1","battery-v0.2","","""event"",""trial"",""time""
""fullscreenenter"",""1"",""2402""
","
","
","""event"",""trial"",""time""
""fullscreenenter"",""1"",""2402""
","
","","","917.7000000476837","","","11","7845","4065","&#9776;","elianto","#3366ff99"," "," ","1","+10","[1772.7000000476837]","1","0","1","","","","","","","",""
"pit-trial","28","337966","0.0-2.0-8.1-3.1","battery-v0.2","","""event"",""trial"",""time""
""fullscreenenter"",""1"",""2402""
","
","
","""event"",""trial"",""time""
""fullscreenenter"",""1"",""2402""
","
","","","1057.7000000476837","","","11","7845","4065","&#9776;","elianto","#3366ff99"," "," ","1","0","[1909.1000000238419]","1","0","1","","","","","","","",""
"pit-trial","29","342830","0.0-2.0-8.1-4.1","battery-v0.2","","""event"",""trial"",""time""
""fullscreenenter"",""1"",""2402""
","
","
","""event"",""trial"",""time""
""fullscreenenter"",""1"",""2402""
","
","","","-1","","","11","7845","4065","&#9776;","elianto","#3366ff99"," ","-1","0","0","[]","0","0","1","","","","","","","",""
"pit-trial","30","347686","0.0-2.0-8.2-0.2","battery-v0.2","","""event"",""trial"",""time""
""fullscreenenter"",""1"",""2402""
","
","
","""event"",""trial"",""time""
""fullscreenenter"",""1"",""2402""
","
","","","-1","","","11","7845","4065","&#9776;","elianto","#3366ff99"," ","-1","0","0","[3348.8000000715256]","1","0","1","","","","","","","",""
"pit-trial","31","351162","0.0-2.0-8.2-1.2","battery-v0.2","","""event"",""trial"",""time""
""fullscreenenter"",""1"",""2402""
","
","
","""event"",""trial"",""time""
""fullscreenenter"",""1"",""2402""
","
","","","618.3999999761581","","","11","7845","4065","&#9776;","elianto","#3366ff99"," "," ","1","+10","[1469.2000000476837]","1","0","1","","","","","","","",""
"pit-trial","32","354442","0.0-2.0-8.2-2.2","battery-v0.2","","""event"",""trial"",""time""
""fullscreenenter"",""1"",""2402""
","
","
","""event"",""trial"",""time""
""fullscreenenter"",""1"",""2402""
","
","","","407.90000009536743","","","11","7845","4065","&#9776;","elianto","#3366ff99"," "," ","1","+10","[1263.1000000238419,2867.7000000476837]","2","0","1","","","","","","","",""
"pit-trial","33","357787","0.0-2.0-8.2-3.2","battery-v0.2","","""event"",""trial"",""time""
""fullscreenenter"",""1"",""2402""
","
","
","""event"",""trial"",""time""
""fullscreenenter"",""1"",""2402""
","
","","","485.7000000476837","","","11","7845","4065","&#9776;","elianto","#3366ff99"," "," ","1","0","[1342.3999999761581]","1","0","1","","","","","","","",""
"pit-trial","34","361322","0.0-2.0-8.2-4.2","battery-v0.2","","""event"",""trial"",""time""
""fullscreenenter"",""1"",""2402""
","
","
","""event"",""trial"",""time""
""fullscreenenter"",""1"",""2402""
","
","","","681.0999999046326","","","11","7845","4065","&#9776;","elianto","#3366ff99"," "," ","1","+10","[1531.2000000476837]","1","0","1","","","","","","","",""
"call-function","35","361323","0.0-2.0-9.0","battery-v0.2","","""event"",""trial"",""time""
""fullscreenenter"",""1"",""2402""
","
","
","""event"",""trial"",""time""
""fullscreenenter"",""1"",""2402""
","
","","","","","","","","","","","","","","","","","","","","","","","","","","",""
"pit-instructions","36","408880","0.0-2.0-10.0","battery-v0.2","","""event"",""trial"",""time""
""fullscreenenter"",""1"",""2402""
","
","
","""event"",""trial"",""time""
""fullscreenenter"",""1"",""2402""
","
","","[{""page_index"":0,""viewing_time"":7543.5},{""page_index"":1,""viewing_time"":7110.200000047684},{""page_index"":2,""viewing_time"":9470},{""page_index"":3,""viewing_time"":15871.699999928474},{""page_index"":4,""viewing_time"":7556.399999976158}]","47552","","","","","","","","","","","","","","","","","","","","","","","",""
"pit-trial","37","412231","0.0-2.0-11.0-0.0","battery-v0.2","","""event"",""trial"",""time""
""fullscreenenter"",""1"",""2402""
","
","
","""event"",""trial"",""time""
""fullscreenenter"",""1"",""2402""
","
","","","488.2999999523163","","","11","7845","4065","&#9761;","elianto","#3366ff99","-1"," ","0","0","[1345.2999999523163]","1","0","2","","","","","","","",""
"pit-trial","38","415581","0.0-2.0-11.0-1.0","battery-v0.2","","""event"",""trial"",""time""
""fullscreenenter"",""1"",""2402""
","
","
","""event"",""trial"",""time""
""fullscreenenter"",""1"",""2402""
","
","","","472","","","11","7845","4065","&#9761;","elianto","#3366ff99","-1"," ","0","0","[1328.1000000238419]","1","0","2","","","","","","","",""
"pit-trial","39","418891","0.0-2.0-11.0-2.0","battery-v0.2","","""event"",""trial"",""time""
""fullscreenenter"",""1"",""2402""
","
","
","""event"",""trial"",""time""
""fullscreenenter"",""1"",""2402""
","
","","","438","","","11","7845","4065","&#9761;","elianto","#3366ff99","-1"," ","0","0","[1293.6000000238419]","1","0","2","","","","","","","",""
"pit-trial","40","422200","0.0-2.0-11.0-3.0","battery-v0.2","","""event"",""trial"",""time""
""fullscreenenter"",""1"",""2402""
","
","
","""event"",""trial"",""time""
""fullscreenenter"",""1"",""2402""
","
","","","439.7000000476837","","","11","7845","4065","&#9761;","elianto","#3366ff99","-1"," ","0","+10","[1302]","1","0","2","","","","","","","",""
"pit-trial","41","425520","0.0-2.0-11.0-4.0","battery-v0.2","","""event"",""trial"",""time""
""fullscreenenter"",""1"",""2402""
","
","
","""event"",""trial"",""time""
""fullscreenenter"",""1"",""2402""
","
","","","455.7999999523163","","","11","7845","4065","&#9761;","elianto","#3366ff99","-1"," ","0","0","[1308.6999999284744]","1","0","2","","","","","","","",""
"pit-trial","42","428841","0.0-2.0-11.1-0.1","battery-v0.2","","""event"",""trial"",""time""
""fullscreenenter"",""1"",""2402""
","
","
","""event"",""trial"",""time""
""fullscreenenter"",""1"",""2402""
","
","","","457.6999999284744","","","11","7845","4065","&#9761;","elianto","#3366ff99","-1"," ","0","0","[1309.5]","1","0","2","","","","","","","",""
"pit-trial","43","432021","0.0-2.0-11.1-1.1","battery-v0.2","","""event"",""trial"",""time""
""fullscreenenter"",""1"",""2402""
","
","
","""event"",""trial"",""time""
""fullscreenenter"",""1"",""2402""
","
","","","297.6999999284744","","","11","7845","4065","&#9761;","elianto","#3366ff99","-1"," ","0","0","[1159.7999999523163]","1","0","2","","","","","","","",""
"pit-trial","44","435350","0.0-2.0-11.1-2.1","battery-v0.2","","""event"",""trial"",""time""
""fullscreenenter"",""1"",""2402""
","
","
","""event"",""trial"",""time""
""fullscreenenter"",""1"",""2402""
","
","","","473.90000009536743","","","11","7845","4065","&#9761;","elianto","#3366ff99","-1"," ","0","0","[1325.7000000476837]","1","0","2","","","","","","","",""
"pit-trial","45","440218","0.0-2.0-11.1-3.1","battery-v0.2","","""event"",""trial"",""time""
""fullscreenenter"",""1"",""2402""
","
","
","""event"",""trial"",""time""
""fullscreenenter"",""1"",""2402""
","
","","","-1","","","11","7845","4065","&#9761;","elianto","#3366ff99","-1","-1","1","0","[]","0","0","2","","","","","","","",""
"pit-trial","46","443522","0.0-2.0-11.1-4.1","battery-v0.2","","""event"",""trial"",""time""
""fullscreenenter"",""1"",""2402""
","
","
","""event"",""trial"",""time""
""fullscreenenter"",""1"",""2402""
","
","","","445.8000000715256","","","11","7845","4065","&#9761;","elianto","#3366ff99","-1"," ","0","0","[1297]","1","0","2","","","","","","","",""
"pit-trial","47","447121","0.0-2.0-11.2-0.2","battery-v0.2","","""event"",""trial"",""time""
""fullscreenenter"",""1"",""2402""
","
","
","""event"",""trial"",""time""
""fullscreenenter"",""1"",""2402""
","
","","","742.1000000238419","","","11","7845","4065","&#9761;","elianto","#3366ff99","-1"," ","0","0","[1592.2000000476837]","1","0","2","","","","","","","",""
"pit-trial","48","450486","0.0-2.0-11.2-1.2","battery-v0.2","","""event"",""trial"",""time""
""fullscreenenter"",""1"",""2402""
","
","
","""event"",""trial"",""time""
""fullscreenenter"",""1"",""2402""
","
","","","508.2999999523163","","","11","7845","4065","&#9761;","elianto","#3366ff99","-1"," ","0","0","[1358.6999999284744]","1","0","2","","","","","","","",""
"pit-trial","49","453622","0.0-2.0-11.2-2.2","battery-v0.2","","""event"",""trial"",""time""
""fullscreenenter"",""1"",""2402""
","
","
","""event"",""trial"",""time""
""fullscreenenter"",""1"",""2402""
","
","","","278.10000002384186","","","11","7845","4065","&#9761;","elianto","#3366ff99","-1"," ","0","0","[1128.3999999761581]","1","0","2","","","","","","","",""
"pit-trial","50","456927","0.0-2.0-11.2-3.2","battery-v0.2","","""event"",""trial"",""time""
""fullscreenenter"",""1"",""2402""
","
","
","""event"",""trial"",""time""
""fullscreenenter"",""1"",""2402""
","
","","","449.39999997615814","","","11","7845","4065","&#9761;","elianto","#3366ff99","-1"," ","0","+10","[1300]","1","0","2","","","","","","","",""
"pit-trial","51","460072","0.0-2.0-11.2-4.2","battery-v0.2","","""event"",""trial"",""time""
""fullscreenenter"",""1"",""2402""
","
","
","""event"",""trial"",""time""
""fullscreenenter"",""1"",""2402""
","
","","","289.60000002384186","","","11","7845","4065","&#9761;","elianto","#3366ff99","-1"," ","0","0","[1140.5]","1","0","2","","","","","","","",""
"pit-trial","52","463367","0.0-2.0-11.3-0.3","battery-v0.2","","""event"",""trial"",""time""
""fullscreenenter"",""1"",""2402""
","
","
","""event"",""trial"",""time""
""fullscreenenter"",""1"",""2402""
","
","","","432.39999997615814","","","11","7845","4065","&#9761;","elianto","#3366ff99","-1"," ","0","0","[1289]","1","0","2","","","","","","","",""
"pit-trial","53","466799","0.0-2.0-11.3-1.3","battery-v0.2","","""event"",""trial"",""time""
""fullscreenenter"",""1"",""2402""
","
","
","""event"",""trial"",""time""
""fullscreenenter"",""1"",""2402""
","
","","","573.3999999761581","","","11","7845","4065","&#9761;","elianto","#3366ff99","-1"," ","0","0","[1424.5]","1","0","2","","","","","","","",""
"pit-trial","54","471662","0.0-2.0-11.3-2.3","battery-v0.2","","""event"",""trial"",""time""
""fullscreenenter"",""1"",""2402""
","
","
","""event"",""trial"",""time""
""fullscreenenter"",""1"",""2402""
","
","","","-1","","","11","7845","4065","&#9761;","elianto","#3366ff99","-1","-1","1","+10","[]","0","0","2","","","","","","","",""
"pit-trial","55","474717","0.0-2.0-11.3-3.3","battery-v0.2","","""event"",""trial"",""time""
""fullscreenenter"",""1"",""2402""
","
","
","""event"",""trial"",""time""
""fullscreenenter"",""1"",""2402""
","
","","","196.20000004768372","","","11","7845","4065","&#9761;","elianto","#3366ff99","-1"," ","0","+10","[1051.8999999761581]","1","0","2","","","","","","","",""
"pit-trial","56","477837","0.0-2.0-11.3-4.3","battery-v0.2","","""event"",""trial"",""time""
""fullscreenenter"",""1"",""2402""
","
","
","""event"",""trial"",""time""
""fullscreenenter"",""1"",""2402""
","
","","","264.7000000476837","","","11","7845","4065","&#9761;","elianto","#3366ff99","-1"," ","0","0","[1115.1000000238419]","1","0","2","","","","","","","",""
"call-function","57","477838","0.0-2.0-12.0","battery-v0.2","","""event"",""trial"",""time""
""fullscreenenter"",""1"",""2402""
","
","
","""event"",""trial"",""time""
""fullscreenenter"",""1"",""2402""
","
","","","","","","","","","","","","","","","","","","","","","","","","","","",""
"pit-instructions","58","511499","0.0-2.0-13.0","battery-v0.2","","""event"",""trial"",""time""
""fullscreenenter"",""1"",""2402""
","
","
","""event"",""trial"",""time""
""fullscreenenter"",""1"",""2402""
","
","","[{""page_index"":0,""viewing_time"":6864.100000023842},{""page_index"":1,""viewing_time"":6793.5},{""page_index"":2,""viewing_time"":4556.699999928474},{""page_index"":3,""viewing_time"":11021.900000095367},{""page_index"":4,""viewing_time"":4424}]","33660.5","","","","","","","","","","","","","","","","","","","","","","","",""
"pit-trial","59","516371","0.0-2.0-14.0-0.0","battery-v0.2","","""event"",""trial"",""time""
""fullscreenenter"",""1"",""2402""
","
","
","""event"",""trial"",""time""
""fullscreenenter"",""1"",""2402""
","
","","","-1","","","11","7845","4065","&#9826;","elianto","#f73b6a7A","-1","-1","1","0","[]","0","0","3","","","","","","","",""
"pit-trial","60","521252","0.0-2.0-14.0-1.0","battery-v0.2","","""event"",""trial"",""time""
""fullscreenenter"",""1"",""2402""
","
","
","""event"",""trial"",""time""
""fullscreenenter"",""1"",""2402""
","
","","","-1","","","11","7845","4065","&#9826;","elianto","#f73b6a7A","-1","-1","1","0","[]","0","0","3","","","","","","","",""
"pit-trial","61","526127","0.0-2.0-14.0-2.0","battery-v0.2","","""event"",""trial"",""time""
""fullscreenenter"",""1"",""2402""
","
","
","""event"",""trial"",""time""
""fullscreenenter"",""1"",""2402""
","
","","","-1","","","11","7845","4065","&#9826;","elianto","#f73b6a7A","-1","-1","1","0","[]","0","0","3","","","","","","","",""
"pit-trial","62","530992","0.0-2.0-14.0-3.0","battery-v0.2","","""event"",""trial"",""time""
""fullscreenenter"",""1"",""2402""
","
","
","""event"",""trial"",""time""
""fullscreenenter"",""1"",""2402""
","
","","","-1","","","11","7845","4065","&#9826;","elianto","#f73b6a7A","-1","-1","1","-10","[]","0","0","3","","","","","","","",""
"pit-trial","63","535872","0.0-2.0-14.0-4.0","battery-v0.2","","""event"",""trial"",""time""
""fullscreenenter"",""1"",""2402""
","
","
","""event"",""trial"",""time""
""fullscreenenter"",""1"",""2402""
","
","","","-1","","","11","7845","4065","&#9826;","elianto","#f73b6a7A","-1","-1","1","0","[]","0","0","3","","","","","","","",""
"pit-trial","64","540752","0.0-2.0-14.1-0.1","battery-v0.2","","""event"",""trial"",""time""
""fullscreenenter"",""1"",""2402""
","
","
","""event"",""trial"",""time""
""fullscreenenter"",""1"",""2402""
","
","","","-1","","","11","7845","4065","&#9826;","elianto","#f73b6a7A","-1","-1","1","0","[]","0","0","3","","","","","","","",""
"pit-trial","65","545616","0.0-2.0-14.1-1.1","battery-v0.2","","""event"",""trial"",""time""
""fullscreenenter"",""1"",""2402""
","
","
","""event"",""trial"",""time""
""fullscreenenter"",""1"",""2402""
","
","","","-1","","","11","7845","4065","&#9826;","elianto","#f73b6a7A","-1","-1","1","0","[]","0","0","3","","","","","","","",""
"pit-trial","66","550468","0.0-2.0-14.1-2.1","battery-v0.2","","""event"",""trial"",""time""
""fullscreenenter"",""1"",""2402""
","
","
","""event"",""trial"",""time""
""fullscreenenter"",""1"",""2402""
","
","","","-1","","","11","7845","4065","&#9826;","elianto","#f73b6a7A","-1","-1","1","0","[]","0","0","3","","","","","","","",""
"pit-trial","67","555331","0.0-2.0-14.1-3.1","battery-v0.2","","""event"",""trial"",""time""
""fullscreenenter"",""1"",""2402""
","
","
","""event"",""trial"",""time""
""fullscreenenter"",""1"",""2402""
","
","","","-1","","","11","7845","4065","&#9826;","elianto","#f73b6a7A","-1","-1","1","-10","[]","0","0","3","","","","","","","",""
"pit-trial","68","560188","0.0-2.0-14.1-4.1","battery-v0.2","","""event"",""trial"",""time""
""fullscreenenter"",""1"",""2402""
","
","
","""event"",""trial"",""time""
""fullscreenenter"",""1"",""2402""
","
","","","-1","","","11","7845","4065","&#9826;","elianto","#f73b6a7A","-1","-1","1","0","[]","0","0","3","","","","","","","",""
"pit-trial","69","565051","0.0-2.0-14.2-0.2","battery-v0.2","","""event"",""trial"",""time""
""fullscreenenter"",""1"",""2402""
","
","
","""event"",""trial"",""time""
""fullscreenenter"",""1"",""2402""
","
","","","-1","","","11","7845","4065","&#9826;","elianto","#f73b6a7A","-1","-1","1","0","[]","0","0","3","","","","","","","",""
"pit-trial","70","569907","0.0-2.0-14.2-1.2","battery-v0.2","","""event"",""trial"",""time""
""fullscreenenter"",""1"",""2402""
","
","
","""event"",""trial"",""time""
""fullscreenenter"",""1"",""2402""
","
","","","-1","","","11","7845","4065","&#9826;","elianto","#f73b6a7A","-1","-1","1","0","[]","0","0","3","","","","","","","",""
"pit-trial","71","574770","0.0-2.0-14.2-2.2","battery-v0.2","","""event"",""trial"",""time""
""fullscreenenter"",""1"",""2402""
","
","
","""event"",""trial"",""time""
""fullscreenenter"",""1"",""2402""
","
","","","-1","","","11","7845","4065","&#9826;","elianto","#f73b6a7A","-1","-1","1","0","[]","0","0","3","","","","","","","",""
"pit-trial","72","579630","0.0-2.0-14.2-3.2","battery-v0.2","","""event"",""trial"",""time""
""fullscreenenter"",""1"",""2402""
","
","
","""event"",""trial"",""time""
""fullscreenenter"",""1"",""2402""
","
","","","-1","","","11","7845","4065","&#9826;","elianto","#f73b6a7A","-1","-1","1","-10","[]","0","0","3","","","","","","","",""
"pit-trial","73","583576","0.0-2.0-14.2-4.2","battery-v0.2","","""event"",""trial"",""time""
""fullscreenenter"",""1"",""2402""
","
","
","""event"",""trial"",""time""
""fullscreenenter"",""1"",""2402""
","
","","","1093","","","11","7845","4065","&#9826;","elianto","#f73b6a7A","-1"," ","0","-10","[1944.5]","1","0","3","","","","","","","",""
"pit-trial","74","588431","0.0-2.0-14.3-0.3","battery-v0.2","","""event"",""trial"",""time""
""fullscreenenter"",""1"",""2402""
","
","
","""event"",""trial"",""time""
""fullscreenenter"",""1"",""2402""
","
","","","-1","","","11","7845","4065","&#9826;","elianto","#f73b6a7A","-1","-1","1","0","[]","0","0","3","","","","","","","",""
"pit-trial","75","593287","0.0-2.0-14.3-1.3","battery-v0.2","","""event"",""trial"",""time""
""fullscreenenter"",""1"",""2402""
","
","
","""event"",""trial"",""time""
""fullscreenenter"",""1"",""2402""
","
","","","-1","","","11","7845","4065","&#9826;","elianto","#f73b6a7A","-1","-1","1","0","[]","0","0","3","","","","","","","",""
"pit-trial","76","598145","0.0-2.0-14.3-2.3","battery-v0.2","","""event"",""trial"",""time""
""fullscreenenter"",""1"",""2402""
","
","
","""event"",""trial"",""time""
""fullscreenenter"",""1"",""2402""
","
","","","-1","","","11","7845","4065","&#9826;","elianto","#f73b6a7A","-1","-1","1","0","[]","0","0","3","","","","","","","",""
"pit-trial","77","603004","0.0-2.0-14.3-3.3","battery-v0.2","","""event"",""trial"",""time""
""fullscreenenter"",""1"",""2402""
","
","
","""event"",""trial"",""time""
""fullscreenenter"",""1"",""2402""
","
","","","-1","","","11","7845","4065","&#9826;","elianto","#f73b6a7A","-1","-1","1","-10","[]","0","0","3","","","","","","","",""
"pit-trial","78","607872","0.0-2.0-14.3-4.3","battery-v0.2","","""event"",""trial"",""time""
""fullscreenenter"",""1"",""2402""
","
","
","""event"",""trial"",""time""
""fullscreenenter"",""1"",""2402""
","
","","","-1","","","11","7845","4065","&#9826;","elianto","#f73b6a7A","-1","-1","1","0","[]","0","0","3","","","","","","","",""
"call-function","79","607872","0.0-2.0-15.0","battery-v0.2","","""event"",""trial"",""time""
""fullscreenenter"",""1"",""2402""
","
","
","""event"",""trial"",""time""
""fullscreenenter"",""1"",""2402""
","
","","","","","","","","","","","","","","","","","","","","","","","","","","",""
"pit-instructions","80","638029","0.0-2.0-16.0","battery-v0.2","","""event"",""trial"",""time""
""fullscreenenter"",""1"",""2402""
","
","
","""event"",""trial"",""time""
""fullscreenenter"",""1"",""2402""
","
","","[{""page_index"":0,""viewing_time"":6955.699999928474},{""page_index"":1,""viewing_time"":10544.200000047684},{""page_index"":2,""viewing_time"":5855.899999976158},{""page_index"":3,""viewing_time"":6800}]","30156","","","","","","","","","","","","","","","","","","","","","","","",""
"pit-trial","81","641648","0.0-2.0-17.0-0.0","battery-v0.2","","""event"",""trial"",""time""
""fullscreenenter"",""1"",""2402""
","
","
","""event"",""trial"",""time""
""fullscreenenter"",""1"",""2402""
","
","","","762.5","","","11","7845","4065","&#9789;","elianto","#f73b6a7A"," "," ","1","0","[1614.4000000953674]","1","0","4","","","","","","","",""
"pit-trial","82","646528","0.0-2.0-17.0-1.0","battery-v0.2","","""event"",""trial"",""time""
""fullscreenenter"",""1"",""2402""
","
","
","""event"",""trial"",""time""
""fullscreenenter"",""1"",""2402""
","
","","","-1","","","11","7845","4065","&#9789;","elianto","#f73b6a7A"," ","-1","0","-10","[]","0","0","4","","","","","","","",""
"pit-trial","83","651418","0.0-2.0-17.0-2.0","battery-v0.2","","""event"",""trial"",""time""
""fullscreenenter"",""1"",""2402""
","
","
","""event"",""trial"",""time""
""fullscreenenter"",""1"",""2402""
","
","","","-1","","","11","7845","4065","&#9789;","elianto","#f73b6a7A"," ","-1","0","-10","[]","0","0","4","","","","","","","",""
"pit-trial","84","656298","0.0-2.0-17.0-3.0","battery-v0.2","","""event"",""trial"",""time""
""fullscreenenter"",""1"",""2402""
","
","
","""event"",""trial"",""time""
""fullscreenenter"",""1"",""2402""
","
","","","-1","","","11","7845","4065","&#9789;","elianto","#f73b6a7A"," ","-1","0","0","[]","0","0","4","","","","","","","",""
"pit-trial","85","661188","0.0-2.0-17.0-4.0","battery-v0.2","","""event"",""trial"",""time""
""fullscreenenter"",""1"",""2402""
","
","
","""event"",""trial"",""time""
""fullscreenenter"",""1"",""2402""
","
","","","-1","","","11","7845","4065","&#9789;","elianto","#f73b6a7A"," ","-1","0","-10","[]","0","0","4","","","","","","","",""
"pit-trial","86","666063","0.0-2.0-17.1-0.1","battery-v0.2","","""event"",""trial"",""time""
""fullscreenenter"",""1"",""2402""
","
","
","""event"",""trial"",""time""
""fullscreenenter"",""1"",""2402""
","
","","","-1","","","11","7845","4065","&#9789;","elianto","#f73b6a7A"," ","-1","0","-10","[]","0","0","4","","","","","","","",""
"pit-trial","87","670928","0.0-2.0-17.1-1.1","battery-v0.2","","""event"",""trial"",""time""
""fullscreenenter"",""1"",""2402""
","
","
","""event"",""trial"",""time""
""fullscreenenter"",""1"",""2402""
","
","","","-1","","","11","7845","4065","&#9789;","elianto","#f73b6a7A"," ","-1","0","-10","[]","0","0","4","","","","","","","",""
"pit-trial","88","675789","0.0-2.0-17.1-2.1","battery-v0.2","","""event"",""trial"",""time""
""fullscreenenter"",""1"",""2402""
","
","
","""event"",""trial"",""time""
""fullscreenenter"",""1"",""2402""
","
","","","-1","","","11","7845","4065","&#9789;","elianto","#f73b6a7A"," ","-1","0","-10","[]","0","0","4","","","","","","","",""
"pit-trial","89","680650","0.0-2.0-17.1-3.1","battery-v0.2","","""event"",""trial"",""time""
""fullscreenenter"",""1"",""2402""
","
","
","""event"",""trial"",""time""
""fullscreenenter"",""1"",""2402""
","
","","","-1","","","11","7845","4065","&#9789;","elianto","#f73b6a7A"," ","-1","0","0","[]","0","0","4","","","","","","","",""
"pit-trial","90","685525","0.0-2.0-17.1-4.1","battery-v0.2","","""event"",""trial"",""time""
""fullscreenenter"",""1"",""2402""
","
","
","""event"",""trial"",""time""
""fullscreenenter"",""1"",""2402""
","
","","","-1","","","11","7845","4065","&#9789;","elianto","#f73b6a7A"," ","-1","0","-10","[]","0","0","4","","","","","","","",""
"pit-trial","91","690394","0.0-2.0-17.2-0.2","battery-v0.2","","""event"",""trial"",""time""
""fullscreenenter"",""1"",""2402""
","
","
","""event"",""trial"",""time""
""fullscreenenter"",""1"",""2402""
","
","","","-1","","","11","7845","4065","&#9789;","elianto","#f73b6a7A"," ","-1","0","-10","[]","0","0","4","","","","","","","",""
"pit-trial","92","695250","0.0-2.0-17.2-1.2","battery-v0.2","","""event"",""trial"",""time""
""fullscreenenter"",""1"",""2402""
","
","
","""event"",""trial"",""time""
""fullscreenenter"",""1"",""2402""
","
","","","-1","","","11","7845","4065","&#9789;","elianto","#f73b6a7A"," ","-1","0","-10","[]","0","0","4","","","","","","","",""
"pit-trial","93","700115","0.0-2.0-17.2-2.2","battery-v0.2","","""event"",""trial"",""time""
""fullscreenenter"",""1"",""2402""
","
","
","""event"",""trial"",""time""
""fullscreenenter"",""1"",""2402""
","
","","","-1","","","11","7845","4065","&#9789;","elianto","#f73b6a7A"," ","-1","0","-10","[]","0","0","4","","","","","","","",""
"pit-trial","94","704975","0.0-2.0-17.2-3.2","battery-v0.2","","""event"",""trial"",""time""
""fullscreenenter"",""1"",""2402""
","
","
","""event"",""trial"",""time""
""fullscreenenter"",""1"",""2402""
","
","","","-1","","","11","7845","4065","&#9789;","elianto","#f73b6a7A"," ","-1","0","0","[]","0","0","4","","","","","","","",""
"pit-trial","95","709831","0.0-2.0-17.2-4.2","battery-v0.2","","""event"",""trial"",""time""
""fullscreenenter"",""1"",""2402""
","
","
","""event"",""trial"",""time""
""fullscreenenter"",""1"",""2402""
","
","","","-1","","","11","7845","4065","&#9789;","elianto","#f73b6a7A"," ","-1","0","-10","[]","0","0","4","","","","","","","",""
"pit-trial","96","714687","0.0-2.0-17.3-0.3","battery-v0.2","","""event"",""trial"",""time""
""fullscreenenter"",""1"",""2402""
","
","
","""event"",""trial"",""time""
""fullscreenenter"",""1"",""2402""
","
","","","-1","","","11","7845","4065","&#9789;","elianto","#f73b6a7A"," ","-1","0","-10","[]","0","0","4","","","","","","","",""
"pit-trial","97","719549","0.0-2.0-17.3-1.3","battery-v0.2","","""event"",""trial"",""time""
""fullscreenenter"",""1"",""2402""
","
","
","""event"",""trial"",""time""
""fullscreenenter"",""1"",""2402""
","
","","","-1","","","11","7845","4065","&#9789;","elianto","#f73b6a7A"," ","-1","0","-10","[]","0","0","4","","","","","","","",""
"pit-trial","98","724403","0.0-2.0-17.3-2.3","battery-v0.2","","""event"",""trial"",""time""
""fullscreenenter"",""1"",""2402""
","
","
","""event"",""trial"",""time""
""fullscreenenter"",""1"",""2402""
","
","","","-1","","","11","7845","4065","&#9789;","elianto","#f73b6a7A"," ","-1","0","-10","[]","0","0","4","","","","","","","",""
"pit-trial","99","729274","0.0-2.0-17.3-3.3","battery-v0.2","","""event"",""trial"",""time""
""fullscreenenter"",""1"",""2402""
","
","
","""event"",""trial"",""time""
""fullscreenenter"",""1"",""2402""
","
","","","-1","","","11","7845","4065","&#9789;","elianto","#f73b6a7A"," ","-1","0","0","[]","0","0","4","","","","","","","",""
"pit-trial","100","734129","0.0-2.0-17.3-4.3","battery-v0.2","","""event"",""trial"",""time""
""fullscreenenter"",""1"",""2402""
","
","
","""event"",""trial"",""time""
""fullscreenenter"",""1"",""2402""
","
","","","-1","","","11","7845","4065","&#9789;","elianto","#f73b6a7A"," ","-1","0","-10","[]","0","0","4","","","","","","","",""
"call-function","101","734130","0.0-2.0-18.0","battery-v0.2","","""event"",""trial"",""time""
""fullscreenenter"",""1"",""2402""
","
","
","""event"",""trial"",""time""
""fullscreenenter"",""1"",""2402""
","
","","","","","","","","","","","","","","","","","","","","","","","","","","",""
"pit-instructions","102","895624","0.0-2.0-19.0","battery-v0.2","","""event"",""trial"",""time""
""fullscreenenter"",""1"",""2402""
","
","
","""event"",""trial"",""time""
""fullscreenenter"",""1"",""2402""
","
","","[{""page_index"":0,""viewing_time"":7037.399999976158},{""page_index"":1,""viewing_time"":11230.199999928474},{""page_index"":2,""viewing_time"":20239.700000047684},{""page_index"":3,""viewing_time"":20750.299999952316},{""page_index"":4,""viewing_time"":61315.90000009537},{""page_index"":5,""viewing_time"":25539},{""page_index"":6,""viewing_time"":6250},{""page_index"":7,""viewing_time"":4730},{""page_index"":8,""viewing_time"":4400.299999952316}]","161493.19999992847","","","","","","","","","","","","","","","","","","","","","","","",""
"pit-comprehension","103","901284","0.0-2.0-20.0-0.0","battery-v0.2","","""event"",""trial"",""time""
""fullscreenenter"",""1"",""2402""
","
","
","""event"",""trial"",""time""
""fullscreenenter"",""1"",""2402""
","
","","","5656.700000047684","[""SPACE""]","0","11","7845","4065","","","","","","","","","","","","","","","","","","",""
"pit-instructions","104","904324","0.0-2.0-20.0-1.0","battery-v0.2","","""event"",""trial"",""time""
""fullscreenenter"",""1"",""2402""
","
","
","""event"",""trial"",""time""
""fullscreenenter"",""1"",""2402""
","
","","[{""page_index"":0,""viewing_time"":3015}]","3015.3000000715256","","","","","","","","","","","","","","","","","","","","","","","",""
"pit-comprehension","105","909574","0.0-2.0-21.0-0.0","battery-v0.2","","""event"",""trial"",""time""
""fullscreenenter"",""1"",""2402""
","
","
","""event"",""trial"",""time""
""fullscreenenter"",""1"",""2402""
","
","","","5248.700000047684","[""10""]","0","11","7845","4065","","","","","","","","","","","","","","","","","","",""
"pit-instructions","106","911784","0.0-2.0-21.0-1.0","battery-v0.2","","""event"",""trial"",""time""
""fullscreenenter"",""1"",""2402""
","
","
","""event"",""trial"",""time""
""fullscreenenter"",""1"",""2402""
","
","","[{""page_index"":0,""viewing_time"":2187.9000000953674}]","2188.100000023842","","","","","","","","","","","","","","","","","","","","","","","",""
"pit-comprehension","107","918629","0.0-2.0-22.0-0.0","battery-v0.2","","""event"",""trial"",""time""
""fullscreenenter"",""1"",""2402""
","
","
","""event"",""trial"",""time""
""fullscreenenter"",""1"",""2402""
","
","","","6843.5","[""-10""]","1","11","7845","4065","","","","","","","","","","","","","","","","","","",""
"pit-instructions","108","925452","0.0-2.0-22.0-1.0","battery-v0.2","","""event"",""trial"",""time""
""fullscreenenter"",""1"",""2402""
","
","
","""event"",""trial"",""time""
""fullscreenenter"",""1"",""2402""
","
","","[{""page_index"":0,""viewing_time"":6799.700000047684}]","6800","","","","","","","","","","","","","","","","","","","","","","","",""
"pit-instructions","109","928944","0.0-2.0-22.0-2.0-0.0","battery-v0.2","","""event"",""trial"",""time""
""fullscreenenter"",""1"",""2402""
","
","
","""event"",""trial"",""time""
""fullscreenenter"",""1"",""2402""
","
","","[{""page_index"":0,""viewing_time"":3491}]","3491.1999999284744","","","","","","","","","","","","","","","","","","","","","","","",""
"pit-comprehension","110","939784","0.0-2.0-22.1-0.1","battery-v0.2","","""event"",""trial"",""time""
""fullscreenenter"",""1"",""2402""
","
","
","""event"",""trial"",""time""
""fullscreenenter"",""1"",""2402""
","
","","","10838.799999952316","[""0""]","0","11","7845","4065","","","","","","","","","","","","","","","","","","",""
"pit-instructions","111","959924","0.0-2.0-22.1-1.1","battery-v0.2","","""event"",""trial"",""time""
""fullscreenenter"",""1"",""2402""
","
","
","""event"",""trial"",""time""
""fullscreenenter"",""1"",""2402""
","
","","[{""page_index"":0,""viewing_time"":20117.100000023842}]","20117.299999952316","","","","","","","","","","","","","","","","","","","","","","","",""
"pit-comprehension","112","972655","0.0-2.0-23.0-0.0","battery-v0.2","","""event"",""trial"",""time""
""fullscreenenter"",""1"",""2402""
","
","
","""event"",""trial"",""time""
""fullscreenenter"",""1"",""2402""
","
","","","12728.899999976158","[""False""]","1","11","7845","4065","","","","","","","","","","","","","","","","","","",""
"pit-instructions","113","976554","0.0-2.0-23.0-1.0","battery-v0.2","","""event"",""trial"",""time""
""fullscreenenter"",""1"",""2402""
","
","
","""event"",""trial"",""time""
""fullscreenenter"",""1"",""2402""
","
","","[{""page_index"":0,""viewing_time"":3876.7000000476837}]","3877","","","","","","","","","","","","","","","","","","","","","","","",""
"pit-instructions","114","978354","0.0-2.0-23.0-2.0-0.0","battery-v0.2","","""event"",""trial"",""time""
""fullscreenenter"",""1"",""2402""
","
","
","""event"",""trial"",""time""
""fullscreenenter"",""1"",""2402""
","
","","[{""page_index"":0,""viewing_time"":1799.0999999046326}]","1799.1999999284744","","","","","","","","","","","","","","","","","","","","","","","",""
"pit-comprehension","115","1000235","0.0-2.0-23.1-0.1","battery-v0.2","","""event"",""trial"",""time""
""fullscreenenter"",""1"",""2402""
","
","
","""event"",""trial"",""time""
""fullscreenenter"",""1"",""2402""
","
","","","21879.200000047684","[""True""]","0","11","7845","4065","","","","","","","","","","","","","","","","","","",""
"pit-instructions","116","1002165","0.0-2.0-23.1-1.1","battery-v0.2","","""event"",""trial"",""time""
""fullscreenenter"",""1"",""2402""
","
","
","""event"",""trial"",""time""
""fullscreenenter"",""1"",""2402""
","
","","[{""page_index"":0,""viewing_time"":1905.1000000238419}]","1905.3000000715256","","","","","","","","","","","","","","","","","","","","","","","",""
"pit-comprehension","117","1009785","0.0-2.0-24.0-0.0","battery-v0.2","","""event"",""trial"",""time""
""fullscreenenter"",""1"",""2402""
","
","
","""event"",""trial"",""time""
""fullscreenenter"",""1"",""2402""
","
","","","7618.700000047684","[""True""]","0","11","7845","4065","","","","","","","","","","","","","","","","","","",""
"pit-instructions","118","1011594","0.0-2.0-24.0-1.0","battery-v0.2","","""event"",""trial"",""time""
""fullscreenenter"",""1"",""2402""
","
","
","""event"",""trial"",""time""
""fullscreenenter"",""1"",""2402""
","
","","[{""page_index"":0,""viewing_time"":1785.5999999046326}]","1785.8999999761581","","","","","","","","","","","","","","","","","","","","","","","",""
"pit-comprehension","119","1018195","0.0-2.0-25.0-0.0","battery-v0.2","","""event"",""trial"",""time""
""fullscreenenter"",""1"",""2402""
","
","
","""event"",""trial"",""time""
""fullscreenenter"",""1"",""2402""
","
","","","6598.399999976158","[""True""]","0","11","7845","4065","","","","","","","","","","","","","","","","","","",""
"pit-instructions","120","1020034","0.0-2.0-25.0-1.0","battery-v0.2","","""event"",""trial"",""time""
""fullscreenenter"",""1"",""2402""
","
","
","""event"",""trial"",""time""
""fullscreenenter"",""1"",""2402""
","
","","[{""page_index"":0,""viewing_time"":1814.3999999761581}]","1814.7000000476837","","","","","","","","","","","","","","","","","","","","","","","",""
"pit-comprehension","121","1024735","0.0-2.0-26.0-0.0","battery-v0.2","","""event"",""trial"",""time""
""fullscreenenter"",""1"",""2402""
","
","
","""event"",""trial"",""time""
""fullscreenenter"",""1"",""2402""
","
","","","4698.800000071526","[""False""]","0","11","7845","4065","","","","","","","","","","","","","","","","","","",""
"pit-instructions","122","1044704","0.0-2.0-26.0-1.0","battery-v0.2","","""event"",""trial"",""time""
""fullscreenenter"",""1"",""2402""
","
","
","""event"",""trial"",""time""
""fullscreenenter"",""1"",""2402""
","
","","[{""page_index"":0,""viewing_time"":19945.399999976158}]","19945.600000023842","","","","","","","","","","","","","","","","","","","","","","","",""
"pit-instructions","123","1084974","0.0-3.0","battery-v0.2","","""event"",""trial"",""time""
""fullscreenenter"",""1"",""2402""
","
","
","""event"",""trial"",""time""
""fullscreenenter"",""1"",""2402""
","
","","[{""page_index"":0,""viewing_time"":12028.599999904633},{""page_index"":1,""viewing_time"":20420.600000023842},{""page_index"":2,""viewing_time"":7819.5}]","40268.89999997616","","","","","","","","","","","","","","","","","","","","","","","",""
"pit-trial","124","1089073","0.0-4.0","battery-v0.2","","""event"",""trial"",""time""
""fullscreenenter"",""1"",""2402""
","
","
","""event"",""trial"",""time""
""fullscreenenter"",""1"",""2402""
","
","","","1235.2000000476837","","","11","7845","4065","&#9752;","elianto","#f73b6a7A"," "," ","1","0","[2095.399999976158]","1","1","","","7845","1","3","3","lose","go","0"
"pit-trial","125","1093143","0.0-5.0","battery-v0.2","","""event"",""trial"",""time""
""fullscreenenter"",""1"",""2402""
","
","
","""event"",""trial"",""time""
""fullscreenenter"",""1"",""2402""
","
","","","1188.1000000238419","","","11","7845","4065","&#9730;","elianto","#3366ff99"," "," ","1","+10","[2050]","1","1","","","7845","2","1","1","win","go","0"
"pit-trial","126","1096984","0.0-6.0","battery-v0.2","","""event"",""trial"",""time""
""fullscreenenter"",""1"",""2402""
","
","
","""event"",""trial"",""time""
""fullscreenenter"",""1"",""2402""
","
","","","971.8999999761581","","","11","7845","4065","&#9733;","elianto","#3366ff99","-1"," ","0","0","[1830.2000000476837]","1","1","","","7845","3","2","2","win","no-go","0"
"pit-trial","127","1101053","0.0-7.0","battery-v0.2","","""event"",""trial"",""time""
""fullscreenenter"",""1"",""2402""
","
","
","""event"",""trial"",""time""
""fullscreenenter"",""1"",""2402""
","
","","","1207.8999999761581","","","11","7845","4065","&#9728;","elianto","#f73b6a7A","-1"," ","0","-10","[2059.100000023842]","1","1","","","7845","4","0","4","lose","no-go","0"
"pit-trial","128","1105923","0.0-8.0","battery-v0.2","","""event"",""trial"",""time""
""fullscreenenter"",""1"",""2402""
","
","
","""event"",""trial"",""time""
""fullscreenenter"",""1"",""2402""
","
","","","-1","","","11","7845","4065","&#9728;","elianto","#f73b6a7A","-1","-1","1","0","[]","0","1","","","7845","5","0","4","lose","no-go","0"
"pit-trial","129","1109773","0.0-9.0","battery-v0.2","","""event"",""trial"",""time""
""fullscreenenter"",""1"",""2402""
","
","
","""event"",""trial"",""time""
""fullscreenenter"",""1"",""2402""
","
","","","977","","","11","7845","4065","&#9733;","elianto","#3366ff99","-1"," ","0","0","[1838.8999999761581]","1","1","","","7845","6","2","2","win","no-go","0"
"pit-trial","130","1113683","0.0-10.0","battery-v0.2","","""event"",""trial"",""time""
""fullscreenenter"",""1"",""2402""
","
","
","""event"",""trial"",""time""
""fullscreenenter"",""1"",""2402""
","
","","","1046.5","","","11","7845","4065","&#9752;","elianto","#f73b6a7A"," "," ","1","0","[1907.8999999761581]","1","1","","","7845","7","3","3","lose","go","0"
"pit-trial","131","1117460","0.0-11.0","battery-v0.2","","""event"",""trial"",""time""
""fullscreenenter"",""1"",""2402""
","
","
","""event"",""trial"",""time""
""fullscreenenter"",""1"",""2402""
","
","","","918","","","11","7845","4065","&#9730;","elianto","#3366ff99"," "," ","1","+10","[1769.1000000238419]","1","1","","","7845","8","1","1","win","go","0"
"pit-trial","132","1122317","0.0-12.0","battery-v0.2","","""event"",""trial"",""time""
""fullscreenenter"",""1"",""2402""
","
","
","""event"",""trial"",""time""
""fullscreenenter"",""1"",""2402""
","
","","","-1","","","11","7845","4065","&#9728;","elianto","#f73b6a7A","-1","-1","1","0","[]","0","1","","","7845","9","0","4","lose","no-go","0"
"pit-trial","133","1125997","0.0-13.0","battery-v0.2","","""event"",""trial"",""time""
""fullscreenenter"",""1"",""2402""
","
","
","""event"",""trial"",""time""
""fullscreenenter"",""1"",""2402""
","
","","","822","","","11","7845","4065","&#9730;","elianto","#3366ff99"," "," ","1","0","[1672.3999999761581]","1","1","","","7845","10","1","1","win","go","1"
"pit-trial","134","1129619","0.0-14.0","battery-v0.2","","""event"",""trial"",""time""
""fullscreenenter"",""1"",""2402""
","
","
","""event"",""trial"",""time""
""fullscreenenter"",""1"",""2402""
","
","","","764.8000000715256","","","11","7845","4065","&#9733;","elianto","#3366ff99","-1"," ","0","0","[1618.7000000476837]","1","1","","","7845","11","2","2","win","no-go","0"
"pit-trial","135","1133324","0.0-15.0","battery-v0.2","","""event"",""trial"",""time""
""fullscreenenter"",""1"",""2402""
","
","
","""event"",""trial"",""time""
""fullscreenenter"",""1"",""2402""
","
","","","846.8000000715256","","","11","7845","4065","&#9752;","elianto","#f73b6a7A"," "," ","1","0","[1697.7000000476837]","1","1","","","7845","12","3","3","lose","go","0"
"pit-trial","136","1138187","0.0-16.0","battery-v0.2","","""event"",""trial"",""time""
""fullscreenenter"",""1"",""2402""
","
","
","""event"",""trial"",""time""
""fullscreenenter"",""1"",""2402""
","
","","","-1","","","11","7845","4065","&#9733;","elianto","#3366ff99","-1","-1","1","0","[]","0","1","","","7845","13","2","2","win","no-go","1"
"pit-trial","137","1142823","0.0-17.0","battery-v0.2","","""event"",""trial"",""time""
""fullscreenenter"",""1"",""2402""
","
","
","""event"",""trial"",""time""
""fullscreenenter"",""1"",""2402""
","
","","","1782.1000000238419","","","11","7845","4065","&#9728;","elianto","#f73b6a7A","-1"," ","0","0","[2633.100000023842]","1","1","","","7845","14","0","4","lose","no-go","1"
"pit-trial","138","1147693","0.0-18.0","battery-v0.2","","""event"",""trial"",""time""
""fullscreenenter"",""1"",""2402""
","
","
","""event"",""trial"",""time""
""fullscreenenter"",""1"",""2402""
","
","","","-1","","","11","7845","4065","&#9730;","elianto","#3366ff99"," ","-1","0","0","[]","0","1","","","7845","15","1","1","win","go","0"
"pit-trial","139","1151647","0.0-19.0","battery-v0.2","","""event"",""trial"",""time""
""fullscreenenter"",""1"",""2402""
","
","
","""event"",""trial"",""time""
""fullscreenenter"",""1"",""2402""
","
","","","1089.8999999761581","","","11","7845","4065","&#9752;","elianto","#f73b6a7A"," "," ","1","0","[1946.7000000476837]","1","1","","","7845","16","3","3","lose","go","0"
"pit-trial","140","1155393","0.0-20.0","battery-v0.2","","""event"",""trial"",""time""
""fullscreenenter"",""1"",""2402""
","
","
","""event"",""trial"",""time""
""fullscreenenter"",""1"",""2402""
","
","","","888.1000000238419","","","11","7845","4065","&#9733;","elianto","#3366ff99","-1"," ","0","+10","[1739.3999999761581]","1","1","","","7845","17","2","2","win","no-go","1"
"pit-trial","141","1160250","0.0-21.0","battery-v0.2","","""event"",""trial"",""time""
""fullscreenenter"",""1"",""2402""
","
","
","""event"",""trial"",""time""
""fullscreenenter"",""1"",""2402""
","
","","","-1","","","11","7845","4065","&#9728;","elianto","#f73b6a7A","-1","-1","1","0","[]","0","1","","","7845","18","0","4","lose","no-go","0"
"pit-trial","142","1164251","0.0-22.0","battery-v0.2","","""event"",""trial"",""time""
""fullscreenenter"",""1"",""2402""
","
","
","""event"",""trial"",""time""
""fullscreenenter"",""1"",""2402""
","
","","","1137.8999999761581","","","11","7845","4065","&#9752;","elianto","#f73b6a7A"," "," ","1","0","[1988.3999999761581]","1","1","","","7845","19","3","3","lose","go","0"
"pit-trial","143","1169113","0.0-23.0","battery-v0.2","","""event"",""trial"",""time""
""fullscreenenter"",""1"",""2402""
","
","
","""event"",""trial"",""time""
""fullscreenenter"",""1"",""2402""
","
","","","-1","","","11","7845","4065","&#9730;","elianto","#3366ff99"," ","-1","0","0","[]","0","1","","","7845","20","1","1","win","go","0"
"pit-instructions","144","1283602","0.0-24.0","battery-v0.2","","""event"",""trial"",""time""
""fullscreenenter"",""1"",""2402""
","
","
","""event"",""trial"",""time""
""fullscreenenter"",""1"",""2402""
","
","","[{""page_index"":0,""viewing_time"":104400.39999997616},{""page_index"":1,""viewing_time"":10095.200000047684}]","114495.80000007153","","","","","","","","","","","","","","","","","","","","","","","",""
"pit-trial","145","1287312","0.0-25.0","battery-v0.2","","""event"",""trial"",""time""
""fullscreenenter"",""1"",""2402""
","
","
","""event"",""trial"",""time""
""fullscreenenter"",""1"",""2402""
","
","","","851.1999999284744","","","11","7845","4065","d","elianto","#3366ff99","-1"," ","0","+10","[1705.2999999523163]","1","2","","","7845","21","1","2","win","no-go","1"
"pit-trial","146","1292202","0.0-26.0","battery-v0.2","","""event"",""trial"",""time""
""fullscreenenter"",""1"",""2402""
","
","
","""event"",""trial"",""time""
""fullscreenenter"",""1"",""2402""
","
","","","-1","","","11","7845","4065","w","elianto","#f73b6a7A","-1","-1","1","0","[]","0","2","","","7845","22","3","4","lose","no-go","0"
"pit-trial","147","1297061","0.0-27.0","battery-v0.2","","""event"",""trial"",""time""
""fullscreenenter"",""1"",""2402""
","
","
","""event"",""trial"",""time""
""fullscreenenter"",""1"",""2402""
","
","","","-1","","","11","7845","4065","j","elianto","#f73b6a7A"," ","-1","0","0","[]","0","2","","","7845","23","0","3","lose","go","1"
"pit-trial","148","1301942","0.0-28.0","battery-v0.2","","""event"",""trial"",""time""
""fullscreenenter"",""1"",""2402""
","
","
","""event"",""trial"",""time""
""fullscreenenter"",""1"",""2402""
","
","","","-1","","","11","7845","4065","e","elianto","#f73b6a7A"," ","-1","0","-10","[]","0","2","","","7845","24","2","3","lose","go","0"
"pit-trial","149","1305592","0.0-29.0","battery-v0.2","","""event"",""trial"",""time""
""fullscreenenter"",""1"",""2402""
","
","
","""event"",""trial"",""time""
""fullscreenenter"",""1"",""2402""
","
","","","772.2999999523163","","","11","7845","4065","e","elianto","#f73b6a7A"," "," ","1","-10","[1637.2999999523163]","1","2","","","7845","25","2","3","lose","go","1"
"pit-trial","150","1310462","0.0-30.0","battery-v0.2","","""event"",""trial"",""time""
""fullscreenenter"",""1"",""2402""
","
","
","""event"",""trial"",""time""
""fullscreenenter"",""1"",""2402""
","
","","","-1","","","11","7845","4065","w","elianto","#f73b6a7A","-1","-1","1","0","[]","0","2","","","7845","26","3","4","lose","no-go","0"
"pit-trial","151","1315324","0.0-31.0","battery-v0.2","","""event"",""trial"",""time""
""fullscreenenter"",""1"",""2402""
","
","
","""event"",""trial"",""time""
""fullscreenenter"",""1"",""2402""
","
","","","-1","","","11","7845","4065","d","elianto","#3366ff99","-1","-1","1","+10","[]","0","2","","","7845","27","1","2","win","no-go","0"
"pit-trial","152","1320188","0.0-32.0","battery-v0.2","","""event"",""trial"",""time""
""fullscreenenter"",""1"",""2402""
","
","
","""event"",""trial"",""time""
""fullscreenenter"",""1"",""2402""
","
","","","-1","","","11","7845","4065","j","elianto","#f73b6a7A"," ","-1","0","-10","[]","0","2","","","7845","28","0","3","lose","go","0"
"pit-trial","153","1325058","0.0-33.0","battery-v0.2","","""event"",""trial"",""time""
""fullscreenenter"",""1"",""2402""
","
","
","""event"",""trial"",""time""
""fullscreenenter"",""1"",""2402""
","
","","","-1","","","11","7845","4065","d","elianto","#3366ff99","-1","-1","1","+10","[3195.6999999284744]","1","2","","","7845","29","1","2","win","no-go","0"
"pit-trial","154","1329145","0.0-34.0","battery-v0.2","","""event"",""trial"",""time""
""fullscreenenter"",""1"",""2402""
","
","
","""event"",""trial"",""time""
""fullscreenenter"",""1"",""2402""
","
","","","1229.2000000476837","","","11","7845","4065","w","elianto","#f73b6a7A","-1"," ","0","-10","[2082.100000023842]","1","2","","","7845","30","3","4","lose","no-go","0"
"pit-trial","155","1334008","0.0-35.0","battery-v0.2","","""event"",""trial"",""time""
""fullscreenenter"",""1"",""2402""
","
","
","""event"",""trial"",""time""
""fullscreenenter"",""1"",""2402""
","
","","","-1","","","11","7845","4065","j","elianto","#f73b6a7A"," ","-1","0","0","[]","0","2","","","7845","31","0","3","lose","go","1"
"pit-trial","156","1337538","0.0-36.0","battery-v0.2","","""event"",""trial"",""time""
""fullscreenenter"",""1"",""2402""
","
","
","""event"",""trial"",""time""
""fullscreenenter"",""1"",""2402""
","
","","","667.2999999523163","","","11","7845","4065","e","elianto","#f73b6a7A"," "," ","1","0","[1521.1000000238419]","1","2","","","7845","32","2","3","lose","go","0"
"pit-trial","157","1342068","0.0-37.0","battery-v0.2","","""event"",""trial"",""time""
""fullscreenenter"",""1"",""2402""
","
","
","""event"",""trial"",""time""
""fullscreenenter"",""1"",""2402""
","
","","","1667.8999999761581","","","11","7845","4065","j","elianto","#f73b6a7A"," "," ","1","0","[2523.399999976158]","1","2","","","7845","33","0","3","lose","go","0"
"pit-trial","158","1346922","0.0-38.0","battery-v0.2","","""event"",""trial"",""time""
""fullscreenenter"",""1"",""2402""
","
","
","""event"",""trial"",""time""
""fullscreenenter"",""1"",""2402""
","
","","","-1","","","11","7845","4065","e","elianto","#f73b6a7A"," ","-1","0","-10","[]","0","2","","","7845","34","2","3","lose","go","0"
"pit-trial","159","1350746","0.0-39.0","battery-v0.2","","""event"",""trial"",""time""
""fullscreenenter"",""1"",""2402""
","
","
","""event"",""trial"",""time""
""fullscreenenter"",""1"",""2402""
","
","","","965.8999999761581","","","11","7845","4065","d","elianto","#3366ff99","-1"," ","0","0","[1816.3000000715256]","1","2","","","7845","35","1","2","win","no-go","0"
"pit-trial","160","1355608","0.0-40.0","battery-v0.2","","""event"",""trial"",""time""
""fullscreenenter"",""1"",""2402""
","
","
","""event"",""trial"",""time""
""fullscreenenter"",""1"",""2402""
","
","","","-1","","","11","7845","4065","w","elianto","#f73b6a7A","-1","-1","1","0","[]","0","2","","","7845","36","3","4","lose","no-go","0"
"pit-trial","161","1358944","0.0-41.0","battery-v0.2","","""event"",""trial"",""time""
""fullscreenenter"",""1"",""2402""
","
","
","""event"",""trial"",""time""
""fullscreenenter"",""1"",""2402""
","
","","","478.10000002384186","","","11","7845","4065","d","elianto","#3366ff99","-1"," ","0","0","[1331.0999999046326]","1","2","","","7845","37","1","2","win","no-go","0"
"pit-trial","162","1362790","0.0-42.0","battery-v0.2","","""event"",""trial"",""time""
""fullscreenenter"",""1"",""2402""
","
","
","""event"",""trial"",""time""
""fullscreenenter"",""1"",""2402""
","
","","","984.7999999523163","","","11","7845","4065","e","elianto","#f73b6a7A"," "," ","1","0","[1837.1999999284744]","1","2","","","7845","38","2","3","lose","go","0"
"pit-trial","163","1367660","0.0-43.0","battery-v0.2","","""event"",""trial"",""time""
""fullscreenenter"",""1"",""2402""
","
","
","""event"",""trial"",""time""
""fullscreenenter"",""1"",""2402""
","
","","","-1","","","11","7845","4065","w","elianto","#f73b6a7A","-1","-1","1","-10","[]","0","2","","","7845","39","3","4","lose","no-go","1"
"pit-trial","164","1371715","0.0-44.0","battery-v0.2","","""event"",""trial"",""time""
""fullscreenenter"",""1"",""2402""
","
","
","""event"",""trial"",""time""
""fullscreenenter"",""1"",""2402""
","
","","","1195.8000000715256","","","11","7845","4065","j","elianto","#f73b6a7A"," "," ","1","0","[2045.8999999761581]","1","2","","","7845","40","0","3","lose","go","0"
"pit-trial","165","1375429","0.0-45.0","battery-v0.2","","""event"",""trial"",""time""
""fullscreenenter"",""1"",""2402""
","
","
","""event"",""trial"",""time""
""fullscreenenter"",""1"",""2402""
","
","","","862","","","11","7845","4065","j","elianto","#f73b6a7A"," "," ","1","0","[1712.7000000476837]","1","2","","","7845","41","0","3","lose","go","0"
"pit-trial","166","1378916","0.0-46.0","battery-v0.2","","""event"",""trial"",""time""
""fullscreenenter"",""1"",""2402""
","
","
","""event"",""trial"",""time""
""fullscreenenter"",""1"",""2402""
","
","","","627.6999999284744","","","11","7845","4065","d","elianto","#3366ff99","-1"," ","0","0","[1478.2999999523163]","1","2","","","7845","42","1","2","win","no-go","0"
"pit-trial","167","1382955","0.0-47.0","battery-v0.2","","""event"",""trial"",""time""
""fullscreenenter"",""1"",""2402""
","
","
","""event"",""trial"",""time""
""fullscreenenter"",""1"",""2402""
","
","","","1182.3999999761581","","","11","7845","4065","w","elianto","#f73b6a7A","-1"," ","0","-10","[2033.5999999046326]","1","2","","","7845","43","3","4","lose","no-go","0"
"pit-trial","168","1386584","0.0-48.0","battery-v0.2","","""event"",""trial"",""time""
""fullscreenenter"",""1"",""2402""
","
","
","""event"",""trial"",""time""
""fullscreenenter"",""1"",""2402""
","
","","","770.8000000715256","","","11","7845","4065","e","elianto","#f73b6a7A"," "," ","1","-10","[1625.8999999761581]","1","2","","","7845","44","2","3","lose","go","1"
"pit-trial","169","1391443","0.0-49.0","battery-v0.2","","""event"",""trial"",""time""
""fullscreenenter"",""1"",""2402""
","
","
","""event"",""trial"",""time""
""fullscreenenter"",""1"",""2402""
","
","","","-1","","","11","7845","4065","w","elianto","#f73b6a7A","-1","-1","1","0","[]","0","2","","","7845","45","3","4","lose","no-go","0"
"pit-trial","170","1395453","0.0-50.0","battery-v0.2","","""event"",""trial"",""time""
""fullscreenenter"",""1"",""2402""
","
","
","""event"",""trial"",""time""
""fullscreenenter"",""1"",""2402""
","
","","","1155.8999999761581","","","11","7845","4065","e","elianto","#f73b6a7A"," "," ","1","0","[2005.8999999761581]","1","2","","","7845","46","2","3","lose","go","0"
"pit-trial","171","1398950","0.0-51.0","battery-v0.2","","""event"",""trial"",""time""
""fullscreenenter"",""1"",""2402""
","
","
","""event"",""trial"",""time""
""fullscreenenter"",""1"",""2402""
","
","","","639.8999999761581","","","11","7845","4065","d","elianto","#3366ff99","-1"," ","0","0","[1495.1999999284744]","1","2","","","7845","47","1","2","win","no-go","0"
"pit-trial","172","1403806","0.0-52.0","battery-v0.2","","""event"",""trial"",""time""
""fullscreenenter"",""1"",""2402""
","
","
","""event"",""trial"",""time""
""fullscreenenter"",""1"",""2402""
","
","","","-1","","","11","7845","4065","j","elianto","#f73b6a7A"," ","-1","0","0","[]","0","2","","","7845","48","0","3","lose","go","1"
"pit-trial","173","1408662","0.0-53.0","battery-v0.2","","""event"",""trial"",""time""
""fullscreenenter"",""1"",""2402""
","
","
","""event"",""trial"",""time""
""fullscreenenter"",""1"",""2402""
","
","","","-1","","","11","7845","4065","e","elianto","#f73b6a7A"," ","-1","0","0","[]","0","2","","","7845","49","2","3","lose","go","1"
"pit-trial","174","1413528","0.0-54.0","battery-v0.2","","""event"",""trial"",""time""
""fullscreenenter"",""1"",""2402""
","
","
","""event"",""trial"",""time""
""fullscreenenter"",""1"",""2402""
","
","","","-1","","","11","7845","4065","d","elianto","#3366ff99","-1","-1","1","+10","[]","0","2","","","7845","50","1","2","win","no-go","0"
"pit-trial","175","1418391","0.0-55.0","battery-v0.2","","""event"",""trial"",""time""
""fullscreenenter"",""1"",""2402""
","
","
","""event"",""trial"",""time""
""fullscreenenter"",""1"",""2402""
","
","","","-1","","","11","7845","4065","w","elianto","#f73b6a7A","-1","-1","1","0","[]","0","2","","","7845","51","3","4","lose","no-go","0"
"pit-trial","176","1422005","0.0-56.0","battery-v0.2","","""event"",""trial"",""time""
""fullscreenenter"",""1"",""2402""
","
","
","""event"",""trial"",""time""
""fullscreenenter"",""1"",""2402""
","
","","","753.5999999046326","","","11","7845","4065","j","elianto","#f73b6a7A"," "," ","1","0","[1604]","1","2","","","7845","52","0","3","lose","go","0"
"pit-trial","177","1426866","0.0-57.0","battery-v0.2","","""event"",""trial"",""time""
""fullscreenenter"",""1"",""2402""
","
","
","""event"",""trial"",""time""
""fullscreenenter"",""1"",""2402""
","
","","","-1","","","11","7845","4065","e","elianto","#f73b6a7A"," ","-1","0","-10","[]","0","2","","","7845","53","2","3","lose","go","0"
"pit-trial","178","1431734","0.0-58.0","battery-v0.2","","""event"",""trial"",""time""
""fullscreenenter"",""1"",""2402""
","
","
","""event"",""trial"",""time""
""fullscreenenter"",""1"",""2402""
","
","","","-1","","","11","7845","4065","j","elianto","#f73b6a7A"," ","-1","0","-10","[]","0","2","","","7845","54","0","3","lose","go","0"
"pit-trial","179","1436596","0.0-59.0","battery-v0.2","","""event"",""trial"",""time""
""fullscreenenter"",""1"",""2402""
","
","
","""event"",""trial"",""time""
""fullscreenenter"",""1"",""2402""
","
","","","-1","","","11","7845","4065","w","elianto","#f73b6a7A","-1","-1","1","0","[]","0","2","","","7845","55","3","4","lose","no-go","0"
"pit-trial","180","1439892","0.0-60.0","battery-v0.2","","""event"",""trial"",""time""
""fullscreenenter"",""1"",""2402""
","
","
","""event"",""trial"",""time""
""fullscreenenter"",""1"",""2402""
","
","","","441.60000002384186","","","11","7845","4065","d","elianto","#3366ff99","-1"," ","0","0","[1293.2000000476837]","1","2","","","7845","56","1","2","win","no-go","0"
"pit-trial","181","1443304","0.0-61.0","battery-v0.2","","""event"",""trial"",""time""
""fullscreenenter"",""1"",""2402""
","
","
","""event"",""trial"",""time""
""fullscreenenter"",""1"",""2402""
","
","","","545.2000000476837","","","11","7845","4065","s","elianto","#3366ff99"," "," ","1","+10","[1401.5]","1","2","","","7845","57","4","1","win","go","0"
"pit-trial","182","1446965","0.0-62.0","battery-v0.2","","""event"",""trial"",""time""
""fullscreenenter"",""1"",""2402""
","
","
","""event"",""trial"",""time""
""fullscreenenter"",""1"",""2402""
","
","","","798.4000000953674","","","11","7845","4065","e","elianto","#f73b6a7A"," "," ","1","-10","[1654.1000000238419]","1","2","","","7845","58","2","3","lose","go","1"
"pit-trial","183","1451819","0.0-63.0","battery-v0.2","","""event"",""trial"",""time""
""fullscreenenter"",""1"",""2402""
","
","
","""event"",""trial"",""time""
""fullscreenenter"",""1"",""2402""
","
","","","-1","","","11","7845","4065","w","elianto","#f73b6a7A","-1","-1","1","-10","[]","0","2","","","7845","59","3","4","lose","no-go","1"
"pit-trial","184","1456101","0.0-64.0","battery-v0.2","","""event"",""trial"",""time""
""fullscreenenter"",""1"",""2402""
","
","
","""event"",""trial"",""time""
""fullscreenenter"",""1"",""2402""
","
","","","1421.1000000238419","","","11","7845","4065","j","elianto","#f73b6a7A"," "," ","1","0","[2278.4000000953674]","1","2","","","7845","60","0","3","lose","go","0"
"pit-trial","185","1460164","0.0-65.0","battery-v0.2","","""event"",""trial"",""time""
""fullscreenenter"",""1"",""2402""
","
","
","""event"",""trial"",""time""
""fullscreenenter"",""1"",""2402""
","
","","","1207.1000000238419","","","11","7845","4065","e","elianto","#f73b6a7A"," "," ","1","0","[2059.2000000476837]","1","2","","","7845","61","2","3","lose","go","0"
"pit-trial","186","1465023","0.0-66.0","battery-v0.2","","""event"",""trial"",""time""
""fullscreenenter"",""1"",""2402""
","
","
","""event"",""trial"",""time""
""fullscreenenter"",""1"",""2402""
","
","","","-1","","","11","7845","4065","s","elianto","#3366ff99"," ","-1","0","0","[]","0","2","","","7845","62","4","1","win","go","0"
"pit-trial","187","1469606","0.0-67.0","battery-v0.2","","""event"",""trial"",""time""
""fullscreenenter"",""1"",""2402""
","
","
","""event"",""trial"",""time""
""fullscreenenter"",""1"",""2402""
","
","","","1714.3999999761581","","","11","7845","4065","d","elianto","#3366ff99","-1"," ","0","0","[2567.5]","1","2","","","7845","63","1","2","win","no-go","0"
"pit-trial","188","1474461","0.0-68.0","battery-v0.2","","""event"",""trial"",""time""
""fullscreenenter"",""1"",""2402""
","
","
","""event"",""trial"",""time""
""fullscreenenter"",""1"",""2402""
","
","","","-1","","","11","7845","4065","w","elianto","#f73b6a7A","-1","-1","1","0","[]","0","2","","","7845","64","3","4","lose","no-go","0"
"pit-trial","189","1479327","0.0-69.0","battery-v0.2","","""event"",""trial"",""time""
""fullscreenenter"",""1"",""2402""
","
","
","""event"",""trial"",""time""
""fullscreenenter"",""1"",""2402""
","
","","","-1","","","11","7845","4065","s","elianto","#3366ff99"," ","-1","0","+10","[]","0","2","","","7845","65","4","1","win","go","1"
"pit-trial","190","1484191","0.0-70.0","battery-v0.2","","""event"",""trial"",""time""
""fullscreenenter"",""1"",""2402""
","
","
","""event"",""trial"",""time""
""fullscreenenter"",""1"",""2402""
","
","","","-1","","","11","7845","4065","d","elianto","#3366ff99","-1","-1","1","+10","[]","0","2","","","7845","66","1","2","win","no-go","0"
"pit-trial","191","1488314","0.0-71.0","battery-v0.2","","""event"",""trial"",""time""
""fullscreenenter"",""1"",""2402""
","
","
","""event"",""trial"",""time""
""fullscreenenter"",""1"",""2402""
","
","","","1264.3999999761581","","","11","7845","4065","p","elianto","#3366ff99","-1"," ","0","+10","[2115.7999999523163]","1","2","","","7845","67","5","2","win","no-go","1"
"pit-trial","192","1493177","0.0-72.0","battery-v0.2","","""event"",""trial"",""time""
""fullscreenenter"",""1"",""2402""
","
","
","""event"",""trial"",""time""
""fullscreenenter"",""1"",""2402""
","
","","","-1","","","11","7845","4065","w","elianto","#f73b6a7A","-1","-1","1","0","[]","0","2","","","7845","68","3","4","lose","no-go","0"
"pit-trial","193","1498032","0.0-73.0","battery-v0.2","","""event"",""trial"",""time""
""fullscreenenter"",""1"",""2402""
","
","
","""event"",""trial"",""time""
""fullscreenenter"",""1"",""2402""
","
","","","-1","","","11","7845","4065","s","elianto","#3366ff99"," ","-1","0","0","[]","0","2","","","7845","69","4","1","win","go","0"
"pit-trial","194","1502887","0.0-74.0","battery-v0.2","","""event"",""trial"",""time""
""fullscreenenter"",""1"",""2402""
","
","
","""event"",""trial"",""time""
""fullscreenenter"",""1"",""2402""
","
","","","-1","","","11","7845","4065","d","elianto","#3366ff99","-1","-1","1","0","[]","0","2","","","7845","70","1","2","win","no-go","1"
"pit-trial","195","1507740","0.0-75.0","battery-v0.2","","""event"",""trial"",""time""
""fullscreenenter"",""1"",""2402""
","
","
","""event"",""trial"",""time""
""fullscreenenter"",""1"",""2402""
","
","","","-1","","","11","7845","4065","p","elianto","#3366ff99","-1","-1","1","+10","[4509.700000047684]","1","2","","","7845","71","5","2","win","no-go","0"
"pit-trial","196","1512597","0.0-76.0","battery-v0.2","","""event"",""trial"",""time""
""fullscreenenter"",""1"",""2402""
","
","
","""event"",""trial"",""time""
""fullscreenenter"",""1"",""2402""
","
","","","-1","","","11","7845","4065","e","elianto","#f73b6a7A"," ","-1","0","-10","[2985.6999999284744]","1","2","","","7845","72","2","3","lose","go","0"
"pit-trial","197","1517171","0.0-77.0","battery-v0.2","","""event"",""trial"",""time""
""fullscreenenter"",""1"",""2402""
","
","
","""event"",""trial"",""time""
""fullscreenenter"",""1"",""2402""
","
","","","1710","","","11","7845","4065","s","elianto","#3366ff99"," "," ","1","0","[2566.2999999523163]","1","2","","","7845","73","4","1","win","go","1"
"pit-trial","198","1520563","0.0-78.0","battery-v0.2","","""event"",""trial"",""time""
""fullscreenenter"",""1"",""2402""
","
","
","""event"",""trial"",""time""
""fullscreenenter"",""1"",""2402""
","
","","","532","","","11","7845","4065","p","elianto","#3366ff99","-1"," ","0","+10","[1384.6000000238419]","1","2","","","7845","74","5","2","win","no-go","1"
"pit-trial","199","1525428","0.0-79.0","battery-v0.2","","""event"",""trial"",""time""
""fullscreenenter"",""1"",""2402""
","
","
","""event"",""trial"",""time""
""fullscreenenter"",""1"",""2402""
","
","","","-1","","","11","7845","4065","w","elianto","#f73b6a7A","-1","-1","1","0","[]","0","2","","","7845","75","3","4","lose","no-go","0"
"pit-trial","200","1529134","0.0-80.0","battery-v0.2","","""event"",""trial"",""time""
""fullscreenenter"",""1"",""2402""
","
","
","""event"",""trial"",""time""
""fullscreenenter"",""1"",""2402""
","
","","","838.5999999046326","","","11","7845","4065","d","elianto","#3366ff99","-1"," ","0","0","[1696.1999999284744]","1","2","","","7845","76","1","2","win","no-go","0"
"pit-trial","201","1532702","0.0-81.0","battery-v0.2","","""event"",""trial"",""time""
""fullscreenenter"",""1"",""2402""
","
","
","""event"",""trial"",""time""
""fullscreenenter"",""1"",""2402""
","
","","","705.2999999523163","","","11","7845","4065","s","elianto","#3366ff99"," "," ","1","0","[1560.5]","1","2","","","7845","77","4","1","win","go","1"
"pit-trial","202","1537557","0.0-82.0","battery-v0.2","","""event"",""trial"",""time""
""fullscreenenter"",""1"",""2402""
","
","
","""event"",""trial"",""time""
""fullscreenenter"",""1"",""2402""
","
","","","-1","","","11","7845","4065","s","elianto","#3366ff99"," ","-1","0","0","[]","0","2","","","7845","78","4","1","win","go","0"
"pit-trial","203","1541280","0.0-83.0","battery-v0.2","","""event"",""trial"",""time""
""fullscreenenter"",""1"",""2402""
","
","
","""event"",""trial"",""time""
""fullscreenenter"",""1"",""2402""
","
","","","869.2999999523163","","","11","7845","4065","p","elianto","#3366ff99","-1"," ","0","+10","[1720.3999999761581]","1","2","","","7845","79","5","2","win","no-go","1"
"pit-trial","204","1546144","0.0-84.0","battery-v0.2","","""event"",""trial"",""time""
""fullscreenenter"",""1"",""2402""
","
","
","""event"",""trial"",""time""
""fullscreenenter"",""1"",""2402""
","
","","","-1","","","11","7845","4065","w","elianto","#f73b6a7A","-1","-1","1","0","[]","0","2","","","7845","80","3","4","lose","no-go","0"
"pit-trial","205","1551000","0.0-85.0","battery-v0.2","","""event"",""trial"",""time""
""fullscreenenter"",""1"",""2402""
","
","
","""event"",""trial"",""time""
""fullscreenenter"",""1"",""2402""
","
","","","-1","","","11","7845","4065","s","elianto","#3366ff99"," ","-1","0","0","[]","0","2","","","7845","81","4","1","win","go","0"
"pit-trial","206","1555855","0.0-86.0","battery-v0.2","","""event"",""trial"",""time""
""fullscreenenter"",""1"",""2402""
","
","
","""event"",""trial"",""time""
""fullscreenenter"",""1"",""2402""
","
","","","-1","","","11","7845","4065","a","elianto","#f73b6a7A","-1","-1","1","0","[]","0","2","","","7845","82","7","4","lose","no-go","0"
"pit-trial","207","1560710","0.0-87.0","battery-v0.2","","""event"",""trial"",""time""
""fullscreenenter"",""1"",""2402""
","
","
","""event"",""trial"",""time""
""fullscreenenter"",""1"",""2402""
","
","","","-1","","","11","7845","4065","p","elianto","#3366ff99","-1","-1","1","+10","[2968.600000023842]","1","2","","","7845","83","5","2","win","no-go","0"
"pit-trial","208","1565571","0.0-88.0","battery-v0.2","","""event"",""trial"",""time""
""fullscreenenter"",""1"",""2402""
","
","
","""event"",""trial"",""time""
""fullscreenenter"",""1"",""2402""
","
","","","-1","","","11","7845","4065","w","elianto","#f73b6a7A","-1","-1","1","-10","[]","0","2","","","7845","84","3","4","lose","no-go","1"
"pit-trial","209","1570435","0.0-89.0","battery-v0.2","","""event"",""trial"",""time""
""fullscreenenter"",""1"",""2402""
","
","
","""event"",""trial"",""time""
""fullscreenenter"",""1"",""2402""
","
","","","-1","","","11","7845","4065","s","elianto","#3366ff99"," ","-1","0","+10","[]","0","2","","","7845","85","4","1","win","go","1"
"pit-trial","210","1575290","0.0-90.0","battery-v0.2","","""event"",""trial"",""time""
""fullscreenenter"",""1"",""2402""
","
","
","""event"",""trial"",""time""
""fullscreenenter"",""1"",""2402""
","
","","","-1","","","11","7845","4065","g","elianto","#f73b6a7A"," ","-1","0","-10","[]","0","2","","","7845","86","6","3","lose","go","0"
"pit-trial","211","1580144","0.0-91.0","battery-v0.2","","""event"",""trial"",""time""
""fullscreenenter"",""1"",""2402""
","
","
","""event"",""trial"",""time""
""fullscreenenter"",""1"",""2402""
","
","","","-1","","","11","7845","4065","a","elianto","#f73b6a7A","-1","-1","1","-10","[]","0","2","","","7845","87","7","4","lose","no-go","1"
"pit-trial","212","1583440","0.0-92.0","battery-v0.2","","""event"",""trial"",""time""
""fullscreenenter"",""1"",""2402""
","
","
","""event"",""trial"",""time""
""fullscreenenter"",""1"",""2402""
","
","","","440.10000002384186","","","11","7845","4065","p","elianto","#3366ff99","-1"," ","0","0","[1291.8999999761581]","1","2","","","7845","88","5","2","win","no-go","0"
"pit-trial","213","1588307","0.0-93.0","battery-v0.2","","""event"",""trial"",""time""
""fullscreenenter"",""1"",""2402""
","
","
","""event"",""trial"",""time""
""fullscreenenter"",""1"",""2402""
","
","","","-1","","","11","7845","4065","a","elianto","#f73b6a7A","-1","-1","1","0","[]","0","2","","","7845","89","7","4","lose","no-go","0"
"pit-trial","214","1593171","0.0-94.0","battery-v0.2","","""event"",""trial"",""time""
""fullscreenenter"",""1"",""2402""
","
","
","""event"",""trial"",""time""
""fullscreenenter"",""1"",""2402""
","
","","","-1","","","11","7845","4065","p","elianto","#3366ff99","-1","-1","1","+10","[]","0","2","","","7845","90","5","2","win","no-go","0"
"pit-trial","215","1598039","0.0-95.0","battery-v0.2","","""event"",""trial"",""time""
""fullscreenenter"",""1"",""2402""
","
","
","""event"",""trial"",""time""
""fullscreenenter"",""1"",""2402""
","
","","","-1","","","11","7845","4065","s","elianto","#3366ff99"," ","-1","0","0","[]","0","2","","","7845","91","4","1","win","go","0"
"pit-trial","216","1601918","0.0-96.0","battery-v0.2","","""event"",""trial"",""time""
""fullscreenenter"",""1"",""2402""
","
","
","""event"",""trial"",""time""
""fullscreenenter"",""1"",""2402""
","
","","","1027.5","","","11","7845","4065","g","elianto","#f73b6a7A"," "," ","1","0","[1877.6000000238419]","1","2","","","7845","92","6","3","lose","go","0"
"pit-trial","217","1606792","0.0-97.0","battery-v0.2","","""event"",""trial"",""time""
""fullscreenenter"",""1"",""2402""
","
","
","""event"",""trial"",""time""
""fullscreenenter"",""1"",""2402""
","
","","","-1","","","11","7845","4065","a","elianto","#f73b6a7A","-1","-1","1","0","[]","0","2","","","7845","93","7","4","lose","no-go","0"
"pit-trial","218","1610179","0.0-98.0","battery-v0.2","","""event"",""trial"",""time""
""fullscreenenter"",""1"",""2402""
","
","
","""event"",""trial"",""time""
""fullscreenenter"",""1"",""2402""
","
","","","530.6000000238419","","","11","7845","4065","p","elianto","#3366ff99","-1"," ","0","+10","[1381.5]","1","2","","","7845","94","5","2","win","no-go","1"
"pit-trial","219","1615042","0.0-99.0","battery-v0.2","","""event"",""trial"",""time""
""fullscreenenter"",""1"",""2402""
","
","
","""event"",""trial"",""time""
""fullscreenenter"",""1"",""2402""
","
","","","-1","","","11","7845","4065","g","elianto","#f73b6a7A"," ","-1","0","-10","[]","0","2","","","7845","95","6","3","lose","go","0"
"pit-trial","220","1618613","0.0-100.0","battery-v0.2","","""event"",""trial"",""time""
""fullscreenenter"",""1"",""2402""
","
","
","""event"",""trial"",""time""
""fullscreenenter"",""1"",""2402""
","
","","","700.8000000715256","","","11","7845","4065","l","elianto","#3366ff99"," "," ","1","+10","[1553.8000000715256]","1","2","","","7845","96","8","1","win","go","0"
"pit-trial","221","1623469","0.0-101.0","battery-v0.2","","""event"",""trial"",""time""
""fullscreenenter"",""1"",""2402""
","
","
","""event"",""trial"",""time""
""fullscreenenter"",""1"",""2402""
","
","","","-1","","","11","7845","4065","a","elianto","#f73b6a7A","-1","-1","1","0","[]","0","2","","","7845","97","7","4","lose","no-go","0"
"pit-trial","222","1626757","0.0-102.0","battery-v0.2","","""event"",""trial"",""time""
""fullscreenenter"",""1"",""2402""
","
","
","""event"",""trial"",""time""
""fullscreenenter"",""1"",""2402""
","
","","","433.8000000715256","","","11","7845","4065","g","elianto","#f73b6a7A"," "," ","1","0","[1284.1000000238419]","1","2","","","7845","98","6","3","lose","go","0"
"pit-trial","223","1631611","0.0-103.0","battery-v0.2","","""event"",""trial"",""time""
""fullscreenenter"",""1"",""2402""
","
","
","""event"",""trial"",""time""
""fullscreenenter"",""1"",""2402""
","
","","","-1","","","11","7845","4065","p","elianto","#3366ff99","-1","-1","1","0","[]","0","2","","","7845","99","5","2","win","no-go","1"
"pit-trial","224","1635639","0.0-104.0","battery-v0.2","","""event"",""trial"",""time""
""fullscreenenter"",""1"",""2402""
","
","
","""event"",""trial"",""time""
""fullscreenenter"",""1"",""2402""
","
","","","1173.8999999761581","","","11","7845","4065","l","elianto","#3366ff99"," "," ","1","+10","[2025]","1","2","","","7845","100","8","1","win","go","0"
"pit-trial","225","1640495","0.0-105.0","battery-v0.2","","""event"",""trial"",""time""
""fullscreenenter"",""1"",""2402""
","
","
","""event"",""trial"",""time""
""fullscreenenter"",""1"",""2402""
","
","","","-1","","","11","7845","4065","a","elianto","#f73b6a7A","-1","-1","1","-10","[]","0","2","","","7845","101","7","4","lose","no-go","1"
"pit-trial","226","1645365","0.0-106.0","battery-v0.2","","""event"",""trial"",""time""
""fullscreenenter"",""1"",""2402""
","
","
","""event"",""trial"",""time""
""fullscreenenter"",""1"",""2402""
","
","","","-1","","","11","7845","4065","l","elianto","#3366ff99"," ","-1","0","0","[]","0","2","","","7845","102","8","1","win","go","0"
"pit-trial","227","1650240","0.0-107.0","battery-v0.2","","""event"",""trial"",""time""
""fullscreenenter"",""1"",""2402""
","
","
","""event"",""trial"",""time""
""fullscreenenter"",""1"",""2402""
","
","","","-1","","","11","7845","4065","u","elianto","#3366ff99"," ","-1","0","0","[]","0","2","","","7845","103","9","1","win","go","0"
"pit-trial","228","1655095","0.0-108.0","battery-v0.2","","""event"",""trial"",""time""
""fullscreenenter"",""1"",""2402""
","
","
","""event"",""trial"",""time""
""fullscreenenter"",""1"",""2402""
","
","","","-1","","","11","7845","4065","p","elianto","#3366ff99","-1","-1","1","+10","[]","0","2","","","7845","104","5","2","win","no-go","0"
"pit-trial","229","1658941","0.0-109.0","battery-v0.2","","""event"",""trial"",""time""
""fullscreenenter"",""1"",""2402""
","
","
","""event"",""trial"",""time""
""fullscreenenter"",""1"",""2402""
","
","","","983.2999999523163","","","11","7845","4065","u","elianto","#3366ff99"," "," ","1","+10","[1841.2999999523163]","1","2","","","7845","105","9","1","win","go","0"
"pit-trial","230","1662585","0.0-110.0","battery-v0.2","","""event"",""trial"",""time""
""fullscreenenter"",""1"",""2402""
","
","
","""event"",""trial"",""time""
""fullscreenenter"",""1"",""2402""
","
","","","787.1999999284744","","","11","7845","4065","g","elianto","#f73b6a7A"," "," ","1","0","[1638.1999999284744]","1","2","","","7845","106","6","3","lose","go","0"
"pit-trial","231","1667453","0.0-111.0","battery-v0.2","","""event"",""trial"",""time""
""fullscreenenter"",""1"",""2402""
","
","
","""event"",""trial"",""time""
""fullscreenenter"",""1"",""2402""
","
","","","-1","","","11","7845","4065","l","elianto","#3366ff99"," ","-1","0","0","[]","0","2","","","7845","107","8","1","win","go","0"
"pit-trial","232","1672320","0.0-112.0","battery-v0.2","","""event"",""trial"",""time""
""fullscreenenter"",""1"",""2402""
","
","
","""event"",""trial"",""time""
""fullscreenenter"",""1"",""2402""
","
","","","-1","","","11","7845","4065","s","elianto","#3366ff99"," ","-1","0","0","[]","0","2","","","7845","108","4","1","win","go","0"
"pit-trial","233","1677190","0.0-113.0","battery-v0.2","","""event"",""trial"",""time""
""fullscreenenter"",""1"",""2402""
","
","
","""event"",""trial"",""time""
""fullscreenenter"",""1"",""2402""
","
","","","-1","","","11","7845","4065","g","elianto","#f73b6a7A"," ","-1","0","-10","[]","0","2","","","7845","109","6","3","lose","go","0"
"pit-trial","234","1681644","0.0-114.0","battery-v0.2","","""event"",""trial"",""time""
""fullscreenenter"",""1"",""2402""
","
","
","""event"",""trial"",""time""
""fullscreenenter"",""1"",""2402""
","
","","","1587.6000000238419","","","11","7845","4065","p","elianto","#3366ff99","-1"," ","0","0","[2446.100000023842]","1","2","","","7845","110","5","2","win","no-go","0"
"pit-trial","235","1686502","0.0-115.0","battery-v0.2","","""event"",""trial"",""time""
""fullscreenenter"",""1"",""2402""
","
","
","""event"",""trial"",""time""
""fullscreenenter"",""1"",""2402""
","
","","","-1","","","11","7845","4065","u","elianto","#3366ff99"," ","-1","0","0","[]","0","2","","","7845","111","9","1","win","go","0"
"pit-trial","236","1691357","0.0-116.0","battery-v0.2","","""event"",""trial"",""time""
""fullscreenenter"",""1"",""2402""
","
","
","""event"",""trial"",""time""
""fullscreenenter"",""1"",""2402""
","
","","","-1","","","11","7845","4065","l","elianto","#3366ff99"," ","-1","0","0","[]","0","2","","","7845","112","8","1","win","go","0"
"pit-trial","237","1695044","0.0-117.0","battery-v0.2","","""event"",""trial"",""time""
""fullscreenenter"",""1"",""2402""
","
","
","""event"",""trial"",""time""
""fullscreenenter"",""1"",""2402""
","
","","","823.3999999761581","","","11","7845","4065","g","elianto","#f73b6a7A"," "," ","1","0","[1677.1999999284744]","1","2","","","7845","113","6","3","lose","go","0"
"pit-trial","238","1698941","0.0-118.0","battery-v0.2","","""event"",""trial"",""time""
""fullscreenenter"",""1"",""2402""
","
","
","""event"",""trial"",""time""
""fullscreenenter"",""1"",""2402""
","
","","","1036.8000000715256","","","11","7845","4065","u","elianto","#3366ff99"," "," ","1","+10","[1894.2000000476837]","1","2","","","7845","114","9","1","win","go","0"
"pit-trial","239","1702875","0.0-119.0","battery-v0.2","","""event"",""trial"",""time""
""fullscreenenter"",""1"",""2402""
","
","
","""event"",""trial"",""time""
""fullscreenenter"",""1"",""2402""
","
","","","1060.7000000476837","","","11","7845","4065","p","elianto","#3366ff99","-1"," ","0","0","[1916.7000000476837]","1","2","","","7845","115","5","2","win","no-go","0"
"pit-trial","240","1706322","0.0-120.0","battery-v0.2","","""event"",""trial"",""time""
""fullscreenenter"",""1"",""2402""
","
","
","""event"",""trial"",""time""
""fullscreenenter"",""1"",""2402""
","
","","","588.2000000476837","","","11","7845","4065","l","elianto","#3366ff99"," "," ","1","+10","[1439.2999999523163]","1","2","","","7845","116","8","1","win","go","0"
"pit-trial","241","1711158","0.0-121.0","battery-v0.2","","""event"",""trial"",""time""
""fullscreenenter"",""1"",""2402""
","
","
","""event"",""trial"",""time""
""fullscreenenter"",""1"",""2402""
","
","","","1977","","","11","7845","4065","p","elianto","#3366ff99","-1"," ","0","0","[2831.600000023842]","1","2","","","7845","117","5","2","win","no-go","0"
"pit-trial","242","1716020","0.0-122.0","battery-v0.2","","""event"",""trial"",""time""
""fullscreenenter"",""1"",""2402""
","
","
","""event"",""trial"",""time""
""fullscreenenter"",""1"",""2402""
","
","","","-1","","","11","7845","4065","l","elianto","#3366ff99"," ","-1","0","0","[]","0","2","","","7845","118","8","1","win","go","0"
"pit-trial","243","1719792","0.0-123.0","battery-v0.2","","""event"",""trial"",""time""
""fullscreenenter"",""1"",""2402""
","
","
","""event"",""trial"",""time""
""fullscreenenter"",""1"",""2402""
","
","","","913","","","11","7845","4065","u","elianto","#3366ff99"," "," ","1","+10","[1763.1000000238419]","1","2","","","7845","119","9","1","win","go","0"
"pit-trial","244","1723767","0.0-124.0","battery-v0.2","","""event"",""trial"",""time""
""fullscreenenter"",""1"",""2402""
","
","
","""event"",""trial"",""time""
""fullscreenenter"",""1"",""2402""
","
","","","1104.1000000238419","","","11","7845","4065","g","elianto","#f73b6a7A"," "," ","1","0","[1962.3000000715256]","1","2","","","7845","120","6","3","lose","go","0"
"pit-trial","245","1728624","0.0-125.0","battery-v0.2","","""event"",""trial"",""time""
""fullscreenenter"",""1"",""2402""
","
","
","""event"",""trial"",""time""
""fullscreenenter"",""1"",""2402""
","
","","","-1","","","11","7845","4065","l","elianto","#3366ff99"," ","-1","0","0","[]","0","2","","","7845","121","8","1","win","go","0"
"pit-trial","246","1733478","0.0-126.0","battery-v0.2","","""event"",""trial"",""time""
""fullscreenenter"",""1"",""2402""
","
","
","""event"",""trial"",""time""
""fullscreenenter"",""1"",""2402""
","
","","","-1","","","11","7845","4065","u","elianto","#3366ff99"," ","-1","0","0","[]","0","2","","","7845","122","9","1","win","go","0"
"pit-trial","247","1737058","0.0-127.0","battery-v0.2","","""event"",""trial"",""time""
""fullscreenenter"",""1"",""2402""
","
","
","""event"",""trial"",""time""
""fullscreenenter"",""1"",""2402""
","
","","","720.3999999761581","","","11","7845","4065","a","elianto","#f73b6a7A","-1"," ","0","0","[1570.6999999284744]","1","2","","","7845","123","7","4","lose","no-go","1"
"pit-trial","248","1741930","0.0-128.0","battery-v0.2","","""event"",""trial"",""time""
""fullscreenenter"",""1"",""2402""
","
","
","""event"",""trial"",""time""
""fullscreenenter"",""1"",""2402""
","
","","","-1","","","11","7845","4065","g","elianto","#f73b6a7A"," ","-1","0","-10","[]","0","2","","","7845","124","6","3","lose","go","0"
"pit-trial","249","1746792","0.0-129.0","battery-v0.2","","""event"",""trial"",""time""
""fullscreenenter"",""1"",""2402""
","
","
","""event"",""trial"",""time""
""fullscreenenter"",""1"",""2402""
","
","","","-1","","","11","7845","4065","u","elianto","#3366ff99"," ","-1","0","0","[3941.100000023842]","1","2","","","7845","125","9","1","win","go","0"
"pit-trial","250","1750104","0.0-130.0","battery-v0.2","","""event"",""trial"",""time""
""fullscreenenter"",""1"",""2402""
","
","
","""event"",""trial"",""time""
""fullscreenenter"",""1"",""2402""
","
","","","448.60000002384186","","","11","7845","4065","l","elianto","#3366ff99"," "," ","1","0","[1306.3999999761581]","1","2","","","7845","126","8","1","win","go","1"
"pit-trial","251","1754974","0.0-131.0","battery-v0.2","","""event"",""trial"",""time""
""fullscreenenter"",""1"",""2402""
","
","
","""event"",""trial"",""time""
""fullscreenenter"",""1"",""2402""
","
","","","-1","","","11","7845","4065","g","elianto","#f73b6a7A"," ","-1","0","-10","[]","0","2","","","7845","127","6","3","lose","go","0"
"pit-trial","252","1759840","0.0-132.0","battery-v0.2","","""event"",""trial"",""time""
""fullscreenenter"",""1"",""2402""
","
","
","""event"",""trial"",""time""
""fullscreenenter"",""1"",""2402""
","
","","","-1","","","11","7845","4065","a","elianto","#f73b6a7A","-1","-1","1","0","[]","0","2","","","7845","128","7","4","lose","no-go","0"
"pit-trial","253","1763178","0.0-133.0","battery-v0.2","","""event"",""trial"",""time""
""fullscreenenter"",""1"",""2402""
","
","
","""event"",""trial"",""time""
""fullscreenenter"",""1"",""2402""
","
","","","482.10000002384186","","","11","7845","4065","u","elianto","#3366ff99"," "," ","1","+10","[1332.6999999284744]","1","2","","","7845","129","9","1","win","go","0"
"pit-trial","254","1768041","0.0-134.0","battery-v0.2","","""event"",""trial"",""time""
""fullscreenenter"",""1"",""2402""
","
","
","""event"",""trial"",""time""
""fullscreenenter"",""1"",""2402""
","
","","","-1","","","11","7845","4065","l","elianto","#3366ff99"," ","-1","0","0","[]","0","2","","","7845","130","8","1","win","go","0"
"pit-trial","255","1772904","0.0-135.0","battery-v0.2","","""event"",""trial"",""time""
""fullscreenenter"",""1"",""2402""
","
","
","""event"",""trial"",""time""
""fullscreenenter"",""1"",""2402""
","
","","","-1","","","11","7845","4065","a","elianto","#f73b6a7A","-1","-1","1","-10","[]","0","2","","","7845","131","7","4","lose","no-go","1"
"pit-trial","256","1777759","0.0-136.0","battery-v0.2","","""event"",""trial"",""time""
""fullscreenenter"",""1"",""2402""
","
","
","""event"",""trial"",""time""
""fullscreenenter"",""1"",""2402""
","
","","","-1","","","11","7845","4065","g","elianto","#f73b6a7A"," ","-1","0","-10","[]","0","2","","","7845","132","6","3","lose","go","0"
"pit-trial","257","1781271","0.0-137.0","battery-v0.2","","""event"",""trial"",""time""
""fullscreenenter"",""1"",""2402""
","
","
","""event"",""trial"",""time""
""fullscreenenter"",""1"",""2402""
","
","","","648.1000000238419","","","11","7845","4065","u","elianto","#3366ff99"," "," ","1","+10","[1504.8999999761581]","1","2","","","7845","133","9","1","win","go","0"
"pit-trial","258","1785000","0.0-138.0","battery-v0.2","","""event"",""trial"",""time""
""fullscreenenter"",""1"",""2402""
","
","
","""event"",""trial"",""time""
""fullscreenenter"",""1"",""2402""
","
","","","867.3000000715256","","","11","7845","4065","a","elianto","#f73b6a7A","-1"," ","0","-10","[1725.5]","1","2","","","7845","134","7","4","lose","no-go","0"
"pit-trial","259","1788630","0.0-139.0","battery-v0.2","","""event"",""trial"",""time""
""fullscreenenter"",""1"",""2402""
","
","
","""event"",""trial"",""time""
""fullscreenenter"",""1"",""2402""
","
","","","772.8999999761581","","","11","7845","4065","g","elianto","#f73b6a7A"," "," ","1","0","[1623.6000000238419]","1","2","","","7845","135","6","3","lose","go","0"
"pit-trial","260","1792207","0.0-140.0","battery-v0.2","","""event"",""trial"",""time""
""fullscreenenter"",""1"",""2402""
","
","
","""event"",""trial"",""time""
""fullscreenenter"",""1"",""2402""
","
","","","719.6000000238419","","","11","7845","4065","l","elianto","#3366ff99"," "," ","1","+10","[1573.1000000238419]","1","2","","","7845","136","8","1","win","go","0"
"pit-trial","261","1795882","0.0-141.0","battery-v0.2","","""event"",""trial"",""time""
""fullscreenenter"",""1"",""2402""
","
","
","""event"",""trial"",""time""
""fullscreenenter"",""1"",""2402""
","
","","","809.1000000238419","","","11","7845","4065","l","elianto","#3366ff99"," "," ","1","+10","[1667.1000000238419]","1","2","","","7845","137","8","1","win","go","0"
"pit-trial","262","1799548","0.0-142.0","battery-v0.2","","""event"",""trial"",""time""
""fullscreenenter"",""1"",""2402""
","
","
","""event"",""trial"",""time""
""fullscreenenter"",""1"",""2402""
","
","","","800.8999999761581","","","11","7845","4065","g","elianto","#f73b6a7A"," "," ","1","0","[1651.2000000476837]","1","2","","","7845","138","6","3","lose","go","0"
"pit-trial","263","1803203","0.0-143.0","battery-v0.2","","""event"",""trial"",""time""
""fullscreenenter"",""1"",""2402""
","
","
","""event"",""trial"",""time""
""fullscreenenter"",""1"",""2402""
","
","","","793.5999999046326","","","11","7845","4065","u","elianto","#3366ff99"," "," ","1","+10","[1644.6999999284744]","1","2","","","7845","139","9","1","win","go","0"
"pit-trial","264","1808058","0.0-144.0","battery-v0.2","","""event"",""trial"",""time""
""fullscreenenter"",""1"",""2402""
","
","
","""event"",""trial"",""time""
""fullscreenenter"",""1"",""2402""
","
","","","-1","","","11","7845","4065","a","elianto","#f73b6a7A","-1","-1","1","0","[]","0","2","","","7845","140","7","4","lose","no-go","0"
"pit-instructions","265","2008572","0.0-145.0","battery-v0.2","","""event"",""trial"",""time""
""fullscreenenter"",""1"",""2402""
","
","
","""event"",""trial"",""time""
""fullscreenenter"",""1"",""2402""
","
","","[{""page_index"":0,""viewing_time"":168465.20000004768},{""page_index"":1,""viewing_time"":32051.899999976158}]","200517.29999995232","","","","","","","","","","","","","","","","","","","","","","","",""
"pit-trial","266","2013448","0.0-146.0","battery-v0.2","","""event"",""trial"",""time""
""fullscreenenter"",""1"",""2402""
","
","
","""event"",""trial"",""time""
""fullscreenenter"",""1"",""2402""
","
","","","-1","","","11","7845","4065","b","elianto","#f73b6a7A"," ","-1","0","-10","[]","0","3","","","7845","141","3","3","lose","go","0"
"pit-trial","267","2018310","0.0-147.0","battery-v0.2","","""event"",""trial"",""time""
""fullscreenenter"",""1"",""2402""
","
","
","""event"",""trial"",""time""
""fullscreenenter"",""1"",""2402""
","
","","","-1","","","11","7845","4065","f","elianto","#3366ff99"," ","-1","0","0","[]","0","3","","","7845","142","1","1","win","go","0"
"pit-trial","268","2022367","0.0-148.0","battery-v0.2","","""event"",""trial"",""time""
""fullscreenenter"",""1"",""2402""
","
","
","""event"",""trial"",""time""
""fullscreenenter"",""1"",""2402""
","
","","","1200.1000000238419","","","11","7845","4065","t","elianto","#f73b6a7A","-1"," ","0","-10","[2052.5]","1","3","","","7845","143","2","4","lose","no-go","0"
