"trial_type","trial_index","time_elapsed","internal_node_id","task_version","subject_id","interactions","blur_events","focus_events","fullscreenenter_events","fullscreenexit_events","success","view_history","rt","responses","num_errors","age","subject","participantId","rune","rune_set","hex","correct","choice","accuracy","outcome","keys","total_keys","block","practice","value","sub","trial","stimulus","robot","valence","action","sham"
"pavlovia","0","9","0.0-0.0","battery-v0.2","","""event"",""trial"",""time""
""fullscreenenter"",""1"",""1707""
","
","
","""event"",""trial"",""time""
""fullscreenenter"",""1"",""1707""
","
","","","","","","","","","","","","","","","","","","","","","","","","","","",""
"fullscreen","1","2686","0.0-1.0","battery-v0.2","","""event"",""trial"",""time""
""fullscreenenter"",""1"",""1707""
","
","
","""event"",""trial"",""time""
""fullscreenenter"",""1"",""1707""
","
","true","","","","","","","","","","","","","","","","","","","","","","","","","",""
"pit-instructions","2","8531","0.0-2.0-0.0","battery-v0.2","","""event"",""trial"",""time""
""fullscreenenter"",""1"",""1707""
","
","
","""event"",""trial"",""time""
""fullscreenenter"",""1"",""1707""
","
","","[{""page_index"":0,""viewing_time"":5839.4000000059605}]","5840.0999999940395","","","","","","","","","","","","","","","","","","","","","","","",""
"pit-comprehension","3","11813","0.0-2.0-1.0-0.0","battery-v0.2","","""event"",""trial"",""time""
""fullscreenenter"",""1"",""1707""
","
","
","""event"",""trial"",""time""
""fullscreenenter"",""1"",""1707""
","
","","","3277.7000000178814","[""shark""]","0","18","11660","5372","","","","","","","","","","","","","","","","","","",""
"pit-instructions","4","13963","0.0-2.0-1.0-1.0","battery-v0.2","","""event"",""trial"",""time""
""fullscreenenter"",""1"",""1707""
","
","
","""event"",""trial"",""time""
""fullscreenenter"",""1"",""1707""
","
","","[{""page_index"":0,""viewing_time"":2139.199999988079}]","2139.5999999940395","","","","","","","","","","","","","","","","","","","","","","","",""
"pit-comprehension","5","16782","0.0-2.0-2.0-0.0","battery-v0.2","","""event"",""trial"",""time""
""fullscreenenter"",""1"",""1707""
","
","
","""event"",""trial"",""time""
""fullscreenenter"",""1"",""1707""
","
","","","2814.0999999940395","[""tiger""]","0","18","11660","5372","","","","","","","","","","","","","","","","","","",""
"pit-instructions","6","17678","0.0-2.0-2.0-1.0","battery-v0.2","","""event"",""trial"",""time""
""fullscreenenter"",""1"",""1707""
","
","
","""event"",""trial"",""time""
""fullscreenenter"",""1"",""1707""
","
","","[{""page_index"":0,""viewing_time"":893.2000000178814}]","893.4000000059605","","","","","","","","","","","","","","","","","","","","","","","",""
"pit-instructions","7","121881","0.0-2.0-3.0","battery-v0.2","","""event"",""trial"",""time""
""fullscreenenter"",""1"",""1707""
","
","
","""event"",""trial"",""time""
""fullscreenenter"",""1"",""1707""
","
","","[{""page_index"":0,""viewing_time"":13200.5},{""page_index"":1,""viewing_time"":5933.9000000059605},{""page_index"":2,""viewing_time"":6816.299999982119},{""page_index"":3,""viewing_time"":5100.800000011921},{""page_index"":4,""viewing_time"":5799.699999988079},{""page_index"":5,""viewing_time"":9332.5},{""page_index"":6,""viewing_time"":8920.300000011921},{""page_index"":7,""viewing_time"":7398.0999999940395},{""page_index"":8,""viewing_time"":6950.0999999940395},{""page_index"":9,""viewing_time"":8484},{""page_index"":10,""viewing_time"":7033.800000011921},{""page_index"":11,""viewing_time"":6716.4000000059605},{""page_index"":12,""viewing_time"":6035.5},{""page_index"":13,""viewing_time"":6483.0999999940395}]","104205.5","","","","","","","","","","","","","","","","","","","","","","","",""
"pit-trial","8","125291","0.0-2.0-4.0-0.0","battery-v0.2","","""event"",""trial"",""time""
""fullscreenenter"",""1"",""1707""
","
","
","""event"",""trial"",""time""
""fullscreenenter"",""1"",""1707""
","
","","","548.9000000059605","","","18","11660","5372","&#9784;","elianto","#FFFFF080"," "," ","1","&#10004","[1400.5999999940395]","1","0","0","","","","","","","",""
"pit-trial","9","128653","0.0-2.0-4.1-0.1","battery-v0.2","","""event"",""trial"",""time""
""fullscreenenter"",""1"",""1707""
","
","
","""event"",""trial"",""time""
""fullscreenenter"",""1"",""1707""
","
","","","504.5","","","18","11660","5372","&#9784;","elianto","#FFFFF080"," "," ","1","&#10004","[1355.8999999761581]","1","0","0","","","","","","","",""
"pit-trial","10","132056","0.0-2.0-4.2-0.2","battery-v0.2","","""event"",""trial"",""time""
""fullscreenenter"",""1"",""1707""
","
","
","""event"",""trial"",""time""
""fullscreenenter"",""1"",""1707""
","
","","","541","","","18","11660","5372","&#9784;","elianto","#FFFFF080"," "," ","1","&#10004","[1393.7999999821186]","1","0","0","","","","","","","",""
"pit-trial","11","135388","0.0-2.0-4.3-0.3","battery-v0.2","","""event"",""trial"",""time""
""fullscreenenter"",""1"",""1707""
","
","
","""event"",""trial"",""time""
""fullscreenenter"",""1"",""1707""
","
","","","471.89999997615814","","","18","11660","5372","&#9784;","elianto","#FFFFF080"," "," ","1","&#10004","[1323]","1","0","0","","","","","","","",""
"pit-trial","12","138694","0.0-2.0-4.4-0.4","battery-v0.2","","""event"",""trial"",""time""
""fullscreenenter"",""1"",""1707""
","
","
","""event"",""trial"",""time""
""fullscreenenter"",""1"",""1707""
","
","","","445.30000001192093","","","18","11660","5372","&#9784;","elianto","#FFFFF080"," "," ","1","&#10004","[1296]","1","0","0","","","","","","","",""
"pit-instructions","13","158113","0.0-2.0-5.0","battery-v0.2","","""event"",""trial"",""time""
""fullscreenenter"",""1"",""1707""
","
","
","""event"",""trial"",""time""
""fullscreenenter"",""1"",""1707""
","
","","[{""page_index"":0,""viewing_time"":4832.4000000059605},{""page_index"":1,""viewing_time"":5081.4000000059605},{""page_index"":2,""viewing_time"":4399.0999999940395},{""page_index"":3,""viewing_time"":5100.300000011921}]","19413.80000001192","","","","","","","","","","","","","","","","","","","","","","","",""
"pit-trial","14","162979","0.0-2.0-6.0-0.0","battery-v0.2","","""event"",""trial"",""time""
""fullscreenenter"",""1"",""1707""
","
","
","""event"",""trial"",""time""
""fullscreenenter"",""1"",""1707""
","
","","","-1","","","18","11660","5372","&#9854;","elianto","#FFFFF080","-1","-1","1","&#10004","[]","0","0","1","","","","","","","",""
"pit-trial","15","167845","0.0-2.0-6.1-0.1","battery-v0.2","","""event"",""trial"",""time""
""fullscreenenter"",""1"",""1707""
","
","
","""event"",""trial"",""time""
""fullscreenenter"",""1"",""1707""
","
","","","-1","","","18","11660","5372","&#9854;","elianto","#FFFFF080","-1","-1","1","&#10004","[]","0","0","1","","","","","","","",""
"pit-trial","16","172706","0.0-2.0-6.2-0.2","battery-v0.2","","""event"",""trial"",""time""
""fullscreenenter"",""1"",""1707""
","
","
","""event"",""trial"",""time""
""fullscreenenter"",""1"",""1707""
","
","","","-1","","","18","11660","5372","&#9854;","elianto","#FFFFF080","-1","-1","1","&#10004","[]","0","0","1","","","","","","","",""
"pit-trial","17","177567","0.0-2.0-6.3-0.3","battery-v0.2","","""event"",""trial"",""time""
""fullscreenenter"",""1"",""1707""
","
","
","""event"",""trial"",""time""
""fullscreenenter"",""1"",""1707""
","
","","","-1","","","18","11660","5372","&#9854;","elianto","#FFFFF080","-1","-1","1","&#10004","[]","0","0","1","","","","","","","",""
"pit-trial","18","182430","0.0-2.0-6.4-0.4","battery-v0.2","","""event"",""trial"",""time""
""fullscreenenter"",""1"",""1707""
","
","
","""event"",""trial"",""time""
""fullscreenenter"",""1"",""1707""
","
","","","-1","","","18","11660","5372","&#9854;","elianto","#FFFFF080","-1","-1","1","&#10004","[]","0","0","1","","","","","","","",""
"pit-instructions","19","305554","0.0-2.0-7.0","battery-v0.2","","""event"",""trial"",""time""
""fullscreenenter"",""1"",""1707""
","
","
","""event"",""trial"",""time""
""fullscreenenter"",""1"",""1707""
","
","","[{""page_index"":0,""viewing_time"":6510},{""page_index"":1,""viewing_time"":8567},{""page_index"":2,""viewing_time"":7851.4000000059605},{""page_index"":3,""viewing_time"":8766},{""page_index"":4,""viewing_time"":7583.199999988079},{""page_index"":5,""viewing_time"":7241.0999999940395},{""page_index"":6,""viewing_time"":4075.5},{""page_index"":7,""viewing_time"":7652.100000023842},{""page_index"":8,""viewing_time"":6546.399999976158},{""page_index"":9,""viewing_time"":5442.5},{""page_index"":10,""viewing_time"":6333.600000023842},{""page_index"":11,""viewing_time"":4813},{""page_index"":12,""viewing_time"":6331.799999982119},{""page_index"":13,""viewing_time"":6720.0999999940395},{""page_index"":14,""viewing_time"":6390.4000000059605},{""page_index"":15,""viewing_time"":6448.200000017881},{""page_index"":16,""viewing_time"":7778.699999988079},{""page_index"":17,""viewing_time"":8071.699999988079}]","123123.40000000596","","","","","","","","","","","","","","","","","","","","","","","",""
"pit-trial","20","309065","0.0-2.0-8.0-0.0","battery-v0.2","","""event"",""trial"",""time""
""fullscreenenter"",""1"",""1707""
","
","
","""event"",""trial"",""time""
""fullscreenenter"",""1"",""1707""
","
","","","654.5","","","18","11660","5372","&#9776;","elianto","#3366ff99"," "," ","1","+10","[1505.9000000059605]","1","0","1","","","","","","","",""
"pit-trial","21","312480","0.0-2.0-8.0-1.0","battery-v0.2","","""event"",""trial"",""time""
""fullscreenenter"",""1"",""1707""
","
","
","""event"",""trial"",""time""
""fullscreenenter"",""1"",""1707""
","
","","","557.5","","","18","11660","5372","&#9776;","elianto","#3366ff99"," "," ","1","+10","[1410.6000000238419]","1","0","1","","","","","","","",""
"pit-trial","22","315867","0.0-2.0-8.0-2.0","battery-v0.2","","""event"",""trial"",""time""
""fullscreenenter"",""1"",""1707""
","
","
","""event"",""trial"",""time""
""fullscreenenter"",""1"",""1707""
","
","","","528.3000000119209","","","18","11660","5372","&#9776;","elianto","#3366ff99"," "," ","1","+10","[1380.5]","1","0","1","","","","","","","",""
"pit-trial","23","319191","0.0-2.0-8.0-3.0","battery-v0.2","","""event"",""trial"",""time""
""fullscreenenter"",""1"",""1707""
","
","
","""event"",""trial"",""time""
""fullscreenenter"",""1"",""1707""
","
","","","462.10000002384186","","","18","11660","5372","&#9776;","elianto","#3366ff99"," "," ","1","0","[1314.699999988079]","1","0","1","","","","","","","",""
"pit-trial","24","322545","0.0-2.0-8.0-4.0","battery-v0.2","","""event"",""trial"",""time""
""fullscreenenter"",""1"",""1707""
","
","
","""event"",""trial"",""time""
""fullscreenenter"",""1"",""1707""
","
","","","493.90000000596046","","","18","11660","5372","&#9776;","elianto","#3366ff99"," "," ","1","+10","[1344.300000011921]","1","0","1","","","","","","","",""
"pit-trial","25","326123","0.0-2.0-8.1-0.1","battery-v0.2","","""event"",""trial"",""time""
""fullscreenenter"",""1"",""1707""
","
","
","""event"",""trial"",""time""
""fullscreenenter"",""1"",""1707""
","
","","","720.0999999940395","","","18","11660","5372","&#9776;","elianto","#3366ff99"," "," ","1","+10","[1571.5]","1","0","1","","","","","","","",""
"pit-trial","26","329639","0.0-2.0-8.1-1.1","battery-v0.2","","""event"",""trial"",""time""
""fullscreenenter"",""1"",""1707""
","
","
","""event"",""trial"",""time""
""fullscreenenter"",""1"",""1707""
","
","","","655","","","18","11660","5372","&#9776;","elianto","#3366ff99"," "," ","1","+10","[1506.3999999761581]","1","0","1","","","","","","","",""
"pit-trial","27","333173","0.0-2.0-8.1-2.1","battery-v0.2","","""event"",""trial"",""time""
""fullscreenenter"",""1"",""1707""
","
","
","""event"",""trial"",""time""
""fullscreenenter"",""1"",""1707""
","
","","","676.1999999880791","","","18","11660","5372","&#9776;","elianto","#3366ff99"," "," ","1","+10","[1526.4000000059605]","1","0","1","","","","","","","",""
"pit-trial","28","336668","0.0-2.0-8.1-3.1","battery-v0.2","","""event"",""trial"",""time""
""fullscreenenter"",""1"",""1707""
","
","
","""event"",""trial"",""time""
""fullscreenenter"",""1"",""1707""
","
","","","637.9000000059605","","","18","11660","5372","&#9776;","elianto","#3366ff99"," "," ","1","0","[1488.7999999821186]","1","0","1","","","","","","","",""
"pit-trial","29","340098","0.0-2.0-8.1-4.1","battery-v0.2","","""event"",""trial"",""time""
""fullscreenenter"",""1"",""1707""
","
","
","""event"",""trial"",""time""
""fullscreenenter"",""1"",""1707""
","
","","","569.7000000178814","","","18","11660","5372","&#9776;","elianto","#3366ff99"," "," ","1","+10","[1421.5]","1","0","1","","","","","","","",""
"pit-trial","30","343778","0.0-2.0-8.2-0.2","battery-v0.2","","""event"",""trial"",""time""
""fullscreenenter"",""1"",""1707""
","
","
","""event"",""trial"",""time""
""fullscreenenter"",""1"",""1707""
","
","","","819.5999999940395","","","18","11660","5372","&#9776;","elianto","#3366ff99"," "," ","1","+10","[1672.2000000178814]","1","0","1","","","","","","","",""
"pit-trial","31","347337","0.0-2.0-8.2-1.2","battery-v0.2","","""event"",""trial"",""time""
""fullscreenenter"",""1"",""1707""
","
","
","""event"",""trial"",""time""
""fullscreenenter"",""1"",""1707""
","
","","","698.7999999821186","","","18","11660","5372","&#9776;","elianto","#3366ff99"," "," ","1","+10","[1549.5999999940395]","1","0","1","","","","","","","",""
"pit-trial","32","350848","0.0-2.0-8.2-2.2","battery-v0.2","","""event"",""trial"",""time""
""fullscreenenter"",""1"",""1707""
","
","
","""event"",""trial"",""time""
""fullscreenenter"",""1"",""1707""
","
","","","650.4000000059605","","","18","11660","5372","&#9776;","elianto","#3366ff99"," "," ","1","+10","[1501.5999999940395]","1","0","1","","","","","","","",""
"pit-trial","33","354363","0.0-2.0-8.2-3.2","battery-v0.2","","""event"",""trial"",""time""
""fullscreenenter"",""1"",""1707""
","
","
","""event"",""trial"",""time""
""fullscreenenter"",""1"",""1707""
","
","","","657.7000000178814","","","18","11660","5372","&#9776;","elianto","#3366ff99"," "," ","1","0","[1510.3999999761581]","1","0","1","","","","","","","",""
"pit-trial","34","358010","0.0-2.0-8.2-4.2","battery-v0.2","","""event"",""trial"",""time""
""fullscreenenter"",""1"",""1707""
","
","
","""event"",""trial"",""time""
""fullscreenenter"",""1"",""1707""
","
","","","786.9000000059605","","","18","11660","5372","&#9776;","elianto","#3366ff99"," "," ","1","+10","[1638.9000000059605]","1","0","1","","","","","","","",""
"call-function","35","358013","0.0-2.0-9.0","battery-v0.2","","""event"",""trial"",""time""
""fullscreenenter"",""1"",""1707""
","
","
","""event"",""trial"",""time""
""fullscreenenter"",""1"",""1707""
","
","","","","","","","","","","","","","","","","","","","","","","","","","","",""
"pit-instructions","36","400877","0.0-2.0-10.0","battery-v0.2","","""event"",""trial"",""time""
""fullscreenenter"",""1"",""1707""
","
","
","""event"",""trial"",""time""
""fullscreenenter"",""1"",""1707""
","
","","[{""page_index"":0,""viewing_time"":7913},{""page_index"":1,""viewing_time"":7783.9000000059605},{""page_index"":2,""viewing_time"":10810},{""page_index"":3,""viewing_time"":8679.59999999404},{""page_index"":4,""viewing_time"":7677.600000023842}]","42864.70000001788","","","","","","","","","","","","","","","","","","","","","","","",""
"pit-trial","37","404204","0.0-2.0-11.0-0.0","battery-v0.2","","""event"",""trial"",""time""
""fullscreenenter"",""1"",""1707""
","
","
","""event"",""trial"",""time""
""fullscreenenter"",""1"",""1707""
","
","","","466.7000000178814","","","18","11660","5372","&#9761;","elianto","#3366ff99","-1"," ","0","0","[1318.2000000178814]","1","0","2","","","","","","","",""
"pit-trial","38","407366","0.0-2.0-11.0-1.0","battery-v0.2","","""event"",""trial"",""time""
""fullscreenenter"",""1"",""1707""
","
","
","""event"",""trial"",""time""
""fullscreenenter"",""1"",""1707""
","
","","","302.60000002384186","","","18","11660","5372","&#9761;","elianto","#3366ff99","-1"," ","0","0","[1153.5]","1","0","2","","","","","","","",""
"pit-trial","39","412228","0.0-2.0-11.0-2.0","battery-v0.2","","""event"",""trial"",""time""
""fullscreenenter"",""1"",""1707""
","
","
","""event"",""trial"",""time""
""fullscreenenter"",""1"",""1707""
","
","","","-1","","","18","11660","5372","&#9761;","elianto","#3366ff99","-1","-1","1","+10","[]","0","0","2","","","","","","","",""
"pit-trial","40","416084","0.0-2.0-11.0-3.0","battery-v0.2","","""event"",""trial"",""time""
""fullscreenenter"",""1"",""1707""
","
","
","""event"",""trial"",""time""
""fullscreenenter"",""1"",""1707""
","
","","","993.5","","","18","11660","5372","&#9761;","elianto","#3366ff99","-1"," ","0","+10","[1846.0999999940395]","1","0","2","","","","","","","",""
"pit-trial","41","419866","0.0-2.0-11.0-4.0","battery-v0.2","","""event"",""trial"",""time""
""fullscreenenter"",""1"",""1707""
","
","
","""event"",""trial"",""time""
""fullscreenenter"",""1"",""1707""
","
","","","921","","","18","11660","5372","&#9761;","elianto","#3366ff99","-1"," ","0","0","[1771.4000000059605]","1","0","2","","","","","","","",""
"pit-trial","42","424731","0.0-2.0-11.1-0.1","battery-v0.2","","""event"",""trial"",""time""
""fullscreenenter"",""1"",""1707""
","
","
","""event"",""trial"",""time""
""fullscreenenter"",""1"",""1707""
","
","","","-1","","","18","11660","5372","&#9761;","elianto","#3366ff99","-1","-1","1","+10","[]","0","0","2","","","","","","","",""
"pit-trial","43","428258","0.0-2.0-11.1-1.1","battery-v0.2","","""event"",""trial"",""time""
""fullscreenenter"",""1"",""1707""
","
","
","""event"",""trial"",""time""
""fullscreenenter"",""1"",""1707""
","
","","","663.5","","","18","11660","5372","&#9761;","elianto","#3366ff99","-1"," ","0","0","[1516.800000011921]","1","0","2","","","","","","","",""
"pit-trial","44","431561","0.0-2.0-11.1-2.1","battery-v0.2","","""event"",""trial"",""time""
""fullscreenenter"",""1"",""1707""
","
","
","""event"",""trial"",""time""
""fullscreenenter"",""1"",""1707""
","
","","","443.90000000596046","","","18","11660","5372","&#9761;","elianto","#3366ff99","-1"," ","0","0","[1294.300000011921]","1","0","2","","","","","","","",""
"pit-trial","45","436031","0.0-2.0-11.1-3.1","battery-v0.2","","""event"",""trial"",""time""
""fullscreenenter"",""1"",""1707""
","
","
","""event"",""trial"",""time""
""fullscreenenter"",""1"",""1707""
","
","","","1613.5","","","18","11660","5372","&#9761;","elianto","#3366ff99","-1"," ","0","+10","[2463.800000011921]","1","0","2","","","","","","","",""
"pit-trial","46","440897","0.0-2.0-11.1-4.1","battery-v0.2","","""event"",""trial"",""time""
""fullscreenenter"",""1"",""1707""
","
","
","""event"",""trial"",""time""
""fullscreenenter"",""1"",""1707""
","
","","","-1","","","18","11660","5372","&#9761;","elianto","#3366ff99","-1","-1","1","+10","[3459.100000023842]","1","0","2","","","","","","","",""
"pit-trial","47","444688","0.0-2.0-11.2-0.2","battery-v0.2","","""event"",""trial"",""time""
""fullscreenenter"",""1"",""1707""
","
","
","""event"",""trial"",""time""
""fullscreenenter"",""1"",""1707""
","
","","","928.5999999940395","","","18","11660","5372","&#9761;","elianto","#3366ff99","-1"," ","0","0","[1781.5]","1","0","2","","","","","","","",""
"pit-trial","48","447780","0.0-2.0-11.2-1.2","battery-v0.2","","""event"",""trial"",""time""
""fullscreenenter"",""1"",""1707""
","
","
","""event"",""trial"",""time""
""fullscreenenter"",""1"",""1707""
","
","","","235.5","","","18","11660","5372","&#9761;","elianto","#3366ff99","-1"," ","0","0","[1086.5999999940395]","1","0","2","","","","","","","",""
"pit-trial","49","450874","0.0-2.0-11.2-2.2","battery-v0.2","","""event"",""trial"",""time""
""fullscreenenter"",""1"",""1707""
","
","
","""event"",""trial"",""time""
""fullscreenenter"",""1"",""1707""
","
","","","231.90000000596046","","","18","11660","5372","&#9761;","elianto","#3366ff99","-1"," ","0","0","[1084.2000000178814]","1","0","2","","","","","","","",""
"pit-trial","50","454924","0.0-2.0-11.2-3.2","battery-v0.2","","""event"",""trial"",""time""
""fullscreenenter"",""1"",""1707""
","
","
","""event"",""trial"",""time""
""fullscreenenter"",""1"",""1707""
","
","","","1194.7000000178814","","","18","11660","5372","&#9761;","elianto","#3366ff99","-1"," ","0","+10","[2045.6000000238419]","1","0","2","","","","","","","",""
"pit-trial","51","459783","0.0-2.0-11.2-4.2","battery-v0.2","","""event"",""trial"",""time""
""fullscreenenter"",""1"",""1707""
","
","
","""event"",""trial"",""time""
""fullscreenenter"",""1"",""1707""
","
","","","-1","","","18","11660","5372","&#9761;","elianto","#3366ff99","-1","-1","1","+10","[]","0","0","2","","","","","","","",""
"pit-trial","52","464644","0.0-2.0-11.3-0.3","battery-v0.2","","""event"",""trial"",""time""
""fullscreenenter"",""1"",""1707""
","
","
","""event"",""trial"",""time""
""fullscreenenter"",""1"",""1707""
","
","","","-1","","","18","11660","5372","&#9761;","elianto","#3366ff99","-1","-1","1","+10","[]","0","0","2","","","","","","","",""
"pit-trial","53","468900","0.0-2.0-11.3-1.3","battery-v0.2","","""event"",""trial"",""time""
""fullscreenenter"",""1"",""1707""
","
","
","""event"",""trial"",""time""
""fullscreenenter"",""1"",""1707""
","
","","","1394.800000011921","","","18","11660","5372","&#9761;","elianto","#3366ff99","-1"," ","0","0","[2246.0999999940395]","1","0","2","","","","","","","",""
"pit-trial","54","473766","0.0-2.0-11.3-2.3","battery-v0.2","","""event"",""trial"",""time""
""fullscreenenter"",""1"",""1707""
","
","
","""event"",""trial"",""time""
""fullscreenenter"",""1"",""1707""
","
","","","-1","","","18","11660","5372","&#9761;","elianto","#3366ff99","-1","-1","1","+10","[]","0","0","2","","","","","","","",""
"pit-trial","55","477201","0.0-2.0-11.3-3.3","battery-v0.2","","""event"",""trial"",""time""
""fullscreenenter"",""1"",""1707""
","
","
","""event"",""trial"",""time""
""fullscreenenter"",""1"",""1707""
","
","","","573.5","","","18","11660","5372","&#9761;","elianto","#3366ff99","-1"," ","0","+10","[1426.5]","1","0","2","","","","","","","",""
"pit-trial","56","480614","0.0-2.0-11.3-4.3","battery-v0.2","","""event"",""trial"",""time""
""fullscreenenter"",""1"",""1707""
","
","
","""event"",""trial"",""time""
""fullscreenenter"",""1"",""1707""
","
","","","552.5999999940395","","","18","11660","5372","&#9761;","elianto","#3366ff99","-1"," ","0","0","[1404.2000000178814]","1","0","2","","","","","","","",""
"call-function","57","480616","0.0-2.0-12.0","battery-v0.2","","""event"",""trial"",""time""
""fullscreenenter"",""1"",""1707""
","
","
","""event"",""trial"",""time""
""fullscreenenter"",""1"",""1707""
","
","","","","","","","","","","","","","","","","","","","","","","","","","","",""
"pit-instructions","58","516294","0.0-2.0-13.0","battery-v0.2","","""event"",""trial"",""time""
""fullscreenenter"",""1"",""1707""
","
","
","""event"",""trial"",""time""
""fullscreenenter"",""1"",""1707""
","
","","[{""page_index"":0,""viewing_time"":4794.4000000059605},{""page_index"":1,""viewing_time"":8231.5},{""page_index"":2,""viewing_time"":5435.5},{""page_index"":3,""viewing_time"":10281.90000000596},{""page_index"":4,""viewing_time"":6933.800000011921}]","35677.90000000596","","","","","","","","","","","","","","","","","","","","","","","",""
"pit-trial","59","521154","0.0-2.0-14.0-0.0","battery-v0.2","","""event"",""trial"",""time""
""fullscreenenter"",""1"",""1707""
","
","
","""event"",""trial"",""time""
""fullscreenenter"",""1"",""1707""
","
","","","-1","","","18","11660","5372","&#9826;","elianto","#f73b6a7A","-1","-1","1","0","[]","0","0","3","","","","","","","",""
"pit-trial","60","526015","0.0-2.0-14.0-1.0","battery-v0.2","","""event"",""trial"",""time""
""fullscreenenter"",""1"",""1707""
","
","
","""event"",""trial"",""time""
""fullscreenenter"",""1"",""1707""
","
","","","-1","","","18","11660","5372","&#9826;","elianto","#f73b6a7A","-1","-1","1","0","[]","0","0","3","","","","","","","",""
"pit-trial","61","530874","0.0-2.0-14.0-2.0","battery-v0.2","","""event"",""trial"",""time""
""fullscreenenter"",""1"",""1707""
","
","
","""event"",""trial"",""time""
""fullscreenenter"",""1"",""1707""
","
","","","-1","","","18","11660","5372","&#9826;","elianto","#f73b6a7A","-1","-1","1","0","[]","0","0","3","","","","","","","",""
"pit-trial","62","534441","0.0-2.0-14.0-3.0","battery-v0.2","","""event"",""trial"",""time""
""fullscreenenter"",""1"",""1707""
","
","
","""event"",""trial"",""time""
""fullscreenenter"",""1"",""1707""
","
","","","707.6999999880791","","","18","11660","5372","&#9826;","elianto","#f73b6a7A","-1"," ","0","0","[1562.4000000059605]","1","0","3","","","","","","","",""
"pit-trial","63","539300","0.0-2.0-14.0-4.0","battery-v0.2","","""event"",""trial"",""time""
""fullscreenenter"",""1"",""1707""
","
","
","""event"",""trial"",""time""
""fullscreenenter"",""1"",""1707""
","
","","","-1","","","18","11660","5372","&#9826;","elianto","#f73b6a7A","-1","-1","1","0","[]","0","0","3","","","","","","","",""
"pit-trial","64","543366","0.0-2.0-14.1-0.1","battery-v0.2","","""event"",""trial"",""time""
""fullscreenenter"",""1"",""1707""
","
","
","""event"",""trial"",""time""
""fullscreenenter"",""1"",""1707""
","
","","","1209.300000011921","","","18","11660","5372","&#9826;","elianto","#f73b6a7A","-1"," ","0","-10","[2059.899999976158]","1","0","3","","","","","","","",""
"pit-trial","65","548225","0.0-2.0-14.1-1.1","battery-v0.2","","""event"",""trial"",""time""
""fullscreenenter"",""1"",""1707""
","
","
","""event"",""trial"",""time""
""fullscreenenter"",""1"",""1707""
","
","","","-1","","","18","11660","5372","&#9826;","elianto","#f73b6a7A","-1","-1","1","0","[]","0","0","3","","","","","","","",""
"pit-trial","66","553086","0.0-2.0-14.1-2.1","battery-v0.2","","""event"",""trial"",""time""
""fullscreenenter"",""1"",""1707""
","
","
","""event"",""trial"",""time""
""fullscreenenter"",""1"",""1707""
","
","","","-1","","","18","11660","5372","&#9826;","elianto","#f73b6a7A","-1","-1","1","0","[]","0","0","3","","","","","","","",""
"pit-trial","67","557948","0.0-2.0-14.1-3.1","battery-v0.2","","""event"",""trial"",""time""
""fullscreenenter"",""1"",""1707""
","
","
","""event"",""trial"",""time""
""fullscreenenter"",""1"",""1707""
","
","","","-1","","","18","11660","5372","&#9826;","elianto","#f73b6a7A","-1","-1","1","-10","[]","0","0","3","","","","","","","",""
"pit-trial","68","562609","0.0-2.0-14.1-4.1","battery-v0.2","","""event"",""trial"",""time""
""fullscreenenter"",""1"",""1707""
","
","
","""event"",""trial"",""time""
""fullscreenenter"",""1"",""1707""
","
","","","1805.0999999940395","","","18","11660","5372","&#9826;","elianto","#f73b6a7A","-1"," ","0","-10","[2658.199999988079]","1","0","3","","","","","","","",""
"pit-trial","69","567465","0.0-2.0-14.2-0.2","battery-v0.2","","""event"",""trial"",""time""
""fullscreenenter"",""1"",""1707""
","
","
","""event"",""trial"",""time""
""fullscreenenter"",""1"",""1707""
","
","","","-1","","","18","11660","5372","&#9826;","elianto","#f73b6a7A","-1","-1","1","0","[]","0","0","3","","","","","","","",""
"pit-trial","70","571726","0.0-2.0-14.2-1.2","battery-v0.2","","""event"",""trial"",""time""
""fullscreenenter"",""1"",""1707""
","
","
","""event"",""trial"",""time""
""fullscreenenter"",""1"",""1707""
","
","","","1398.7999999821186","","","18","11660","5372","&#9826;","elianto","#f73b6a7A","-1"," ","0","-10","[2251.5999999940395]","1","0","3","","","","","","","",""
"pit-trial","71","576592","0.0-2.0-14.2-2.2","battery-v0.2","","""event"",""trial"",""time""
""fullscreenenter"",""1"",""1707""
","
","
","""event"",""trial"",""time""
""fullscreenenter"",""1"",""1707""
","
","","","-1","","","18","11660","5372","&#9826;","elianto","#f73b6a7A","-1","-1","1","0","[]","0","0","3","","","","","","","",""
"pit-trial","72","581456","0.0-2.0-14.2-3.2","battery-v0.2","","""event"",""trial"",""time""
""fullscreenenter"",""1"",""1707""
","
","
","""event"",""trial"",""time""
""fullscreenenter"",""1"",""1707""
","
","","","-1","","","18","11660","5372","&#9826;","elianto","#f73b6a7A","-1","-1","1","-10","[4182.5999999940395]","1","0","3","","","","","","","",""
"pit-trial","73","586320","0.0-2.0-14.2-4.2","battery-v0.2","","""event"",""trial"",""time""
""fullscreenenter"",""1"",""1707""
","
","
","""event"",""trial"",""time""
""fullscreenenter"",""1"",""1707""
","
","","","-1","","","18","11660","5372","&#9826;","elianto","#f73b6a7A","-1","-1","1","0","[]","0","0","3","","","","","","","",""
"pit-trial","74","591182","0.0-2.0-14.3-0.3","battery-v0.2","","""event"",""trial"",""time""
""fullscreenenter"",""1"",""1707""
","
","
","""event"",""trial"",""time""
""fullscreenenter"",""1"",""1707""
","
","","","-1","","","18","11660","5372","&#9826;","elianto","#f73b6a7A","-1","-1","1","0","[]","0","0","3","","","","","","","",""
"pit-trial","75","596047","0.0-2.0-14.3-1.3","battery-v0.2","","""event"",""trial"",""time""
""fullscreenenter"",""1"",""1707""
","
","
","""event"",""trial"",""time""
""fullscreenenter"",""1"",""1707""
","
","","","-1","","","18","11660","5372","&#9826;","elianto","#f73b6a7A","-1","-1","1","0","[]","0","0","3","","","","","","","",""
"pit-trial","76","600909","0.0-2.0-14.3-2.3","battery-v0.2","","""event"",""trial"",""time""
""fullscreenenter"",""1"",""1707""
","
","
","""event"",""trial"",""time""
""fullscreenenter"",""1"",""1707""
","
","","","-1","","","18","11660","5372","&#9826;","elianto","#f73b6a7A","-1","-1","1","0","[]","0","0","3","","","","","","","",""
"pit-trial","77","605772","0.0-2.0-14.3-3.3","battery-v0.2","","""event"",""trial"",""time""
""fullscreenenter"",""1"",""1707""
","
","
","""event"",""trial"",""time""
""fullscreenenter"",""1"",""1707""
","
","","","-1","","","18","11660","5372","&#9826;","elianto","#f73b6a7A","-1","-1","1","-10","[]","0","0","3","","","","","","","",""
"pit-trial","78","609243","0.0-2.0-14.3-4.3","battery-v0.2","","""event"",""trial"",""time""
""fullscreenenter"",""1"",""1707""
","
","
","""event"",""trial"",""time""
""fullscreenenter"",""1"",""1707""
","
","","","611.5","","","18","11660","5372","&#9826;","elianto","#f73b6a7A","-1"," ","0","-10","[1462.0999999940395]","1","0","3","","","","","","","",""
"call-function","79","609245","0.0-2.0-15.0","battery-v0.2","","""event"",""trial"",""time""
""fullscreenenter"",""1"",""1707""
","
","
","""event"",""trial"",""time""
""fullscreenenter"",""1"",""1707""
","
","","","","","","","","","","","","","","","","","","","","","","","","","","",""
"pit-instructions","80","638326","0.0-2.0-16.0","battery-v0.2","","""event"",""trial"",""time""
""fullscreenenter"",""1"",""1707""
","
","
","""event"",""trial"",""time""
""fullscreenenter"",""1"",""1707""
","
","","[{""page_index"":0,""viewing_time"":8240.5},{""page_index"":1,""viewing_time"":10424.199999988079},{""page_index"":2,""viewing_time"":5299.300000011921},{""page_index"":3,""viewing_time"":5116.5}]","29081.29999998212","","","","","","","","","","","","","","","","","","","","","","","",""
"pit-trial","81","641971","0.0-2.0-17.0-0.0","battery-v0.2","","""event"",""trial"",""time""
""fullscreenenter"",""1"",""1707""
","
","
","""event"",""trial"",""time""
""fullscreenenter"",""1"",""1707""
","
","","","784.8000000119209","","","18","11660","5372","&#9789;","elianto","#f73b6a7A"," "," ","1","0","[1636.300000011921]","1","0","4","","","","","","","",""
"pit-trial","82","646832","0.0-2.0-17.0-1.0","battery-v0.2","","""event"",""trial"",""time""
""fullscreenenter"",""1"",""1707""
","
","
","""event"",""trial"",""time""
""fullscreenenter"",""1"",""1707""
","
","","","-1","","","18","11660","5372","&#9789;","elianto","#f73b6a7A"," ","-1","0","-10","[]","0","0","4","","","","","","","",""
"pit-trial","83","650117","0.0-2.0-17.0-2.0","battery-v0.2","","""event"",""trial"",""time""
""fullscreenenter"",""1"",""1707""
","
","
","""event"",""trial"",""time""
""fullscreenenter"",""1"",""1707""
","
","","","426.7999999821186","","","18","11660","5372","&#9789;","elianto","#f73b6a7A"," "," ","1","0","[1279.9000000059605]","1","0","4","","","","","","","",""
"pit-trial","84","653202","0.0-2.0-17.0-3.0","battery-v0.2","","""event"",""trial"",""time""
""fullscreenenter"",""1"",""1707""
","
","
","""event"",""trial"",""time""
""fullscreenenter"",""1"",""1707""
","
","","","225","","","18","11660","5372","&#9789;","elianto","#f73b6a7A"," "," ","1","-10","[1077.5999999940395]","1","0","4","","","","","","","",""
"pit-trial","85","656899","0.0-2.0-17.0-4.0","battery-v0.2","","""event"",""trial"",""time""
""fullscreenenter"",""1"",""1707""
","
","
","""event"",""trial"",""time""
""fullscreenenter"",""1"",""1707""
","
","","","837","","","18","11660","5372","&#9789;","elianto","#f73b6a7A"," "," ","1","0","[1691]","1","0","4","","","","","","","",""
"pit-trial","86","660523","0.0-2.0-17.1-0.1","battery-v0.2","","""event"",""trial"",""time""
""fullscreenenter"",""1"",""1707""
","
","
","""event"",""trial"",""time""
""fullscreenenter"",""1"",""1707""
","
","","","761.6000000238419","","","18","11660","5372","&#9789;","elianto","#f73b6a7A"," "," ","1","0","[1614.2999999821186]","1","0","4","","","","","","","",""
"pit-trial","87","663548","0.0-2.0-17.1-1.1","battery-v0.2","","""event"",""trial"",""time""
""fullscreenenter"",""1"",""1707""
","
","
","""event"",""trial"",""time""
""fullscreenenter"",""1"",""1707""
","
","","","169.60000002384186","","","18","11660","5372","&#9789;","elianto","#f73b6a7A"," "," ","1","0","[1020.6000000238419]","1","0","4","","","","","","","",""
"pit-trial","88","666486","0.0-2.0-17.1-2.1","battery-v0.2","","""event"",""trial"",""time""
""fullscreenenter"",""1"",""1707""
","
","
","""event"",""trial"",""time""
""fullscreenenter"",""1"",""1707""
","
","","","76.09999999403954","","","18","11660","5372","&#9789;","elianto","#f73b6a7A"," "," ","1","0","[927.8999999761581]","1","0","4","","","","","","","",""
"pit-trial","89","669454","0.0-2.0-17.1-3.1","battery-v0.2","","""event"",""trial"",""time""
""fullscreenenter"",""1"",""1707""
","
","
","""event"",""trial"",""time""
""fullscreenenter"",""1"",""1707""
","
","","","108.30000001192093","","","18","11660","5372","&#9789;","elianto","#f73b6a7A"," "," ","1","-10","[959.5]","1","0","4","","","","","","","",""
"pit-trial","90","672629","0.0-2.0-17.1-4.1","battery-v0.2","","""event"",""trial"",""time""
""fullscreenenter"",""1"",""1707""
","
","
","""event"",""trial"",""time""
""fullscreenenter"",""1"",""1707""
","
","","","314.5","","","18","11660","5372","&#9789;","elianto","#f73b6a7A"," "," ","1","0","[1165]","1","0","4","","","","","","","",""
"pit-trial","91","675600","0.0-2.0-17.2-0.2","battery-v0.2","","""event"",""trial"",""time""
""fullscreenenter"",""1"",""1707""
","
","
","""event"",""trial"",""time""
""fullscreenenter"",""1"",""1707""
","
","","","107.80000001192093","","","18","11660","5372","&#9789;","elianto","#f73b6a7A"," "," ","1","0","[961.3000000119209]","1","0","4","","","","","","","",""
"pit-trial","92","678484","0.0-2.0-17.2-1.2","battery-v0.2","","""event"",""trial"",""time""
""fullscreenenter"",""1"",""1707""
","
","
","""event"",""trial"",""time""
""fullscreenenter"",""1"",""1707""
","
","","","23.099999994039536","","","18","11660","5372","&#9789;","elianto","#f73b6a7A"," "," ","1","0","[874.8000000119209]","1","0","4","","","","","","","",""
"pit-trial","93","682842","0.0-2.0-17.2-2.2","battery-v0.2","","""event"",""trial"",""time""
""fullscreenenter"",""1"",""1707""
","
","
","""event"",""trial"",""time""
""fullscreenenter"",""1"",""1707""
","
","","","1497.300000011921","","","18","11660","5372","&#9789;","elianto","#f73b6a7A"," "," ","1","0","[2348.0999999940395]","1","0","4","","","","","","","",""
"pit-trial","94","686217","0.0-2.0-17.2-3.2","battery-v0.2","","""event"",""trial"",""time""
""fullscreenenter"",""1"",""1707""
","
","
","""event"",""trial"",""time""
""fullscreenenter"",""1"",""1707""
","
","","","516.5","","","18","11660","5372","&#9789;","elianto","#f73b6a7A"," "," ","1","-10","[1368.800000011921]","1","0","4","","","","","","","",""
"pit-trial","95","690200","0.0-2.0-17.2-4.2","battery-v0.2","","""event"",""trial"",""time""
""fullscreenenter"",""1"",""1707""
","
","
","""event"",""trial"",""time""
""fullscreenenter"",""1"",""1707""
","
","","","1122.4000000059605","","","18","11660","5372","&#9789;","elianto","#f73b6a7A"," "," ","1","0","[1972.5999999940395]","1","0","4","","","","","","","",""
"pit-trial","96","693270","0.0-2.0-17.3-0.3","battery-v0.2","","""event"",""trial"",""time""
""fullscreenenter"",""1"",""1707""
","
","
","""event"",""trial"",""time""
""fullscreenenter"",""1"",""1707""
","
","","","209.30000001192093","","","18","11660","5372","&#9789;","elianto","#f73b6a7A"," "," ","1","0","[1060.5999999940395]","1","0","4","","","","","","","",""
"pit-trial","97","696500","0.0-2.0-17.3-1.3","battery-v0.2","","""event"",""trial"",""time""
""fullscreenenter"",""1"",""1707""
","
","
","""event"",""trial"",""time""
""fullscreenenter"",""1"",""1707""
","
","","","368.19999998807907","","","18","11660","5372","&#9789;","elianto","#f73b6a7A"," "," ","1","0","[1219.5999999940395]","1","0","4","","","","","","","",""
"pit-trial","98","699501","0.0-2.0-17.3-2.3","battery-v0.2","","""event"",""trial"",""time""
""fullscreenenter"",""1"",""1707""
","
","
","""event"",""trial"",""time""
""fullscreenenter"",""1"",""1707""
","
","","","139.7999999821186","","","18","11660","5372","&#9789;","elianto","#f73b6a7A"," "," ","1","0","[991.5]","1","0","4","","","","","","","",""
"pit-trial","99","702987","0.0-2.0-17.3-3.3","battery-v0.2","","""event"",""trial"",""time""
""fullscreenenter"",""1"",""1707""
","
","
","""event"",""trial"",""time""
""fullscreenenter"",""1"",""1707""
","
","","","629","","","18","11660","5372","&#9789;","elianto","#f73b6a7A"," "," ","1","-10","[746.5,1479.300000011921]","2","0","4","","","","","","","",""
"pit-trial","100","707046","0.0-2.0-17.3-4.3","battery-v0.2","","""event"",""trial"",""time""
""fullscreenenter"",""1"",""1707""
","
","
","""event"",""trial"",""time""
""fullscreenenter"",""1"",""1707""
","
","","","1200","","","18","11660","5372","&#9789;","elianto","#f73b6a7A"," "," ","1","0","[2050.5]","1","0","4","","","","","","","",""
"call-function","101","707049","0.0-2.0-18.0","battery-v0.2","","""event"",""trial"",""time""
""fullscreenenter"",""1"",""1707""
","
","
","""event"",""trial"",""time""
""fullscreenenter"",""1"",""1707""
","
","","","","","","","","","","","","","","","","","","","","","","","","","","",""
"pit-instructions","102","773692","0.0-2.0-19.0","battery-v0.2","","""event"",""trial"",""time""
""fullscreenenter"",""1"",""1707""
","
","
","""event"",""trial"",""time""
""fullscreenenter"",""1"",""1707""
","
","","[{""page_index"":0,""viewing_time"":6123.799999982119},{""page_index"":1,""viewing_time"":5833.300000011921},{""page_index"":2,""viewing_time"":12451},{""page_index"":3,""viewing_time"":6515.4000000059605},{""page_index"":4,""viewing_time"":8470.09999999404},{""page_index"":5,""viewing_time"":9681.699999988079},{""page_index"":6,""viewing_time"":8534.59999999404},{""page_index"":7,""viewing_time"":5066.100000023842},{""page_index"":8,""viewing_time"":3967.199999988079}]","66644.09999999404","","","","","","","","","","","","","","","","","","","","","","","",""
"pit-comprehension","103","777895","0.0-2.0-20.0-0.0","battery-v0.2","","""event"",""trial"",""time""
""fullscreenenter"",""1"",""1707""
","
","
","""event"",""trial"",""time""
""fullscreenenter"",""1"",""1707""
","
","","","4195.0999999940395","[""SPACE""]","0","18","11660","5372","","","","","","","","","","","","","","","","","","",""
"pit-instructions","104","781307","0.0-2.0-20.0-1.0","battery-v0.2","","""event"",""trial"",""time""
""fullscreenenter"",""1"",""1707""
","
","
","""event"",""trial"",""time""
""fullscreenenter"",""1"",""1707""
","
","","[{""page_index"":0,""viewing_time"":3383.899999976158}]","3384.5","","","","","","","","","","","","","","","","","","","","","","","",""
"pit-comprehension","105","786091","0.0-2.0-21.0-0.0","battery-v0.2","","""event"",""trial"",""time""
""fullscreenenter"",""1"",""1707""
","
","
","""event"",""trial"",""time""
""fullscreenenter"",""1"",""1707""
","
","","","4779.200000017881","[""10""]","0","18","11660","5372","","","","","","","","","","","","","","","","","","",""
"pit-instructions","106","787657","0.0-2.0-21.0-1.0","battery-v0.2","","""event"",""trial"",""time""
""fullscreenenter"",""1"",""1707""
","
","
","""event"",""trial"",""time""
""fullscreenenter"",""1"",""1707""
","
","","[{""page_index"":0,""viewing_time"":1543.800000011921}]","1544.300000011921","","","","","","","","","","","","","","","","","","","","","","","",""
"pit-comprehension","107","793927","0.0-2.0-22.0-0.0","battery-v0.2","","""event"",""trial"",""time""
""fullscreenenter"",""1"",""1707""
","
","
","""event"",""trial"",""time""
""fullscreenenter"",""1"",""1707""
","
","","","6265.4000000059605","[""0""]","0","18","11660","5372","","","","","","","","","","","","","","","","","","",""
"pit-instructions","108","795091","0.0-2.0-22.0-1.0","battery-v0.2","","""event"",""trial"",""time""
""fullscreenenter"",""1"",""1707""
","
","
","""event"",""trial"",""time""
""fullscreenenter"",""1"",""1707""
","
","","[{""page_index"":0,""viewing_time"":1136.5}]","1137.2999999821186","","","","","","","","","","","","","","","","","","","","","","","",""
"pit-comprehension","109","804025","0.0-2.0-23.0-0.0","battery-v0.2","","""event"",""trial"",""time""
""fullscreenenter"",""1"",""1707""
","
","
","""event"",""trial"",""time""
""fullscreenenter"",""1"",""1707""
","
","","","8930.40000000596","[""True""]","0","18","11660","5372","","","","","","","","","","","","","","","","","","",""
"pit-instructions","110","805308","0.0-2.0-23.0-1.0","battery-v0.2","","""event"",""trial"",""time""
""fullscreenenter"",""1"",""1707""
","
","
","""event"",""trial"",""time""
""fullscreenenter"",""1"",""1707""
","
","","[{""page_index"":0,""viewing_time"":1255.7999999821186}]","1256.5999999940395","","","","","","","","","","","","","","","","","","","","","","","",""
"pit-comprehension","111","812775","0.0-2.0-24.0-0.0","battery-v0.2","","""event"",""trial"",""time""
""fullscreenenter"",""1"",""1707""
","
","
","""event"",""trial"",""time""
""fullscreenenter"",""1"",""1707""
","
","","","7462.4000000059605","[""True""]","0","18","11660","5372","","","","","","","","","","","","","","","","","","",""
"pit-instructions","112","813841","0.0-2.0-24.0-1.0","battery-v0.2","","""event"",""trial"",""time""
""fullscreenenter"",""1"",""1707""
","
","
","""event"",""trial"",""time""
""fullscreenenter"",""1"",""1707""
","
","","[{""page_index"":0,""viewing_time"":1038}]","1038.0999999940395","","","","","","","","","","","","","","","","","","","","","","","",""
"pit-comprehension","113","819926","0.0-2.0-25.0-0.0","battery-v0.2","","""event"",""trial"",""time""
""fullscreenenter"",""1"",""1707""
","
","
","""event"",""trial"",""time""
""fullscreenenter"",""1"",""1707""
","
","","","6082.399999976158","[""True""]","0","18","11660","5372","","","","","","","","","","","","","","","","","","",""
"pit-instructions","114","821424","0.0-2.0-25.0-1.0","battery-v0.2","","""event"",""trial"",""time""
""fullscreenenter"",""1"",""1707""
","
","
","""event"",""trial"",""time""
""fullscreenenter"",""1"",""1707""
","
","","[{""page_index"":0,""viewing_time"":1470.7999999821186}]","1471.5","","","","","","","","","","","","","","","","","","","","","","","",""
"pit-comprehension","115","826609","0.0-2.0-26.0-0.0","battery-v0.2","","""event"",""trial"",""time""
""fullscreenenter"",""1"",""1707""
","
","
","""event"",""trial"",""time""
""fullscreenenter"",""1"",""1707""
","
","","","5179.5","[""False""]","0","18","11660","5372","","","","","","","","","","","","","","","","","","",""
"pit-instructions","116","828091","0.0-2.0-26.0-1.0","battery-v0.2","","""event"",""trial"",""time""
""fullscreenenter"",""1"",""1707""
","
","
","""event"",""trial"",""time""
""fullscreenenter"",""1"",""1707""
","
","","[{""page_index"":0,""viewing_time"":1452.9000000059605}]","1453.699999988079","","","","","","","","","","","","","","","","","","","","","","","",""
"pit-instructions","117","844125","0.0-3.0","battery-v0.2","","""event"",""trial"",""time""
""fullscreenenter"",""1"",""1707""
","
","
","""event"",""trial"",""time""
""fullscreenenter"",""1"",""1707""
","
","","[{""page_index"":0,""viewing_time"":3761.800000011921},{""page_index"":1,""viewing_time"":5517.199999988079},{""page_index"":2,""viewing_time"":6750.699999988079}]","16030.5","","","","","","","","","","","","","","","","","","","","","","","",""
"pit-trial","118","847567","0.0-4.0","battery-v0.2","","""event"",""trial"",""time""
""fullscreenenter"",""1"",""1707""
","
","
","""event"",""trial"",""time""
""fullscreenenter"",""1"",""1707""
","
","","","578.4000000059605","","","18","11660","5372","&#9752;","elianto","#f73b6a7A"," "," ","1","0","[1431.300000011921]","1","1","","","11660","1","3","3","lose","go","0"
"pit-trial","119","851252","0.0-5.0","battery-v0.2","","""event"",""trial"",""time""
""fullscreenenter"",""1"",""1707""
","
","
","""event"",""trial"",""time""
""fullscreenenter"",""1"",""1707""
","
","","","823.8999999761581","","","18","11660","5372","&#9728;","elianto","#f73b6a7A","-1"," ","0","-10","[1676]","1","1","","","11660","2","0","4","lose","no-go","0"
"pit-trial","120","854959","0.0-6.0","battery-v0.2","","""event"",""trial"",""time""
""fullscreenenter"",""1"",""1707""
","
","
","""event"",""trial"",""time""
""fullscreenenter"",""1"",""1707""
","
","","","849.5999999940395","","","18","11660","5372","&#9730;","elianto","#3366ff99"," "," ","1","+10","[1701]","1","1","","","11660","3","1","1","win","go","0"
"pit-trial","121","858394","0.0-7.0","battery-v0.2","","""event"",""trial"",""time""
""fullscreenenter"",""1"",""1707""
","
","
","""event"",""trial"",""time""
""fullscreenenter"",""1"",""1707""
","
","","","573.4000000059605","","","18","11660","5372","&#9733;","elianto","#3366ff99","-1"," ","0","+10","[1425.4000000059605]","1","1","","","11660","4","2","2","win","no-go","1"
"pit-trial","122","862645","0.0-8.0","battery-v0.2","","""event"",""trial"",""time""
""fullscreenenter"",""1"",""1707""
","
","
","""event"",""trial"",""time""
""fullscreenenter"",""1"",""1707""
","
","","","1391.4000000059605","","","18","11660","5372","&#9752;","elianto","#f73b6a7A"," "," ","1","0","[2244.199999988079]","1","1","","","11660","5","3","3","lose","go","0"
"pit-trial","123","866278","0.0-9.0","battery-v0.2","","""event"",""trial"",""time""
""fullscreenenter"",""1"",""1707""
","
","
","""event"",""trial"",""time""
""fullscreenenter"",""1"",""1707""
","
","","","774.3000000119209","","","18","11660","5372","&#9730;","elianto","#3366ff99"," "," ","1","+10","[1627.800000011921]","1","1","","","11660","6","1","1","win","go","0"
"pit-trial","124","871143","0.0-10.0","battery-v0.2","","""event"",""trial"",""time""
""fullscreenenter"",""1"",""1707""
","
","
","""event"",""trial"",""time""
""fullscreenenter"",""1"",""1707""
","
","","","-1","","","18","11660","5372","&#9728;","elianto","#f73b6a7A","-1","-1","1","0","[]","0","1","","","11660","7","0","4","lose","no-go","0"
"pit-trial","125","874597","0.0-11.0","battery-v0.2","","""event"",""trial"",""time""
""fullscreenenter"",""1"",""1707""
","
","
","""event"",""trial"",""time""
""fullscreenenter"",""1"",""1707""
","
","","","592.1999999880791","","","18","11660","5372","&#9733;","elianto","#3366ff99","-1"," ","0","0","[1445.5]","1","1","","","11660","8","2","2","win","no-go","0"
"pit-trial","126","879241","0.0-12.0","battery-v0.2","","""event"",""trial"",""time""
""fullscreenenter"",""1"",""1707""
","
","
","""event"",""trial"",""time""
""fullscreenenter"",""1"",""1707""
","
","","","1782.0999999940395","","","18","11660","5372","&#9733;","elianto","#3366ff99","-1"," ","0","0","[2634]","1","1","","","11660","9","2","2","win","no-go","0"
"pit-trial","127","883024","0.0-13.0","battery-v0.2","","""event"",""trial"",""time""
""fullscreenenter"",""1"",""1707""
","
","
","""event"",""trial"",""time""
""fullscreenenter"",""1"",""1707""
","
","","","924.0999999940395","","","18","11660","5372","&#9752;","elianto","#f73b6a7A"," "," ","1","0","[1776.4000000059605]","1","1","","","11660","10","3","3","lose","go","0"
"pit-trial","128","887885","0.0-14.0","battery-v0.2","","""event"",""trial"",""time""
""fullscreenenter"",""1"",""1707""
","
","
","""event"",""trial"",""time""
""fullscreenenter"",""1"",""1707""
","
","","","-1","","","18","11660","5372","&#9728;","elianto","#f73b6a7A","-1","-1","1","0","[]","0","1","","","11660","11","0","4","lose","no-go","0"
"pit-trial","129","891431","0.0-15.0","battery-v0.2","","""event"",""trial"",""time""
""fullscreenenter"",""1"",""1707""
","
","
","""event"",""trial"",""time""
""fullscreenenter"",""1"",""1707""
","
","","","685.9000000059605","","","18","11660","5372","&#9730;","elianto","#3366ff99"," "," ","1","0","[1537.0999999940395]","1","1","","","11660","12","1","1","win","go","1"
"pit-trial","130","895297","0.0-16.0","battery-v0.2","","""event"",""trial"",""time""
""fullscreenenter"",""1"",""1707""
","
","
","""event"",""trial"",""time""
""fullscreenenter"",""1"",""1707""
","
","","","1004.5999999940395","","","18","11660","5372","&#9730;","elianto","#3366ff99"," "," ","1","+10","[1856.9000000059605]","1","1","","","11660","13","1","1","win","go","0"
"pit-trial","131","900162","0.0-17.0","battery-v0.2","","""event"",""trial"",""time""
""fullscreenenter"",""1"",""1707""
","
","
","""event"",""trial"",""time""
""fullscreenenter"",""1"",""1707""
","
","","","-1","","","18","11660","5372","&#9733;","elianto","#3366ff99","-1","-1","1","+10","[]","0","1","","","11660","14","2","2","win","no-go","0"
"pit-trial","132","905026","0.0-18.0","battery-v0.2","","""event"",""trial"",""time""
""fullscreenenter"",""1"",""1707""
","
","
","""event"",""trial"",""time""
""fullscreenenter"",""1"",""1707""
","
","","","-1","","","18","11660","5372","&#9728;","elianto","#f73b6a7A","-1","-1","1","0","[]","0","1","","","11660","15","0","4","lose","no-go","0"
"pit-trial","133","908866","0.0-19.0","battery-v0.2","","""event"",""trial"",""time""
""fullscreenenter"",""1"",""1707""
","
","
","""event"",""trial"",""time""
""fullscreenenter"",""1"",""1707""
","
","","","978.2000000178814","","","18","11660","5372","&#9752;","elianto","#f73b6a7A"," "," ","1","0","[1831.199999988079]","1","1","","","11660","16","3","3","lose","go","0"
"pit-trial","134","912475","0.0-20.0","battery-v0.2","","""event"",""trial"",""time""
""fullscreenenter"",""1"",""1707""
","
","
","""event"",""trial"",""time""
""fullscreenenter"",""1"",""1707""
","
","","","749.6000000238419","","","18","11660","5372","&#9730;","elianto","#3366ff99"," "," ","1","0","[1599.5999999940395]","1","1","","","11660","17","1","1","win","go","1"
"pit-trial","135","915929","0.0-21.0","battery-v0.2","","""event"",""trial"",""time""
""fullscreenenter"",""1"",""1707""
","
","
","""event"",""trial"",""time""
""fullscreenenter"",""1"",""1707""
","
","","","591.0999999940395","","","18","11660","5372","&#9733;","elianto","#3366ff99","-1"," ","0","0","[1444.0999999940395]","1","1","","","11660","18","2","2","win","no-go","0"
"pit-trial","136","920652","0.0-22.0","battery-v0.2","","""event"",""trial"",""time""
""fullscreenenter"",""1"",""1707""
","
","
","""event"",""trial"",""time""
""fullscreenenter"",""1"",""1707""
","
","","","1861.300000011921","","","18","11660","5372","&#9728;","elianto","#f73b6a7A","-1"," ","0","-10","[2714]","1","1","","","11660","19","0","4","lose","no-go","0"
"pit-trial","137","924486","0.0-23.0","battery-v0.2","","""event"",""trial"",""time""
""fullscreenenter"",""1"",""1707""
","
","
","""event"",""trial"",""time""
""fullscreenenter"",""1"",""1707""
","
","","","978","","","18","11660","5372","&#9752;","elianto","#f73b6a7A"," "," ","1","0","[1829.300000011921]","1","1","","","11660","20","3","3","lose","go","0"
"pit-instructions","138","936090","0.0-24.0","battery-v0.2","","""event"",""trial"",""time""
""fullscreenenter"",""1"",""1707""
","
","
","""event"",""trial"",""time""
""fullscreenenter"",""1"",""1707""
","
","","[{""page_index"":0,""viewing_time"":5185.199999988079},{""page_index"":1,""viewing_time"":6417.4000000059605}]","11603.299999982119","","","","","","","","","","","","","","","","","","","","","","","",""
"pit-trial","139","939493","0.0-25.0","battery-v0.2","","""event"",""trial"",""time""
""fullscreenenter"",""1"",""1707""
","
","
","""event"",""trial"",""time""
""fullscreenenter"",""1"",""1707""
","
","","","540.7999999821186","","","18","11660","5372","l","elianto","#3366ff99"," "," ","1","+10","[1391.699999988079]","1","2","","","11660","21","1","1","win","go","0"
"pit-trial","140","943348","0.0-26.0","battery-v0.2","","""event"",""trial"",""time""
""fullscreenenter"",""1"",""1707""
","
","
","""event"",""trial"",""time""
""fullscreenenter"",""1"",""1707""
","
","","","993","","","18","11660","5372","g","elianto","#f73b6a7A"," "," ","1","-10","[1846.0999999940395]","1","2","","","11660","22","3","3","lose","go","1"
"pit-trial","141","947384","0.0-27.0","battery-v0.2","","""event"",""trial"",""time""
""fullscreenenter"",""1"",""1707""
","
","
","""event"",""trial"",""time""
""fullscreenenter"",""1"",""1707""
","
","","","1177.5999999940395","","","18","11660","5372","a","elianto","#f73b6a7A","-1"," ","0","0","[2029.5999999940395]","1","2","","","11660","23","2","4","lose","no-go","1"
"pit-trial","142","951212","0.0-28.0","battery-v0.2","","""event"",""trial"",""time""
""fullscreenenter"",""1"",""1707""
","
","
","""event"",""trial"",""time""
""fullscreenenter"",""1"",""1707""
","
","","","967.5","","","18","11660","5372","u","elianto","#f73b6a7A","-1"," ","0","-10","[1819.4000000059605]","1","2","","","11660","24","0","4","lose","no-go","0"
"pit-trial","143","956076","0.0-29.0","battery-v0.2","","""event"",""trial"",""time""
""fullscreenenter"",""1"",""1707""
","
","
","""event"",""trial"",""time""
""fullscreenenter"",""1"",""1707""
","
","","","-1","","","18","11660","5372","g","elianto","#f73b6a7A"," ","-1","0","0","[]","0","2","","","11660","25","3","3","lose","go","1"
"pit-trial","144","959588","0.0-30.0","battery-v0.2","","""event"",""trial"",""time""
""fullscreenenter"",""1"",""1707""
","
","
","""event"",""trial"",""time""
""fullscreenenter"",""1"",""1707""
","
","","","653.5999999940395","","","18","11660","5372","l","elianto","#3366ff99"," "," ","1","+10","[1505.300000011921]","1","2","","","11660","26","1","1","win","go","0"
"pit-trial","145","964453","0.0-31.0","battery-v0.2","","""event"",""trial"",""time""
""fullscreenenter"",""1"",""1707""
","
","
","""event"",""trial"",""time""
""fullscreenenter"",""1"",""1707""
","
","","","-1","","","18","11660","5372","u","elianto","#f73b6a7A","-1","-1","1","0","[]","0","2","","","11660","27","0","4","lose","no-go","0"
"pit-trial","146","968404","0.0-32.0","battery-v0.2","","""event"",""trial"",""time""
""fullscreenenter"",""1"",""1707""
","
","
","""event"",""trial"",""time""
""fullscreenenter"",""1"",""1707""
","
","","","1091.5999999940395","","","18","11660","5372","a","elianto","#f73b6a7A","-1"," ","0","-10","[1942.5]","1","2","","","11660","28","2","4","lose","no-go","0"
"pit-trial","147","973262","0.0-33.0","battery-v0.2","","""event"",""trial"",""time""
""fullscreenenter"",""1"",""1707""
","
","
","""event"",""trial"",""time""
""fullscreenenter"",""1"",""1707""
","
","","","-1","","","18","11660","5372","a","elianto","#f73b6a7A","-1","-1","1","0","[]","0","2","","","11660","29","2","4","lose","no-go","0"
"pit-trial","148","978123","0.0-34.0","battery-v0.2","","""event"",""trial"",""time""
""fullscreenenter"",""1"",""1707""
","
","
","""event"",""trial"",""time""
""fullscreenenter"",""1"",""1707""
","
","","","-1","","","18","11660","5372","u","elianto","#f73b6a7A","-1","-1","1","0","[]","0","2","","","11660","30","0","4","lose","no-go","0"
"pit-trial","149","982986","0.0-35.0","battery-v0.2","","""event"",""trial"",""time""
""fullscreenenter"",""1"",""1707""
","
","
","""event"",""trial"",""time""
""fullscreenenter"",""1"",""1707""
","
","","","-1","","","18","11660","5372","g","elianto","#f73b6a7A"," ","-1","0","-10","[]","0","2","","","11660","31","3","3","lose","go","0"
"pit-trial","150","986512","0.0-36.0","battery-v0.2","","""event"",""trial"",""time""
""fullscreenenter"",""1"",""1707""
","
","
","""event"",""trial"",""time""
""fullscreenenter"",""1"",""1707""
","
","","","663.6000000238419","","","18","11660","5372","l","elianto","#3366ff99"," "," ","1","+10","[1515.300000011921]","1","2","","","11660","32","1","1","win","go","0"
"pit-trial","151","990327","0.0-37.0","battery-v0.2","","""event"",""trial"",""time""
""fullscreenenter"",""1"",""1707""
","
","
","""event"",""trial"",""time""
""fullscreenenter"",""1"",""1707""
","
","","","955.5999999940395","","","18","11660","5372","g","elianto","#f73b6a7A"," "," ","1","0","[1809.5999999940395]","1","2","","","11660","33","3","3","lose","go","0"
"pit-trial","152","993844","0.0-38.0","battery-v0.2","","""event"",""trial"",""time""
""fullscreenenter"",""1"",""1707""
","
","
","""event"",""trial"",""time""
""fullscreenenter"",""1"",""1707""
","
","","","654","","","18","11660","5372","l","elianto","#3366ff99"," "," ","1","0","[1506.800000011921]","1","2","","","11660","34","1","1","win","go","1"
"pit-trial","153","998708","0.0-39.0","battery-v0.2","","""event"",""trial"",""time""
""fullscreenenter"",""1"",""1707""
","
","
","""event"",""trial"",""time""
""fullscreenenter"",""1"",""1707""
","
","","","-1","","","18","11660","5372","u","elianto","#f73b6a7A","-1","-1","1","0","[]","0","2","","","11660","35","0","4","lose","no-go","0"
"pit-trial","154","1003569","0.0-40.0","battery-v0.2","","""event"",""trial"",""time""
""fullscreenenter"",""1"",""1707""
","
","
","""event"",""trial"",""time""
""fullscreenenter"",""1"",""1707""
","
","","","-1","","","18","11660","5372","a","elianto","#f73b6a7A","-1","-1","1","0","[]","0","2","","","11660","36","2","4","lose","no-go","0"
"pit-trial","155","1008434","0.0-41.0","battery-v0.2","","""event"",""trial"",""time""
""fullscreenenter"",""1"",""1707""
","
","
","""event"",""trial"",""time""
""fullscreenenter"",""1"",""1707""
","
","","","-1","","","18","11660","5372","a","elianto","#f73b6a7A","-1","-1","1","0","[]","0","2","","","11660","37","2","4","lose","no-go","0"
"pit-trial","156","1011927","0.0-42.0","battery-v0.2","","""event"",""trial"",""time""
""fullscreenenter"",""1"",""1707""
","
","
","""event"",""trial"",""time""
""fullscreenenter"",""1"",""1707""
","
","","","633","","","18","11660","5372","l","elianto","#3366ff99"," "," ","1","0","[1484]","1","2","","","11660","38","1","1","win","go","1"
"pit-trial","157","1015576","0.0-43.0","battery-v0.2","","""event"",""trial"",""time""
""fullscreenenter"",""1"",""1707""
","
","
","""event"",""trial"",""time""
""fullscreenenter"",""1"",""1707""
","
","","","786.5999999940395","","","18","11660","5372","g","elianto","#f73b6a7A"," "," ","1","0","[1639.2000000178814]","1","2","","","11660","39","3","3","lose","go","0"
"pit-trial","158","1020442","0.0-44.0","battery-v0.2","","""event"",""trial"",""time""
""fullscreenenter"",""1"",""1707""
","
","
","""event"",""trial"",""time""
""fullscreenenter"",""1"",""1707""
","
","","","-1","","","18","11660","5372","u","elianto","#f73b6a7A","-1","-1","1","0","[]","0","2","","","11660","40","0","4","lose","no-go","0"
"pit-trial","159","1025304","0.0-45.0","battery-v0.2","","""event"",""trial"",""time""
""fullscreenenter"",""1"",""1707""
","
","
","""event"",""trial"",""time""
""fullscreenenter"",""1"",""1707""
","
","","","-1","","","18","11660","5372","a","elianto","#f73b6a7A","-1","-1","1","0","[]","0","2","","","11660","41","2","4","lose","no-go","0"
"pit-trial","160","1028790","0.0-46.0","battery-v0.2","","""event"",""trial"",""time""
""fullscreenenter"",""1"",""1707""
","
","
","""event"",""trial"",""time""
""fullscreenenter"",""1"",""1707""
","
","","","624.5999999940395","","","18","11660","5372","l","elianto","#3366ff99"," "," ","1","+10","[1476]","1","2","","","11660","42","1","1","win","go","0"
"pit-trial","161","1033453","0.0-47.0","battery-v0.2","","""event"",""trial"",""time""
""fullscreenenter"",""1"",""1707""
","
","
","""event"",""trial"",""time""
""fullscreenenter"",""1"",""1707""
","
","","","1800.9000000059605","","","18","11660","5372","u","elianto","#f73b6a7A","-1"," ","0","-10","[2653.7000000178814]","1","2","","","11660","43","0","4","lose","no-go","0"
"pit-trial","162","1037481","0.0-48.0","battery-v0.2","","""event"",""trial"",""time""
""fullscreenenter"",""1"",""1707""
","
","
","""event"",""trial"",""time""
""fullscreenenter"",""1"",""1707""
","
","","","1170.199999988079","","","18","11660","5372","g","elianto","#f73b6a7A"," "," ","1","0","[2021.5]","1","2","","","11660","44","3","3","lose","go","0"
"pit-trial","163","1041799","0.0-49.0","battery-v0.2","","""event"",""trial"",""time""
""fullscreenenter"",""1"",""1707""
","
","
","""event"",""trial"",""time""
""fullscreenenter"",""1"",""1707""
","
","","","1460.0999999940395","","","18","11660","5372","g","elianto","#f73b6a7A"," "," ","1","0","[2310.7000000178814]","1","2","","","11660","45","3","3","lose","go","0"
"pit-trial","164","1046664","0.0-50.0","battery-v0.2","","""event"",""trial"",""time""
""fullscreenenter"",""1"",""1707""
","
","
","""event"",""trial"",""time""
""fullscreenenter"",""1"",""1707""
","
","","","-1","","","18","11660","5372","u","elianto","#f73b6a7A","-1","-1","1","0","[]","0","2","","","11660","46","0","4","lose","no-go","0"
"pit-trial","165","1051528","0.0-51.0","battery-v0.2","","""event"",""trial"",""time""
""fullscreenenter"",""1"",""1707""
","
","
","""event"",""trial"",""time""
""fullscreenenter"",""1"",""1707""
","
","","","-1","","","18","11660","5372","a","elianto","#f73b6a7A","-1","-1","1","0","[]","0","2","","","11660","47","2","4","lose","no-go","0"
"pit-trial","166","1055447","0.0-52.0","battery-v0.2","","""event"",""trial"",""time""
""fullscreenenter"",""1"",""1707""
","
","
","""event"",""trial"",""time""
""fullscreenenter"",""1"",""1707""
","
","","","1057.9000000059605","","","18","11660","5372","p","elianto","#3366ff99","-1"," ","0","0","[1909.5]","1","2","","","11660","48","4","2","win","no-go","0"
"pit-trial","167","1060305","0.0-53.0","battery-v0.2","","""event"",""trial"",""time""
""fullscreenenter"",""1"",""1707""
","
","
","""event"",""trial"",""time""
""fullscreenenter"",""1"",""1707""
","
","","","-1","","","18","11660","5372","u","elianto","#f73b6a7A","-1","-1","1","0","[]","0","2","","","11660","49","0","4","lose","no-go","0"
"pit-trial","168","1064135","0.0-54.0","battery-v0.2","","""event"",""trial"",""time""
""fullscreenenter"",""1"",""1707""
","
","
","""event"",""trial"",""time""
""fullscreenenter"",""1"",""1707""
","
","","","972.9000000059605","","","18","11660","5372","g","elianto","#f73b6a7A"," "," ","1","0","[1824.300000011921]","1","2","","","11660","50","3","3","lose","go","0"
"pit-trial","169","1067851","0.0-55.0","battery-v0.2","","""event"",""trial"",""time""
""fullscreenenter"",""1"",""1707""
","
","
","""event"",""trial"",""time""
""fullscreenenter"",""1"",""1707""
","
","","","856.5","","","18","11660","5372","l","elianto","#3366ff99"," "," ","1","+10","[1707.2000000178814]","1","2","","","11660","51","1","1","win","go","0"
"pit-trial","170","1072282","0.0-56.0","battery-v0.2","","""event"",""trial"",""time""
""fullscreenenter"",""1"",""1707""
","
","
","""event"",""trial"",""time""
""fullscreenenter"",""1"",""1707""
","
","","","1571.5999999940395","","","18","11660","5372","p","elianto","#3366ff99","-1"," ","0","0","[2422.199999988079]","1","2","","","11660","52","4","2","win","no-go","0"
"pit-trial","171","1077144","0.0-57.0","battery-v0.2","","""event"",""trial"",""time""
""fullscreenenter"",""1"",""1707""
","
","
","""event"",""trial"",""time""
""fullscreenenter"",""1"",""1707""
","
","","","-1","","","18","11660","5372","u","elianto","#f73b6a7A","-1","-1","1","0","[]","0","2","","","11660","53","0","4","lose","no-go","0"
"pit-trial","172","1082002","0.0-58.0","battery-v0.2","","""event"",""trial"",""time""
""fullscreenenter"",""1"",""1707""
","
","
","""event"",""trial"",""time""
""fullscreenenter"",""1"",""1707""
","
","","","-1","","","18","11660","5372","p","elianto","#3366ff99","-1","-1","1","+10","[]","0","2","","","11660","54","4","2","win","no-go","0"
"pit-trial","173","1086172","0.0-59.0","battery-v0.2","","""event"",""trial"",""time""
""fullscreenenter"",""1"",""1707""
","
","
","""event"",""trial"",""time""
""fullscreenenter"",""1"",""1707""
","
","","","1308.2000000178814","","","18","11660","5372","l","elianto","#3366ff99"," "," ","1","0","[2159.5]","1","2","","","11660","55","1","1","win","go","1"
"pit-trial","174","1091037","0.0-60.0","battery-v0.2","","""event"",""trial"",""time""
""fullscreenenter"",""1"",""1707""
","
","
","""event"",""trial"",""time""
""fullscreenenter"",""1"",""1707""
","
","","","-1","","","18","11660","5372","a","elianto","#f73b6a7A","-1","-1","1","0","[]","0","2","","","11660","56","2","4","lose","no-go","0"
"pit-trial","175","1094559","0.0-61.0","battery-v0.2","","""event"",""trial"",""time""
""fullscreenenter"",""1"",""1707""
","
","
","""event"",""trial"",""time""
""fullscreenenter"",""1"",""1707""
","
","","","660.4000000059605","","","18","11660","5372","l","elianto","#3366ff99"," "," ","1","+10","[1512.4000000059605]","1","2","","","11660","57","1","1","win","go","0"
"pit-trial","176","1099424","0.0-62.0","battery-v0.2","","""event"",""trial"",""time""
""fullscreenenter"",""1"",""1707""
","
","
","""event"",""trial"",""time""
""fullscreenenter"",""1"",""1707""
","
","","","-1","","","18","11660","5372","u","elianto","#f73b6a7A","-1","-1","1","-10","[]","0","2","","","11660","58","0","4","lose","no-go","1"
"pit-trial","177","1103457","0.0-63.0","battery-v0.2","","""event"",""trial"",""time""
""fullscreenenter"",""1"",""1707""
","
","
","""event"",""trial"",""time""
""fullscreenenter"",""1"",""1707""
","
","","","1174.5999999940395","","","18","11660","5372","p","elianto","#3366ff99","-1"," ","0","0","[2026.800000011921]","1","2","","","11660","59","4","2","win","no-go","0"
"pit-trial","178","1107126","0.0-64.0","battery-v0.2","","""event"",""trial"",""time""
""fullscreenenter"",""1"",""1707""
","
","
","""event"",""trial"",""time""
""fullscreenenter"",""1"",""1707""
","
","","","806.9000000059605","","","18","11660","5372","g","elianto","#f73b6a7A"," "," ","1","0","[1658.800000011921]","1","2","","","11660","60","3","3","lose","go","0"
"pit-trial","179","1110851","0.0-65.0","battery-v0.2","","""event"",""trial"",""time""
""fullscreenenter"",""1"",""1707""
","
","
","""event"",""trial"",""time""
""fullscreenenter"",""1"",""1707""
","
","","","864.1000000238419","","","18","11660","5372","g","elianto","#f73b6a7A"," "," ","1","0","[1716.2999999821186]","1","2","","","11660","61","3","3","lose","go","0"
"pit-trial","180","1114561","0.0-66.0","battery-v0.2","","""event"",""trial"",""time""
""fullscreenenter"",""1"",""1707""
","
","
","""event"",""trial"",""time""
""fullscreenenter"",""1"",""1707""
","
","","","852.0999999940395","","","18","11660","5372","l","elianto","#3366ff99"," "," ","1","0","[1702.5999999940395]","1","2","","","11660","62","1","1","win","go","1"
"pit-trial","181","1118306","0.0-67.0","battery-v0.2","","""event"",""trial"",""time""
""fullscreenenter"",""1"",""1707""
","
","
","""event"",""trial"",""time""
""fullscreenenter"",""1"",""1707""
","
","","","883.5","","","18","11660","5372","p","elianto","#3366ff99","-1"," ","0","0","[1736]","1","2","","","11660","63","4","2","win","no-go","0"
"pit-trial","182","1123166","0.0-68.0","battery-v0.2","","""event"",""trial"",""time""
""fullscreenenter"",""1"",""1707""
","
","
","""event"",""trial"",""time""
""fullscreenenter"",""1"",""1707""
","
","","","-1","","","18","11660","5372","a","elianto","#f73b6a7A","-1","-1","1","0","[]","0","2","","","11660","64","2","4","lose","no-go","0"
"pit-trial","183","1127482","0.0-69.0","battery-v0.2","","""event"",""trial"",""time""
""fullscreenenter"",""1"",""1707""
","
","
","""event"",""trial"",""time""
""fullscreenenter"",""1"",""1707""
","
","","","1454.9000000059605","","","18","11660","5372","p","elianto","#3366ff99","-1"," ","0","+10","[2306.5]","1","2","","","11660","65","4","2","win","no-go","1"
"pit-trial","184","1132344","0.0-70.0","battery-v0.2","","""event"",""trial"",""time""
""fullscreenenter"",""1"",""1707""
","
","
","""event"",""trial"",""time""
""fullscreenenter"",""1"",""1707""
","
","","","-1","","","18","11660","5372","a","elianto","#f73b6a7A","-1","-1","1","0","[]","0","2","","","11660","66","2","4","lose","no-go","0"
"pit-trial","185","1136002","0.0-71.0","battery-v0.2","","""event"",""trial"",""time""
""fullscreenenter"",""1"",""1707""
","
","
","""event"",""trial"",""time""
""fullscreenenter"",""1"",""1707""
","
","","","798.4000000059605","","","18","11660","5372","g","elianto","#f73b6a7A"," "," ","1","0","[1649.800000011921]","1","2","","","11660","67","3","3","lose","go","0"
"pit-trial","186","1139562","0.0-72.0","battery-v0.2","","""event"",""trial"",""time""
""fullscreenenter"",""1"",""1707""
","
","
","""event"",""trial"",""time""
""fullscreenenter"",""1"",""1707""
","
","","","700.5999999940395","","","18","11660","5372","l","elianto","#3366ff99"," "," ","1","+10","[1551.7000000178814]","1","2","","","11660","68","1","1","win","go","0"
"pit-trial","187","1143528","0.0-73.0","battery-v0.2","","""event"",""trial"",""time""
""fullscreenenter"",""1"",""1707""
","
","
","""event"",""trial"",""time""
""fullscreenenter"",""1"",""1707""
","
","","","1104.199999988079","","","18","11660","5372","p","elianto","#3366ff99","-1"," ","0","0","[1955.5999999940395]","1","2","","","11660","69","4","2","win","no-go","0"
"pit-trial","188","1147648","0.0-74.0","battery-v0.2","","""event"",""trial"",""time""
""fullscreenenter"",""1"",""1707""
","
","
","""event"",""trial"",""time""
""fullscreenenter"",""1"",""1707""
","
","","","1257.199999988079","","","18","11660","5372","g","elianto","#f73b6a7A"," "," ","1","0","[2109.800000011921]","1","2","","","11660","70","3","3","lose","go","0"
"pit-trial","189","1151358","0.0-75.0","battery-v0.2","","""event"",""trial"",""time""
""fullscreenenter"",""1"",""1707""
","
","
","""event"",""trial"",""time""
""fullscreenenter"",""1"",""1707""
","
","","","854.1999999880791","","","18","11660","5372","l","elianto","#3366ff99"," "," ","1","+10","[1704.2999999821186]","1","2","","","11660","71","1","1","win","go","0"
"pit-trial","190","1155409","0.0-76.0","battery-v0.2","","""event"",""trial"",""time""
""fullscreenenter"",""1"",""1707""
","
","
","""event"",""trial"",""time""
""fullscreenenter"",""1"",""1707""
","
","","","1188.4000000059605","","","18","11660","5372","s","elianto","#3366ff99"," "," ","1","+10","[2041.300000011921]","1","2","","","11660","72","5","1","win","go","0"
"pit-trial","191","1159140","0.0-77.0","battery-v0.2","","""event"",""trial"",""time""
""fullscreenenter"",""1"",""1707""
","
","
","""event"",""trial"",""time""
""fullscreenenter"",""1"",""1707""
","
","","","870.1999999880791","","","18","11660","5372","l","elianto","#3366ff99"," "," ","1","+10","[1721.699999988079]","1","2","","","11660","73","1","1","win","go","0"
"pit-trial","192","1162929","0.0-78.0","battery-v0.2","","""event"",""trial"",""time""
""fullscreenenter"",""1"",""1707""
","
","
","""event"",""trial"",""time""
""fullscreenenter"",""1"",""1707""
","
","","","928.0999999940395","","","18","11660","5372","s","elianto","#3366ff99"," "," ","1","+10","[1779.800000011921]","1","2","","","11660","74","5","1","win","go","0"
"pit-trial","193","1167791","0.0-79.0","battery-v0.2","","""event"",""trial"",""time""
""fullscreenenter"",""1"",""1707""
","
","
","""event"",""trial"",""time""
""fullscreenenter"",""1"",""1707""
","
","","","-1","","","18","11660","5372","p","elianto","#3366ff99","-1","-1","1","+10","[]","0","2","","","11660","75","4","2","win","no-go","0"
"pit-trial","194","1171277","0.0-80.0","battery-v0.2","","""event"",""trial"",""time""
""fullscreenenter"",""1"",""1707""
","
","
","""event"",""trial"",""time""
""fullscreenenter"",""1"",""1707""
","
","","","622.8000000119209","","","18","11660","5372","g","elianto","#f73b6a7A"," "," ","1","0","[1476.300000011921]","1","2","","","11660","76","3","3","lose","go","0"
"pit-trial","195","1175020","0.0-81.0","battery-v0.2","","""event"",""trial"",""time""
""fullscreenenter"",""1"",""1707""
","
","
","""event"",""trial"",""time""
""fullscreenenter"",""1"",""1707""
","
","","","880.1000000238419","","","18","11660","5372","g","elianto","#f73b6a7A"," "," ","1","0","[1733]","1","2","","","11660","77","3","3","lose","go","0"
"pit-trial","196","1179886","0.0-82.0","battery-v0.2","","""event"",""trial"",""time""
""fullscreenenter"",""1"",""1707""
","
","
","""event"",""trial"",""time""
""fullscreenenter"",""1"",""1707""
","
","","","-1","","","18","11660","5372","w","elianto","#f73b6a7A","-1","-1","1","0","[]","0","2","","","11660","78","6","4","lose","no-go","0"
"pit-trial","197","1184751","0.0-83.0","battery-v0.2","","""event"",""trial"",""time""
""fullscreenenter"",""1"",""1707""
","
","
","""event"",""trial"",""time""
""fullscreenenter"",""1"",""1707""
","
","","","-1","","","18","11660","5372","p","elianto","#3366ff99","-1","-1","1","+10","[]","0","2","","","11660","79","4","2","win","no-go","0"
"pit-trial","198","1188870","0.0-84.0","battery-v0.2","","""event"",""trial"",""time""
""fullscreenenter"",""1"",""1707""
","
","
","""event"",""trial"",""time""
""fullscreenenter"",""1"",""1707""
","
","","","1261.199999988079","","","18","11660","5372","s","elianto","#3366ff99"," "," ","1","+10","[2112.199999988079]","1","2","","","11660","80","5","1","win","go","0"
"pit-trial","199","1193732","0.0-85.0","battery-v0.2","","""event"",""trial"",""time""
""fullscreenenter"",""1"",""1707""
","
","
","""event"",""trial"",""time""
""fullscreenenter"",""1"",""1707""
","
","","","-1","","","18","11660","5372","e","elianto","#f73b6a7A"," ","-1","0","-10","[]","0","2","","","11660","81","7","3","lose","go","0"
"pit-trial","200","1198597","0.0-86.0","battery-v0.2","","""event"",""trial"",""time""
""fullscreenenter"",""1"",""1707""
","
","
","""event"",""trial"",""time""
""fullscreenenter"",""1"",""1707""
","
","","","-1","","","18","11660","5372","p","elianto","#3366ff99","-1","-1","1","+10","[]","0","2","","","11660","82","4","2","win","no-go","0"
"pit-trial","201","1203462","0.0-87.0","battery-v0.2","","""event"",""trial"",""time""
""fullscreenenter"",""1"",""1707""
","
","
","""event"",""trial"",""time""
""fullscreenenter"",""1"",""1707""
","
","","","-1","","","18","11660","5372","w","elianto","#f73b6a7A","-1","-1","1","-10","[]","0","2","","","11660","83","6","4","lose","no-go","1"
"pit-trial","202","1207784","0.0-88.0","battery-v0.2","","""event"",""trial"",""time""
""fullscreenenter"",""1"",""1707""
","
","
","""event"",""trial"",""time""
""fullscreenenter"",""1"",""1707""
","
","","","1461.9000000059605","","","18","11660","5372","s","elianto","#3366ff99"," "," ","1","0","[2314]","1","2","","","11660","84","5","1","win","go","1"
"pit-trial","203","1212645","0.0-89.0","battery-v0.2","","""event"",""trial"",""time""
""fullscreenenter"",""1"",""1707""
","
","
","""event"",""trial"",""time""
""fullscreenenter"",""1"",""1707""
","
","","","-1","","","18","11660","5372","p","elianto","#3366ff99","-1","-1","1","+10","[]","0","2","","","11660","85","4","2","win","no-go","0"
"pit-trial","204","1216955","0.0-90.0","battery-v0.2","","""event"",""trial"",""time""
""fullscreenenter"",""1"",""1707""
","
","
","""event"",""trial"",""time""
""fullscreenenter"",""1"",""1707""
","
","","","1450.4000000059605","","","18","11660","5372","w","elianto","#f73b6a7A","-1"," ","0","0","[2301.5]","1","2","","","11660","86","6","4","lose","no-go","1"
"pit-trial","205","1221816","0.0-91.0","battery-v0.2","","""event"",""trial"",""time""
""fullscreenenter"",""1"",""1707""
","
","
","""event"",""trial"",""time""
""fullscreenenter"",""1"",""1707""
","
","","","-1","","","18","11660","5372","e","elianto","#f73b6a7A"," ","-1","0","-10","[]","0","2","","","11660","87","7","3","lose","go","0"
"pit-trial","206","1225662","0.0-92.0","battery-v0.2","","""event"",""trial"",""time""
""fullscreenenter"",""1"",""1707""
","
","
","""event"",""trial"",""time""
""fullscreenenter"",""1"",""1707""
","
","","","986.5999999940395","","","18","11660","5372","s","elianto","#3366ff99"," "," ","1","+10","[1837.5]","1","2","","","11660","88","5","1","win","go","0"
"pit-trial","207","1229478","0.0-93.0","battery-v0.2","","""event"",""trial"",""time""
""fullscreenenter"",""1"",""1707""
","
","
","""event"",""trial"",""time""
""fullscreenenter"",""1"",""1707""
","
","","","954.3999999761581","","","18","11660","5372","s","elianto","#3366ff99"," "," ","1","+10","[1806.4000000059605]","1","2","","","11660","89","5","1","win","go","0"
"pit-trial","208","1234343","0.0-94.0","battery-v0.2","","""event"",""trial"",""time""
""fullscreenenter"",""1"",""1707""
","
","
","""event"",""trial"",""time""
""fullscreenenter"",""1"",""1707""
","
","","","-1","","","18","11660","5372","e","elianto","#f73b6a7A"," ","-1","0","-10","[]","0","2","","","11660","90","7","3","lose","go","0"
"pit-trial","209","1239207","0.0-95.0","battery-v0.2","","""event"",""trial"",""time""
""fullscreenenter"",""1"",""1707""
","
","
","""event"",""trial"",""time""
""fullscreenenter"",""1"",""1707""
","
","","","-1","","","18","11660","5372","p","elianto","#3366ff99","-1","-1","1","+10","[]","0","2","","","11660","91","4","2","win","no-go","0"
"pit-trial","210","1242908","0.0-96.0","battery-v0.2","","""event"",""trial"",""time""
""fullscreenenter"",""1"",""1707""
","
","
","""event"",""trial"",""time""
""fullscreenenter"",""1"",""1707""
","
","","","839.9000000059605","","","18","11660","5372","w","elianto","#f73b6a7A","-1"," ","0","-10","[1691.5999999940395]","1","2","","","11660","92","6","4","lose","no-go","0"
"pit-trial","211","1246752","0.0-97.0","battery-v0.2","","""event"",""trial"",""time""
""fullscreenenter"",""1"",""1707""
","
","
","""event"",""trial"",""time""
""fullscreenenter"",""1"",""1707""
","
","","","981.0999999940395","","","18","11660","5372","w","elianto","#f73b6a7A","-1"," ","0","0","[1833.9000000059605]","1","2","","","11660","93","6","4","lose","no-go","1"
"pit-trial","212","1250943","0.0-98.0","battery-v0.2","","""event"",""trial"",""time""
""fullscreenenter"",""1"",""1707""
","
","
","""event"",""trial"",""time""
""fullscreenenter"",""1"",""1707""
","
","","","1329.699999988079","","","18","11660","5372","s","elianto","#3366ff99"," "," ","1","+10","[2181.199999988079]","1","2","","","11660","94","5","1","win","go","0"
"pit-trial","213","1255806","0.0-99.0","battery-v0.2","","""event"",""trial"",""time""
""fullscreenenter"",""1"",""1707""
","
","
","""event"",""trial"",""time""
""fullscreenenter"",""1"",""1707""
","
","","","-1","","","18","11660","5372","e","elianto","#f73b6a7A"," ","-1","0","-10","[]","0","2","","","11660","95","7","3","lose","go","0"
"pit-trial","214","1259970","0.0-100.0","battery-v0.2","","""event"",""trial"",""time""
""fullscreenenter"",""1"",""1707""
","
","
","""event"",""trial"",""time""
""fullscreenenter"",""1"",""1707""
","
","","","1303.6000000238419","","","18","11660","5372","d","elianto","#3366ff99","-1"," ","0","+10","[2155.5]","1","2","","","11660","96","8","2","win","no-go","1"
"pit-trial","215","1264156","0.0-101.0","battery-v0.2","","""event"",""trial"",""time""
""fullscreenenter"",""1"",""1707""
","
","
","""event"",""trial"",""time""
""fullscreenenter"",""1"",""1707""
","
","","","1326.2000000178814","","","18","11660","5372","d","elianto","#3366ff99","-1"," ","0","0","[2178.600000023842]","1","2","","","11660","97","8","2","win","no-go","0"
"pit-trial","216","1267863","0.0-102.0","battery-v0.2","","""event"",""trial"",""time""
""fullscreenenter"",""1"",""1707""
","
","
","""event"",""trial"",""time""
""fullscreenenter"",""1"",""1707""
","
","","","845.2000000178814","","","18","11660","5372","s","elianto","#3366ff99"," "," ","1","+10","[1697.7999999821186]","1","2","","","11660","98","5","1","win","go","0"
"pit-trial","217","1271913","0.0-103.0","battery-v0.2","","""event"",""trial"",""time""
""fullscreenenter"",""1"",""1707""
","
","
","""event"",""trial"",""time""
""fullscreenenter"",""1"",""1707""
","
","","","1189.5","","","18","11660","5372","w","elianto","#f73b6a7A","-1"," ","0","-10","[2040.699999988079]","1","2","","","11660","99","6","4","lose","no-go","0"
"pit-trial","218","1276195","0.0-104.0","battery-v0.2","","""event"",""trial"",""time""
""fullscreenenter"",""1"",""1707""
","
","
","""event"",""trial"",""time""
""fullscreenenter"",""1"",""1707""
","
","","","1422.2000000178814","","","18","11660","5372","e","elianto","#f73b6a7A"," "," ","1","0","[2272.800000011921]","1","2","","","11660","100","7","3","lose","go","0"
"pit-trial","219","1280599","0.0-105.0","battery-v0.2","","""event"",""trial"",""time""
""fullscreenenter"",""1"",""1707""
","
","
","""event"",""trial"",""time""
""fullscreenenter"",""1"",""1707""
","
","","","1543.4000000059605","","","18","11660","5372","w","elianto","#f73b6a7A","-1"," ","0","-10","[2394.800000011921]","1","2","","","11660","101","6","4","lose","no-go","0"
"pit-trial","220","1284354","0.0-106.0","battery-v0.2","","""event"",""trial"",""time""
""fullscreenenter"",""1"",""1707""
","
","
","""event"",""trial"",""time""
""fullscreenenter"",""1"",""1707""
","
","","","896.0999999940395","","","18","11660","5372","s","elianto","#3366ff99"," "," ","1","+10","[1746]","1","2","","","11660","102","5","1","win","go","0"
"pit-trial","221","1288855","0.0-107.0","battery-v0.2","","""event"",""trial"",""time""
""fullscreenenter"",""1"",""1707""
","
","
","""event"",""trial"",""time""
""fullscreenenter"",""1"",""1707""
","
","","","1642.199999988079","","","18","11660","5372","j","elianto","#3366ff99","-1"," ","0","0","[2494.5]","1","2","","","11660","103","9","2","win","no-go","0"
"pit-trial","222","1293716","0.0-108.0","battery-v0.2","","""event"",""trial"",""time""
""fullscreenenter"",""1"",""1707""
","
","
","""event"",""trial"",""time""
""fullscreenenter"",""1"",""1707""
","
","","","-1","","","18","11660","5372","d","elianto","#3366ff99","-1","-1","1","+10","[]","0","2","","","11660","104","8","2","win","no-go","0"
"pit-trial","223","1297578","0.0-109.0","battery-v0.2","","""event"",""trial"",""time""
""fullscreenenter"",""1"",""1707""
","
","
","""event"",""trial"",""time""
""fullscreenenter"",""1"",""1707""
","
","","","1000.3000000119209","","","18","11660","5372","s","elianto","#3366ff99"," "," ","1","+10","[1851.7000000178814]","1","2","","","11660","105","5","1","win","go","0"
"pit-trial","224","1302443","0.0-110.0","battery-v0.2","","""event"",""trial"",""time""
""fullscreenenter"",""1"",""1707""
","
","
","""event"",""trial"",""time""
""fullscreenenter"",""1"",""1707""
","
","","","-1","","","18","11660","5372","d","elianto","#3366ff99","-1","-1","1","+10","[]","0","2","","","11660","106","8","2","win","no-go","0"
"pit-trial","225","1306653","0.0-111.0","battery-v0.2","","""event"",""trial"",""time""
""fullscreenenter"",""1"",""1707""
","
","
","""event"",""trial"",""time""
""fullscreenenter"",""1"",""1707""
","
","","","1349.5","","","18","11660","5372","j","elianto","#3366ff99","-1"," ","0","0","[2200.699999988079]","1","2","","","11660","107","9","2","win","no-go","0"
"pit-trial","226","1310308","0.0-112.0","battery-v0.2","","""event"",""trial"",""time""
""fullscreenenter"",""1"",""1707""
","
","
","""event"",""trial"",""time""
""fullscreenenter"",""1"",""1707""
","
","","","793.4000000059605","","","18","11660","5372","w","elianto","#f73b6a7A","-1"," ","0","0","[1644.5999999940395]","1","2","","","11660","108","6","4","lose","no-go","1"
"pit-trial","227","1315170","0.0-113.0","battery-v0.2","","""event"",""trial"",""time""
""fullscreenenter"",""1"",""1707""
","
","
","""event"",""trial"",""time""
""fullscreenenter"",""1"",""1707""
","
","","","-1","","","18","11660","5372","d","elianto","#3366ff99","-1","-1","1","+10","[]","0","2","","","11660","109","8","2","win","no-go","0"
"pit-trial","228","1319671","0.0-114.0","battery-v0.2","","""event"",""trial"",""time""
""fullscreenenter"",""1"",""1707""
","
","
","""event"",""trial"",""time""
""fullscreenenter"",""1"",""1707""
","
","","","1639.300000011921","","","18","11660","5372","j","elianto","#3366ff99","-1"," ","0","0","[2490.5]","1","2","","","11660","110","9","2","win","no-go","0"
"pit-trial","229","1323548","0.0-115.0","battery-v0.2","","""event"",""trial"",""time""
""fullscreenenter"",""1"",""1707""
","
","
","""event"",""trial"",""time""
""fullscreenenter"",""1"",""1707""
","
","","","1015.5","","","18","11660","5372","w","elianto","#f73b6a7A","-1"," ","0","-10","[1867.199999988079]","1","2","","","11660","111","6","4","lose","no-go","0"
"pit-trial","230","1327462","0.0-116.0","battery-v0.2","","""event"",""trial"",""time""
""fullscreenenter"",""1"",""1707""
","
","
","""event"",""trial"",""time""
""fullscreenenter"",""1"",""1707""
","
","","","1055","","","18","11660","5372","s","elianto","#3366ff99"," "," ","1","+10","[1905.9000000059605]","1","2","","","11660","112","5","1","win","go","0"
"pit-trial","231","1332323","0.0-117.0","battery-v0.2","","""event"",""trial"",""time""
""fullscreenenter"",""1"",""1707""
","
","
","""event"",""trial"",""time""
""fullscreenenter"",""1"",""1707""
","
","","","-1","","","18","11660","5372","d","elianto","#3366ff99","-1","-1","1","+10","[]","0","2","","","11660","113","8","2","win","no-go","0"
"pit-trial","232","1336209","0.0-118.0","battery-v0.2","","""event"",""trial"",""time""
""fullscreenenter"",""1"",""1707""
","
","
","""event"",""trial"",""time""
""fullscreenenter"",""1"",""1707""
","
","","","1023.7999999821186","","","18","11660","5372","s","elianto","#3366ff99"," "," ","1","+10","[1876.0999999940395]","1","2","","","11660","114","5","1","win","go","0"
"pit-trial","233","1341074","0.0-119.0","battery-v0.2","","""event"",""trial"",""time""
""fullscreenenter"",""1"",""1707""
","
","
","""event"",""trial"",""time""
""fullscreenenter"",""1"",""1707""
","
","","","-1","","","18","11660","5372","j","elianto","#3366ff99","-1","-1","1","0","[]","0","2","","","11660","115","9","2","win","no-go","1"
"pit-trial","234","1345469","0.0-120.0","battery-v0.2","","""event"",""trial"",""time""
""fullscreenenter"",""1"",""1707""
","
","
","""event"",""trial"",""time""
""fullscreenenter"",""1"",""1707""
","
","","","1533.0999999940395","","","18","11660","5372","e","elianto","#f73b6a7A"," "," ","1","0","[2386.199999988079]","1","2","","","11660","116","7","3","lose","go","0"
"pit-trial","235","1349211","0.0-121.0","battery-v0.2","","""event"",""trial"",""time""
""fullscreenenter"",""1"",""1707""
","
","
","""event"",""trial"",""time""
""fullscreenenter"",""1"",""1707""
","
","","","880.4000000059605","","","18","11660","5372","s","elianto","#3366ff99"," "," ","1","+10","[1732.5]","1","2","","","11660","117","5","1","win","go","0"
"pit-trial","236","1354075","0.0-122.0","battery-v0.2","","""event"",""trial"",""time""
""fullscreenenter"",""1"",""1707""
","
","
","""event"",""trial"",""time""
""fullscreenenter"",""1"",""1707""
","
","","","-1","","","18","11660","5372","j","elianto","#3366ff99","-1","-1","1","0","[2954.2999999821186]","1","2","","","11660","118","9","2","win","no-go","1"
"pit-trial","237","1358938","0.0-123.0","battery-v0.2","","""event"",""trial"",""time""
""fullscreenenter"",""1"",""1707""
","
","
","""event"",""trial"",""time""
""fullscreenenter"",""1"",""1707""
","
","","","-1","","","18","11660","5372","d","elianto","#3366ff99","-1","-1","1","+10","[]","0","2","","","11660","119","8","2","win","no-go","0"
"pit-trial","238","1363597","0.0-124.0","battery-v0.2","","""event"",""trial"",""time""
""fullscreenenter"",""1"",""1707""
","
","
","""event"",""trial"",""time""
""fullscreenenter"",""1"",""1707""
","
","","","1795.6000000238419","","","18","11660","5372","w","elianto","#f73b6a7A","-1"," ","0","0","[2648.7000000178814]","1","2","","","11660","120","6","4","lose","no-go","1"
"pit-trial","239","1368461","0.0-125.0","battery-v0.2","","""event"",""trial"",""time""
""fullscreenenter"",""1"",""1707""
","
","
","""event"",""trial"",""time""
""fullscreenenter"",""1"",""1707""
","
","","","-1","","","18","11660","5372","j","elianto","#3366ff99","-1","-1","1","+10","[]","0","2","","","11660","121","9","2","win","no-go","0"
"pit-trial","240","1373322","0.0-126.0","battery-v0.2","","""event"",""trial"",""time""
""fullscreenenter"",""1"",""1707""
","
","
","""event"",""trial"",""time""
""fullscreenenter"",""1"",""1707""
","
","","","-1","","","18","11660","5372","d","elianto","#3366ff99","-1","-1","1","+10","[]","0","2","","","11660","122","8","2","win","no-go","0"
"pit-trial","241","1377023","0.0-127.0","battery-v0.2","","""event"",""trial"",""time""
""fullscreenenter"",""1"",""1707""
","
","
","""event"",""trial"",""time""
""fullscreenenter"",""1"",""1707""
","
","","","844.4000000059605","","","18","11660","5372","s","elianto","#3366ff99"," "," ","1","+10","[1696.4000000059605]","1","2","","","11660","123","5","1","win","go","0"
"pit-trial","242","1380689","0.0-128.0","battery-v0.2","","""event"",""trial"",""time""
""fullscreenenter"",""1"",""1707""
","
","
","""event"",""trial"",""time""
""fullscreenenter"",""1"",""1707""
","
","","","802.6999999880791","","","18","11660","5372","e","elianto","#f73b6a7A"," "," ","1","0","[1656]","1","2","","","11660","124","7","3","lose","go","0"
"pit-trial","243","1384627","0.0-129.0","battery-v0.2","","""event"",""trial"",""time""
""fullscreenenter"",""1"",""1707""
","
","
","""event"",""trial"",""time""
""fullscreenenter"",""1"",""1707""
","
","","","1076.7999999821186","","","18","11660","5372","e","elianto","#f73b6a7A"," "," ","1","0","[1929.4000000059605]","1","2","","","11660","125","7","3","lose","go","0"
"pit-trial","244","1388687","0.0-130.0","battery-v0.2","","""event"",""trial"",""time""
""fullscreenenter"",""1"",""1707""
","
","
","""event"",""trial"",""time""
""fullscreenenter"",""1"",""1707""
","
","","","1198.5","","","18","11660","5372","w","elianto","#f73b6a7A","-1"," ","0","-10","[2050.2000000178814]","1","2","","","11660","126","6","4","lose","no-go","0"
"pit-trial","245","1393549","0.0-131.0","battery-v0.2","","""event"",""trial"",""time""
""fullscreenenter"",""1"",""1707""
","
","
","""event"",""trial"",""time""
""fullscreenenter"",""1"",""1707""
","
","","","-1","","","18","11660","5372","j","elianto","#3366ff99","-1","-1","1","+10","[]","0","2","","","11660","127","9","2","win","no-go","0"
"pit-trial","246","1398412","0.0-132.0","battery-v0.2","","""event"",""trial"",""time""
""fullscreenenter"",""1"",""1707""
","
","
","""event"",""trial"",""time""
""fullscreenenter"",""1"",""1707""
","
","","","-1","","","18","11660","5372","d","elianto","#3366ff99","-1","-1","1","+10","[]","0","2","","","11660","128","8","2","win","no-go","0"
"pit-trial","247","1403272","0.0-133.0","battery-v0.2","","""event"",""trial"",""time""
""fullscreenenter"",""1"",""1707""
","
","
","""event"",""trial"",""time""
""fullscreenenter"",""1"",""1707""
","
","","","-1","","","18","11660","5372","d","elianto","#3366ff99","-1","-1","1","+10","[]","0","2","","","11660","129","8","2","win","no-go","0"
"pit-trial","248","1408138","0.0-134.0","battery-v0.2","","""event"",""trial"",""time""
""fullscreenenter"",""1"",""1707""
","
","
","""event"",""trial"",""time""
""fullscreenenter"",""1"",""1707""
","
","","","-1","","","18","11660","5372","j","elianto","#3366ff99","-1","-1","1","+10","[]","0","2","","","11660","130","9","2","win","no-go","0"
"pit-trial","249","1411871","0.0-135.0","battery-v0.2","","""event"",""trial"",""time""
""fullscreenenter"",""1"",""1707""
","
","
","""event"",""trial"",""time""
""fullscreenenter"",""1"",""1707""
","
","","","870.5999999940395","","","18","11660","5372","e","elianto","#f73b6a7A"," "," ","1","0","[1723.2999999821186]","1","2","","","11660","131","7","3","lose","go","0"
"pit-trial","250","1416736","0.0-136.0","battery-v0.2","","""event"",""trial"",""time""
""fullscreenenter"",""1"",""1707""
","
","
","""event"",""trial"",""time""
""fullscreenenter"",""1"",""1707""
","
","","","-1","","","18","11660","5372","w","elianto","#f73b6a7A","-1","-1","1","-10","[]","0","2","","","11660","132","6","4","lose","no-go","1"
"pit-trial","251","1420944","0.0-137.0","battery-v0.2","","""event"",""trial"",""time""
""fullscreenenter"",""1"",""1707""
","
","
","""event"",""trial"",""time""
""fullscreenenter"",""1"",""1707""
","
","","","1352.5999999940395","","","18","11660","5372","w","elianto","#f73b6a7A","-1"," ","0","0","[2204.300000011921]","1","2","","","11660","133","6","4","lose","no-go","1"
"pit-trial","252","1424848","0.0-138.0","battery-v0.2","","""event"",""trial"",""time""
""fullscreenenter"",""1"",""1707""
","
","
","""event"",""trial"",""time""
""fullscreenenter"",""1"",""1707""
","
","","","1042.5","","","18","11660","5372","e","elianto","#f73b6a7A"," "," ","1","0","[1894]","1","2","","","11660","134","7","3","lose","go","0"
"pit-trial","253","1429712","0.0-139.0","battery-v0.2","","""event"",""trial"",""time""
""fullscreenenter"",""1"",""1707""
","
","
","""event"",""trial"",""time""
""fullscreenenter"",""1"",""1707""
","
","","","-1","","","18","11660","5372","d","elianto","#3366ff99","-1","-1","1","0","[]","0","2","","","11660","135","8","2","win","no-go","1"
"pit-trial","254","1434578","0.0-140.0","battery-v0.2","","""event"",""trial"",""time""
""fullscreenenter"",""1"",""1707""
","
","
","""event"",""trial"",""time""
""fullscreenenter"",""1"",""1707""
","
","","","-1","","","18","11660","5372","j","elianto","#3366ff99","-1","-1","1","0","[]","0","2","","","11660","136","9","2","win","no-go","1"
"pit-trial","255","1438268","0.0-141.0","battery-v0.2","","""event"",""trial"",""time""
""fullscreenenter"",""1"",""1707""
","
","
","""event"",""trial"",""time""
""fullscreenenter"",""1"",""1707""
","
","","","828.9000000059605","","","18","11660","5372","d","elianto","#3366ff99","-1"," ","0","0","[1680.199999988079]","1","2","","","11660","137","8","2","win","no-go","0"
"pit-trial","256","1441924","0.0-142.0","battery-v0.2","","""event"",""trial"",""time""
""fullscreenenter"",""1"",""1707""
","
","
","""event"",""trial"",""time""
""fullscreenenter"",""1"",""1707""
","
","","","794.3000000119209","","","18","11660","5372","w","elianto","#f73b6a7A","-1"," ","0","-10","[1646]","1","2","","","11660","138","6","4","lose","no-go","0"
"pit-trial","257","1446786","0.0-143.0","battery-v0.2","","""event"",""trial"",""time""
""fullscreenenter"",""1"",""1707""
","
","
","""event"",""trial"",""time""
""fullscreenenter"",""1"",""1707""
","
","","","-1","","","18","11660","5372","j","elianto","#3366ff99","-1","-1","1","+10","[2961.300000011921]","1","2","","","11660","139","9","2","win","no-go","0"
"pit-trial","258","1450784","0.0-144.0","battery-v0.2","","""event"",""trial"",""time""
""fullscreenenter"",""1"",""1707""
","
","
","""event"",""trial"",""time""
""fullscreenenter"",""1"",""1707""
","
","","","1135.8999999761581","","","18","11660","5372","e","elianto","#f73b6a7A"," "," ","1","0","[1988.199999988079]","1","2","","","11660","140","7","3","lose","go","0"
"pit-instructions","259","1464336","0.0-145.0","battery-v0.2","","""event"",""trial"",""time""
""fullscreenenter"",""1"",""1707""
","
","
","""event"",""trial"",""time""
""fullscreenenter"",""1"",""1707""
","
","","[{""page_index"":0,""viewing_time"":5513.4000000059605},{""page_index"":1,""viewing_time"":8034}]","13548.200000017881","","","","","","","","","","","","","","","","","","","","","","","",""
"pit-trial","260","1469203","0.0-146.0","battery-v0.2","","""event"",""trial"",""time""
""fullscreenenter"",""1"",""1707""
","
","
","""event"",""trial"",""time""
""fullscreenenter"",""1"",""1707""
","
","","","-1","","","18","11660","5372","b","elianto","#f73b6a7A","-1","-1","1","0","[]","0","3","","","11660","141","3","4","lose","no-go","0"
"pit-trial","261","1473033","0.0-147.0","battery-v0.2","","""event"",""trial"",""time""
""fullscreenenter"",""1"",""1707""
","
","
","""event"",""trial"",""time""
""fullscreenenter"",""1"",""1707""
","
","","","969.1000000238419","","","18","11660","5372","f","elianto","#3366ff99","-1"," ","0","0","[1820.8999999761581]","1","3","","","11660","142","1","2","win","no-go","0"
"pit-trial","262","1477898","0.0-148.0","battery-v0.2","","""event"",""trial"",""time""
""fullscreenenter"",""1"",""1707""
","
","
","""event"",""trial"",""time""
""fullscreenenter"",""1"",""1707""
","
","","","-1","","","18","11660","5372","n","elianto","#f73b6a7A"," ","-1","0","-10","[]","0","3","","","11660","143","0","3","lose","go","0"
"pit-trial","263","1481288","0.0-149.0","battery-v0.2","","""event"",""trial"",""time""
""fullscreenenter"",""1"",""1707""
","
","
","""event"",""trial"",""time""
""fullscreenenter"",""1"",""1707""
","
","","","532.7999999821186","","","18","11660","5372","t","elianto","#f73b6a7A"," "," ","1","-10","[1383.199999988079]","1","3","","","11660","144","2","3","lose","go","1"
"pit-trial","264","1485393","0.0-150.0","battery-v0.2","","""event"",""trial"",""time""
""fullscreenenter"",""1"",""1707""
","
","
","""event"",""trial"",""time""
""fullscreenenter"",""1"",""1707""
","
","","","1243.7000000178814","","","18","11660","5372","t","elianto","#f73b6a7A"," "," ","1","0","[2095.800000011921]","1","3","","","11660","145","2","3","lose","go","0"
"pit-trial","265","1490255","0.0-151.0","battery-v0.2","","""event"",""trial"",""time""
""fullscreenenter"",""1"",""1707""
","
","
","""event"",""trial"",""time""
