"trial_type","trial_index","time_elapsed","internal_node_id","task_version","subject_id","interactions","blur_events","focus_events","fullscreenenter_events","fullscreenexit_events","success","view_history","rt","responses","num_errors","age","subject","participantId","rune","rune_set","hex","correct","choice","accuracy","outcome","keys","total_keys","block","practice","value","sub","trial","stimulus","robot","valence","action","sham"
"pavlovia","0","7","0.0-0.0","battery-v0.2","","""event"",""trial"",""time""
""fullscreenenter"",""1"",""3016""
","
","
","""event"",""trial"",""time""
""fullscreenenter"",""1"",""3016""
","
","","","","","","","","","","","","","","","","","","","","","","","","","","",""
"fullscreen","1","4012","0.0-1.0","battery-v0.2","","""event"",""trial"",""time""
""fullscreenenter"",""1"",""3016""
","
","
","""event"",""trial"",""time""
""fullscreenenter"",""1"",""3016""
","
","true","","","","","","","","","","","","","","","","","","","","","","","","","",""
"pit-instructions","2","7867","0.0-2.0-0.0","battery-v0.2","","""event"",""trial"",""time""
""fullscreenenter"",""1"",""3016""
","
","
","""event"",""trial"",""time""
""fullscreenenter"",""1"",""3016""
","
","","[{""page_index"":0,""viewing_time"":3848}]","3848.300000011921","","","","","","","","","","","","","","","","","","","","","","","",""
"pit-comprehension","3","10702","0.0-2.0-1.0-0.0","battery-v0.2","","""event"",""trial"",""time""
""fullscreenenter"",""1"",""3016""
","
","
","""event"",""trial"",""time""
""fullscreenenter"",""1"",""3016""
","
","","","2833.199999988079","[""shark""]","0","14","5282","2734","","","","","","","","","","","","","","","","","","",""
"pit-instructions","4","11828","0.0-2.0-1.0-1.0","battery-v0.2","","""event"",""trial"",""time""
""fullscreenenter"",""1"",""3016""
","
","
","""event"",""trial"",""time""
""fullscreenenter"",""1"",""3016""
","
","","[{""page_index"":0,""viewing_time"":1108.800000011921}]","1109.199999988079","","","","","","","","","","","","","","","","","","","","","","","",""
"pit-comprehension","5","14017","0.0-2.0-2.0-0.0","battery-v0.2","","""event"",""trial"",""time""
""fullscreenenter"",""1"",""3016""
","
","
","""event"",""trial"",""time""
""fullscreenenter"",""1"",""3016""
","
","","","2186.2999999523163","[""tiger""]","0","14","5282","2734","","","","","","","","","","","","","","","","","","",""
"pit-instructions","6","14684","0.0-2.0-2.0-1.0","battery-v0.2","","""event"",""trial"",""time""
""fullscreenenter"",""1"",""3016""
","
","
","""event"",""trial"",""time""
""fullscreenenter"",""1"",""3016""
","
","","[{""page_index"":0,""viewing_time"":662.5}]","662.9000000357628","","","","","","","","","","","","","","","","","","","","","","","",""
"pit-instructions","7","107775","0.0-2.0-3.0","battery-v0.2","","""event"",""trial"",""time""
""fullscreenenter"",""1"",""3016""
","
","
","""event"",""trial"",""time""
""fullscreenenter"",""1"",""3016""
","
","","[{""page_index"":0,""viewing_time"":8878.399999976158},{""page_index"":1,""viewing_time"":5511.199999988079},{""page_index"":2,""viewing_time"":6732},{""page_index"":3,""viewing_time"":5045.400000035763},{""page_index"":4,""viewing_time"":5282.599999964237},{""page_index"":5,""viewing_time"":5110},{""page_index"":6,""viewing_time"":6566},{""page_index"":7,""viewing_time"":6110},{""page_index"":8,""viewing_time"":6636},{""page_index"":9,""viewing_time"":10202.900000035763},{""page_index"":10,""viewing_time"":7964.5},{""page_index"":11,""viewing_time"":7046.899999976158},{""page_index"":12,""viewing_time"":7241.800000011921},{""page_index"":13,""viewing_time"":4761.800000011921}]","93089.79999995232","","","","","","","","","","","","","","","","","","","","","","","",""
"pit-trial","8","111258","0.0-2.0-4.0-0.0","battery-v0.2","","""event"",""trial"",""time""
""fullscreenenter"",""1"",""3016""
","
","
","""event"",""trial"",""time""
""fullscreenenter"",""1"",""3016""
","
","","","616","","","14","5282","2734","&#9784;","elianto","#FFFFF080"," "," ","1","&#10004","[1473.699999988079]","1","0","0","","","","","","","",""
"pit-trial","9","114921","0.0-2.0-4.1-0.1","battery-v0.2","","""event"",""trial"",""time""
""fullscreenenter"",""1"",""3016""
","
","
","""event"",""trial"",""time""
""fullscreenenter"",""1"",""3016""
","
","","","802.1000000238419","","","14","5282","2734","&#9784;","elianto","#FFFFF080"," "," ","1","&#10004","[1657.1000000238419]","1","0","0","","","","","","","",""
"pit-trial","10","118467","0.0-2.0-4.2-0.2","battery-v0.2","","""event"",""trial"",""time""
""fullscreenenter"",""1"",""3016""
","
","
","""event"",""trial"",""time""
""fullscreenenter"",""1"",""3016""
","
","","","675.6999999880791","","","14","5282","2734","&#9784;","elianto","#FFFFF080"," "," ","1","&#10004","[1531.7999999523163]","1","0","0","","","","","","","",""
"pit-trial","11","121872","0.0-2.0-4.3-0.3","battery-v0.2","","""event"",""trial"",""time""
""fullscreenenter"",""1"",""3016""
","
","
","""event"",""trial"",""time""
""fullscreenenter"",""1"",""3016""
","
","","","534.5999999642372","","","14","5282","2734","&#9784;","elianto","#FFFFF080"," "," ","1","&#10004","[1391.5]","1","0","0","","","","","","","",""
"pit-trial","12","125291","0.0-2.0-4.4-0.4","battery-v0.2","","""event"",""trial"",""time""
""fullscreenenter"",""1"",""3016""
","
","
","""event"",""trial"",""time""
""fullscreenenter"",""1"",""3016""
","
","","","559.5999999642372","","","14","5282","2734","&#9784;","elianto","#FFFFF080"," "," ","1","&#10004","[1410]","1","0","0","","","","","","","",""
"pit-instructions","13","145814","0.0-2.0-5.0","battery-v0.2","","""event"",""trial"",""time""
""fullscreenenter"",""1"",""3016""
","
","
","""event"",""trial"",""time""
""fullscreenenter"",""1"",""3016""
","
","","[{""page_index"":0,""viewing_time"":4847.899999976158},{""page_index"":1,""viewing_time"":5770},{""page_index"":2,""viewing_time"":4627.899999976158},{""page_index"":3,""viewing_time"":5273.800000011921}]","20520","","","","","","","","","","","","","","","","","","","","","","","",""
"pit-trial","14","150691","0.0-2.0-6.0-0.0","battery-v0.2","","""event"",""trial"",""time""
""fullscreenenter"",""1"",""3016""
","
","
","""event"",""trial"",""time""
""fullscreenenter"",""1"",""3016""
","
","","","-1","","","14","5282","2734","&#9854;","elianto","#FFFFF080","-1","-1","1","&#10004","[]","0","0","1","","","","","","","",""
"pit-trial","15","155574","0.0-2.0-6.1-0.1","battery-v0.2","","""event"",""trial"",""time""
""fullscreenenter"",""1"",""3016""
","
","
","""event"",""trial"",""time""
""fullscreenenter"",""1"",""3016""
","
","","","-1","","","14","5282","2734","&#9854;","elianto","#FFFFF080","-1","-1","1","&#10004","[]","0","0","1","","","","","","","",""
"pit-trial","16","160462","0.0-2.0-6.2-0.2","battery-v0.2","","""event"",""trial"",""time""
""fullscreenenter"",""1"",""3016""
","
","
","""event"",""trial"",""time""
""fullscreenenter"",""1"",""3016""
","
","","","-1","","","14","5282","2734","&#9854;","elianto","#FFFFF080","-1","-1","1","&#10004","[]","0","0","1","","","","","","","",""
"pit-trial","17","165338","0.0-2.0-6.3-0.3","battery-v0.2","","""event"",""trial"",""time""
""fullscreenenter"",""1"",""3016""
","
","
","""event"",""trial"",""time""
""fullscreenenter"",""1"",""3016""
","
","","","-1","","","14","5282","2734","&#9854;","elianto","#FFFFF080","-1","-1","1","&#10004","[]","0","0","1","","","","","","","",""
"pit-trial","18","170207","0.0-2.0-6.4-0.4","battery-v0.2","","""event"",""trial"",""time""
""fullscreenenter"",""1"",""3016""
","
","
","""event"",""trial"",""time""
""fullscreenenter"",""1"",""3016""
","
","","","-1","","","14","5282","2734","&#9854;","elianto","#FFFFF080","-1","-1","1","&#10004","[]","0","0","1","","","","","","","",""
"pit-instructions","19","290422","0.0-2.0-7.0","battery-v0.2","","""event"",""trial"",""time""
""fullscreenenter"",""1"",""3016""
","
","
","""event"",""trial"",""time""
""fullscreenenter"",""1"",""3016""
","
","","[{""page_index"":0,""viewing_time"":5648.100000023842},{""page_index"":1,""viewing_time"":6320},{""page_index"":2,""viewing_time"":5327.5},{""page_index"":3,""viewing_time"":6094.5},{""page_index"":4,""viewing_time"":5942.299999952316},{""page_index"":5,""viewing_time"":5094.700000047684},{""page_index"":6,""viewing_time"":7509.099999964237},{""page_index"":7,""viewing_time"":8011.5},{""page_index"":8,""viewing_time"":6668.300000011921},{""page_index"":9,""viewing_time"":5588},{""page_index"":10,""viewing_time"":10566.5},{""page_index"":11,""viewing_time"":4707.600000023842},{""page_index"":12,""viewing_time"":6405.799999952316},{""page_index"":13,""viewing_time"":7786},{""page_index"":14,""viewing_time"":6778.100000023842},{""page_index"":15,""viewing_time"":6652.199999988079},{""page_index"":16,""viewing_time"":6374.100000023842},{""page_index"":17,""viewing_time"":8738.199999988079}]","120213","","","","","","","","","","","","","","","","","","","","","","","",""
"pit-trial","20","294089","0.0-2.0-8.0-0.0","battery-v0.2","","""event"",""trial"",""time""
""fullscreenenter"",""1"",""3016""
","
","
","""event"",""trial"",""time""
""fullscreenenter"",""1"",""3016""
","
","","","797.8999999761581","","","14","5282","2734","&#9776;","elianto","#3366ff99"," "," ","1","+10","[1652.199999988079]","1","0","1","","","","","","","",""
"pit-trial","21","297398","0.0-2.0-8.0-1.0","battery-v0.2","","""event"",""trial"",""time""
""fullscreenenter"",""1"",""3016""
","
","
","""event"",""trial"",""time""
""fullscreenenter"",""1"",""3016""
","
","","","443.5999999642372","","","14","5282","2734","&#9776;","elianto","#3366ff99"," "," ","1","+10","[1294.4000000357628]","1","0","1","","","","","","","",""
"pit-trial","22","300802","0.0-2.0-8.0-2.0","battery-v0.2","","""event"",""trial"",""time""
""fullscreenenter"",""1"",""3016""
","
","
","""event"",""trial"",""time""
""fullscreenenter"",""1"",""3016""
","
","","","540.8999999761581","","","14","5282","2734","&#9776;","elianto","#3366ff99"," "," ","1","+10","[1394.0999999642372]","1","0","1","","","","","","","",""
"pit-trial","23","304453","0.0-2.0-8.0-3.0","battery-v0.2","","""event"",""trial"",""time""
""fullscreenenter"",""1"",""3016""
","
","
","""event"",""trial"",""time""
""fullscreenenter"",""1"",""3016""
","
","","","782.5","","","14","5282","2734","&#9776;","elianto","#3366ff99"," "," ","1","0","[1637.800000011921]","1","0","1","","","","","","","",""
"pit-trial","24","307932","0.0-2.0-8.0-4.0","battery-v0.2","","""event"",""trial"",""time""
""fullscreenenter"",""1"",""3016""
","
","
","""event"",""trial"",""time""
""fullscreenenter"",""1"",""3016""
","
","","","608.5","","","14","5282","2734","&#9776;","elianto","#3366ff99"," "," ","1","+10","[1466.8999999761581]","1","0","1","","","","","","","",""
"pit-trial","25","311234","0.0-2.0-8.1-0.1","battery-v0.2","","""event"",""trial"",""time""
""fullscreenenter"",""1"",""3016""
","
","
","""event"",""trial"",""time""
""fullscreenenter"",""1"",""3016""
","
","","","434.19999998807907","","","14","5282","2734","&#9776;","elianto","#3366ff99"," "," ","1","+10","[1293.8999999761581]","1","0","1","","","","","","","",""
"pit-trial","26","314605","0.0-2.0-8.1-1.1","battery-v0.2","","""event"",""trial"",""time""
""fullscreenenter"",""1"",""3016""
","
","
","""event"",""trial"",""time""
""fullscreenenter"",""1"",""3016""
","
","","","499.89999997615814","","","14","5282","2734","&#9776;","elianto","#3366ff99"," "," ","1","+10","[1354.5999999642372]","1","0","1","","","","","","","",""
"pit-trial","27","317713","0.0-2.0-8.1-2.1","battery-v0.2","","""event"",""trial"",""time""
""fullscreenenter"",""1"",""3016""
","
","
","""event"",""trial"",""time""
""fullscreenenter"",""1"",""3016""
","
","","","253.19999998807907","","","14","5282","2734","&#9776;","elianto","#3366ff99"," "," ","1","+10","[1103.6000000238419]","1","0","1","","","","","","","",""
"pit-trial","28","320895","0.0-2.0-8.1-3.1","battery-v0.2","","""event"",""trial"",""time""
""fullscreenenter"",""1"",""3016""
","
","
","""event"",""trial"",""time""
""fullscreenenter"",""1"",""3016""
","
","","","321","","","14","5282","2734","&#9776;","elianto","#3366ff99"," "," ","1","0","[1173.199999988079]","1","0","1","","","","","","","",""
"pit-trial","29","324135","0.0-2.0-8.1-4.1","battery-v0.2","","""event"",""trial"",""time""
""fullscreenenter"",""1"",""3016""
","
","
","""event"",""trial"",""time""
""fullscreenenter"",""1"",""3016""
","
","","","382.19999998807907","","","14","5282","2734","&#9776;","elianto","#3366ff99"," "," ","1","+10","[1233]","1","0","1","","","","","","","",""
"pit-trial","30","327159","0.0-2.0-8.2-0.2","battery-v0.2","","""event"",""trial"",""time""
""fullscreenenter"",""1"",""3016""
","
","
","""event"",""trial"",""time""
""fullscreenenter"",""1"",""3016""
","
","","","163.30000001192093","","","14","5282","2734","&#9776;","elianto","#3366ff99"," "," ","1","+10","[1015.3000000119209]","1","0","1","","","","","","","",""
"pit-trial","31","330382","0.0-2.0-8.2-1.2","battery-v0.2","","""event"",""trial"",""time""
""fullscreenenter"",""1"",""3016""
","
","
","""event"",""trial"",""time""
""fullscreenenter"",""1"",""3016""
","
","","","363.9000000357628","","","14","5282","2734","&#9776;","elianto","#3366ff99"," "," ","1","+10","[1214.199999988079]","1","0","1","","","","","","","",""
"pit-trial","32","333863","0.0-2.0-8.2-2.2","battery-v0.2","","""event"",""trial"",""time""
""fullscreenenter"",""1"",""3016""
","
","
","""event"",""trial"",""time""
""fullscreenenter"",""1"",""3016""
","
","","","623","","","14","5282","2734","&#9776;","elianto","#3366ff99"," "," ","1","+10","[1476.6000000238419]","1","0","1","","","","","","","",""
"pit-trial","33","336823","0.0-2.0-8.2-3.2","battery-v0.2","","""event"",""trial"",""time""
""fullscreenenter"",""1"",""3016""
","
","
","""event"",""trial"",""time""
""fullscreenenter"",""1"",""3016""
","
","","","96.90000003576279","","","14","5282","2734","&#9776;","elianto","#3366ff99"," "," ","1","0","[951.3999999761581]","1","0","1","","","","","","","",""
"pit-trial","34","340054","0.0-2.0-8.2-4.2","battery-v0.2","","""event"",""trial"",""time""
""fullscreenenter"",""1"",""3016""
","
","
","""event"",""trial"",""time""
""fullscreenenter"",""1"",""3016""
","
","","","372.7999999523163","","","14","5282","2734","&#9776;","elianto","#3366ff99"," "," ","1","+10","[1225]","1","0","1","","","","","","","",""
"call-function","35","340056","0.0-2.0-9.0","battery-v0.2","","""event"",""trial"",""time""
""fullscreenenter"",""1"",""3016""
","
","
","""event"",""trial"",""time""
""fullscreenenter"",""1"",""3016""
","
","","","","","","","","","","","","","","","","","","","","","","","","","","",""
"pit-instructions","36","377666","0.0-2.0-10.0","battery-v0.2","","""event"",""trial"",""time""
""fullscreenenter"",""1"",""3016""
","
","
","""event"",""trial"",""time""
""fullscreenenter"",""1"",""3016""
","
","","[{""page_index"":0,""viewing_time"":5761.700000047684},{""page_index"":1,""viewing_time"":6566.299999952316},{""page_index"":2,""viewing_time"":9017.900000035763},{""page_index"":3,""viewing_time"":8727.599999964237},{""page_index"":4,""viewing_time"":7534.200000047684}]","37608.200000047684","","","","","","","","","","","","","","","","","","","","","","","",""
"pit-trial","37","381937","0.0-2.0-11.0-0.0","battery-v0.2","","""event"",""trial"",""time""
""fullscreenenter"",""1"",""3016""
","
","
","""event"",""trial"",""time""
""fullscreenenter"",""1"",""3016""
","
","","","1412.300000011921","","","14","5282","2734","&#9761;","elianto","#3366ff99","-1"," ","0","0","[2264.100000023842]","1","0","2","","","","","","","",""
"pit-trial","38","386813","0.0-2.0-11.0-1.0","battery-v0.2","","""event"",""trial"",""time""
""fullscreenenter"",""1"",""3016""
","
","
","""event"",""trial"",""time""
""fullscreenenter"",""1"",""3016""
","
","","","-1","","","14","5282","2734","&#9761;","elianto","#3366ff99","-1","-1","1","+10","[]","0","0","2","","","","","","","",""
"pit-trial","39","391671","0.0-2.0-11.0-2.0","battery-v0.2","","""event"",""trial"",""time""
""fullscreenenter"",""1"",""3016""
","
","
","""event"",""trial"",""time""
""fullscreenenter"",""1"",""3016""
","
","","","-1","","","14","5282","2734","&#9761;","elianto","#3366ff99","-1","-1","1","+10","[]","0","0","2","","","","","","","",""
"pit-trial","40","396534","0.0-2.0-11.0-3.0","battery-v0.2","","""event"",""trial"",""time""
""fullscreenenter"",""1"",""3016""
","
","
","""event"",""trial"",""time""
""fullscreenenter"",""1"",""3016""
","
","","","-1","","","14","5282","2734","&#9761;","elianto","#3366ff99","-1","-1","1","0","[]","0","0","2","","","","","","","",""
"pit-trial","41","401397","0.0-2.0-11.0-4.0","battery-v0.2","","""event"",""trial"",""time""
""fullscreenenter"",""1"",""3016""
","
","
","""event"",""trial"",""time""
""fullscreenenter"",""1"",""3016""
","
","","","-1","","","14","5282","2734","&#9761;","elianto","#3366ff99","-1","-1","1","+10","[]","0","0","2","","","","","","","",""
"pit-trial","42","406259","0.0-2.0-11.1-0.1","battery-v0.2","","""event"",""trial"",""time""
""fullscreenenter"",""1"",""3016""
","
","
","""event"",""trial"",""time""
""fullscreenenter"",""1"",""3016""
","
","","","-1","","","14","5282","2734","&#9761;","elianto","#3366ff99","-1","-1","1","+10","[]","0","0","2","","","","","","","",""
"pit-trial","43","411122","0.0-2.0-11.1-1.1","battery-v0.2","","""event"",""trial"",""time""
""fullscreenenter"",""1"",""3016""
","
","
","""event"",""trial"",""time""
""fullscreenenter"",""1"",""3016""
","
","","","-1","","","14","5282","2734","&#9761;","elianto","#3366ff99","-1","-1","1","+10","[]","0","0","2","","","","","","","",""
"pit-trial","44","415983","0.0-2.0-11.1-2.1","battery-v0.2","","""event"",""trial"",""time""
""fullscreenenter"",""1"",""3016""
","
","
","""event"",""trial"",""time""
""fullscreenenter"",""1"",""3016""
","
","","","-1","","","14","5282","2734","&#9761;","elianto","#3366ff99","-1","-1","1","+10","[]","0","0","2","","","","","","","",""
"pit-trial","45","420846","0.0-2.0-11.1-3.1","battery-v0.2","","""event"",""trial"",""time""
""fullscreenenter"",""1"",""3016""
","
","
","""event"",""trial"",""time""
""fullscreenenter"",""1"",""3016""
","
","","","-1","","","14","5282","2734","&#9761;","elianto","#3366ff99","-1","-1","1","0","[]","0","0","2","","","","","","","",""
"pit-trial","46","425702","0.0-2.0-11.1-4.1","battery-v0.2","","""event"",""trial"",""time""
""fullscreenenter"",""1"",""3016""
","
","
","""event"",""trial"",""time""
""fullscreenenter"",""1"",""3016""
","
","","","-1","","","14","5282","2734","&#9761;","elianto","#3366ff99","-1","-1","1","+10","[]","0","0","2","","","","","","","",""
"pit-trial","47","430558","0.0-2.0-11.2-0.2","battery-v0.2","","""event"",""trial"",""time""
""fullscreenenter"",""1"",""3016""
","
","
","""event"",""trial"",""time""
""fullscreenenter"",""1"",""3016""
","
","","","-1","","","14","5282","2734","&#9761;","elianto","#3366ff99","-1","-1","1","+10","[]","0","0","2","","","","","","","",""
"pit-trial","48","435417","0.0-2.0-11.2-1.2","battery-v0.2","","""event"",""trial"",""time""
""fullscreenenter"",""1"",""3016""
","
","
","""event"",""trial"",""time""
""fullscreenenter"",""1"",""3016""
","
","","","-1","","","14","5282","2734","&#9761;","elianto","#3366ff99","-1","-1","1","+10","[]","0","0","2","","","","","","","",""
"pit-trial","49","440279","0.0-2.0-11.2-2.2","battery-v0.2","","""event"",""trial"",""time""
""fullscreenenter"",""1"",""3016""
","
","
","""event"",""trial"",""time""
""fullscreenenter"",""1"",""3016""
","
","","","-1","","","14","5282","2734","&#9761;","elianto","#3366ff99","-1","-1","1","+10","[]","0","0","2","","","","","","","",""
"pit-trial","50","445135","0.0-2.0-11.2-3.2","battery-v0.2","","""event"",""trial"",""time""
""fullscreenenter"",""1"",""3016""
","
","
","""event"",""trial"",""time""
""fullscreenenter"",""1"",""3016""
","
","","","-1","","","14","5282","2734","&#9761;","elianto","#3366ff99","-1","-1","1","0","[]","0","0","2","","","","","","","",""
"pit-trial","51","449991","0.0-2.0-11.2-4.2","battery-v0.2","","""event"",""trial"",""time""
""fullscreenenter"",""1"",""3016""
","
","
","""event"",""trial"",""time""
""fullscreenenter"",""1"",""3016""
","
","","","-1","","","14","5282","2734","&#9761;","elianto","#3366ff99","-1","-1","1","+10","[]","0","0","2","","","","","","","",""
"pit-trial","52","454850","0.0-2.0-11.3-0.3","battery-v0.2","","""event"",""trial"",""time""
""fullscreenenter"",""1"",""3016""
","
","
","""event"",""trial"",""time""
""fullscreenenter"",""1"",""3016""
","
","","","-1","","","14","5282","2734","&#9761;","elianto","#3366ff99","-1","-1","1","+10","[]","0","0","2","","","","","","","",""
"pit-trial","53","459713","0.0-2.0-11.3-1.3","battery-v0.2","","""event"",""trial"",""time""
""fullscreenenter"",""1"",""3016""
","
","
","""event"",""trial"",""time""
""fullscreenenter"",""1"",""3016""
","
","","","-1","","","14","5282","2734","&#9761;","elianto","#3366ff99","-1","-1","1","+10","[]","0","0","2","","","","","","","",""
"pit-trial","54","464575","0.0-2.0-11.3-2.3","battery-v0.2","","""event"",""trial"",""time""
""fullscreenenter"",""1"",""3016""
","
","
","""event"",""trial"",""time""
""fullscreenenter"",""1"",""3016""
","
","","","-1","","","14","5282","2734","&#9761;","elianto","#3366ff99","-1","-1","1","+10","[]","0","0","2","","","","","","","",""
"pit-trial","55","469439","0.0-2.0-11.3-3.3","battery-v0.2","","""event"",""trial"",""time""
""fullscreenenter"",""1"",""3016""
","
","
","""event"",""trial"",""time""
""fullscreenenter"",""1"",""3016""
","
","","","-1","","","14","5282","2734","&#9761;","elianto","#3366ff99","-1","-1","1","0","[]","0","0","2","","","","","","","",""
"pit-trial","56","474304","0.0-2.0-11.3-4.3","battery-v0.2","","""event"",""trial"",""time""
""fullscreenenter"",""1"",""3016""
","
","
","""event"",""trial"",""time""
""fullscreenenter"",""1"",""3016""
","
","","","-1","","","14","5282","2734","&#9761;","elianto","#3366ff99","-1","-1","1","+10","[]","0","0","2","","","","","","","",""
"call-function","57","474307","0.0-2.0-12.0","battery-v0.2","","""event"",""trial"",""time""
""fullscreenenter"",""1"",""3016""
","
","
","""event"",""trial"",""time""
""fullscreenenter"",""1"",""3016""
","
","","","","","","","","","","","","","","","","","","","","","","","","","","",""
"pit-instructions","58","505105","0.0-2.0-13.0","battery-v0.2","","""event"",""trial"",""time""
""fullscreenenter"",""1"",""3016""
","
","
","""event"",""trial"",""time""
""fullscreenenter"",""1"",""3016""
","
","","[{""page_index"":0,""viewing_time"":5176.799999952316},{""page_index"":1,""viewing_time"":7297},{""page_index"":2,""viewing_time"":3400.300000011921},{""page_index"":3,""viewing_time"":10198.199999988079},{""page_index"":4,""viewing_time"":4724.300000011921}]","30797.19999998808","","","","","","","","","","","","","","","","","","","","","","","",""
"pit-trial","59","508739","0.0-2.0-14.0-0.0","battery-v0.2","","""event"",""trial"",""time""
""fullscreenenter"",""1"",""3016""
","
","
","""event"",""trial"",""time""
""fullscreenenter"",""1"",""3016""
","
","","","769","","","14","5282","2734","&#9826;","elianto","#f73b6a7A","-1"," ","0","-10","[1619.199999988079]","1","0","3","","","","","","","",""
"pit-trial","60","513617","0.0-2.0-14.0-1.0","battery-v0.2","","""event"",""trial"",""time""
""fullscreenenter"",""1"",""3016""
","
","
","""event"",""trial"",""time""
""fullscreenenter"",""1"",""3016""
","
","","","-1","","","14","5282","2734","&#9826;","elianto","#f73b6a7A","-1","-1","1","0","[]","0","0","3","","","","","","","",""
"pit-trial","61","518491","0.0-2.0-14.0-2.0","battery-v0.2","","""event"",""trial"",""time""
""fullscreenenter"",""1"",""3016""
","
","
","""event"",""trial"",""time""
""fullscreenenter"",""1"",""3016""
","
","","","-1","","","14","5282","2734","&#9826;","elianto","#f73b6a7A","-1","-1","1","0","[]","0","0","3","","","","","","","",""
"pit-trial","62","523367","0.0-2.0-14.0-3.0","battery-v0.2","","""event"",""trial"",""time""
""fullscreenenter"",""1"",""3016""
","
","
","""event"",""trial"",""time""
""fullscreenenter"",""1"",""3016""
","
","","","-1","","","14","5282","2734","&#9826;","elianto","#f73b6a7A","-1","-1","1","-10","[]","0","0","3","","","","","","","",""
"pit-trial","63","528240","0.0-2.0-14.0-4.0","battery-v0.2","","""event"",""trial"",""time""
""fullscreenenter"",""1"",""3016""
","
","
","""event"",""trial"",""time""
""fullscreenenter"",""1"",""3016""
","
","","","-1","","","14","5282","2734","&#9826;","elianto","#f73b6a7A","-1","-1","1","0","[]","0","0","3","","","","","","","",""
"pit-trial","64","533111","0.0-2.0-14.1-0.1","battery-v0.2","","""event"",""trial"",""time""
""fullscreenenter"",""1"",""3016""
","
","
","""event"",""trial"",""time""
""fullscreenenter"",""1"",""3016""
","
","","","-1","","","14","5282","2734","&#9826;","elianto","#f73b6a7A","-1","-1","1","0","[]","0","0","3","","","","","","","",""
"pit-trial","65","537975","0.0-2.0-14.1-1.1","battery-v0.2","","""event"",""trial"",""time""
""fullscreenenter"",""1"",""3016""
","
","
","""event"",""trial"",""time""
""fullscreenenter"",""1"",""3016""
","
","","","-1","","","14","5282","2734","&#9826;","elianto","#f73b6a7A","-1","-1","1","0","[]","0","0","3","","","","","","","",""
"pit-trial","66","542841","0.0-2.0-14.1-2.1","battery-v0.2","","""event"",""trial"",""time""
""fullscreenenter"",""1"",""3016""
","
","
","""event"",""trial"",""time""
""fullscreenenter"",""1"",""3016""
","
","","","-1","","","14","5282","2734","&#9826;","elianto","#f73b6a7A","-1","-1","1","0","[]","0","0","3","","","","","","","",""
"pit-trial","67","547704","0.0-2.0-14.1-3.1","battery-v0.2","","""event"",""trial"",""time""
""fullscreenenter"",""1"",""3016""
","
","
","""event"",""trial"",""time""
""fullscreenenter"",""1"",""3016""
","
","","","-1","","","14","5282","2734","&#9826;","elianto","#f73b6a7A","-1","-1","1","-10","[]","0","0","3","","","","","","","",""
"pit-trial","68","552568","0.0-2.0-14.1-4.1","battery-v0.2","","""event"",""trial"",""time""
""fullscreenenter"",""1"",""3016""
","
","
","""event"",""trial"",""time""
""fullscreenenter"",""1"",""3016""
","
","","","-1","","","14","5282","2734","&#9826;","elianto","#f73b6a7A","-1","-1","1","0","[]","0","0","3","","","","","","","",""
"pit-trial","69","557431","0.0-2.0-14.2-0.2","battery-v0.2","","""event"",""trial"",""time""
""fullscreenenter"",""1"",""3016""
","
","
","""event"",""trial"",""time""
""fullscreenenter"",""1"",""3016""
","
","","","-1","","","14","5282","2734","&#9826;","elianto","#f73b6a7A","-1","-1","1","0","[]","0","0","3","","","","","","","",""
"pit-trial","70","562297","0.0-2.0-14.2-1.2","battery-v0.2","","""event"",""trial"",""time""
""fullscreenenter"",""1"",""3016""
","
","
","""event"",""trial"",""time""
""fullscreenenter"",""1"",""3016""
","
","","","-1","","","14","5282","2734","&#9826;","elianto","#f73b6a7A","-1","-1","1","0","[]","0","0","3","","","","","","","",""
"pit-trial","71","567160","0.0-2.0-14.2-2.2","battery-v0.2","","""event"",""trial"",""time""
""fullscreenenter"",""1"",""3016""
","
","
","""event"",""trial"",""time""
""fullscreenenter"",""1"",""3016""
","
","","","-1","","","14","5282","2734","&#9826;","elianto","#f73b6a7A","-1","-1","1","0","[]","0","0","3","","","","","","","",""
"pit-trial","72","572024","0.0-2.0-14.2-3.2","battery-v0.2","","""event"",""trial"",""time""
""fullscreenenter"",""1"",""3016""
","
","
","""event"",""trial"",""time""
""fullscreenenter"",""1"",""3016""
","
","","","-1","","","14","5282","2734","&#9826;","elianto","#f73b6a7A","-1","-1","1","-10","[]","0","0","3","","","","","","","",""
"pit-trial","73","576887","0.0-2.0-14.2-4.2","battery-v0.2","","""event"",""trial"",""time""
""fullscreenenter"",""1"",""3016""
","
","
","""event"",""trial"",""time""
""fullscreenenter"",""1"",""3016""
","
","","","-1","","","14","5282","2734","&#9826;","elianto","#f73b6a7A","-1","-1","1","0","[]","0","0","3","","","","","","","",""
"pit-trial","74","581752","0.0-2.0-14.3-0.3","battery-v0.2","","""event"",""trial"",""time""
""fullscreenenter"",""1"",""3016""
","
","
","""event"",""trial"",""time""
""fullscreenenter"",""1"",""3016""
","
","","","-1","","","14","5282","2734","&#9826;","elianto","#f73b6a7A","-1","-1","1","0","[]","0","0","3","","","","","","","",""
"pit-trial","75","586615","0.0-2.0-14.3-1.3","battery-v0.2","","""event"",""trial"",""time""
""fullscreenenter"",""1"",""3016""
","
","
","""event"",""trial"",""time""
""fullscreenenter"",""1"",""3016""
","
","","","-1","","","14","5282","2734","&#9826;","elianto","#f73b6a7A","-1","-1","1","0","[]","0","0","3","","","","","","","",""
"pit-trial","76","591480","0.0-2.0-14.3-2.3","battery-v0.2","","""event"",""trial"",""time""
""fullscreenenter"",""1"",""3016""
","
","
","""event"",""trial"",""time""
""fullscreenenter"",""1"",""3016""
","
","","","-1","","","14","5282","2734","&#9826;","elianto","#f73b6a7A","-1","-1","1","0","[]","0","0","3","","","","","","","",""
"pit-trial","77","596343","0.0-2.0-14.3-3.3","battery-v0.2","","""event"",""trial"",""time""
""fullscreenenter"",""1"",""3016""
","
","
","""event"",""trial"",""time""
""fullscreenenter"",""1"",""3016""
","
","","","-1","","","14","5282","2734","&#9826;","elianto","#f73b6a7A","-1","-1","1","-10","[]","0","0","3","","","","","","","",""
"pit-trial","78","601208","0.0-2.0-14.3-4.3","battery-v0.2","","""event"",""trial"",""time""
""fullscreenenter"",""1"",""3016""
","
","
","""event"",""trial"",""time""
""fullscreenenter"",""1"",""3016""
","
","","","-1","","","14","5282","2734","&#9826;","elianto","#f73b6a7A","-1","-1","1","0","[]","0","0","3","","","","","","","",""
"call-function","79","601211","0.0-2.0-15.0","battery-v0.2","","""event"",""trial"",""time""
""fullscreenenter"",""1"",""3016""
","
","
","""event"",""trial"",""time""
""fullscreenenter"",""1"",""3016""
","
","","","","","","","","","","","","","","","","","","","","","","","","","","",""
"pit-instructions","80","625815","0.0-2.0-16.0","battery-v0.2","","""event"",""trial"",""time""
""fullscreenenter"",""1"",""3016""
","
","
","""event"",""trial"",""time""
""fullscreenenter"",""1"",""3016""
","
","","[{""page_index"":0,""viewing_time"":7180.799999952316},{""page_index"":1,""viewing_time"":8243.800000011921},{""page_index"":2,""viewing_time"":4140.100000023842},{""page_index"":3,""viewing_time"":5038}]","24603.299999952316","","","","","","","","","","","","","","","","","","","","","","","",""
"pit-trial","81","629666","0.0-2.0-17.0-0.0","battery-v0.2","","""event"",""trial"",""time""
""fullscreenenter"",""1"",""3016""
","
","
","""event"",""trial"",""time""
""fullscreenenter"",""1"",""3016""
","
","","","987.1000000238419","","","14","5282","2734","&#9789;","elianto","#f73b6a7A"," "," ","1","0","[1837.6000000238419]","1","0","4","","","","","","","",""
"pit-trial","82","632931","0.0-2.0-17.0-1.0","battery-v0.2","","""event"",""trial"",""time""
""fullscreenenter"",""1"",""3016""
","
","
","""event"",""trial"",""time""
""fullscreenenter"",""1"",""3016""
","
","","","392.5999999642372","","","14","5282","2734","&#9789;","elianto","#f73b6a7A"," "," ","1","0","[1244]","1","0","4","","","","","","","",""
"pit-trial","83","636164","0.0-2.0-17.0-2.0","battery-v0.2","","""event"",""trial"",""time""
""fullscreenenter"",""1"",""3016""
","
","
","""event"",""trial"",""time""
""fullscreenenter"",""1"",""3016""
","
","","","359.19999998807907","","","14","5282","2734","&#9789;","elianto","#f73b6a7A"," "," ","1","0","[793,1219.2999999523163]","2","0","4","","","","","","","",""
"pit-trial","84","639233","0.0-2.0-17.0-3.0","battery-v0.2","","""event"",""trial"",""time""
""fullscreenenter"",""1"",""3016""
","
","
","""event"",""trial"",""time""
""fullscreenenter"",""1"",""3016""
","
","","","194.89999997615814","","","14","5282","2734","&#9789;","elianto","#f73b6a7A"," "," ","1","-10","[1053.0999999642372]","1","0","4","","","","","","","",""
"pit-trial","85","642282","0.0-2.0-17.0-4.0","battery-v0.2","","""event"",""trial"",""time""
""fullscreenenter"",""1"",""3016""
","
","
","""event"",""trial"",""time""
""fullscreenenter"",""1"",""3016""
","
","","","185.0999999642372","","","14","5282","2734","&#9789;","elianto","#f73b6a7A"," "," ","1","0","[1038.0999999642372]","1","0","4","","","","","","","",""
"pit-trial","86","645576","0.0-2.0-17.1-0.1","battery-v0.2","","""event"",""trial"",""time""
""fullscreenenter"",""1"",""3016""
","
","
","""event"",""trial"",""time""
""fullscreenenter"",""1"",""3016""
","
","","","429.19999998807907","","","14","5282","2734","&#9789;","elianto","#f73b6a7A"," "," ","1","0","[763.5,1279.699999988079]","2","0","4","","","","","","","",""
"pit-trial","87","648645","0.0-2.0-17.1-1.1","battery-v0.2","","""event"",""trial"",""time""
""fullscreenenter"",""1"",""3016""
","
","
","""event"",""trial"",""time""
""fullscreenenter"",""1"",""3016""
","
","","","196","","","14","5282","2734","&#9789;","elianto","#f73b6a7A"," "," ","1","0","[1049.5999999642372]","1","0","4","","","","","","","",""
"pit-trial","88","651765","0.0-2.0-17.1-2.1","battery-v0.2","","""event"",""trial"",""time""
""fullscreenenter"",""1"",""3016""
","
","
","""event"",""trial"",""time""
""fullscreenenter"",""1"",""3016""
","
","","","254.39999997615814","","","14","5282","2734","&#9789;","elianto","#f73b6a7A"," "," ","1","0","[1106.0999999642372]","1","0","4","","","","","","","",""
"pit-trial","89","654855","0.0-2.0-17.1-3.1","battery-v0.2","","""event"",""trial"",""time""
""fullscreenenter"",""1"",""3016""
","
","
","""event"",""trial"",""time""
""fullscreenenter"",""1"",""3016""
","
","","","218.69999998807907","","","14","5282","2734","&#9789;","elianto","#f73b6a7A"," "," ","1","-10","[1075.7000000476837]","1","0","4","","","","","","","",""
"pit-trial","90","657927","0.0-2.0-17.1-4.1","battery-v0.2","","""event"",""trial"",""time""
""fullscreenenter"",""1"",""3016""
","
","
","""event"",""trial"",""time""
""fullscreenenter"",""1"",""3016""
","
","","","215.0999999642372","","","14","5282","2734","&#9789;","elianto","#f73b6a7A"," "," ","1","0","[1066.5]","1","0","4","","","","","","","",""
"pit-trial","91","661255","0.0-2.0-17.2-0.2","battery-v0.2","","""event"",""trial"",""time""
""fullscreenenter"",""1"",""3016""
","
","
","""event"",""trial"",""time""
""fullscreenenter"",""1"",""3016""
","
","","","470.9000000357628","","","14","5282","2734","&#9789;","elianto","#f73b6a7A"," "," ","1","0","[1322.5999999642372]","1","0","4","","","","","","","",""
"pit-trial","92","664159","0.0-2.0-17.2-1.2","battery-v0.2","","""event"",""trial"",""time""
""fullscreenenter"",""1"",""3016""
","
","
","""event"",""trial"",""time""
""fullscreenenter"",""1"",""3016""
","
","","","43.60000002384186","","","14","5282","2734","&#9789;","elianto","#f73b6a7A"," "," ","1","0","[896.9000000357628]","1","0","4","","","","","","","",""
"pit-trial","93","667639","0.0-2.0-17.2-2.2","battery-v0.2","","""event"",""trial"",""time""
""fullscreenenter"",""1"",""3016""
","
","
","""event"",""trial"",""time""
""fullscreenenter"",""1"",""3016""
","
","","","621.5","","","14","5282","2734","&#9789;","elianto","#f73b6a7A"," "," ","1","0","[840.3000000119209,1474.8999999761581]","2","0","4","","","","","","","",""
"pit-trial","94","671592","0.0-2.0-17.2-3.2","battery-v0.2","","""event"",""trial"",""time""
""fullscreenenter"",""1"",""3016""
","
","
","""event"",""trial"",""time""
""fullscreenenter"",""1"",""3016""
","
","","","1091","","","14","5282","2734","&#9789;","elianto","#f73b6a7A"," "," ","1","-10","[1946.1000000238419]","1","0","4","","","","","","","",""
"pit-trial","95","675055","0.0-2.0-17.2-4.2","battery-v0.2","","""event"",""trial"",""time""
""fullscreenenter"",""1"",""3016""
","
","
","""event"",""trial"",""time""
""fullscreenenter"",""1"",""3016""
","
","","","603.2000000476837","","","14","5282","2734","&#9789;","elianto","#f73b6a7A"," "," ","1","0","[1457]","1","0","4","","","","","","","",""
"pit-trial","96","678150","0.0-2.0-17.3-0.3","battery-v0.2","","""event"",""trial"",""time""
""fullscreenenter"",""1"",""3016""
","
","
","""event"",""trial"",""time""
""fullscreenenter"",""1"",""3016""
","
","","","237.39999997615814","","","14","5282","2734","&#9789;","elianto","#f73b6a7A"," "," ","1","0","[1089.300000011921]","1","0","4","","","","","","","",""
"pit-trial","97","681343","0.0-2.0-17.3-1.3","battery-v0.2","","""event"",""trial"",""time""
""fullscreenenter"",""1"",""3016""
","
","
","""event"",""trial"",""time""
""fullscreenenter"",""1"",""3016""
","
","","","332.19999998807907","","","14","5282","2734","&#9789;","elianto","#f73b6a7A"," "," ","1","0","[833.6999999880791,1183.5]","2","0","4","","","","","","","",""
"pit-trial","98","684407","0.0-2.0-17.3-2.3","battery-v0.2","","""event"",""trial"",""time""
""fullscreenenter"",""1"",""3016""
","
","
","""event"",""trial"",""time""
""fullscreenenter"",""1"",""3016""
","
","","","204.89999997615814","","","14","5282","2734","&#9789;","elianto","#f73b6a7A"," "," ","1","0","[1058.199999988079]","1","0","4","","","","","","","",""
"pit-trial","99","687927","0.0-2.0-17.3-3.3","battery-v0.2","","""event"",""trial"",""time""
""fullscreenenter"",""1"",""3016""
","
","
","""event"",""trial"",""time""
""fullscreenenter"",""1"",""3016""
","
","","","660.1999999880791","","","14","5282","2734","&#9789;","elianto","#f73b6a7A"," "," ","1","-10","[1513.0999999642372]","1","0","4","","","","","","","",""
"pit-trial","100","691096","0.0-2.0-17.3-4.3","battery-v0.2","","""event"",""trial"",""time""
""fullscreenenter"",""1"",""3016""
","
","
","""event"",""trial"",""time""
""fullscreenenter"",""1"",""3016""
","
","","","306.80000001192093","","","14","5282","2734","&#9789;","elianto","#f73b6a7A"," "," ","1","0","[1158.300000011921]","1","0","4","","","","","","","",""
"call-function","101","691098","0.0-2.0-18.0","battery-v0.2","","""event"",""trial"",""time""
""fullscreenenter"",""1"",""3016""
","
","
","""event"",""trial"",""time""
""fullscreenenter"",""1"",""3016""
","
","","","","","","","","","","","","","","","","","","","","","","","","","","",""
"pit-instructions","102","755335","0.0-2.0-19.0","battery-v0.2","","""event"",""trial"",""time""
""fullscreenenter"",""1"",""3016""
","
","
","""event"",""trial"",""time""
""fullscreenenter"",""1"",""3016""
","
","","[{""page_index"":0,""viewing_time"":6629},{""page_index"":1,""viewing_time"":5969.400000035763},{""page_index"":2,""viewing_time"":9106.899999976158},{""page_index"":3,""viewing_time"":8848.699999988079},{""page_index"":4,""viewing_time"":8051.900000035763},{""page_index"":5,""viewing_time"":8169.899999976158},{""page_index"":6,""viewing_time"":8038.300000011921},{""page_index"":7,""viewing_time"":5713.800000011921},{""page_index"":8,""viewing_time"":3708.099999964237}]","64236.30000001192","","","","","","","","","","","","","","","","","","","","","","","",""
"pit-comprehension","103","760027","0.0-2.0-20.0-0.0","battery-v0.2","","""event"",""trial"",""time""
""fullscreenenter"",""1"",""3016""
","
","
","""event"",""trial"",""time""
""fullscreenenter"",""1"",""3016""
","
","","","4688.600000023842","[""SPACE""]","0","14","5282","2734","","","","","","","","","","","","","","","","","","",""
"pit-instructions","104","762985","0.0-2.0-20.0-1.0","battery-v0.2","","""event"",""trial"",""time""
""fullscreenenter"",""1"",""3016""
","
","
","""event"",""trial"",""time""
""fullscreenenter"",""1"",""3016""
","
","","[{""page_index"":0,""viewing_time"":2914.600000023842}]","2914.900000035763","","","","","","","","","","","","","","","","","","","","","","","",""
"pit-comprehension","105","768857","0.0-2.0-21.0-0.0","battery-v0.2","","""event"",""trial"",""time""
""fullscreenenter"",""1"",""3016""
","
","
","""event"",""trial"",""time""
""fullscreenenter"",""1"",""3016""
","
","","","5870.5","[""10""]","0","14","5282","2734","","","","","","","","","","","","","","","","","","",""
"pit-instructions","106","770275","0.0-2.0-21.0-1.0","battery-v0.2","","""event"",""trial"",""time""
""fullscreenenter"",""1"",""3016""
","
","
","""event"",""trial"",""time""
""fullscreenenter"",""1"",""3016""
","
","","[{""page_index"":0,""viewing_time"":1381.300000011921}]","1381.6000000238419","","","","","","","","","","","","","","","","","","","","","","","",""
"pit-comprehension","107","782255","0.0-2.0-22.0-0.0","battery-v0.2","","""event"",""trial"",""time""
""fullscreenenter"",""1"",""3016""
","
","
","""event"",""trial"",""time""
""fullscreenenter"",""1"",""3016""
","
","","","11977.099999964237","[""0""]","0","14","5282","2734","","","","","","","","","","","","","","","","","","",""
"pit-instructions","108","783780","0.0-2.0-22.0-1.0","battery-v0.2","","""event"",""trial"",""time""
""fullscreenenter"",""1"",""3016""
","
","
","""event"",""trial"",""time""
""fullscreenenter"",""1"",""3016""
","
","","[{""page_index"":0,""viewing_time"":1489.5999999642372}]","1489.7999999523163","","","","","","","","","","","","","","","","","","","","","","","",""
"pit-comprehension","109","792669","0.0-2.0-23.0-0.0","battery-v0.2","","""event"",""trial"",""time""
""fullscreenenter"",""1"",""3016""
","
","
","""event"",""trial"",""time""
""fullscreenenter"",""1"",""3016""
","
","","","8887.099999964237","[""True""]","0","14","5282","2734","","","","","","","","","","","","","","","","","","",""
"pit-instructions","110","794068","0.0-2.0-23.0-1.0","battery-v0.2","","""event"",""trial"",""time""
""fullscreenenter"",""1"",""3016""
","
","
","""event"",""trial"",""time""
""fullscreenenter"",""1"",""3016""
","
","","[{""page_index"":0,""viewing_time"":1365.0999999642372}]","1365.3999999761581","","","","","","","","","","","","","","","","","","","","","","","",""
"pit-comprehension","111","801461","0.0-2.0-24.0-0.0","battery-v0.2","","""event"",""trial"",""time""
""fullscreenenter"",""1"",""3016""
","
","
","""event"",""trial"",""time""
""fullscreenenter"",""1"",""3016""
","
","","","7391","[""True""]","0","14","5282","2734","","","","","","","","","","","","","","","","","","",""
"pit-instructions","112","802838","0.0-2.0-24.0-1.0","battery-v0.2","","""event"",""trial"",""time""
""fullscreenenter"",""1"",""3016""
","
","
","""event"",""trial"",""time""
""fullscreenenter"",""1"",""3016""
","
","","[{""page_index"":0,""viewing_time"":1344.6000000238419}]","1344.800000011921","","","","","","","","","","","","","","","","","","","","","","","",""
"pit-comprehension","113","809253","0.0-2.0-25.0-0.0","battery-v0.2","","""event"",""trial"",""time""
""fullscreenenter"",""1"",""3016""
","
","
","""event"",""trial"",""time""
""fullscreenenter"",""1"",""3016""
","
","","","6413.300000011921","[""True""]","0","14","5282","2734","","","","","","","","","","","","","","","","","","",""
"pit-instructions","114","810677","0.0-2.0-25.0-1.0","battery-v0.2","","""event"",""trial"",""time""
""fullscreenenter"",""1"",""3016""
","
","
","""event"",""trial"",""time""
""fullscreenenter"",""1"",""3016""
","
","","[{""page_index"":0,""viewing_time"":1390.699999988079}]","1391","","","","","","","","","","","","","","","","","","","","","","","",""
"pit-comprehension","115","818131","0.0-2.0-26.0-0.0","battery-v0.2","","""event"",""trial"",""time""
""fullscreenenter"",""1"",""3016""
","
","
","""event"",""trial"",""time""
""fullscreenenter"",""1"",""3016""
","
","","","7451.600000023842","[""False""]","0","14","5282","2734","","","","","","","","","","","","","","","","","","",""
"pit-instructions","116","819477","0.0-2.0-26.0-1.0","battery-v0.2","","""event"",""trial"",""time""
""fullscreenenter"",""1"",""3016""
","
","
","""event"",""trial"",""time""
""fullscreenenter"",""1"",""3016""
","
","","[{""page_index"":0,""viewing_time"":1311.800000011921}]","1312.199999988079","","","","","","","","","","","","","","","","","","","","","","","",""
"pit-instructions","117","835254","0.0-3.0","battery-v0.2","","""event"",""trial"",""time""
""fullscreenenter"",""1"",""3016""
","
","
","""event"",""trial"",""time""
""fullscreenenter"",""1"",""3016""
","
","","[{""page_index"":0,""viewing_time"":3375},{""page_index"":1,""viewing_time"":5178.800000011921},{""page_index"":2,""viewing_time"":7220.800000011921}]","15774.900000035763","","","","","","","","","","","","","","","","","","","","","","","",""
"pit-trial","118","838978","0.0-4.0","battery-v0.2","","""event"",""trial"",""time""
""fullscreenenter"",""1"",""3016""
","
","
","""event"",""trial"",""time""
""fullscreenenter"",""1"",""3016""
","
","","","853.5","","","14","5282","2734","&#9728;","elianto","#f73b6a7A","-1"," ","0","0","[1708.1000000238419]","1","1","","","5282","1","0","4","lose","no-go","1"
"pit-trial","119","842992","0.0-5.0","battery-v0.2","","""event"",""trial"",""time""
""fullscreenenter"",""1"",""3016""
","
","
","""event"",""trial"",""time""
""fullscreenenter"",""1"",""3016""
","
","","","1151","","","14","5282","2734","&#9752;","elianto","#f73b6a7A"," "," ","1","-10","[2002.9000000357628]","1","1","","","5282","2","3","3","lose","go","1"
"pit-trial","120","847059","0.0-6.0","battery-v0.2","","""event"",""trial"",""time""
""fullscreenenter"",""1"",""3016""
","
","
","""event"",""trial"",""time""
""fullscreenenter"",""1"",""3016""
","
","","","1207.1000000238419","","","14","5282","2734","&#9733;","elianto","#3366ff99","-1"," ","0","0","[2058.800000011921]","1","1","","","5282","3","2","2","win","no-go","0"
"pit-trial","121","850615","0.0-7.0","battery-v0.2","","""event"",""trial"",""time""
""fullscreenenter"",""1"",""3016""
","
","
","""event"",""trial"",""time""
""fullscreenenter"",""1"",""3016""
","
","","","688.8000000119209","","","14","5282","2734","&#9730;","elianto","#3366ff99"," "," ","1","+10","[1551.300000011921]","1","1","","","5282","4","1","1","win","go","0"
"pit-trial","122","855488","0.0-8.0","battery-v0.2","","""event"",""trial"",""time""
""fullscreenenter"",""1"",""3016""
","
","
","""event"",""trial"",""time""
""fullscreenenter"",""1"",""3016""
","
","","","-1","","","14","5282","2734","&#9752;","elianto","#f73b6a7A"," ","-1","0","-10","[]","0","1","","","5282","5","3","3","lose","go","0"
"pit-trial","123","859882","0.0-9.0","battery-v0.2","","""event"",""trial"",""time""
""fullscreenenter"",""1"",""3016""
","
","
","""event"",""trial"",""time""
""fullscreenenter"",""1"",""3016""
","
","","","1530.4000000357628","","","14","5282","2734","&#9730;","elianto","#3366ff99"," "," ","1","+10","[2389.100000023842]","1","1","","","5282","6","1","1","win","go","0"
"pit-trial","124","864752","0.0-10.0","battery-v0.2","","""event"",""trial"",""time""
""fullscreenenter"",""1"",""3016""
","
","
","""event"",""trial"",""time""
""fullscreenenter"",""1"",""3016""
","
","","","-1","","","14","5282","2734","&#9728;","elianto","#f73b6a7A","-1","-1","1","0","[]","0","1","","","5282","7","0","4","lose","no-go","0"
"pit-trial","125","869615","0.0-11.0","battery-v0.2","","""event"",""trial"",""time""
""fullscreenenter"",""1"",""3016""
","
","
","""event"",""trial"",""time""
""fullscreenenter"",""1"",""3016""
","
","","","-1","","","14","5282","2734","&#9733;","elianto","#3366ff99","-1","-1","1","+10","[]","0","1","","","5282","8","2","2","win","no-go","0"
"pit-trial","126","874479","0.0-12.0","battery-v0.2","","""event"",""trial"",""time""
""fullscreenenter"",""1"",""3016""
","
","
","""event"",""trial"",""time""
""fullscreenenter"",""1"",""3016""
","
","","","-1","","","14","5282","2734","&#9728;","elianto","#f73b6a7A","-1","-1","1","-10","[]","0","1","","","5282","9","0","4","lose","no-go","1"
"pit-trial","127","878425","0.0-13.0","battery-v0.2","","""event"",""trial"",""time""
""fullscreenenter"",""1"",""3016""
","
","
","""event"",""trial"",""time""
""fullscreenenter"",""1"",""3016""
","
","","","1086.0999999642372","","","14","5282","2734","&#9730;","elianto","#3366ff99"," "," ","1","+10","[1937.4000000357628]","1","1","","","5282","10","1","1","win","go","0"
"pit-trial","128","883288","0.0-14.0","battery-v0.2","","""event"",""trial"",""time""
""fullscreenenter"",""1"",""3016""
","
","
","""event"",""trial"",""time""
""fullscreenenter"",""1"",""3016""
","
","","","-1","","","14","5282","2734","&#9733;","elianto","#3366ff99","-1","-1","1","+10","[]","0","1","","","5282","11","2","2","win","no-go","0"
"pit-trial","129","887232","0.0-15.0","battery-v0.2","","""event"",""trial"",""time""
""fullscreenenter"",""1"",""3016""
","
","
","""event"",""trial"",""time""
""fullscreenenter"",""1"",""3016""
","
","","","1083","","","14","5282","2734","&#9752;","elianto","#f73b6a7A"," "," ","1","0","[1933.3999999761581]","1","1","","","5282","12","3","3","lose","go","0"
"pit-trial","130","891423","0.0-16.0","battery-v0.2","","""event"",""trial"",""time""
""fullscreenenter"",""1"",""3016""
","
","
","""event"",""trial"",""time""
""fullscreenenter"",""1"",""3016""
","
","","","1334.1000000238419","","","14","5282","2734","&#9730;","elianto","#3366ff99"," "," ","1","+10","[2187.5]","1","1","","","5282","13","1","1","win","go","0"
"pit-trial","131","896287","0.0-17.0","battery-v0.2","","""event"",""trial"",""time""
""fullscreenenter"",""1"",""3016""
","
","
","""event"",""trial"",""time""
""fullscreenenter"",""1"",""3016""
","
","","","-1","","","14","5282","2734","&#9728;","elianto","#f73b6a7A","-1","-1","1","0","[]","0","1","","","5282","14","0","4","lose","no-go","0"
"pit-trial","132","901161","0.0-18.0","battery-v0.2","","""event"",""trial"",""time""
""fullscreenenter"",""1"",""3016""
","
","
","""event"",""trial"",""time""
""fullscreenenter"",""1"",""3016""
","
","","","-1","","","14","5282","2734","&#9733;","elianto","#3366ff99","-1","-1","1","+10","[]","0","1","","","5282","15","2","2","win","no-go","0"
"pit-trial","133","904551","0.0-19.0","battery-v0.2","","""event"",""trial"",""time""
""fullscreenenter"",""1"",""3016""
","
","
","""event"",""trial"",""time""
""fullscreenenter"",""1"",""3016""
","
","","","532.8999999761581","","","14","5282","2734","&#9752;","elianto","#f73b6a7A"," "," ","1","0","[1384.199999988079]","1","1","","","5282","16","3","3","lose","go","0"
"pit-trial","134","909416","0.0-20.0","battery-v0.2","","""event"",""trial"",""time""
""fullscreenenter"",""1"",""3016""
","
","
","""event"",""trial"",""time""
""fullscreenenter"",""1"",""3016""
","
","","","-1","","","14","5282","2734","&#9733;","elianto","#3366ff99","-1","-1","1","+10","[]","0","1","","","5282","17","2","2","win","no-go","0"
"pit-trial","135","914280","0.0-21.0","battery-v0.2","","""event"",""trial"",""time""
""fullscreenenter"",""1"",""3016""
","
","
","""event"",""trial"",""time""
""fullscreenenter"",""1"",""3016""
","
","","","-1","","","14","5282","2734","&#9728;","elianto","#f73b6a7A","-1","-1","1","0","[]","0","1","","","5282","18","0","4","lose","no-go","0"
"pit-trial","136","917855","0.0-22.0","battery-v0.2","","""event"",""trial"",""time""
""fullscreenenter"",""1"",""3016""
","
","
","""event"",""trial"",""time""
""fullscreenenter"",""1"",""3016""
","
","","","713","","","14","5282","2734","&#9730;","elianto","#3366ff99"," "," ","1","+10","[1563.5999999642372]","1","1","","","5282","19","1","1","win","go","0"
"pit-trial","137","922294","0.0-23.0","battery-v0.2","","""event"",""trial"",""time""
""fullscreenenter"",""1"",""3016""
","
","
","""event"",""trial"",""time""
""fullscreenenter"",""1"",""3016""
","
","","","1581","","","14","5282","2734","&#9752;","elianto","#f73b6a7A"," "," ","1","-10","[2436.300000011921]","1","1","","","5282","20","3","3","lose","go","1"
"pit-instructions","138","934761","0.0-24.0","battery-v0.2","","""event"",""trial"",""time""
""fullscreenenter"",""1"",""3016""
","
","
","""event"",""trial"",""time""
""fullscreenenter"",""1"",""3016""
","
","","[{""page_index"":0,""viewing_time"":5837.300000011921},{""page_index"":1,""viewing_time"":6627.900000035763}]","12465.700000047684","","","","","","","","","","","","","","","","","","","","","","","",""
"pit-trial","139","939055","0.0-25.0","battery-v0.2","","""event"",""trial"",""time""
""fullscreenenter"",""1"",""3016""
","
","
","""event"",""trial"",""time""
""fullscreenenter"",""1"",""3016""
","
","","","1424","","","14","5282","2734","m","elianto","#f73b6a7A"," "," ","1","0","[2275.599999964237]","1","2","","","5282","21","0","3","lose","go","0"
"pit-trial","140","943931","0.0-26.0","battery-v0.2","","""event"",""trial"",""time""
""fullscreenenter"",""1"",""3016""
","
","
","""event"",""trial"",""time""
""fullscreenenter"",""1"",""3016""
","
","","","-1","","","14","5282","2734","y","elianto","#f73b6a7A"," ","-1","0","-10","[]","0","2","","","5282","22","2","3","lose","go","0"
"pit-trial","141","948238","0.0-27.0","battery-v0.2","","""event"",""trial"",""time""
""fullscreenenter"",""1"",""3016""
","
","
","""event"",""trial"",""time""
""fullscreenenter"",""1"",""3016""
","
","","","1437.8999999761581","","","14","5282","2734","r","elianto","#3366ff99","-1"," ","0","+10","[2293.699999988079]","1","2","","","5282","23","1","2","win","no-go","1"
"pit-trial","142","952736","0.0-28.0","battery-v0.2","","""event"",""trial"",""time""
""fullscreenenter"",""1"",""3016""
","
","
","""event"",""trial"",""time""
""fullscreenenter"",""1"",""3016""
","
","","","1632.8999999761581","","","14","5282","2734","h","elianto","#f73b6a7A","-1"," ","0","0","[2494.699999988079]","1","2","","","5282","24","3","4","lose","no-go","1"
"pit-trial","143","957322","0.0-29.0","battery-v0.2","","""event"",""trial"",""time""
""fullscreenenter"",""1"",""3016""
","
","
","""event"",""trial"",""time""
""fullscreenenter"",""1"",""3016""
","
","","","1714.8999999761581","","","14","5282","2734","m","elianto","#f73b6a7A"," "," ","1","0","[2572.199999988079]","1","2","","","5282","25","0","3","lose","go","0"
"pit-trial","144","961980","0.0-30.0","battery-v0.2","","""event"",""trial"",""time""
""fullscreenenter"",""1"",""3016""
","
","
","""event"",""trial"",""time""
""fullscreenenter"",""1"",""3016""
","
","","","1790.8999999761581","","","14","5282","2734","h","elianto","#f73b6a7A","-1"," ","0","0","[2644.5]","1","2","","","5282","26","3","4","lose","no-go","1"
"pit-trial","145","965568","0.0-31.0","battery-v0.2","","""event"",""trial"",""time""
""fullscreenenter"",""1"",""3016""
","
","
","""event"",""trial"",""time""
""fullscreenenter"",""1"",""3016""
","
","","","724.1999999880791","","","14","5282","2734","y","elianto","#f73b6a7A"," "," ","1","0","[1582.0999999642372]","1","2","","","5282","27","2","3","lose","go","0"
"pit-trial","146","969215","0.0-32.0","battery-v0.2","","""event"",""trial"",""time""
""fullscreenenter"",""1"",""3016""
","
","
","""event"",""trial"",""time""
""fullscreenenter"",""1"",""3016""
","
","","","784.9000000357628","","","14","5282","2734","r","elianto","#3366ff99","-1"," ","0","0","[1636.7000000476837]","1","2","","","5282","28","1","2","win","no-go","0"
"pit-trial","147","972863","0.0-33.0","battery-v0.2","","""event"",""trial"",""time""
""fullscreenenter"",""1"",""3016""
","
","
","""event"",""trial"",""time""
""fullscreenenter"",""1"",""3016""
","
","","","789.3999999761581","","","14","5282","2734","h","elianto","#f73b6a7A","-1"," ","0","0","[1640.800000011921]","1","2","","","5282","29","3","4","lose","no-go","1"
"pit-trial","148","977728","0.0-34.0","battery-v0.2","","""event"",""trial"",""time""
""fullscreenenter"",""1"",""3016""
","
","
","""event"",""trial"",""time""
""fullscreenenter"",""1"",""3016""
","
","","","-1","","","14","5282","2734","r","elianto","#3366ff99","-1","-1","1","+10","[]","0","2","","","5282","30","1","2","win","no-go","0"
"pit-trial","149","981440","0.0-35.0","battery-v0.2","","""event"",""trial"",""time""
""fullscreenenter"",""1"",""3016""
","
","
","""event"",""trial"",""time""
""fullscreenenter"",""1"",""3016""
","
","","","848.5","","","14","5282","2734","y","elianto","#f73b6a7A"," "," ","1","0","[1700.5]","1","2","","","5282","31","2","3","lose","go","0"
"pit-trial","150","984904","0.0-36.0","battery-v0.2","","""event"",""trial"",""time""
""fullscreenenter"",""1"",""3016""
","
","
","""event"",""trial"",""time""
""fullscreenenter"",""1"",""3016""
","
","","","603.7000000476837","","","14","5282","2734","m","elianto","#f73b6a7A"," "," ","1","0","[1453.5999999642372]","1","2","","","5282","32","0","3","lose","go","0"
"pit-trial","151","988528","0.0-37.0","battery-v0.2","","""event"",""trial"",""time""
""fullscreenenter"",""1"",""3016""
","
","
","""event"",""trial"",""time""
""fullscreenenter"",""1"",""3016""
","
","","","767.1999999880791","","","14","5282","2734","y","elianto","#f73b6a7A"," "," ","1","0","[1619.7999999523163]","1","2","","","5282","33","2","3","lose","go","0"
"pit-trial","152","993392","0.0-38.0","battery-v0.2","","""event"",""trial"",""time""
""fullscreenenter"",""1"",""3016""
","
","
","""event"",""trial"",""time""
""fullscreenenter"",""1"",""3016""
","
","","","-1","","","14","5282","2734","r","elianto","#3366ff99","-1","-1","1","0","[]","0","2","","","5282","34","1","2","win","no-go","1"
"pit-trial","153","996784","0.0-39.0","battery-v0.2","","""event"",""trial"",""time""
""fullscreenenter"",""1"",""3016""
","
","
","""event"",""trial"",""time""
""fullscreenenter"",""1"",""3016""
","
","","","529.8999999761581","","","14","5282","2734","h","elianto","#f73b6a7A","-1"," ","0","-10","[1380.6000000238419]","1","2","","","5282","35","3","4","lose","no-go","0"
"pit-trial","154","1000015","0.0-40.0","battery-v0.2","","""event"",""trial"",""time""
""fullscreenenter"",""1"",""3016""
","
","
","""event"",""trial"",""time""
""fullscreenenter"",""1"",""3016""
","
","","","373.69999998807907","","","14","5282","2734","m","elianto","#f73b6a7A"," "," ","1","0","[1225.699999988079]","1","2","","","5282","36","0","3","lose","go","0"
"pit-trial","155","1004879","0.0-41.0","battery-v0.2","","""event"",""trial"",""time""
""fullscreenenter"",""1"",""3016""
","
","
","""event"",""trial"",""time""
""fullscreenenter"",""1"",""3016""
","
","","","-1","","","14","5282","2734","r","elianto","#3366ff99","-1","-1","1","+10","[]","0","2","","","5282","37","1","2","win","no-go","0"
"pit-trial","156","1008176","0.0-42.0","battery-v0.2","","""event"",""trial"",""time""
""fullscreenenter"",""1"",""3016""
","
","
","""event"",""trial"",""time""
""fullscreenenter"",""1"",""3016""
","
","","","437.30000001192093","","","14","5282","2734","m","elianto","#f73b6a7A"," "," ","1","0","[1290.1000000238419]","1","2","","","5282","38","0","3","lose","go","0"
"pit-trial","157","1011552","0.0-43.0","battery-v0.2","","""event"",""trial"",""time""
""fullscreenenter"",""1"",""3016""
","
","
","""event"",""trial"",""time""
""fullscreenenter"",""1"",""3016""
","
","","","516.1000000238419","","","14","5282","2734","h","elianto","#f73b6a7A","-1"," ","0","-10","[1368]","1","2","","","5282","39","3","4","lose","no-go","0"
"pit-trial","158","1015200","0.0-44.0","battery-v0.2","","""event"",""trial"",""time""
""fullscreenenter"",""1"",""3016""
","
","
","""event"",""trial"",""time""
""fullscreenenter"",""1"",""3016""
","
","","","786.6999999880791","","","14","5282","2734","y","elianto","#f73b6a7A"," "," ","1","0","[1637.9000000357628]","1","2","","","5282","40","2","3","lose","go","0"
"pit-trial","159","1020063","0.0-45.0","battery-v0.2","","""event"",""trial"",""time""
""fullscreenenter"",""1"",""3016""
","
","
","""event"",""trial"",""time""
""fullscreenenter"",""1"",""3016""
","
","","","-1","","","14","5282","2734","h","elianto","#f73b6a7A","-1","-1","1","-10","[]","0","2","","","5282","41","3","4","lose","no-go","1"
"pit-trial","160","1023688","0.0-46.0","battery-v0.2","","""event"",""trial"",""time""
""fullscreenenter"",""1"",""3016""
","
","
","""event"",""trial"",""time""
""fullscreenenter"",""1"",""3016""
","
","","","763.8000000119209","","","14","5282","2734","y","elianto","#f73b6a7A"," "," ","1","0","[1617.800000011921]","1","2","","","5282","42","2","3","lose","go","0"
"pit-trial","161","1028552","0.0-47.0","battery-v0.2","","""event"",""trial"",""time""
""fullscreenenter"",""1"",""3016""
","
","
","""event"",""trial"",""time""
""fullscreenenter"",""1"",""3016""
","
","","","-1","","","14","5282","2734","r","elianto","#3366ff99","-1","-1","1","+10","[]","0","2","","","5282","43","1","2","win","no-go","0"
"pit-trial","162","1032016","0.0-48.0","battery-v0.2","","""event"",""trial"",""time""
""fullscreenenter"",""1"",""3016""
","
","
","""event"",""trial"",""time""
""fullscreenenter"",""1"",""3016""
","
","","","602.6000000238419","","","14","5282","2734","m","elianto","#f73b6a7A"," "," ","1","0","[1454.7000000476837]","1","2","","","5282","44","0","3","lose","go","0"
"pit-trial","163","1035567","0.0-49.0","battery-v0.2","","""event"",""trial"",""time""
""fullscreenenter"",""1"",""3016""
","
","
","""event"",""trial"",""time""
""fullscreenenter"",""1"",""3016""
","
","","","694.3999999761581","","","14","5282","2734","y","elianto","#f73b6a7A"," "," ","1","0","[1546.2999999523163]","1","2","","","5282","45","2","3","lose","go","0"
"pit-trial","164","1039719","0.0-50.0","battery-v0.2","","""event"",""trial"",""time""
""fullscreenenter"",""1"",""3016""
","
","
","""event"",""trial"",""time""
""fullscreenenter"",""1"",""3016""
","
","","","1290.199999988079","","","14","5282","2734","m","elianto","#f73b6a7A"," "," ","1","-10","[2142.599999964237]","1","2","","","5282","46","0","3","lose","go","1"
"pit-trial","165","1044584","0.0-51.0","battery-v0.2","","""event"",""trial"",""time""
""fullscreenenter"",""1"",""3016""
","
","
","""event"",""trial"",""time""
""fullscreenenter"",""1"",""3016""
","
","","","-1","","","14","5282","2734","r","elianto","#3366ff99","-1","-1","1","+10","[]","0","2","","","5282","47","1","2","win","no-go","0"
"pit-trial","166","1049448","0.0-52.0","battery-v0.2","","""event"",""trial"",""time""
""fullscreenenter"",""1"",""3016""
","
","
","""event"",""trial"",""time""
""fullscreenenter"",""1"",""3016""
","
","","","-1","","","14","5282","2734","h","elianto","#f73b6a7A","-1","-1","1","0","[]","0","2","","","5282","48","3","4","lose","no-go","0"
"pit-trial","167","1054310","0.0-53.0","battery-v0.2","","""event"",""trial"",""time""
""fullscreenenter"",""1"",""3016""
","
","
","""event"",""trial"",""time""
""fullscreenenter"",""1"",""3016""
","
","","","-1","","","14","5282","2734","r","elianto","#3366ff99","-1","-1","1","+10","[]","0","2","","","5282","49","1","2","win","no-go","0"
"pit-trial","168","1057787","0.0-54.0","battery-v0.2","","""event"",""trial"",""time""
""fullscreenenter"",""1"",""3016""
","
","
","""event"",""trial"",""time""
""fullscreenenter"",""1"",""3016""
","
","","","614.1999999880791","","","14","5282","2734","y","elianto","#f73b6a7A"," "," ","1","0","[1468.800000011921]","1","2","","","5282","50","2","3","lose","go","0"
"pit-trial","169","1061271","0.0-55.0","battery-v0.2","","""event"",""trial"",""time""
""fullscreenenter"",""1"",""3016""
","
","
","""event"",""trial"",""time""
""fullscreenenter"",""1"",""3016""
","
","","","627.6000000238419","","","14","5282","2734","m","elianto","#f73b6a7A"," "," ","1","0","[1478.1000000238419]","1","2","","","5282","51","0","3","lose","go","0"
"pit-trial","170","1066136","0.0-56.0","battery-v0.2","","""event"",""trial"",""time""
""fullscreenenter"",""1"",""3016""
","
","
","""event"",""trial"",""time""
""fullscreenenter"",""1"",""3016""
","
","","","-1","","","14","5282","2734","h","elianto","#f73b6a7A","-1","-1","1","-10","[]","0","2","","","5282","52","3","4","lose","no-go","1"
"pit-trial","171","1070103","0.0-57.0","battery-v0.2","","""event"",""trial"",""time""
""fullscreenenter"",""1"",""3016""
","
","
","""event"",""trial"",""time""
""fullscreenenter"",""1"",""3016""
","
","","","1110.800000011921","","","14","5282","2734","h","elianto","#f73b6a7A","-1"," ","0","-10","[1962.1000000238419]","1","2","","","5282","53","3","4","lose","no-go","0"
"pit-trial","172","1073607","0.0-58.0","battery-v0.2","","""event"",""trial"",""time""
""fullscreenenter"",""1"",""3016""
","
","
","""event"",""trial"",""time""
""fullscreenenter"",""1"",""3016""
","
","","","643.8000000119209","","","14","5282","2734","y","elianto","#f73b6a7A"," "," ","1","0","[1498.7000000476837]","1","2","","","5282","54","2","3","lose","go","0"
"pit-trial","173","1078471","0.0-59.0","battery-v0.2","","""event"",""trial"",""time""
""fullscreenenter"",""1"",""3016""
","
","
","""event"",""trial"",""time""
""fullscreenenter"",""1"",""3016""
","
","","","-1","","","14","5282","2734","r","elianto","#3366ff99","-1","-1","1","+10","[]","0","2","","","5282","55","1","2","win","no-go","0"
"pit-trial","174","1081976","0.0-60.0","battery-v0.2","","""event"",""trial"",""time""
""fullscreenenter"",""1"",""3016""
","
","
","""event"",""trial"",""time""
""fullscreenenter"",""1"",""3016""
","
","","","645.0999999642372","","","14","5282","2734","m","elianto","#f73b6a7A"," "," ","1","-10","[1497.2999999523163]","1","2","","","5282","56","0","3","lose","go","1"
"pit-trial","175","1085868","0.0-61.0","battery-v0.2","","""event"",""trial"",""time""
""fullscreenenter"",""1"",""3016""
","
","
","""event"",""trial"",""time""
""fullscreenenter"",""1"",""3016""
","
","","","1031.699999988079","","","14","5282","2734","z","elianto","#3366ff99"," "," ","1","+10","[1883.5]","1","2","","","5282","57","4","1","win","go","0"
"pit-trial","176","1089360","0.0-62.0","battery-v0.2","","""event"",""trial"",""time""
""fullscreenenter"",""1"",""3016""
","
","
","""event"",""trial"",""time""
""fullscreenenter"",""1"",""3016""
","
","","","619.8000000119209","","","14","5282","2734","y","elianto","#f73b6a7A"," "," ","1","0","[1475]","1","2","","","5282","58","2","3","lose","go","0"
"pit-trial","177","1092896","0.0-63.0","battery-v0.2","","""event"",""trial"",""time""
""fullscreenenter"",""1"",""3016""
","
","
","""event"",""trial"",""time""
""fullscreenenter"",""1"",""3016""
","
","","","674.5","","","14","5282","2734","m","elianto","#f73b6a7A"," "," ","1","0","[1527.7999999523163]","1","2","","","5282","59","0","3","lose","go","0"
"pit-trial","178","1097759","0.0-64.0","battery-v0.2","","""event"",""trial"",""time""
""fullscreenenter"",""1"",""3016""
","
","
","""event"",""trial"",""time""
""fullscreenenter"",""1"",""3016""
","
","","","-1","","","14","5282","2734","h","elianto","#f73b6a7A","-1","-1","1","0","[]","0","2","","","5282","60","3","4","lose","no-go","0"
"pit-trial","179","1101776","0.0-65.0","battery-v0.2","","""event"",""trial"",""time""
""fullscreenenter"",""1"",""3016""
","
","
","""event"",""trial"",""time""
""fullscreenenter"",""1"",""3016""
","
","","","1158.300000011921","","","14","5282","2734","r","elianto","#3366ff99","-1"," ","0","0","[2012.2000000476837]","1","2","","","5282","61","1","2","win","no-go","0"
"pit-trial","180","1106647","0.0-66.0","battery-v0.2","","""event"",""trial"",""time""
""fullscreenenter"",""1"",""3016""
","
","
","""event"",""trial"",""time""
""fullscreenenter"",""1"",""3016""
","
","","","-1","","","14","5282","2734","h","elianto","#f73b6a7A","-1","-1","1","0","[]","0","2","","","5282","62","3","4","lose","no-go","0"
"pit-trial","181","1110271","0.0-67.0","battery-v0.2","","""event"",""trial"",""time""
""fullscreenenter"",""1"",""3016""
","
","
","""event"",""trial"",""time""
""fullscreenenter"",""1"",""3016""
","
","","","762.2999999523163","","","14","5282","2734","y","elianto","#f73b6a7A"," "," ","1","-10","[1613.2999999523163]","1","2","","","5282","63","2","3","lose","go","1"
"pit-trial","182","1114286","0.0-68.0","battery-v0.2","","""event"",""trial"",""time""
""fullscreenenter"",""1"",""3016""
","
","
","""event"",""trial"",""time""
""fullscreenenter"",""1"",""3016""
","
","","","1154","","","14","5282","2734","z","elianto","#3366ff99"," "," ","1","+10","[2006.5]","1","2","","","5282","64","4","1","win","go","0"
"pit-trial","183","1118239","0.0-69.0","battery-v0.2","","""event"",""trial"",""time""
""fullscreenenter"",""1"",""3016""
","
","
","""event"",""trial"",""time""
""fullscreenenter"",""1"",""3016""
","
","","","1094.2999999523163","","","14","5282","2734","c","elianto","#3366ff99","-1"," ","0","0","[1946.699999988079]","1","2","","","5282","65","5","2","win","no-go","0"
"pit-trial","184","1122096","0.0-70.0","battery-v0.2","","""event"",""trial"",""time""
""fullscreenenter"",""1"",""3016""
","
","
","""event"",""trial"",""time""
""fullscreenenter"",""1"",""3016""
","
","","","992.1999999880791","","","14","5282","2734","r","elianto","#3366ff99","-1"," ","0","0","[1844.5]","1","2","","","5282","66","1","2","win","no-go","0"
"pit-trial","185","1126680","0.0-71.0","battery-v0.2","","""event"",""trial"",""time""
""fullscreenenter"",""1"",""3016""
","
","
","""event"",""trial"",""time""
""fullscreenenter"",""1"",""3016""
","
","","","1726.1000000238419","","","14","5282","2734","z","elianto","#3366ff99"," "," ","1","+10","[2577.300000011921]","1","2","","","5282","67","4","1","win","go","0"
"pit-trial","186","1131544","0.0-72.0","battery-v0.2","","""event"",""trial"",""time""
""fullscreenenter"",""1"",""3016""
","
","
","""event"",""trial"",""time""
""fullscreenenter"",""1"",""3016""
","
","","","-1","","","14","5282","2734","h","elianto","#f73b6a7A","-1","-1","1","0","[]","0","2","","","5282","68","3","4","lose","no-go","0"
"pit-trial","187","1135328","0.0-73.0","battery-v0.2","","""event"",""trial"",""time""
""fullscreenenter"",""1"",""3016""
","
","
","""event"",""trial"",""time""
""fullscreenenter"",""1"",""3016""
","
","","","925.1000000238419","","","14","5282","2734","z","elianto","#3366ff99"," "," ","1","+10","[1777.5]","1","2","","","5282","69","4","1","win","go","0"
"pit-trial","188","1139423","0.0-74.0","battery-v0.2","","""event"",""trial"",""time""
""fullscreenenter"",""1"",""3016""
","
","
","""event"",""trial"",""time""
""fullscreenenter"",""1"",""3016""
","
","","","1235.5","","","14","5282","2734","y","elianto","#f73b6a7A"," "," ","1","-10","[2087]","1","2","","","5282","70","2","3","lose","go","1"
"pit-trial","189","1144288","0.0-75.0","battery-v0.2","","""event"",""trial"",""time""
""fullscreenenter"",""1"",""3016""
","
","
","""event"",""trial"",""time""
""fullscreenenter"",""1"",""3016""
","
","","","-1","","","14","5282","2734","c","elianto","#3366ff99","-1","-1","1","+10","[]","0","2","","","5282","71","5","2","win","no-go","0"
"pit-trial","190","1147929","0.0-76.0","battery-v0.2","","""event"",""trial"",""time""
""fullscreenenter"",""1"",""3016""
","
","
","""event"",""trial"",""time""
""fullscreenenter"",""1"",""3016""
","
","","","778.3999999761581","","","14","5282","2734","r","elianto","#3366ff99","-1"," ","0","0","[1632.2999999523163]","1","2","","","5282","72","1","2","win","no-go","0"
"pit-trial","191","1151519","0.0-77.0","battery-v0.2","","""event"",""trial"",""time""
""fullscreenenter"",""1"",""3016""
","
","
","""event"",""trial"",""time""
""fullscreenenter"",""1"",""3016""
","
","","","732.2999999523163","","","14","5282","2734","r","elianto","#3366ff99","-1"," ","0","0","[1583.199999988079]","1","2","","","5282","73","1","2","win","no-go","0"
"pit-trial","192","1156384","0.0-78.0","battery-v0.2","","""event"",""trial"",""time""
""fullscreenenter"",""1"",""3016""
","
","
","""event"",""trial"",""time""
""fullscreenenter"",""1"",""3016""
","
","","","-1","","","14","5282","2734","h","elianto","#f73b6a7A","-1","-1","1","0","[]","0","2","","","5282","74","3","4","lose","no-go","0"
"pit-trial","193","1161248","0.0-79.0","battery-v0.2","","""event"",""trial"",""time""
""fullscreenenter"",""1"",""3016""
","
","
","""event"",""trial"",""time""
""fullscreenenter"",""1"",""3016""
","
","","","-1","","","14","5282","2734","c","elianto","#3366ff99","-1","-1","1","+10","[]","0","2","","","5282","75","5","2","win","no-go","0"
"pit-trial","194","1164960","0.0-80.0","battery-v0.2","","""event"",""trial"",""time""
""fullscreenenter"",""1"",""3016""
","
","
","""event"",""trial"",""time""
""fullscreenenter"",""1"",""3016""
","
","","","848.5","","","14","5282","2734","z","elianto","#3366ff99"," "," ","1","0","[1698.9000000357628]","1","2","","","5282","76","4","1","win","go","1"
"pit-trial","195","1169824","0.0-81.0","battery-v0.2","","""event"",""trial"",""time""
""fullscreenenter"",""1"",""3016""
","
","
","""event"",""trial"",""time""
""fullscreenenter"",""1"",""3016""
","
","","","-1","","","14","5282","2734","c","elianto","#3366ff99","-1","-1","1","+10","[]","0","2","","","5282","77","5","2","win","no-go","0"
"pit-trial","196","1174687","0.0-82.0","battery-v0.2","","""event"",""trial"",""time""
""fullscreenenter"",""1"",""3016""
","
","
","""event"",""trial"",""time""
""fullscreenenter"",""1"",""3016""
","
","","","-1","","","14","5282","2734","h","elianto","#f73b6a7A","-1","-1","1","-10","[]","0","2","","","5282","78","3","4","lose","no-go","1"
"pit-trial","197","1179552","0.0-83.0","battery-v0.2","","""event"",""trial"",""time""
""fullscreenenter"",""1"",""3016""
","
","
","""event"",""trial"",""time""
""fullscreenenter"",""1"",""3016""
","
","","","-1","","","14","5282","2734","z","elianto","#3366ff99"," ","-1","0","0","[]","0","2","","","5282","79","4","1","win","go","0"
"pit-trial","198","1183688","0.0-84.0","battery-v0.2","","""event"",""trial"",""time""
""fullscreenenter"",""1"",""3016""
","
","
","""event"",""trial"",""time""
""fullscreenenter"",""1"",""3016""
","
","","","1276.5999999642372","","","14","5282","2734","z","elianto","#3366ff99"," "," ","1","0","[2127]","1","2","","","5282","80","4","1","win","go","1"
"pit-trial","199","1188561","0.0-85.0","battery-v0.2","","""event"",""trial"",""time""
""fullscreenenter"",""1"",""3016""
","
","
","""event"",""trial"",""time""
""fullscreenenter"",""1"",""3016""
","
","","","-1","","","14","5282","2734","c","elianto","#3366ff99","-1","-1","1","0","[]","0","2","","","5282","81","5","2","win","no-go","1"
"pit-trial","200","1193424","0.0-86.0","battery-v0.2","","""event"",""trial"",""time""
""fullscreenenter"",""1"",""3016""
","
","
","""event"",""trial"",""time""
""fullscreenenter"",""1"",""3016""
","
","","","-1","","","14","5282","2734","z","elianto","#3366ff99"," ","-1","0","0","[3507]","1","2","","","5282","82","4","1","win","go","0"
"pit-trial","201","1197383","0.0-87.0","battery-v0.2","","""event"",""trial"",""time""
""fullscreenenter"",""1"",""3016""
","
","
","""event"",""trial"",""time""
""fullscreenenter"",""1"",""3016""
","
","","","1098","","","14","5282","2734","t","elianto","#f73b6a7A","-1"," ","0","0","[1949.300000011921]","1","2","","","5282","83","7","4","lose","no-go","1"
"pit-trial","202","1202247","0.0-88.0","battery-v0.2","","""event"",""trial"",""time""
""fullscreenenter"",""1"",""3016""
","
","
","""event"",""trial"",""time""
""fullscreenenter"",""1"",""3016""
","
","","","-1","","","14","5282","2734","h","elianto","#f73b6a7A","-1","-1","1","0","[]","0","2","","","5282","84","3","4","lose","no-go","0"
"pit-trial","203","1207111","0.0-89.0","battery-v0.2","","""event"",""trial"",""time""
""fullscreenenter"",""1"",""3016""
","
","
","""event"",""trial"",""time""
""fullscreenenter"",""1"",""3016""
","
","","","-1","","","14","5282","2734","c","elianto","#3366ff99","-1","-1","1","+10","[]","0","2","","","5282","85","5","2","win","no-go","0"
"pit-trial","204","1211974","0.0-90.0","battery-v0.2","","""event"",""trial"",""time""
""fullscreenenter"",""1"",""3016""
","
","
","""event"",""trial"",""time""
""fullscreenenter"",""1"",""3016""
","
","","","-1","","","14","5282","2734","t","elianto","#f73b6a7A","-1","-1","1","0","[]","0","2","","","5282","86","7","4","lose","no-go","0"
"pit-trial","205","1216126","0.0-91.0","battery-v0.2","","""event"",""trial"",""time""
""fullscreenenter"",""1"",""3016""
","
","
","""event"",""trial"",""time""
""fullscreenenter"",""1"",""3016""
","
","","","1292.8999999761581","","","14","5282","2734","z","elianto","#3366ff99"," "," ","1","+10","[2148.199999988079]","1","2","","","5282","87","4","1","win","go","0"
"pit-trial","206","1220327","0.0-92.0","battery-v0.2","","""event"",""trial"",""time""
""fullscreenenter"",""1"",""3016""
","
","
","""event"",""trial"",""time""
""fullscreenenter"",""1"",""3016""
","
","","","1342.6000000238419","","","14","5282","2734","b","elianto","#f73b6a7A"," "," ","1","-10","[2197.400000035763]","1","2","","","5282","88","6","3","lose","go","1"
"pit-trial","207","1225192","0.0-93.0","battery-v0.2","","""event"",""trial"",""time""
""fullscreenenter"",""1"",""3016""
","
","
","""event"",""trial"",""time""
""fullscreenenter"",""1"",""3016""
","
","","","-1","","","14","5282","2734","b","elianto","#f73b6a7A"," ","-1","0","-10","[]","0","2","","","5282","89","6","3","lose","go","0"
"pit-trial","208","1230057","0.0-94.0","battery-v0.2","","""event"",""trial"",""time""
""fullscreenenter"",""1"",""3016""
","
","
","""event"",""trial"",""time""
""fullscreenenter"",""1"",""3016""
","
","","","-1","","","14","5282","2734","t","elianto","#f73b6a7A","-1","-1","1","0","[]","0","2","","","5282","90","7","4","lose","no-go","0"
"pit-trial","209","1234392","0.0-95.0","battery-v0.2","","""event"",""trial"",""time""
""fullscreenenter"",""1"",""3016""
","
","
","""event"",""trial"",""time""
""fullscreenenter"",""1"",""3016""
","
","","","1478.1000000238419","","","14","5282","2734","z","elianto","#3366ff99"," "," ","1","+10","[2329.899999976158]","1","2","","","5282","91","4","1","win","go","0"
"pit-trial","210","1239255","0.0-96.0","battery-v0.2","","""event"",""trial"",""time""
""fullscreenenter"",""1"",""3016""
","
","
","""event"",""trial"",""time""
""fullscreenenter"",""1"",""3016""
","
","","","-1","","","14","5282","2734","c","elianto","#3366ff99","-1","-1","1","+10","[]","0","2","","","5282","92","5","2","win","no-go","0"
"pit-trial","211","1244118","0.0-97.0","battery-v0.2","","""event"",""trial"",""time""
""fullscreenenter"",""1"",""3016""
","
","
","""event"",""trial"",""time""
""fullscreenenter"",""1"",""3016""
","
","","","-1","","","14","5282","2734","t","elianto","#f73b6a7A","-1","-1","1","0","[]","0","2","","","5282","93","7","4","lose","no-go","0"
"pit-trial","212","1248983","0.0-98.0","battery-v0.2","","""event"",""trial"",""time""
""fullscreenenter"",""1"",""3016""
","
","
","""event"",""trial"",""time""
""fullscreenenter"",""1"",""3016""
","
","","","-1","","","14","5282","2734","c","elianto","#3366ff99","-1","-1","1","0","[]","0","2","","","5282","94","5","2","win","no-go","1"
"pit-trial","213","1252919","0.0-99.0","battery-v0.2","","""event"",""trial"",""time""
""fullscreenenter"",""1"",""3016""
","
","
","""event"",""trial"",""time""
""fullscreenenter"",""1"",""3016""
","
","","","1074.699999988079","","","14","5282","2734","f","elianto","#3366ff99"," "," ","1","+10","[1928.699999988079]","1","2","","","5282","95","8","1","win","go","0"
"pit-trial","214","1257784","0.0-100.0","battery-v0.2","","""event"",""trial"",""time""
""fullscreenenter"",""1"",""3016""
","
","
","""event"",""trial"",""time""
""fullscreenenter"",""1"",""3016""
","
","","","-1","","","14","5282","2734","b","elianto","#f73b6a7A"," ","-1","0","0","[]","0","2","","","5282","96","6","3","lose","go","1"
"pit-trial","215","1262648","0.0-101.0","battery-v0.2","","""event"",""trial"",""time""
""fullscreenenter"",""1"",""3016""
","
","
","""event"",""trial"",""time""
""fullscreenenter"",""1"",""3016""
","
","","","-1","","","14","5282","2734","c","elianto","#3366ff99","-1","-1","1","+10","[]","0","2","","","5282","97","5","2","win","no-go","0"
"pit-trial","216","1267511","0.0-102.0","battery-v0.2","","""event"",""trial"",""time""
""fullscreenenter"",""1"",""3016""
","
","
","""event"",""trial"",""time""
""fullscreenenter"",""1"",""3016""
","
","","","-1","","","14","5282","2734","b","elianto","#f73b6a7A"," ","-1","0","-10","[]","0","2","","","5282","98","6","3","lose","go","0"
"pit-trial","217","1272240","0.0-103.0","battery-v0.2","","""event"",""trial"",""time""
""fullscreenenter"",""1"",""3016""
","
","
","""event"",""trial"",""time""
""fullscreenenter"",""1"",""3016""
","
","","","1870.2000000476837","","","14","5282","2734","f","elianto","#3366ff99"," "," ","1","0","[2722.100000023842]","1","2","","","5282","99","8","1","win","go","1"
"pit-trial","218","1277103","0.0-104.0","battery-v0.2","","""event"",""trial"",""time""
""fullscreenenter"",""1"",""3016""
","
","
","""event"",""trial"",""time""
""fullscreenenter"",""1"",""3016""
","
","","","-1","","","14","5282","2734","t","elianto","#f73b6a7A","-1","-1","1","-10","[]","0","2","","","5282","100","7","4","lose","no-go","1"
"pit-trial","219","1280960","0.0-105.0","battery-v0.2","","""event"",""trial"",""time""
""fullscreenenter"",""1"",""3016""
","
","
","""event"",""trial"",""time""
""fullscreenenter"",""1"",""3016""
","
","","","997.7000000476837","","","14","5282","2734","n","elianto","#3366ff99"," "," ","1","0","[1851.1000000238419]","1","2","","","5282","101","9","1","win","go","1"
"pit-trial","220","1285824","0.0-106.0","battery-v0.2","","""event"",""trial"",""time""
""fullscreenenter"",""1"",""3016""
","
","
","""event"",""trial"",""time""
""fullscreenenter"",""1"",""3016""
","
","","","-1","","","14","5282","2734","f","elianto","#3366ff99"," ","-1","0","0","[]","0","2","","","5282","102","8","1","win","go","0"
"pit-trial","221","1290688","0.0-107.0","battery-v0.2","","""event"",""trial"",""time""
""fullscreenenter"",""1"",""3016""
","
","
","""event"",""trial"",""time""
""fullscreenenter"",""1"",""3016""
","
","","","-1","","","14","5282","2734","t","elianto","#f73b6a7A","-1","-1","1","0","[]","0","2","","","5282","103","7","4","lose","no-go","0"
"pit-trial","222","1295550","0.0-108.0","battery-v0.2","","""event"",""trial"",""time""
""fullscreenenter"",""1"",""3016""
","
","
","""event"",""trial"",""time""
""fullscreenenter"",""1"",""3016""
","
","","","-1","","","14","5282","2734","c","elianto","#3366ff99","-1","-1","1","+10","[]","0","2","","","5282","104","5","2","win","no-go","0"
"pit-trial","223","1300111","0.0-109.0","battery-v0.2","","""event"",""trial"",""time""
""fullscreenenter"",""1"",""3016""
","
","
","""event"",""trial"",""time""
""fullscreenenter"",""1"",""3016""
","
","","","1698.3999999761581","","","14","5282","2734","z","elianto","#3366ff99"," "," ","1","+10","[2553.800000011921]","1","2","","","5282","105","4","1","win","go","0"
"pit-trial","224","1304976","0.0-110.0","battery-v0.2","","""event"",""trial"",""time""
""fullscreenenter"",""1"",""3016""
","
","
","""event"",""trial"",""time""
""fullscreenenter"",""1"",""3016""
","
","","","-1","","","14","5282","2734","b","elianto","#f73b6a7A"," ","-1","0","-10","[]","0","2","","","5282","106","6","3","lose","go","0"
"pit-trial","225","1309839","0.0-111.0","battery-v0.2","","""event"",""trial"",""time""
""fullscreenenter"",""1"",""3016""
","
","
","""event"",""trial"",""time""
""fullscreenenter"",""1"",""3016""
","
","","","-1","","","14","5282","2734","n","elianto","#3366ff99"," ","-1","0","0","[3398.100000023842]","1","2","","","5282","107","9","1","win","go","0"
"pit-trial","226","1313727","0.0-112.0","battery-v0.2","","""event"",""trial"",""time""
""fullscreenenter"",""1"",""3016""
","
","
","""event"",""trial"",""time""
""fullscreenenter"",""1"",""3016""
","
","","","1028.3999999761581","","","14","5282","2734","f","elianto","#3366ff99"," "," ","1","+10","[1880.800000011921]","1","2","","","5282","108","8","1","win","go","0"
"pit-trial","227","1317312","0.0-113.0","battery-v0.2","","""event"",""trial"",""time""
""fullscreenenter"",""1"",""3016""
","
","
","""event"",""trial"",""time""
""fullscreenenter"",""1"",""3016""
","
","","","721.5999999642372","","","14","5282","2734","b","elianto","#f73b6a7A"," "," ","1","0","[1574]","1","2","","","5282","109","6","3","lose","go","0"
"pit-trial","228","1321032","0.0-114.0","battery-v0.2","","""event"",""trial"",""time""
""fullscreenenter"",""1"",""3016""
","
","
","""event"",""trial"",""time""
""fullscreenenter"",""1"",""3016""
","
","","","859.1999999880791","","","14","5282","2734","n","elianto","#3366ff99"," "," ","1","+10","[1709.6000000238419]","1","2","","","5282","110","9","1","win","go","0"
"pit-trial","229","1324871","0.0-115.0","battery-v0.2","","""event"",""trial"",""time""
""fullscreenenter"",""1"",""3016""
","
","
","""event"",""trial"",""time""
""fullscreenenter"",""1"",""3016""
","
","","","974.8000000119209","","","14","5282","2734","f","elianto","#3366ff99"," "," ","1","+10","[1826.9000000357628]","1","2","","","5282","111","8","1","win","go","0"
"pit-trial","230","1329736","0.0-116.0","battery-v0.2","","""event"",""trial"",""time""
""fullscreenenter"",""1"",""3016""
","
","
","""event"",""trial"",""time""
""fullscreenenter"",""1"",""3016""
","
","","","-1","","","14","5282","2734","c","elianto","#3366ff99","-1","-1","1","+10","[]","0","2","","","5282","112","5","2","win","no-go","0"
"pit-trial","231","1333415","0.0-117.0","battery-v0.2","","""event"",""trial"",""time""
""fullscreenenter"",""1"",""3016""
","
","
","""event"",""trial"",""time""
""fullscreenenter"",""1"",""3016""
","
","","","819.0999999642372","","","14","5282","2734","f","elianto","#3366ff99"," "," ","1","+10","[1669.8999999761581]","1","2","","","5282","113","8","1","win","go","0"
"pit-trial","232","1337575","0.0-118.0","battery-v0.2","","""event"",""trial"",""time""
""fullscreenenter"",""1"",""3016""
","
","
","""event"",""trial"",""time""
""fullscreenenter"",""1"",""3016""
","
","","","1302.300000011921","","","14","5282","2734","b","elianto","#f73b6a7A"," "," ","1","0","[2152.399999976158]","1","2","","","5282","114","6","3","lose","go","0"
"pit-trial","233","1341007","0.0-119.0","battery-v0.2","","""event"",""trial"",""time""
""fullscreenenter"",""1"",""3016""
","
","
","""event"",""trial"",""time""
""fullscreenenter"",""1"",""3016""
","
","","","574.6999999880791","","","14","5282","2734","c","elianto","#3366ff99","-1"," ","0","+10","[1426.1000000238419]","1","2","","","5282","115","5","2","win","no-go","1"
"pit-trial","234","1345048","0.0-120.0","battery-v0.2","","""event"",""trial"",""time""
""fullscreenenter"",""1"",""3016""
","
","
","""event"",""trial"",""time""
""fullscreenenter"",""1"",""3016""
","
","","","1182.800000011921","","","14","5282","2734","n","elianto","#3366ff99"," "," ","1","+10","[2035]","1","2","","","5282","116","9","1","win","go","0"
"pit-trial","235","1349680","0.0-121.0","battery-v0.2","","""event"",""trial"",""time""
""fullscreenenter"",""1"",""3016""
","
","
","""event"",""trial"",""time""
""fullscreenenter"",""1"",""3016""
","
","","","1770.6000000238419","","","14","5282","2734","b","elianto","#f73b6a7A"," "," ","1","-10","[2624]","1","2","","","5282","117","6","3","lose","go","1"
"pit-trial","236","1353928","0.0-122.0","battery-v0.2","","""event"",""trial"",""time""
""fullscreenenter"",""1"",""3016""
","
","
","""event"",""trial"",""time""
""fullscreenenter"",""1"",""3016""
","
","","","1391.2999999523163","","","14","5282","2734","f","elianto","#3366ff99"," "," ","1","+10","[2242.7999999523163]","1","2","","","5282","118","8","1","win","go","0"
"pit-trial","237","1357576","0.0-123.0","battery-v0.2","","""event"",""trial"",""time""
""fullscreenenter"",""1"",""3016""
","
","
","""event"",""trial"",""time""
""fullscreenenter"",""1"",""3016""
","
","","","782.8999999761581","","","14","5282","2734","n","elianto","#3366ff99"," "," ","1","+10","[1635.5]","1","2","","","5282","119","9","1","win","go","0"
"pit-trial","238","1362439","0.0-124.0","battery-v0.2","","""event"",""trial"",""time""
""fullscreenenter"",""1"",""3016""
","
","
","""event"",""trial"",""time""
""fullscreenenter"",""1"",""3016""
","
","","","-1","","","14","5282","2734","c","elianto","#3366ff99","-1","-1","1","+10","[]","0","2","","","5282","120","5","2","win","no-go","0"
"pit-trial","239","1366287","0.0-125.0","battery-v0.2","","""event"",""trial"",""time""
""fullscreenenter"",""1"",""3016""
","
","
","""event"",""trial"",""time""
""fullscreenenter"",""1"",""3016""
","
","","","989.2000000476837","","","14","5282","2734","b","elianto","#f73b6a7A"," "," ","1","0","[1839.3999999761581]","1","2","","","5282","121","6","3","lose","go","0"
"pit-trial","240","1371152","0.0-126.0","battery-v0.2","","""event"",""trial"",""time""
""fullscreenenter"",""1"",""3016""
","
","
","""event"",""trial"",""time""
""fullscreenenter"",""1"",""3016""
","
","","","-1","","","14","5282","2734","t","elianto","#f73b6a7A","-1","-1","1","-10","[3812.399999976158]","1","2","","","5282","122","7","4","lose","no-go","1"
"pit-trial","241","1374895","0.0-127.0","battery-v0.2","","""event"",""trial"",""time""
""fullscreenenter"",""1"",""3016""
","
","
","""event"",""trial"",""time""
""fullscreenenter"",""1"",""3016""
","
","","","883.9000000357628","","","14","5282","2734","f","elianto","#3366ff99"," "," ","1","+10","[1737.800000011921]","1","2","","","5282","123","8","1","win","go","0"
"pit-trial","242","1378576","0.0-128.0","battery-v0.2","","""event"",""trial"",""time""
""fullscreenenter"",""1"",""3016""
","
","
","""event"",""trial"",""time""
""fullscreenenter"",""1"",""3016""
","
","","","820.8000000119209","","","14","5282","2734","n","elianto","#3366ff99"," "," ","1","+10","[1673.8999999761581]","1","2","","","5282","124","9","1","win","go","0"
"pit-trial","243","1383440","0.0-129.0","battery-v0.2","","""event"",""trial"",""time""
""fullscreenenter"",""1"",""3016""
","
","
","""event"",""trial"",""time""
""fullscreenenter"",""1"",""3016""
","
","","","-1","","","14","5282","2734","t","elianto","#f73b6a7A","-1","-1","1","0","[]","0","2","","","5282","125","7","4","lose","no-go","0"
"pit-trial","244","1387064","0.0-130.0","battery-v0.2","","""event"",""trial"",""time""
""fullscreenenter"",""1"",""3016""
","
","
","""event"",""trial"",""time""
""fullscreenenter"",""1"",""3016""
","
","","","762.1000000238419","","","14","5282","2734","n","elianto","#3366ff99"," "," ","1","+10","[1612.199999988079]","1","2","","","5282","126","9","1","win","go","0"
"pit-trial","245","1391095","0.0-131.0","battery-v0.2","","""event"",""trial"",""time""
""fullscreenenter"",""1"",""3016""
","
","
","""event"",""trial"",""time""
""fullscreenenter"",""1"",""3016""
","
","","","1174.1000000238419","","","14","5282","2734","b","elianto","#f73b6a7A"," "," ","1","0","[2025.5]","1","2","","","5282","127","6","3","lose","go","0"
"pit-trial","246","1394984","0.0-132.0","battery-v0.2","","""event"",""trial"",""time""
""fullscreenenter"",""1"",""3016""
","
","
","""event"",""trial"",""time""
""fullscreenenter"",""1"",""3016""
","
","","","1033.5","","","14","5282","2734","f","elianto","#3366ff99"," "," ","1","0","[1885.300000011921]","1","2","","","5282","128","8","1","win","go","1"
"pit-trial","247","1398640","0.0-133.0","battery-v0.2","","""event"",""trial"",""time""
""fullscreenenter"",""1"",""3016""
","
","
","""event"",""trial"",""time""
""fullscreenenter"",""1"",""3016""
","
","","","792.3999999761581","","","14","5282","2734","b","elianto","#f73b6a7A"," "," ","1","0","[1645.5]","1","2","","","5282","129","6","3","lose","go","0"
"pit-trial","248","1403504","0.0-134.0","battery-v0.2","","""event"",""trial"",""time""
""fullscreenenter"",""1"",""3016""
","
","
","""event"",""trial"",""time""
""fullscreenenter"",""1"",""3016""
","
","","","-1","","","14","5282","2734","t","elianto","#f73b6a7A","-1","-1","1","0","[]","0","2","","","5282","130","7","4","lose","no-go","0"
"pit-trial","249","1407280","0.0-135.0","battery-v0.2","","""event"",""trial"",""time""
""fullscreenenter"",""1"",""3016""
","
","
","""event"",""trial"",""time""
""fullscreenenter"",""1"",""3016""
","
","","","919.6999999880791","","","14","5282","2734","f","elianto","#3366ff99"," "," ","1","+10","[1771.199999988079]","1","2","","","5282","131","8","1","win","go","0"
"pit-trial","250","1411575","0.0-136.0","battery-v0.2","","""event"",""trial"",""time""
""fullscreenenter"",""1"",""3016""
","
","
","""event"",""trial"",""time""
""fullscreenenter"",""1"",""3016""
","
","","","1436.5999999642372","","","14","5282","2734","n","elianto","#3366ff99"," "," ","1","0","[2288.400000035763]","1","2","","","5282","132","9","1","win","go","1"
"pit-trial","251","1415384","0.0-137.0","battery-v0.2","","""event"",""trial"",""time""
""fullscreenenter"",""1"",""3016""
","
","
","""event"",""trial"",""time""
""fullscreenenter"",""1"",""3016""
","
","","","944.3999999761581","","","14","5282","2734","f","elianto","#3366ff99"," "," ","1","+10","[1798]","1","2","","","5282","133","8","1","win","go","0"
"pit-trial","252","1420248","0.0-138.0","battery-v0.2","","""event"",""trial"",""time""
""fullscreenenter"",""1"",""3016""
","
","
","""event"",""trial"",""time""
""fullscreenenter"",""1"",""3016""
","
","","","-1","","","14","5282","2734","b","elianto","#f73b6a7A"," ","-1","0","-10","[]","0","2","","","5282","134","6","3","lose","go","0"
"pit-trial","253","1423744","0.0-139.0","battery-v0.2","","""event"",""trial"",""time""
""fullscreenenter"",""1"",""3016""
","
","
","""event"",""trial"",""time""
""fullscreenenter"",""1"",""3016""
","
","","","631.6000000238419","","","14","5282","2734","n","elianto","#3366ff99"," "," ","1","+10","[1485.199999988079,1979.0999999642372]","2","2","","","5282","135","9","1","win","go","0"
"pit-trial","254","1428609","0.0-140.0","battery-v0.2","","""event"",""trial"",""time""
""fullscreenenter"",""1"",""3016""
","
","
","""event"",""trial"",""time""
""fullscreenenter"",""1"",""3016""
","
","","","-1","","","14","5282","2734","t","elianto","#f73b6a7A","-1","-1","1","0","[]","0","2","","","5282","136","7","4","lose","no-go","0"
"pit-trial","255","1433472","0.0-141.0","battery-v0.2","","""event"",""trial"",""time""
""fullscreenenter"",""1"",""3016""
","
","
","""event"",""trial"",""time""
""fullscreenenter"",""1"",""3016""
","
","","","-1","","","14","5282","2734","t","elianto","#f73b6a7A","-1","-1","1","0","[]","0","2","","","5282","137","7","4","lose","no-go","0"
"pit-trial","256","1437888","0.0-142.0","battery-v0.2","","""event"",""trial"",""time""
""fullscreenenter"",""1"",""3016""
","
","
","""event"",""trial"",""time""
""fullscreenenter"",""1"",""3016""
","
","","","1554.1000000238419","","","14","5282","2734","f","elianto","#3366ff99"," "," ","1","0","[2408.699999988079]","1","2","","","5282","138","8","1","win","go","1"
"pit-trial","257","1442511","0.0-143.0","battery-v0.2","","""event"",""trial"",""time""
""fullscreenenter"",""1"",""3016""
","
","
","""event"",""trial"",""time""
""fullscreenenter"",""1"",""3016""
","
","","","1768","","","14","5282","2734","b","elianto","#f73b6a7A"," "," ","1","0","[2618.199999988079]","1","2","","","5282","139","6","3","lose","go","0"
"pit-trial","258","1446272","0.0-144.0","battery-v0.2","","""event"",""trial"",""time""
""fullscreenenter"",""1"",""3016""
","
","
","""event"",""trial"",""time""
""fullscreenenter"",""1"",""3016""
","
","","","901.0999999642372","","","14","5282","2734","n","elianto","#3366ff99"," "," ","1","+10","[1756]","1","2","","","5282","140","9","1","win","go","0"
"pit-instructions","259","1460374","0.0-145.0","battery-v0.2","","""event"",""trial"",""time""
""fullscreenenter"",""1"",""3016""
","
","
","""event"",""trial"",""time""
""fullscreenenter"",""1"",""3016""
","
","","[{""page_index"":0,""viewing_time"":5923.699999988079},{""page_index"":1,""viewing_time"":8175.199999988079}]","14099.099999964237","","","","","","","","","","","","","","","","","","","","","","","",""
"pit-trial","260","1464431","0.0-146.0","battery-v0.2","","""event"",""trial"",""time""
""fullscreenenter"",""1"",""3016""
","
","
","""event"",""trial"",""time""
""fullscreenenter"",""1"",""3016""
","
","","","1176.5","","","14","5282","2734","e","elianto","#f73b6a7A","-1"," ","0","-10","[2035.300000011921]","1","3","","","5282","141","2","4","lose","no-go","0"
"pit-trial","261","1468079","0.0-147.0","battery-v0.2","","""event"",""trial"",""time""
""fullscreenenter"",""1"",""3016""
","
","
","""event"",""trial"",""time""
""fullscreenenter"",""1"",""3016""
","
","","","788.5","","","14","5282","2734","d","elianto","#3366ff99"," "," ","1","+10","[1640.4000000357628]","1","3","","","5282","142","1","1","win","go","0"
"pit-trial","262","1471571","0.0-148.0","battery-v0.2","","""event"",""trial"",""time""
""fullscreenenter"",""1"",""3016""
","
","
","""event"",""trial"",""time""
""fullscreenenter"",""1"",""3016""
","
","","","627.9000000357628","","","14","5282","2734","j","elianto","#f73b6a7A","-1"," ","0","-10","[1478.4000000357628]","1","3","","","5282","143","0","4","lose","no-go","0"
"pit-trial","263","1475259","0.0-149.0","battery-v0.2","","""event"",""trial"",""time""
""fullscreenenter"",""1"",""3016""
","
","
","""event"",""trial"",""time""
""fullscreenenter"",""1"",""3016""
","
","","","818","","","14","5282","2734","w","elianto","#f73b6a7A"," "," ","1","0","[1671.6000000238419]","1","3","","","5282","144","3","3","lose","go","0"
"pit-trial","264","1478870","0.0-150.0","battery-v0.2","","""event"",""trial"",""time""
""fullscreenenter"",""1"",""3016""
","
","
","""event"",""trial"",""time""
""fullscreenenter"",""1"",""3016""
","
","","","736.7999999523163","","","14","5282","2734","d","elianto","#3366ff99"," "," ","1","+10","[1586.8999999761581]","1","3","","","5282","145","1","1","win","go","0"
"pit-trial","265","1483175","0.0-151.0","battery-v0.2","","""event"",""trial"",""time""
""fullscreenenter"",""1"",""3016""
","
","
","""event"",""trial"",""time""
""fullscreenenter"",""1"",""3016""
","
","","","1442.800000011921","","","14","5282","2734","w","elianto","#f73b6a7A"," "," ","1","0","[2293.699999988079]","1","3","","","5282","146","3","3","lose","go","0"
"pit-trial","266","1488062","0.0-152.0","battery-v0.2","","""event"",""trial"",""time""
""fullscreenenter"",""1"",""3016""
","
","
","""event"",""trial"",""time""
""fullscreenenter"",""1"",""3016""
","
","","","-1","","","14","5282","2734","e","elianto","#f73b6a7A","-1","-1","1","0","[]","0","3","","","5282","147","2","4","lose","no-go","0"
"pit-trial","267","1492927","0.0-153.0","battery-v0.2","","""event"",""trial"",""time""
""fullscreenenter"",""1"",""3016""
","
","
","""event"",""trial"",""time""
""fullscreenenter"",""1"",""3016""
","
