"trial_type","trial_index","time_elapsed","internal_node_id","task_version","subject_id","interactions","blur_events","focus_events","fullscreenenter_events","fullscreenexit_events","success","view_history","rt","responses","num_errors","age","subject","participantId","rune","rune_set","hex","correct","choice","accuracy","outcome","keys","total_keys","block","practice","value","sub","trial","stimulus","robot","valence","action","sham"
"pavlovia","0","7","0.0-0.0","battery-v0.2","","""event"",""trial"",""time""
""blur"",""1"",""2389""
""focus"",""1"",""2426""
""fullscreenenter"",""1"",""4086""
","""event"",""trial"",""time""
""blur"",""1"",""2389""
","""event"",""trial"",""time""
""focus"",""1"",""2426""
","""event"",""trial"",""time""
""fullscreenenter"",""1"",""4086""
","
","","","","","","","","","","","","","","","","","","","","","","","","","","",""
"fullscreen","1","5078","0.0-1.0","battery-v0.2","","""event"",""trial"",""time""
""blur"",""1"",""2389""
""focus"",""1"",""2426""
""fullscreenenter"",""1"",""4086""
","""event"",""trial"",""time""
""blur"",""1"",""2389""
","""event"",""trial"",""time""
""focus"",""1"",""2426""
","""event"",""trial"",""time""
""fullscreenenter"",""1"",""4086""
","
","true","","","","","","","","","","","","","","","","","","","","","","","","","",""
"pit-instructions","2","9861","0.0-2.0-0.0","battery-v0.2","","""event"",""trial"",""time""
""blur"",""1"",""2389""
""focus"",""1"",""2426""
""fullscreenenter"",""1"",""4086""
","""event"",""trial"",""time""
""blur"",""1"",""2389""
","""event"",""trial"",""time""
""focus"",""1"",""2426""
","""event"",""trial"",""time""
""fullscreenenter"",""1"",""4086""
","
","","[{""page_index"":0,""viewing_time"":4780.800000000745}]","4781","","","","","","","","","","","","","","","","","","","","","","","",""
"pit-comprehension","3","12256","0.0-2.0-1.0-0.0","battery-v0.2","","""event"",""trial"",""time""
""blur"",""1"",""2389""
""focus"",""1"",""2426""
""fullscreenenter"",""1"",""4086""
","""event"",""trial"",""time""
""blur"",""1"",""2389""
","""event"",""trial"",""time""
""focus"",""1"",""2426""
","""event"",""trial"",""time""
""fullscreenenter"",""1"",""4086""
","
","","","2392.300000000745","[""shark""]","0","23","10666","5151","","","","","","","","","","","","","","","","","","",""
"pit-instructions","4","13255","0.0-2.0-1.0-1.0","battery-v0.2","","""event"",""trial"",""time""
""blur"",""1"",""2389""
""focus"",""1"",""2426""
""fullscreenenter"",""1"",""4086""
","""event"",""trial"",""time""
""blur"",""1"",""2389""
","""event"",""trial"",""time""
""focus"",""1"",""2426""
","""event"",""trial"",""time""
""fullscreenenter"",""1"",""4086""
","
","","[{""page_index"":0,""viewing_time"":993.4000000003725}]","993.5","","","","","","","","","","","","","","","","","","","","","","","",""
"pit-comprehension","5","15029","0.0-2.0-2.0-0.0","battery-v0.2","","""event"",""trial"",""time""
""blur"",""1"",""2389""
""focus"",""1"",""2426""
""fullscreenenter"",""1"",""4086""
","""event"",""trial"",""time""
""blur"",""1"",""2389""
","""event"",""trial"",""time""
""focus"",""1"",""2426""
","""event"",""trial"",""time""
""fullscreenenter"",""1"",""4086""
","
","","","1772.2000000011176","[""tiger""]","0","23","10666","5151","","","","","","","","","","","","","","","","","","",""
"pit-instructions","6","16643","0.0-2.0-2.0-1.0","battery-v0.2","","""event"",""trial"",""time""
""blur"",""1"",""2389""
""focus"",""1"",""2426""
""fullscreenenter"",""1"",""4086""
","""event"",""trial"",""time""
""blur"",""1"",""2389""
","""event"",""trial"",""time""
""focus"",""1"",""2426""
","""event"",""trial"",""time""
""fullscreenenter"",""1"",""4086""
","
","","[{""page_index"":0,""viewing_time"":1611.9000000003725}]","1612","","","","","","","","","","","","","","","","","","","","","","","",""
"pit-instructions","7","140777","0.0-2.0-3.0","battery-v0.2","","""event"",""trial"",""time""
""blur"",""1"",""2389""
""focus"",""1"",""2426""
""fullscreenenter"",""1"",""4086""
","""event"",""trial"",""time""
""blur"",""1"",""2389""
","""event"",""trial"",""time""
""focus"",""1"",""2426""
","""event"",""trial"",""time""
""fullscreenenter"",""1"",""4086""
","
","","[{""page_index"":0,""viewing_time"":10877.5},{""page_index"":1,""viewing_time"":8516},{""page_index"":2,""viewing_time"":8309.400000000373},{""page_index"":3,""viewing_time"":8277.39999999851},{""page_index"":4,""viewing_time"":8883.700000001118},{""page_index"":5,""viewing_time"":9125.599999999627},{""page_index"":6,""viewing_time"":9643.599999999627},{""page_index"":7,""viewing_time"":8284.099999999627},{""page_index"":8,""viewing_time"":8547.400000000373},{""page_index"":9,""viewing_time"":12016.900000000373},{""page_index"":10,""viewing_time"":10355.800000000745},{""page_index"":11,""viewing_time"":8321.5},{""page_index"":12,""viewing_time"":7685.5},{""page_index"":13,""viewing_time"":5287.699999999255}]","124132.29999999888","","","","","","","","","","","","","","","","","","","","","","","",""
"pit-trial","8","144286","0.0-2.0-4.0-0.0","battery-v0.2","","""event"",""trial"",""time""
""blur"",""1"",""2389""
""focus"",""1"",""2426""
""fullscreenenter"",""1"",""4086""
","""event"",""trial"",""time""
""blur"",""1"",""2389""
","""event"",""trial"",""time""
""focus"",""1"",""2426""
","""event"",""trial"",""time""
""fullscreenenter"",""1"",""4086""
","
","","","645","","","23","10666","5151","&#9784;","elianto","#FFFFF080"," "," ","1","&#10004","[1499.699999999255]","1","0","0","","","","","","","",""
"pit-trial","9","147730","0.0-2.0-4.1-0.1","battery-v0.2","","""event"",""trial"",""time""
""blur"",""1"",""2389""
""focus"",""1"",""2426""
""fullscreenenter"",""1"",""4086""
","""event"",""trial"",""time""
""blur"",""1"",""2389""
","""event"",""trial"",""time""
""focus"",""1"",""2426""
","""event"",""trial"",""time""
""fullscreenenter"",""1"",""4086""
","
","","","578.5999999996275","","","23","10666","5151","&#9784;","elianto","#FFFFF080"," "," ","1","&#10004","[1438.2999999988824]","1","0","0","","","","","","","",""
"pit-trial","10","151006","0.0-2.0-4.2-0.2","battery-v0.2","","""event"",""trial"",""time""
""blur"",""1"",""2389""
""focus"",""1"",""2426""
""fullscreenenter"",""1"",""4086""
","""event"",""trial"",""time""
""blur"",""1"",""2389""
","""event"",""trial"",""time""
""focus"",""1"",""2426""
","""event"",""trial"",""time""
""fullscreenenter"",""1"",""4086""
","
","","","422.30000000074506","","","23","10666","5151","&#9784;","elianto","#FFFFF080"," "," ","1","&#10004","[1273.5]","1","0","0","","","","","","","",""
"pit-trial","11","154358","0.0-2.0-4.3-0.3","battery-v0.2","","""event"",""trial"",""time""
""blur"",""1"",""2389""
""focus"",""1"",""2426""
""fullscreenenter"",""1"",""4086""
","""event"",""trial"",""time""
""blur"",""1"",""2389""
","""event"",""trial"",""time""
""focus"",""1"",""2426""
","""event"",""trial"",""time""
""fullscreenenter"",""1"",""4086""
","
","","","483.7000000011176","","","23","10666","5151","&#9784;","elianto","#FFFFF080"," "," ","1","&#10004","[1342.5]","1","0","0","","","","","","","",""
"pit-trial","12","157618","0.0-2.0-4.4-0.4","battery-v0.2","","""event"",""trial"",""time""
""blur"",""1"",""2389""
""focus"",""1"",""2426""
""fullscreenenter"",""1"",""4086""
","""event"",""trial"",""time""
""blur"",""1"",""2389""
","""event"",""trial"",""time""
""focus"",""1"",""2426""
","""event"",""trial"",""time""
""fullscreenenter"",""1"",""4086""
","
","","","390.5","","","23","10666","5151","&#9784;","elianto","#FFFFF080"," "," ","1","&#10004","[1246.5]","1","0","0","","","","","","","",""
"pit-instructions","13","181544","0.0-2.0-5.0","battery-v0.2","","""event"",""trial"",""time""
""blur"",""1"",""2389""
""focus"",""1"",""2426""
""fullscreenenter"",""1"",""4086""
","""event"",""trial"",""time""
""blur"",""1"",""2389""
","""event"",""trial"",""time""
""focus"",""1"",""2426""
","""event"",""trial"",""time""
""fullscreenenter"",""1"",""4086""
","
","","[{""page_index"":0,""viewing_time"":6464.5},{""page_index"":1,""viewing_time"":6081.9000000003725},{""page_index"":2,""viewing_time"":5159.9000000003725},{""page_index"":3,""viewing_time"":6218.800000000745}]","23925.300000000745","","","","","","","","","","","","","","","","","","","","","","","",""
"pit-trial","14","186414","0.0-2.0-6.0-0.0","battery-v0.2","","""event"",""trial"",""time""
""blur"",""1"",""2389""
""focus"",""1"",""2426""
""fullscreenenter"",""1"",""4086""
","""event"",""trial"",""time""
""blur"",""1"",""2389""
","""event"",""trial"",""time""
""focus"",""1"",""2426""
","""event"",""trial"",""time""
""fullscreenenter"",""1"",""4086""
","
","","","-1","","","23","10666","5151","&#9854;","elianto","#FFFFF080","-1","-1","1","&#10004","[]","0","0","1","","","","","","","",""
"pit-trial","15","191269","0.0-2.0-6.1-0.1","battery-v0.2","","""event"",""trial"",""time""
""blur"",""1"",""2389""
""focus"",""1"",""2426""
""fullscreenenter"",""1"",""4086""
","""event"",""trial"",""time""
""blur"",""1"",""2389""
","""event"",""trial"",""time""
""focus"",""1"",""2426""
","""event"",""trial"",""time""
""fullscreenenter"",""1"",""4086""
","
","","","-1","","","23","10666","5151","&#9854;","elianto","#FFFFF080","-1","-1","1","&#10004","[]","0","0","1","","","","","","","",""
"pit-trial","16","196143","0.0-2.0-6.2-0.2","battery-v0.2","","""event"",""trial"",""time""
""blur"",""1"",""2389""
""focus"",""1"",""2426""
""fullscreenenter"",""1"",""4086""
","""event"",""trial"",""time""
""blur"",""1"",""2389""
","""event"",""trial"",""time""
""focus"",""1"",""2426""
","""event"",""trial"",""time""
""fullscreenenter"",""1"",""4086""
","
","","","-1","","","23","10666","5151","&#9854;","elianto","#FFFFF080","-1","-1","1","&#10004","[]","0","0","1","","","","","","","",""
"pit-trial","17","201010","0.0-2.0-6.3-0.3","battery-v0.2","","""event"",""trial"",""time""
""blur"",""1"",""2389""
""focus"",""1"",""2426""
""fullscreenenter"",""1"",""4086""
","""event"",""trial"",""time""
""blur"",""1"",""2389""
","""event"",""trial"",""time""
""focus"",""1"",""2426""
","""event"",""trial"",""time""
""fullscreenenter"",""1"",""4086""
","
","","","-1","","","23","10666","5151","&#9854;","elianto","#FFFFF080","-1","-1","1","&#10004","[]","0","0","1","","","","","","","",""
"pit-trial","18","205874","0.0-2.0-6.4-0.4","battery-v0.2","","""event"",""trial"",""time""
""blur"",""1"",""2389""
""focus"",""1"",""2426""
""fullscreenenter"",""1"",""4086""
","""event"",""trial"",""time""
""blur"",""1"",""2389""
","""event"",""trial"",""time""
""focus"",""1"",""2426""
","""event"",""trial"",""time""
""fullscreenenter"",""1"",""4086""
","
","","","-1","","","23","10666","5151","&#9854;","elianto","#FFFFF080","-1","-1","1","&#10004","[]","0","0","1","","","","","","","",""
"pit-instructions","19","343013","0.0-2.0-7.0","battery-v0.2","","""event"",""trial"",""time""
""blur"",""1"",""2389""
""focus"",""1"",""2426""
""fullscreenenter"",""1"",""4086""
","""event"",""trial"",""time""
""blur"",""1"",""2389""
","""event"",""trial"",""time""
""focus"",""1"",""2426""
","""event"",""trial"",""time""
""fullscreenenter"",""1"",""4086""
","
","","[{""page_index"":0,""viewing_time"":5943},{""page_index"":1,""viewing_time"":8267.5},{""page_index"":2,""viewing_time"":9618.200000001118},{""page_index"":3,""viewing_time"":7432.799999998882},{""page_index"":4,""viewing_time"":6596.300000000745},{""page_index"":5,""viewing_time"":6881.5999999996275},{""page_index"":6,""viewing_time"":6001.0999999996275},{""page_index"":7,""viewing_time"":8857.700000001118},{""page_index"":8,""viewing_time"":7889.799999998882},{""page_index"":9,""viewing_time"":6689.700000001118},{""page_index"":10,""viewing_time"":6959.299999998882},{""page_index"":11,""viewing_time"":6171.800000000745},{""page_index"":12,""viewing_time"":9633.900000000373},{""page_index"":13,""viewing_time"":8309.400000000373},{""page_index"":14,""viewing_time"":9207.699999999255},{""page_index"":15,""viewing_time"":7211.5},{""page_index"":16,""viewing_time"":7565.5},{""page_index"":17,""viewing_time"":7900.0999999996275}]","137137.1000000015","","","","","","","","","","","","","","","","","","","","","","","",""
"pit-trial","20","346818","0.0-2.0-8.0-0.0","battery-v0.2","","""event"",""trial"",""time""
""blur"",""1"",""2389""
""focus"",""1"",""2426""
""fullscreenenter"",""1"",""4086""
","""event"",""trial"",""time""
""blur"",""1"",""2389""
","""event"",""trial"",""time""
""focus"",""1"",""2426""
","""event"",""trial"",""time""
""fullscreenenter"",""1"",""4086""
","
","","","935.1999999992549","","","23","10666","5151","&#9776;","elianto","#3366ff99"," "," ","1","+10","[1798.3999999985099]","1","0","1","","","","","","","",""
"pit-trial","21","350362","0.0-2.0-8.0-1.0","battery-v0.2","","""event"",""trial"",""time""
""blur"",""1"",""2389""
""focus"",""1"",""2426""
""fullscreenenter"",""1"",""4086""
","""event"",""trial"",""time""
""blur"",""1"",""2389""
","""event"",""trial"",""time""
""focus"",""1"",""2426""
","""event"",""trial"",""time""
""fullscreenenter"",""1"",""4086""
","
","","","679.7000000011176","","","23","10666","5151","&#9776;","elianto","#3366ff99"," "," ","1","+10","[1538]","1","0","1","","","","","","","",""
"pit-trial","22","353630","0.0-2.0-8.0-2.0","battery-v0.2","","""event"",""trial"",""time""
""blur"",""1"",""2389""
""focus"",""1"",""2426""
""fullscreenenter"",""1"",""4086""
","""event"",""trial"",""time""
""blur"",""1"",""2389""
","""event"",""trial"",""time""
""focus"",""1"",""2426""
","""event"",""trial"",""time""
""fullscreenenter"",""1"",""4086""
","
","","","393.09999999962747","","","23","10666","5151","&#9776;","elianto","#3366ff99"," "," ","1","+10","[1257.5]","1","0","1","","","","","","","",""
"pit-trial","23","356899","0.0-2.0-8.0-3.0","battery-v0.2","","""event"",""trial"",""time""
""blur"",""1"",""2389""
""focus"",""1"",""2426""
""fullscreenenter"",""1"",""4086""
","""event"",""trial"",""time""
""blur"",""1"",""2389""
","""event"",""trial"",""time""
""focus"",""1"",""2426""
","""event"",""trial"",""time""
""fullscreenenter"",""1"",""4086""
","
","","","391.19999999925494","","","23","10666","5151","&#9776;","elianto","#3366ff99"," "," ","1","0","[1254.7999999988824]","1","0","1","","","","","","","",""
"pit-trial","24","360196","0.0-2.0-8.0-4.0","battery-v0.2","","""event"",""trial"",""time""
""blur"",""1"",""2389""
""focus"",""1"",""2426""
""fullscreenenter"",""1"",""4086""
","""event"",""trial"",""time""
""blur"",""1"",""2389""
","""event"",""trial"",""time""
""focus"",""1"",""2426""
","""event"",""trial"",""time""
""fullscreenenter"",""1"",""4086""
","
","","","431.3999999985099","","","23","10666","5151","&#9776;","elianto","#3366ff99"," "," ","1","+10","[1289.0999999996275]","1","0","1","","","","","","","",""
"pit-trial","25","363436","0.0-2.0-8.1-0.1","battery-v0.2","","""event"",""trial"",""time""
""blur"",""1"",""2389""
""focus"",""1"",""2426""
""fullscreenenter"",""1"",""4086""
","""event"",""trial"",""time""
""blur"",""1"",""2389""
","""event"",""trial"",""time""
""focus"",""1"",""2426""
","""event"",""trial"",""time""
""fullscreenenter"",""1"",""4086""
","
","","","371.59999999962747","","","23","10666","5151","&#9776;","elianto","#3366ff99"," "," ","1","+10","[1224.199999999255]","1","0","1","","","","","","","",""
"pit-trial","26","366494","0.0-2.0-8.1-1.1","battery-v0.2","","""event"",""trial"",""time""
""blur"",""1"",""2389""
""focus"",""1"",""2426""
""fullscreenenter"",""1"",""4086""
","""event"",""trial"",""time""
""blur"",""1"",""2389""
","""event"",""trial"",""time""
""focus"",""1"",""2426""
","""event"",""trial"",""time""
""fullscreenenter"",""1"",""4086""
","
","","","190.7000000011176","","","23","10666","5151","&#9776;","elianto","#3366ff99"," "," ","1","+10","[1048.4000000003725]","1","0","1","","","","","","","",""
"pit-trial","27","369794","0.0-2.0-8.1-2.1","battery-v0.2","","""event"",""trial"",""time""
""blur"",""1"",""2389""
""focus"",""1"",""2426""
""fullscreenenter"",""1"",""4086""
","""event"",""trial"",""time""
""blur"",""1"",""2389""
","""event"",""trial"",""time""
""focus"",""1"",""2426""
","""event"",""trial"",""time""
""fullscreenenter"",""1"",""4086""
","
","","","444.19999999925494","","","23","10666","5151","&#9776;","elianto","#3366ff99"," "," ","1","+10","[1294.5999999996275]","1","0","1","","","","","","","",""
"pit-trial","28","373030","0.0-2.0-8.1-3.1","battery-v0.2","","""event"",""trial"",""time""
""blur"",""1"",""2389""
""focus"",""1"",""2426""
""fullscreenenter"",""1"",""4086""
","""event"",""trial"",""time""
""blur"",""1"",""2389""
","""event"",""trial"",""time""
""focus"",""1"",""2426""
","""event"",""trial"",""time""
""fullscreenenter"",""1"",""4086""
","
","","","384","","","23","10666","5151","&#9776;","elianto","#3366ff99"," "," ","1","0","[1234.199999999255]","1","0","1","","","","","","","",""
"pit-trial","29","376303","0.0-2.0-8.1-4.1","battery-v0.2","","""event"",""trial"",""time""
""blur"",""1"",""2389""
""focus"",""1"",""2426""
""fullscreenenter"",""1"",""4086""
","""event"",""trial"",""time""
""blur"",""1"",""2389""
","""event"",""trial"",""time""
""focus"",""1"",""2426""
","""event"",""trial"",""time""
""fullscreenenter"",""1"",""4086""
","
","","","418.7999999988824","","","23","10666","5151","&#9776;","elianto","#3366ff99"," "," ","1","+10","[1270.5]","1","0","1","","","","","","","",""
"pit-trial","30","379542","0.0-2.0-8.2-0.2","battery-v0.2","","""event"",""trial"",""time""
""blur"",""1"",""2389""
""focus"",""1"",""2426""
""fullscreenenter"",""1"",""4086""
","""event"",""trial"",""time""
""blur"",""1"",""2389""
","""event"",""trial"",""time""
""focus"",""1"",""2426""
","""event"",""trial"",""time""
""fullscreenenter"",""1"",""4086""
","
","","","387.5","","","23","10666","5151","&#9776;","elianto","#3366ff99"," "," ","1","+10","[1237.7000000011176]","1","0","1","","","","","","","",""
"pit-trial","31","382958","0.0-2.0-8.2-1.2","battery-v0.2","","""event"",""trial"",""time""
""blur"",""1"",""2389""
""focus"",""1"",""2426""
""fullscreenenter"",""1"",""4086""
","""event"",""trial"",""time""
""blur"",""1"",""2389""
","""event"",""trial"",""time""
""focus"",""1"",""2426""
","""event"",""trial"",""time""
""fullscreenenter"",""1"",""4086""
","
","","","564.1999999992549","","","23","10666","5151","&#9776;","elianto","#3366ff99"," "," ","1","+10","[1414.300000000745]","1","0","1","","","","","","","",""
"pit-trial","32","386278","0.0-2.0-8.2-2.2","battery-v0.2","","""event"",""trial"",""time""
""blur"",""1"",""2389""
""focus"",""1"",""2426""
""fullscreenenter"",""1"",""4086""
","""event"",""trial"",""time""
""blur"",""1"",""2389""
","""event"",""trial"",""time""
""focus"",""1"",""2426""
","""event"",""trial"",""time""
""fullscreenenter"",""1"",""4086""
","
","","","467.5","","","23","10666","5151","&#9776;","elianto","#3366ff99"," "," ","1","+10","[1317.9000000003725]","1","0","1","","","","","","","",""
"pit-trial","33","389631","0.0-2.0-8.2-3.2","battery-v0.2","","""event"",""trial"",""time""
""blur"",""1"",""2389""
""focus"",""1"",""2426""
""fullscreenenter"",""1"",""4086""
","""event"",""trial"",""time""
""blur"",""1"",""2389""
","""event"",""trial"",""time""
""focus"",""1"",""2426""
","""event"",""trial"",""time""
""fullscreenenter"",""1"",""4086""
","
","","","499.5","","","23","10666","5151","&#9776;","elianto","#3366ff99"," "," ","1","0","[1351.0999999996275]","1","0","1","","","","","","","",""
"pit-trial","34","392919","0.0-2.0-8.2-4.2","battery-v0.2","","""event"",""trial"",""time""
""blur"",""1"",""2389""
""focus"",""1"",""2426""
""fullscreenenter"",""1"",""4086""
","""event"",""trial"",""time""
""blur"",""1"",""2389""
","""event"",""trial"",""time""
""focus"",""1"",""2426""
","""event"",""trial"",""time""
""fullscreenenter"",""1"",""4086""
","
","","","435.6000000014901","","","23","10666","5151","&#9776;","elianto","#3366ff99"," "," ","1","+10","[1286]","1","0","1","","","","","","","",""
"call-function","35","392920","0.0-2.0-9.0","battery-v0.2","","""event"",""trial"",""time""
""blur"",""1"",""2389""
""focus"",""1"",""2426""
""fullscreenenter"",""1"",""4086""
","""event"",""trial"",""time""
""blur"",""1"",""2389""
","""event"",""trial"",""time""
""focus"",""1"",""2426""
","""event"",""trial"",""time""
""fullscreenenter"",""1"",""4086""
","
","","","","","","","","","","","","","","","","","","","","","","","","","","",""
"pit-instructions","36","433773","0.0-2.0-10.0","battery-v0.2","","""event"",""trial"",""time""
""blur"",""1"",""2389""
""focus"",""1"",""2426""
""fullscreenenter"",""1"",""4086""
","""event"",""trial"",""time""
""blur"",""1"",""2389""
","""event"",""trial"",""time""
""focus"",""1"",""2426""
","""event"",""trial"",""time""
""fullscreenenter"",""1"",""4086""
","
","","[{""page_index"":0,""viewing_time"":5544.60000000149},{""page_index"":1,""viewing_time"":7967.799999998882},{""page_index"":2,""viewing_time"":9865.900000000373},{""page_index"":3,""viewing_time"":9541.199999999255},{""page_index"":4,""viewing_time"":7933}]","40852.70000000112","","","","","","","","","","","","","","","","","","","","","","","",""
"pit-trial","37","436960","0.0-2.0-11.0-0.0","battery-v0.2","","""event"",""trial"",""time""
""blur"",""1"",""2389""
""focus"",""1"",""2426""
""fullscreenenter"",""1"",""4086""
","""event"",""trial"",""time""
""blur"",""1"",""2389""
","""event"",""trial"",""time""
""focus"",""1"",""2426""
","""event"",""trial"",""time""
""fullscreenenter"",""1"",""4086""
","
","","","323.09999999962747","","","23","10666","5151","&#9761;","elianto","#3366ff99","-1"," ","0","0","[1175.800000000745]","1","0","2","","","","","","","",""
"pit-trial","38","440342","0.0-2.0-11.0-1.0","battery-v0.2","","""event"",""trial"",""time""
""blur"",""1"",""2389""
""focus"",""1"",""2426""
""fullscreenenter"",""1"",""4086""
","""event"",""trial"",""time""
""blur"",""1"",""2389""
","""event"",""trial"",""time""
""focus"",""1"",""2426""
","""event"",""trial"",""time""
""fullscreenenter"",""1"",""4086""
","
","","","512.4000000003725","","","23","10666","5151","&#9761;","elianto","#3366ff99","-1"," ","0","0","[1372.9000000003725]","1","0","2","","","","","","","",""
"pit-trial","39","445198","0.0-2.0-11.0-2.0","battery-v0.2","","""event"",""trial"",""time""
""blur"",""1"",""2389""
""focus"",""1"",""2426""
""fullscreenenter"",""1"",""4086""
","""event"",""trial"",""time""
""blur"",""1"",""2389""
","""event"",""trial"",""time""
""focus"",""1"",""2426""
","""event"",""trial"",""time""
""fullscreenenter"",""1"",""4086""
","
","","","-1","","","23","10666","5151","&#9761;","elianto","#3366ff99","-1","-1","1","+10","[]","0","0","2","","","","","","","",""
"pit-trial","40","450074","0.0-2.0-11.0-3.0","battery-v0.2","","""event"",""trial"",""time""
""blur"",""1"",""2389""
""focus"",""1"",""2426""
""fullscreenenter"",""1"",""4086""
","""event"",""trial"",""time""
""blur"",""1"",""2389""
","""event"",""trial"",""time""
""focus"",""1"",""2426""
","""event"",""trial"",""time""
""fullscreenenter"",""1"",""4086""
","
","","","-1","","","23","10666","5151","&#9761;","elianto","#3366ff99","-1","-1","1","0","[]","0","0","2","","","","","","","",""
"pit-trial","41","454938","0.0-2.0-11.0-4.0","battery-v0.2","","""event"",""trial"",""time""
""blur"",""1"",""2389""
""focus"",""1"",""2426""
""fullscreenenter"",""1"",""4086""
","""event"",""trial"",""time""
""blur"",""1"",""2389""
","""event"",""trial"",""time""
""focus"",""1"",""2426""
","""event"",""trial"",""time""
""fullscreenenter"",""1"",""4086""
","
","","","-1","","","23","10666","5151","&#9761;","elianto","#3366ff99","-1","-1","1","+10","[]","0","0","2","","","","","","","",""
"pit-trial","42","459811","0.0-2.0-11.1-0.1","battery-v0.2","","""event"",""trial"",""time""
""blur"",""1"",""2389""
""focus"",""1"",""2426""
""fullscreenenter"",""1"",""4086""
","""event"",""trial"",""time""
""blur"",""1"",""2389""
","""event"",""trial"",""time""
""focus"",""1"",""2426""
","""event"",""trial"",""time""
""fullscreenenter"",""1"",""4086""
","
","","","-1","","","23","10666","5151","&#9761;","elianto","#3366ff99","-1","-1","1","+10","[]","0","0","2","","","","","","","",""
"pit-trial","43","464673","0.0-2.0-11.1-1.1","battery-v0.2","","""event"",""trial"",""time""
""blur"",""1"",""2389""
""focus"",""1"",""2426""
""fullscreenenter"",""1"",""4086""
","""event"",""trial"",""time""
""blur"",""1"",""2389""
","""event"",""trial"",""time""
""focus"",""1"",""2426""
","""event"",""trial"",""time""
""fullscreenenter"",""1"",""4086""
","
","","","-1","","","23","10666","5151","&#9761;","elianto","#3366ff99","-1","-1","1","+10","[]","0","0","2","","","","","","","",""
"pit-trial","44","469526","0.0-2.0-11.1-2.1","battery-v0.2","","""event"",""trial"",""time""
""blur"",""1"",""2389""
""focus"",""1"",""2426""
""fullscreenenter"",""1"",""4086""
","""event"",""trial"",""time""
""blur"",""1"",""2389""
","""event"",""trial"",""time""
""focus"",""1"",""2426""
","""event"",""trial"",""time""
""fullscreenenter"",""1"",""4086""
","
","","","-1","","","23","10666","5151","&#9761;","elianto","#3366ff99","-1","-1","1","+10","[]","0","0","2","","","","","","","",""
"pit-trial","45","474378","0.0-2.0-11.1-3.1","battery-v0.2","","""event"",""trial"",""time""
""blur"",""1"",""2389""
""focus"",""1"",""2426""
""fullscreenenter"",""1"",""4086""
","""event"",""trial"",""time""
""blur"",""1"",""2389""
","""event"",""trial"",""time""
""focus"",""1"",""2426""
","""event"",""trial"",""time""
""fullscreenenter"",""1"",""4086""
","
","","","-1","","","23","10666","5151","&#9761;","elianto","#3366ff99","-1","-1","1","0","[]","0","0","2","","","","","","","",""
"pit-trial","46","479230","0.0-2.0-11.1-4.1","battery-v0.2","","""event"",""trial"",""time""
""blur"",""1"",""2389""
""focus"",""1"",""2426""
""fullscreenenter"",""1"",""4086""
","""event"",""trial"",""time""
""blur"",""1"",""2389""
","""event"",""trial"",""time""
""focus"",""1"",""2426""
","""event"",""trial"",""time""
""fullscreenenter"",""1"",""4086""
","
","","","-1","","","23","10666","5151","&#9761;","elianto","#3366ff99","-1","-1","1","+10","[]","0","0","2","","","","","","","",""
"pit-trial","47","484084","0.0-2.0-11.2-0.2","battery-v0.2","","""event"",""trial"",""time""
""blur"",""1"",""2389""
""focus"",""1"",""2426""
""fullscreenenter"",""1"",""4086""
","""event"",""trial"",""time""
""blur"",""1"",""2389""
","""event"",""trial"",""time""
""focus"",""1"",""2426""
","""event"",""trial"",""time""
""fullscreenenter"",""1"",""4086""
","
","","","-1","","","23","10666","5151","&#9761;","elianto","#3366ff99","-1","-1","1","+10","[]","0","0","2","","","","","","","",""
"pit-trial","48","488935","0.0-2.0-11.2-1.2","battery-v0.2","","""event"",""trial"",""time""
""blur"",""1"",""2389""
""focus"",""1"",""2426""
""fullscreenenter"",""1"",""4086""
","""event"",""trial"",""time""
""blur"",""1"",""2389""
","""event"",""trial"",""time""
""focus"",""1"",""2426""
","""event"",""trial"",""time""
""fullscreenenter"",""1"",""4086""
","
","","","-1","","","23","10666","5151","&#9761;","elianto","#3366ff99","-1","-1","1","+10","[]","0","0","2","","","","","","","",""
"pit-trial","49","493788","0.0-2.0-11.2-2.2","battery-v0.2","","""event"",""trial"",""time""
""blur"",""1"",""2389""
""focus"",""1"",""2426""
""fullscreenenter"",""1"",""4086""
","""event"",""trial"",""time""
""blur"",""1"",""2389""
","""event"",""trial"",""time""
""focus"",""1"",""2426""
","""event"",""trial"",""time""
""fullscreenenter"",""1"",""4086""
","
","","","-1","","","23","10666","5151","&#9761;","elianto","#3366ff99","-1","-1","1","+10","[]","0","0","2","","","","","","","",""
"pit-trial","50","498642","0.0-2.0-11.2-3.2","battery-v0.2","","""event"",""trial"",""time""
""blur"",""1"",""2389""
""focus"",""1"",""2426""
""fullscreenenter"",""1"",""4086""
","""event"",""trial"",""time""
""blur"",""1"",""2389""
","""event"",""trial"",""time""
""focus"",""1"",""2426""
","""event"",""trial"",""time""
""fullscreenenter"",""1"",""4086""
","
","","","-1","","","23","10666","5151","&#9761;","elianto","#3366ff99","-1","-1","1","0","[]","0","0","2","","","","","","","",""
"pit-trial","51","503493","0.0-2.0-11.2-4.2","battery-v0.2","","""event"",""trial"",""time""
""blur"",""1"",""2389""
""focus"",""1"",""2426""
""fullscreenenter"",""1"",""4086""
","""event"",""trial"",""time""
""blur"",""1"",""2389""
","""event"",""trial"",""time""
""focus"",""1"",""2426""
","""event"",""trial"",""time""
""fullscreenenter"",""1"",""4086""
","
","","","-1","","","23","10666","5151","&#9761;","elianto","#3366ff99","-1","-1","1","+10","[]","0","0","2","","","","","","","",""
"pit-trial","52","508346","0.0-2.0-11.3-0.3","battery-v0.2","","""event"",""trial"",""time""
""blur"",""1"",""2389""
""focus"",""1"",""2426""
""fullscreenenter"",""1"",""4086""
","""event"",""trial"",""time""
""blur"",""1"",""2389""
","""event"",""trial"",""time""
""focus"",""1"",""2426""
","""event"",""trial"",""time""
""fullscreenenter"",""1"",""4086""
","
","","","-1","","","23","10666","5151","&#9761;","elianto","#3366ff99","-1","-1","1","+10","[]","0","0","2","","","","","","","",""
"pit-trial","53","513200","0.0-2.0-11.3-1.3","battery-v0.2","","""event"",""trial"",""time""
""blur"",""1"",""2389""
""focus"",""1"",""2426""
""fullscreenenter"",""1"",""4086""
","""event"",""trial"",""time""
""blur"",""1"",""2389""
","""event"",""trial"",""time""
""focus"",""1"",""2426""
","""event"",""trial"",""time""
""fullscreenenter"",""1"",""4086""
","
","","","-1","","","23","10666","5151","&#9761;","elianto","#3366ff99","-1","-1","1","+10","[]","0","0","2","","","","","","","",""
"pit-trial","54","518052","0.0-2.0-11.3-2.3","battery-v0.2","","""event"",""trial"",""time""
""blur"",""1"",""2389""
""focus"",""1"",""2426""
""fullscreenenter"",""1"",""4086""
","""event"",""trial"",""time""
""blur"",""1"",""2389""
","""event"",""trial"",""time""
""focus"",""1"",""2426""
","""event"",""trial"",""time""
""fullscreenenter"",""1"",""4086""
","
","","","-1","","","23","10666","5151","&#9761;","elianto","#3366ff99","-1","-1","1","+10","[]","0","0","2","","","","","","","",""
"pit-trial","55","522905","0.0-2.0-11.3-3.3","battery-v0.2","","""event"",""trial"",""time""
""blur"",""1"",""2389""
""focus"",""1"",""2426""
""fullscreenenter"",""1"",""4086""
","""event"",""trial"",""time""
""blur"",""1"",""2389""
","""event"",""trial"",""time""
""focus"",""1"",""2426""
","""event"",""trial"",""time""
""fullscreenenter"",""1"",""4086""
","
","","","-1","","","23","10666","5151","&#9761;","elianto","#3366ff99","-1","-1","1","0","[]","0","0","2","","","","","","","",""
"pit-trial","56","527758","0.0-2.0-11.3-4.3","battery-v0.2","","""event"",""trial"",""time""
""blur"",""1"",""2389""
""focus"",""1"",""2426""
""fullscreenenter"",""1"",""4086""
","""event"",""trial"",""time""
""blur"",""1"",""2389""
","""event"",""trial"",""time""
""focus"",""1"",""2426""
","""event"",""trial"",""time""
""fullscreenenter"",""1"",""4086""
","
","","","-1","","","23","10666","5151","&#9761;","elianto","#3366ff99","-1","-1","1","+10","[]","0","0","2","","","","","","","",""
"call-function","57","527759","0.0-2.0-12.0","battery-v0.2","","""event"",""trial"",""time""
""blur"",""1"",""2389""
""focus"",""1"",""2426""
""fullscreenenter"",""1"",""4086""
","""event"",""trial"",""time""
""blur"",""1"",""2389""
","""event"",""trial"",""time""
""focus"",""1"",""2426""
","""event"",""trial"",""time""
""fullscreenenter"",""1"",""4086""
","
","","","","","","","","","","","","","","","","","","","","","","","","","","",""
"pit-instructions","58","563833","0.0-2.0-13.0","battery-v0.2","","""event"",""trial"",""time""
""blur"",""1"",""2389""
""focus"",""1"",""2426""
""fullscreenenter"",""1"",""4086""
","""event"",""trial"",""time""
""blur"",""1"",""2389""
","""event"",""trial"",""time""
""focus"",""1"",""2426""
","""event"",""trial"",""time""
""fullscreenenter"",""1"",""4086""
","
","","[{""page_index"":0,""viewing_time"":4925.4000000003725},{""page_index"":1,""viewing_time"":8711.300000000745},{""page_index"":2,""viewing_time"":4750.5},{""page_index"":3,""viewing_time"":11670.799999998882},{""page_index"":4,""viewing_time"":6016}]","36074.20000000112","","","","","","","","","","","","","","","","","","","","","","","",""
"pit-trial","59","568698","0.0-2.0-14.0-0.0","battery-v0.2","","""event"",""trial"",""time""
""blur"",""1"",""2389""
""focus"",""1"",""2426""
""fullscreenenter"",""1"",""4086""
","""event"",""trial"",""time""
""blur"",""1"",""2389""
","""event"",""trial"",""time""
""focus"",""1"",""2426""
","""event"",""trial"",""time""
""fullscreenenter"",""1"",""4086""
","
","","","-1","","","23","10666","5151","&#9826;","elianto","#f73b6a7A","-1","-1","1","0","[]","0","0","3","","","","","","","",""
"pit-trial","60","573555","0.0-2.0-14.0-1.0","battery-v0.2","","""event"",""trial"",""time""
""blur"",""1"",""2389""
""focus"",""1"",""2426""
""fullscreenenter"",""1"",""4086""
","""event"",""trial"",""time""
""blur"",""1"",""2389""
","""event"",""trial"",""time""
""focus"",""1"",""2426""
","""event"",""trial"",""time""
""fullscreenenter"",""1"",""4086""
","
","","","-1","","","23","10666","5151","&#9826;","elianto","#f73b6a7A","-1","-1","1","0","[]","0","0","3","","","","","","","",""
"pit-trial","61","578434","0.0-2.0-14.0-2.0","battery-v0.2","","""event"",""trial"",""time""
""blur"",""1"",""2389""
""focus"",""1"",""2426""
""fullscreenenter"",""1"",""4086""
","""event"",""trial"",""time""
""blur"",""1"",""2389""
","""event"",""trial"",""time""
""focus"",""1"",""2426""
","""event"",""trial"",""time""
""fullscreenenter"",""1"",""4086""
","
","","","-1","","","23","10666","5151","&#9826;","elianto","#f73b6a7A","-1","-1","1","0","[3177.5]","1","0","3","","","","","","","",""
"pit-trial","62","581634","0.0-2.0-14.0-3.0","battery-v0.2","","""event"",""trial"",""time""
""blur"",""1"",""2389""
""focus"",""1"",""2426""
""fullscreenenter"",""1"",""4086""
","""event"",""trial"",""time""
""blur"",""1"",""2389""
","""event"",""trial"",""time""
""focus"",""1"",""2426""
","""event"",""trial"",""time""
""fullscreenenter"",""1"",""4086""
","
","","","339.59999999962747","","","23","10666","5151","&#9826;","elianto","#f73b6a7A","-1"," ","0","0","[1194.5]","1","0","3","","","","","","","",""
"pit-trial","63","584658","0.0-2.0-14.0-4.0","battery-v0.2","","""event"",""trial"",""time""
""blur"",""1"",""2389""
""focus"",""1"",""2426""
""fullscreenenter"",""1"",""4086""
","""event"",""trial"",""time""
""blur"",""1"",""2389""
","""event"",""trial"",""time""
""focus"",""1"",""2426""
","""event"",""trial"",""time""
""fullscreenenter"",""1"",""4086""
","
","","","165.09999999962747","","","23","10666","5151","&#9826;","elianto","#f73b6a7A","-1"," ","0","-10","[1018.0999999996275]","1","0","3","","","","","","","",""
"pit-trial","64","589528","0.0-2.0-14.1-0.1","battery-v0.2","","""event"",""trial"",""time""
""blur"",""1"",""2389""
""focus"",""1"",""2426""
""fullscreenenter"",""1"",""4086""
","""event"",""trial"",""time""
""blur"",""1"",""2389""
","""event"",""trial"",""time""
""focus"",""1"",""2426""
","""event"",""trial"",""time""
""fullscreenenter"",""1"",""4086""
","
","","","-1","","","23","10666","5151","&#9826;","elianto","#f73b6a7A","-1","-1","1","0","[]","0","0","3","","","","","","","",""
"pit-trial","65","594391","0.0-2.0-14.1-1.1","battery-v0.2","","""event"",""trial"",""time""
""blur"",""1"",""2389""
""focus"",""1"",""2426""
""fullscreenenter"",""1"",""4086""
","""event"",""trial"",""time""
""blur"",""1"",""2389""
","""event"",""trial"",""time""
""focus"",""1"",""2426""
","""event"",""trial"",""time""
""fullscreenenter"",""1"",""4086""
","
","","","-1","","","23","10666","5151","&#9826;","elianto","#f73b6a7A","-1","-1","1","0","[]","0","0","3","","","","","","","",""
"pit-trial","66","599243","0.0-2.0-14.1-2.1","battery-v0.2","","""event"",""trial"",""time""
""blur"",""1"",""2389""
""focus"",""1"",""2426""
""fullscreenenter"",""1"",""4086""
","""event"",""trial"",""time""
""blur"",""1"",""2389""
","""event"",""trial"",""time""
""focus"",""1"",""2426""
","""event"",""trial"",""time""
""fullscreenenter"",""1"",""4086""
","
","","","-1","","","23","10666","5151","&#9826;","elianto","#f73b6a7A","-1","-1","1","0","[]","0","0","3","","","","","","","",""
"pit-trial","67","604096","0.0-2.0-14.1-3.1","battery-v0.2","","""event"",""trial"",""time""
""blur"",""1"",""2389""
""focus"",""1"",""2426""
""fullscreenenter"",""1"",""4086""
","""event"",""trial"",""time""
""blur"",""1"",""2389""
","""event"",""trial"",""time""
""focus"",""1"",""2426""
","""event"",""trial"",""time""
""fullscreenenter"",""1"",""4086""
","
","","","-1","","","23","10666","5151","&#9826;","elianto","#f73b6a7A","-1","-1","1","-10","[]","0","0","3","","","","","","","",""
"pit-trial","68","608949","0.0-2.0-14.1-4.1","battery-v0.2","","""event"",""trial"",""time""
""blur"",""1"",""2389""
""focus"",""1"",""2426""
""fullscreenenter"",""1"",""4086""
","""event"",""trial"",""time""
""blur"",""1"",""2389""
","""event"",""trial"",""time""
""focus"",""1"",""2426""
","""event"",""trial"",""time""
""fullscreenenter"",""1"",""4086""
","
","","","-1","","","23","10666","5151","&#9826;","elianto","#f73b6a7A","-1","-1","1","0","[]","0","0","3","","","","","","","",""
"pit-trial","69","613802","0.0-2.0-14.2-0.2","battery-v0.2","","""event"",""trial"",""time""
""blur"",""1"",""2389""
""focus"",""1"",""2426""
""fullscreenenter"",""1"",""4086""
","""event"",""trial"",""time""
""blur"",""1"",""2389""
","""event"",""trial"",""time""
""focus"",""1"",""2426""
","""event"",""trial"",""time""
""fullscreenenter"",""1"",""4086""
","
","","","-1","","","23","10666","5151","&#9826;","elianto","#f73b6a7A","-1","-1","1","0","[]","0","0","3","","","","","","","",""
"pit-trial","70","618654","0.0-2.0-14.2-1.2","battery-v0.2","","""event"",""trial"",""time""
""blur"",""1"",""2389""
""focus"",""1"",""2426""
""fullscreenenter"",""1"",""4086""
","""event"",""trial"",""time""
""blur"",""1"",""2389""
","""event"",""trial"",""time""
""focus"",""1"",""2426""
","""event"",""trial"",""time""
""fullscreenenter"",""1"",""4086""
","
","","","-1","","","23","10666","5151","&#9826;","elianto","#f73b6a7A","-1","-1","1","0","[]","0","0","3","","","","","","","",""
"pit-trial","71","623507","0.0-2.0-14.2-2.2","battery-v0.2","","""event"",""trial"",""time""
""blur"",""1"",""2389""
""focus"",""1"",""2426""
""fullscreenenter"",""1"",""4086""
","""event"",""trial"",""time""
""blur"",""1"",""2389""
","""event"",""trial"",""time""
""focus"",""1"",""2426""
","""event"",""trial"",""time""
""fullscreenenter"",""1"",""4086""
","
","","","-1","","","23","10666","5151","&#9826;","elianto","#f73b6a7A","-1","-1","1","0","[]","0","0","3","","","","","","","",""
"pit-trial","72","628359","0.0-2.0-14.2-3.2","battery-v0.2","","""event"",""trial"",""time""
""blur"",""1"",""2389""
""focus"",""1"",""2426""
""fullscreenenter"",""1"",""4086""
","""event"",""trial"",""time""
""blur"",""1"",""2389""
","""event"",""trial"",""time""
""focus"",""1"",""2426""
","""event"",""trial"",""time""
""fullscreenenter"",""1"",""4086""
","
","","","-1","","","23","10666","5151","&#9826;","elianto","#f73b6a7A","-1","-1","1","-10","[]","0","0","3","","","","","","","",""
"pit-trial","73","633211","0.0-2.0-14.2-4.2","battery-v0.2","","""event"",""trial"",""time""
""blur"",""1"",""2389""
""focus"",""1"",""2426""
""fullscreenenter"",""1"",""4086""
","""event"",""trial"",""time""
""blur"",""1"",""2389""
","""event"",""trial"",""time""
""focus"",""1"",""2426""
","""event"",""trial"",""time""
""fullscreenenter"",""1"",""4086""
","
","","","-1","","","23","10666","5151","&#9826;","elianto","#f73b6a7A","-1","-1","1","0","[]","0","0","3","","","","","","","",""
"pit-trial","74","638063","0.0-2.0-14.3-0.3","battery-v0.2","","""event"",""trial"",""time""
""blur"",""1"",""2389""
""focus"",""1"",""2426""
""fullscreenenter"",""1"",""4086""
","""event"",""trial"",""time""
""blur"",""1"",""2389""
","""event"",""trial"",""time""
""focus"",""1"",""2426""
","""event"",""trial"",""time""
""fullscreenenter"",""1"",""4086""
","
","","","-1","","","23","10666","5151","&#9826;","elianto","#f73b6a7A","-1","-1","1","0","[]","0","0","3","","","","","","","",""
"pit-trial","75","642915","0.0-2.0-14.3-1.3","battery-v0.2","","""event"",""trial"",""time""
""blur"",""1"",""2389""
""focus"",""1"",""2426""
""fullscreenenter"",""1"",""4086""
","""event"",""trial"",""time""
""blur"",""1"",""2389""
","""event"",""trial"",""time""
""focus"",""1"",""2426""
","""event"",""trial"",""time""
""fullscreenenter"",""1"",""4086""
","
","","","-1","","","23","10666","5151","&#9826;","elianto","#f73b6a7A","-1","-1","1","0","[]","0","0","3","","","","","","","",""
"pit-trial","76","647768","0.0-2.0-14.3-2.3","battery-v0.2","","""event"",""trial"",""time""
""blur"",""1"",""2389""
""focus"",""1"",""2426""
""fullscreenenter"",""1"",""4086""
","""event"",""trial"",""time""
""blur"",""1"",""2389""
","""event"",""trial"",""time""
""focus"",""1"",""2426""
","""event"",""trial"",""time""
""fullscreenenter"",""1"",""4086""
","
","","","-1","","","23","10666","5151","&#9826;","elianto","#f73b6a7A","-1","-1","1","0","[]","0","0","3","","","","","","","",""
"pit-trial","77","652621","0.0-2.0-14.3-3.3","battery-v0.2","","""event"",""trial"",""time""
""blur"",""1"",""2389""
""focus"",""1"",""2426""
""fullscreenenter"",""1"",""4086""
","""event"",""trial"",""time""
""blur"",""1"",""2389""
","""event"",""trial"",""time""
""focus"",""1"",""2426""
","""event"",""trial"",""time""
""fullscreenenter"",""1"",""4086""
","
","","","-1","","","23","10666","5151","&#9826;","elianto","#f73b6a7A","-1","-1","1","-10","[]","0","0","3","","","","","","","",""
"pit-trial","78","657475","0.0-2.0-14.3-4.3","battery-v0.2","","""event"",""trial"",""time""
""blur"",""1"",""2389""
""focus"",""1"",""2426""
""fullscreenenter"",""1"",""4086""
","""event"",""trial"",""time""
""blur"",""1"",""2389""
","""event"",""trial"",""time""
""focus"",""1"",""2426""
","""event"",""trial"",""time""
""fullscreenenter"",""1"",""4086""
","
","","","-1","","","23","10666","5151","&#9826;","elianto","#f73b6a7A","-1","-1","1","0","[]","0","0","3","","","","","","","",""
"call-function","79","657476","0.0-2.0-15.0","battery-v0.2","","""event"",""trial"",""time""
""blur"",""1"",""2389""
""focus"",""1"",""2426""
""fullscreenenter"",""1"",""4086""
","""event"",""trial"",""time""
""blur"",""1"",""2389""
","""event"",""trial"",""time""
""focus"",""1"",""2426""
","""event"",""trial"",""time""
""fullscreenenter"",""1"",""4086""
","
","","","","","","","","","","","","","","","","","","","","","","","","","","",""
"pit-instructions","80","690931","0.0-2.0-16.0","battery-v0.2","","""event"",""trial"",""time""
""blur"",""1"",""2389""
""focus"",""1"",""2426""
""fullscreenenter"",""1"",""4086""
","""event"",""trial"",""time""
""blur"",""1"",""2389""
","""event"",""trial"",""time""
""focus"",""1"",""2426""
","""event"",""trial"",""time""
""fullscreenenter"",""1"",""4086""
","
","","[{""page_index"":0,""viewing_time"":9575},{""page_index"":1,""viewing_time"":10059.5},{""page_index"":2,""viewing_time"":7067.5999999996275},{""page_index"":3,""viewing_time"":6752}]","33454.199999999255","","","","","","","","","","","","","","","","","","","","","","","",""
"pit-trial","81","695802","0.0-2.0-17.0-0.0","battery-v0.2","","""event"",""trial"",""time""
""blur"",""1"",""2389""
""focus"",""1"",""2426""
""fullscreenenter"",""1"",""4086""
","""event"",""trial"",""time""
""blur"",""1"",""2389""
","""event"",""trial"",""time""
""focus"",""1"",""2426""
","""event"",""trial"",""time""
""fullscreenenter"",""1"",""4086""
","
","","","-1","","","23","10666","5151","&#9789;","elianto","#f73b6a7A"," ","-1","0","-10","[]","0","0","4","","","","","","","",""
"pit-trial","82","700217","0.0-2.0-17.0-1.0","battery-v0.2","","""event"",""trial"",""time""
""blur"",""1"",""2389""
""focus"",""1"",""2426""
""fullscreenenter"",""1"",""4086""
","""event"",""trial"",""time""
""blur"",""1"",""2389""
","""event"",""trial"",""time""
""focus"",""1"",""2426""
","""event"",""trial"",""time""
""fullscreenenter"",""1"",""4086""
","
","","","1559.6000000014901","","","23","10666","5151","&#9789;","elianto","#f73b6a7A"," "," ","1","0","[2410.9000000003725]","1","0","4","","","","","","","",""
"pit-trial","83","703384","0.0-2.0-17.0-2.0","battery-v0.2","","""event"",""trial"",""time""
""blur"",""1"",""2389""
""focus"",""1"",""2426""
""fullscreenenter"",""1"",""4086""
","""event"",""trial"",""time""
""blur"",""1"",""2389""
","""event"",""trial"",""time""
""focus"",""1"",""2426""
","""event"",""trial"",""time""
""fullscreenenter"",""1"",""4086""
","
","","","304.2999999988824","","","23","10666","5151","&#9789;","elianto","#f73b6a7A"," "," ","1","0","[1156.199999999255]","1","0","4","","","","","","","",""
"pit-trial","84","706496","0.0-2.0-17.0-3.0","battery-v0.2","","""event"",""trial"",""time""
""blur"",""1"",""2389""
""focus"",""1"",""2426""
""fullscreenenter"",""1"",""4086""
","""event"",""trial"",""time""
""blur"",""1"",""2389""
","""event"",""trial"",""time""
""focus"",""1"",""2426""
","""event"",""trial"",""time""
""fullscreenenter"",""1"",""4086""
","
","","","248.5","","","23","10666","5151","&#9789;","elianto","#f73b6a7A"," "," ","1","-10","[1100.300000000745]","1","0","4","","","","","","","",""
"pit-trial","85","709611","0.0-2.0-17.0-4.0","battery-v0.2","","""event"",""trial"",""time""
""blur"",""1"",""2389""
""focus"",""1"",""2426""
""fullscreenenter"",""1"",""4086""
","""event"",""trial"",""time""
""blur"",""1"",""2389""
","""event"",""trial"",""time""
""focus"",""1"",""2426""
","""event"",""trial"",""time""
""fullscreenenter"",""1"",""4086""
","
","","","251.7000000011176","","","23","10666","5151","&#9789;","elianto","#f73b6a7A"," "," ","1","0","[1108]","1","0","4","","","","","","","",""
"pit-trial","86","712612","0.0-2.0-17.1-0.1","battery-v0.2","","""event"",""trial"",""time""
""blur"",""1"",""2389""
""focus"",""1"",""2426""
""fullscreenenter"",""1"",""4086""
","""event"",""trial"",""time""
""blur"",""1"",""2389""
","""event"",""trial"",""time""
""focus"",""1"",""2426""
","""event"",""trial"",""time""
""fullscreenenter"",""1"",""4086""
","
","","","127.20000000111759","","","23","10666","5151","&#9789;","elianto","#f73b6a7A"," "," ","1","0","[984.9000000003725]","1","0","4","","","","","","","",""
"pit-trial","87","715686","0.0-2.0-17.1-1.1","battery-v0.2","","""event"",""trial"",""time""
""blur"",""1"",""2389""
""focus"",""1"",""2426""
""fullscreenenter"",""1"",""4086""
","""event"",""trial"",""time""
""blur"",""1"",""2389""
","""event"",""trial"",""time""
""focus"",""1"",""2426""
","""event"",""trial"",""time""
""fullscreenenter"",""1"",""4086""
","
","","","207.69999999925494","","","23","10666","5151","&#9789;","elianto","#f73b6a7A"," "," ","1","0","[1065.199999999255]","1","0","4","","","","","","","",""
"pit-trial","88","718657","0.0-2.0-17.1-2.1","battery-v0.2","","""event"",""trial"",""time""
""blur"",""1"",""2389""
""focus"",""1"",""2426""
""fullscreenenter"",""1"",""4086""
","""event"",""trial"",""time""
""blur"",""1"",""2389""
","""event"",""trial"",""time""
""focus"",""1"",""2426""
","""event"",""trial"",""time""
""fullscreenenter"",""1"",""4086""
","
","","","107.90000000037253","","","23","10666","5151","&#9789;","elianto","#f73b6a7A"," "," ","1","0","[958.3000000007451]","1","0","4","","","","","","","",""
"pit-trial","89","721742","0.0-2.0-17.1-3.1","battery-v0.2","","""event"",""trial"",""time""
""blur"",""1"",""2389""
""focus"",""1"",""2426""
""fullscreenenter"",""1"",""4086""
","""event"",""trial"",""time""
""blur"",""1"",""2389""
","""event"",""trial"",""time""
""focus"",""1"",""2426""
","""event"",""trial"",""time""
""fullscreenenter"",""1"",""4086""
","
","","","232.40000000037253","","","23","10666","5151","&#9789;","elianto","#f73b6a7A"," "," ","1","-10","[1083.4000000003725]","1","0","4","","","","","","","",""
"pit-trial","90","724695","0.0-2.0-17.1-4.1","battery-v0.2","","""event"",""trial"",""time""
""blur"",""1"",""2389""
""focus"",""1"",""2426""
""fullscreenenter"",""1"",""4086""
","""event"",""trial"",""time""
""blur"",""1"",""2389""
","""event"",""trial"",""time""
""focus"",""1"",""2426""
","""event"",""trial"",""time""
""fullscreenenter"",""1"",""4086""
","
","","","100","","","23","10666","5151","&#9789;","elianto","#f73b6a7A"," "," ","1","0","[950.5999999996275]","1","0","4","","","","","","","",""
"pit-trial","91","727631","0.0-2.0-17.2-0.2","battery-v0.2","","""event"",""trial"",""time""
""blur"",""1"",""2389""
""focus"",""1"",""2426""
""fullscreenenter"",""1"",""4086""
","""event"",""trial"",""time""
""blur"",""1"",""2389""
","""event"",""trial"",""time""
""focus"",""1"",""2426""
","""event"",""trial"",""time""
""fullscreenenter"",""1"",""4086""
","
","","","82.69999999925494","","","23","10666","5151","&#9789;","elianto","#f73b6a7A"," "," ","1","0","[934]","1","0","4","","","","","","","",""
"pit-trial","92","730566","0.0-2.0-17.2-1.2","battery-v0.2","","""event"",""trial"",""time""
""blur"",""1"",""2389""
""focus"",""1"",""2426""
""fullscreenenter"",""1"",""4086""
","""event"",""trial"",""time""
""blur"",""1"",""2389""
","""event"",""trial"",""time""
""focus"",""1"",""2426""
","""event"",""trial"",""time""
""fullscreenenter"",""1"",""4086""
","
","","","83.90000000037253","","","23","10666","5151","&#9789;","elianto","#f73b6a7A"," "," ","1","0","[934]","1","0","4","","","","","","","",""
"pit-trial","93","733543","0.0-2.0-17.2-2.2","battery-v0.2","","""event"",""trial"",""time""
""blur"",""1"",""2389""
""focus"",""1"",""2426""
""fullscreenenter"",""1"",""4086""
","""event"",""trial"",""time""
""blur"",""1"",""2389""
","""event"",""trial"",""time""
""focus"",""1"",""2426""
","""event"",""trial"",""time""
""fullscreenenter"",""1"",""4086""
","
","","","124.09999999962747","","","23","10666","5151","&#9789;","elianto","#f73b6a7A"," "," ","1","0","[974.5999999996275]","1","0","4","","","","","","","",""
"pit-trial","94","736719","0.0-2.0-17.2-3.2","battery-v0.2","","""event"",""trial"",""time""
""blur"",""1"",""2389""
""focus"",""1"",""2426""
""fullscreenenter"",""1"",""4086""
","""event"",""trial"",""time""
""blur"",""1"",""2389""
","""event"",""trial"",""time""
""focus"",""1"",""2426""
","""event"",""trial"",""time""
""fullscreenenter"",""1"",""4086""
","
","","","324.09999999962747","","","23","10666","5151","&#9789;","elianto","#f73b6a7A"," "," ","1","-10","[1174.300000000745]","1","0","4","","","","","","","",""
"pit-trial","95","740440","0.0-2.0-17.2-4.2","battery-v0.2","","""event"",""trial"",""time""
""blur"",""1"",""2389""
""focus"",""1"",""2426""
""fullscreenenter"",""1"",""4086""
","""event"",""trial"",""time""
""blur"",""1"",""2389""
","""event"",""trial"",""time""
""focus"",""1"",""2426""
","""event"",""trial"",""time""
""fullscreenenter"",""1"",""4086""
","
","","","868.2000000011176","","","23","10666","5151","&#9789;","elianto","#f73b6a7A"," "," ","1","0","[1718.699999999255]","1","0","4","","","","","","","",""
"pit-trial","96","743855","0.0-2.0-17.3-0.3","battery-v0.2","","""event"",""trial"",""time""
""blur"",""1"",""2389""
""focus"",""1"",""2426""
""fullscreenenter"",""1"",""4086""
","""event"",""trial"",""time""
""blur"",""1"",""2389""
","""event"",""trial"",""time""
""focus"",""1"",""2426""
","""event"",""trial"",""time""
""fullscreenenter"",""1"",""4086""
","
","","","562.6999999992549","","","23","10666","5151","&#9789;","elianto","#f73b6a7A"," "," ","1","0","[1413.0999999996275]","1","0","4","","","","","","","",""
"pit-trial","97","747143","0.0-2.0-17.3-1.3","battery-v0.2","","""event"",""trial"",""time""
""blur"",""1"",""2389""
""focus"",""1"",""2426""
""fullscreenenter"",""1"",""4086""
","""event"",""trial"",""time""
""blur"",""1"",""2389""
","""event"",""trial"",""time""
""focus"",""1"",""2426""
","""event"",""trial"",""time""
""fullscreenenter"",""1"",""4086""
","
","","","435.09999999962747","","","23","10666","5151","&#9789;","elianto","#f73b6a7A"," "," ","1","0","[1286]","1","0","4","","","","","","","",""
"pit-trial","98","750238","0.0-2.0-17.3-2.3","battery-v0.2","","""event"",""trial"",""time""
""blur"",""1"",""2389""
""focus"",""1"",""2426""
""fullscreenenter"",""1"",""4086""
","""event"",""trial"",""time""
""blur"",""1"",""2389""
","""event"",""trial"",""time""
""focus"",""1"",""2426""
","""event"",""trial"",""time""
""fullscreenenter"",""1"",""4086""
","
","","","243.60000000149012","","","23","10666","5151","&#9789;","elianto","#f73b6a7A"," "," ","1","0","[1094.2000000011176]","1","0","4","","","","","","","",""
"pit-trial","99","753239","0.0-2.0-17.3-3.3","battery-v0.2","","""event"",""trial"",""time""
""blur"",""1"",""2389""
""focus"",""1"",""2426""
""fullscreenenter"",""1"",""4086""
","""event"",""trial"",""time""
""blur"",""1"",""2389""
","""event"",""trial"",""time""
""focus"",""1"",""2426""
","""event"",""trial"",""time""
""fullscreenenter"",""1"",""4086""
","
","","","148.90000000037253","","","23","10666","5151","&#9789;","elianto","#f73b6a7A"," "," ","1","-10","[998.9000000003725]","1","0","4","","","","","","","",""
"pit-trial","100","756319","0.0-2.0-17.3-4.3","battery-v0.2","","""event"",""trial"",""time""
""blur"",""1"",""2389""
""focus"",""1"",""2426""
""fullscreenenter"",""1"",""4086""
","""event"",""trial"",""time""
""blur"",""1"",""2389""
","""event"",""trial"",""time""
""focus"",""1"",""2426""
","""event"",""trial"",""time""
""fullscreenenter"",""1"",""4086""
","
","","","227.30000000074506","","","23","10666","5151","&#9789;","elianto","#f73b6a7A"," "," ","1","0","[1078.199999999255]","1","0","4","","","","","","","",""
"call-function","101","756320","0.0-2.0-18.0","battery-v0.2","","""event"",""trial"",""time""
""blur"",""1"",""2389""
""focus"",""1"",""2426""
""fullscreenenter"",""1"",""4086""
","""event"",""trial"",""time""
""blur"",""1"",""2389""
","""event"",""trial"",""time""
""focus"",""1"",""2426""
","""event"",""trial"",""time""
""fullscreenenter"",""1"",""4086""
","
","","","","","","","","","","","","","","","","","","","","","","","","","","",""
"pit-instructions","102","848507","0.0-2.0-19.0","battery-v0.2","","""event"",""trial"",""time""
""blur"",""1"",""2389""
""focus"",""1"",""2426""
""fullscreenenter"",""1"",""4086""
","""event"",""trial"",""time""
""blur"",""1"",""2389""
","""event"",""trial"",""time""
""focus"",""1"",""2426""
","""event"",""trial"",""time""
""fullscreenenter"",""1"",""4086""
","
","","[{""page_index"":0,""viewing_time"":11958.300000000745},{""page_index"":1,""viewing_time"":8255.5},{""page_index"":2,""viewing_time"":15237.699999999255},{""page_index"":3,""viewing_time"":9727.60000000149},{""page_index"":4,""viewing_time"":13221.299999998882},{""page_index"":5,""viewing_time"":11117.300000000745},{""page_index"":6,""viewing_time"":8467.699999999255},{""page_index"":7,""viewing_time"":7653.700000001118},{""page_index"":8,""viewing_time"":6547.5}]","92186.70000000112","","","","","","","","","","","","","","","","","","","","","","","",""
"pit-comprehension","103","852930","0.0-2.0-20.0-0.0","battery-v0.2","","""event"",""trial"",""time""
""blur"",""1"",""2389""
""focus"",""1"",""2426""
""fullscreenenter"",""1"",""4086""
","""event"",""trial"",""time""
""blur"",""1"",""2389""
","""event"",""trial"",""time""
""focus"",""1"",""2426""
","""event"",""trial"",""time""
""fullscreenenter"",""1"",""4086""
","
","","","4420.200000001118","[""SPACE""]","0","23","10666","5151","","","","","","","","","","","","","","","","","","",""
"pit-instructions","104","857843","0.0-2.0-20.0-1.0","battery-v0.2","","""event"",""trial"",""time""
""blur"",""1"",""2389""
""focus"",""1"",""2426""
""fullscreenenter"",""1"",""4086""
","""event"",""trial"",""time""
""blur"",""1"",""2389""
","""event"",""trial"",""time""
""focus"",""1"",""2426""
","""event"",""trial"",""time""
""fullscreenenter"",""1"",""4086""
","
","","[{""page_index"":0,""viewing_time"":4887.4000000003725}]","4887.5999999996275","","","","","","","","","","","","","","","","","","","","","","","",""
"pit-comprehension","105","864905","0.0-2.0-21.0-0.0","battery-v0.2","","""event"",""trial"",""time""
""blur"",""1"",""2389""
""focus"",""1"",""2426""
""fullscreenenter"",""1"",""4086""
","""event"",""trial"",""time""
""blur"",""1"",""2389""
","""event"",""trial"",""time""
""focus"",""1"",""2426""
","""event"",""trial"",""time""
""fullscreenenter"",""1"",""4086""
","
","","","7060.10000000149","[""10""]","0","23","10666","5151","","","","","","","","","","","","","","","","","","",""
"pit-instructions","106","868300","0.0-2.0-21.0-1.0","battery-v0.2","","""event"",""trial"",""time""
""blur"",""1"",""2389""
""focus"",""1"",""2426""
""fullscreenenter"",""1"",""4086""
","""event"",""trial"",""time""
""blur"",""1"",""2389""
","""event"",""trial"",""time""
""focus"",""1"",""2426""
","""event"",""trial"",""time""
""fullscreenenter"",""1"",""4086""
","
","","[{""page_index"":0,""viewing_time"":3367.5}]","3367.5","","","","","","","","","","","","","","","","","","","","","","","",""
"pit-comprehension","107","874839","0.0-2.0-22.0-0.0","battery-v0.2","","""event"",""trial"",""time""
""blur"",""1"",""2389""
""focus"",""1"",""2426""
""fullscreenenter"",""1"",""4086""
","""event"",""trial"",""time""
""blur"",""1"",""2389""
","""event"",""trial"",""time""
""focus"",""1"",""2426""
","""event"",""trial"",""time""
""fullscreenenter"",""1"",""4086""
","
","","","6536.9000000003725","[""0""]","0","23","10666","5151","","","","","","","","","","","","","","","","","","",""
"pit-instructions","108","879802","0.0-2.0-22.0-1.0","battery-v0.2","","""event"",""trial"",""time""
""blur"",""1"",""2389""
""focus"",""1"",""2426""
""fullscreenenter"",""1"",""4086""
","""event"",""trial"",""time""
""blur"",""1"",""2389""
","""event"",""trial"",""time""
""focus"",""1"",""2426""
","""event"",""trial"",""time""
""fullscreenenter"",""1"",""4086""
","
","","[{""page_index"":0,""viewing_time"":4937.800000000745}]","4938","","","","","","","","","","","","","","","","","","","","","","","",""
"pit-comprehension","109","891876","0.0-2.0-23.0-0.0","battery-v0.2","","""event"",""trial"",""time""
""blur"",""1"",""2389""
""focus"",""1"",""2426""
""fullscreenenter"",""1"",""4086""
","""event"",""trial"",""time""
""blur"",""1"",""2389""
","""event"",""trial"",""time""
""focus"",""1"",""2426""
","""event"",""trial"",""time""
""fullscreenenter"",""1"",""4086""
","
","","","12072","[""False""]","1","23","10666","5151","","","","","","","","","","","","","","","","","","",""
"pit-instructions","110","900295","0.0-2.0-23.0-1.0","battery-v0.2","","""event"",""trial"",""time""
""blur"",""1"",""2389""
""focus"",""1"",""2426""
""fullscreenenter"",""1"",""4086""
","""event"",""trial"",""time""
""blur"",""1"",""2389""
","""event"",""trial"",""time""
""focus"",""1"",""2426""
","""event"",""trial"",""time""
""fullscreenenter"",""1"",""4086""
","
","","[{""page_index"":0,""viewing_time"":8393.300000000745}]","8393.400000000373","","","","","","","","","","","","","","","","","","","","","","","",""
"pit-instructions","111","901567","0.0-2.0-23.0-2.0-0.0","battery-v0.2","","""event"",""trial"",""time""
""blur"",""1"",""2389""
""focus"",""1"",""2426""
""fullscreenenter"",""1"",""4086""
","""event"",""trial"",""time""
""blur"",""1"",""2389""
","""event"",""trial"",""time""
""focus"",""1"",""2426""
","""event"",""trial"",""time""
""fullscreenenter"",""1"",""4086""
","
","","[{""page_index"":0,""viewing_time"":1270.5999999996275}]","1270.7000000011176","","","","","","","","","","","","","","","","","","","","","","","",""
"pit-comprehension","112","910329","0.0-2.0-23.1-0.1","battery-v0.2","","""event"",""trial"",""time""
""blur"",""1"",""2389""
""focus"",""1"",""2426""
""fullscreenenter"",""1"",""4086""
","""event"",""trial"",""time""
""blur"",""1"",""2389""
","""event"",""trial"",""time""
""focus"",""1"",""2426""
","""event"",""trial"",""time""
""fullscreenenter"",""1"",""4086""
","
","","","8760.599999999627","[""True""]","0","23","10666","5151","","","","","","","","","","","","","","","","","","",""
"pit-instructions","113","912722","0.0-2.0-23.1-1.1","battery-v0.2","","""event"",""trial"",""time""
""blur"",""1"",""2389""
""focus"",""1"",""2426""
""fullscreenenter"",""1"",""4086""
","""event"",""trial"",""time""
""blur"",""1"",""2389""
","""event"",""trial"",""time""
""focus"",""1"",""2426""
","""event"",""trial"",""time""
""fullscreenenter"",""1"",""4086""
","
","","[{""page_index"":0,""viewing_time"":2367.2000000011176}]","2367.4000000003725","","","","","","","","","","","","","","","","","","","","","","","",""
"pit-comprehension","114","922401","0.0-2.0-24.0-0.0","battery-v0.2","","""event"",""trial"",""time""
""blur"",""1"",""2389""
""focus"",""1"",""2426""
""fullscreenenter"",""1"",""4086""
","""event"",""trial"",""time""
""blur"",""1"",""2389""
","""event"",""trial"",""time""
""focus"",""1"",""2426""
","""event"",""trial"",""time""
""fullscreenenter"",""1"",""4086""
","
","","","9676.39999999851","[""True""]","0","23","10666","5151","","","","","","","","","","","","","","","","","","",""
"pit-instructions","115","925268","0.0-2.0-24.0-1.0","battery-v0.2","","""event"",""trial"",""time""
""blur"",""1"",""2389""
""focus"",""1"",""2426""
""fullscreenenter"",""1"",""4086""
","""event"",""trial"",""time""
""blur"",""1"",""2389""
","""event"",""trial"",""time""
""focus"",""1"",""2426""
","""event"",""trial"",""time""
""fullscreenenter"",""1"",""4086""
","
","","[{""page_index"":0,""viewing_time"":2840}]","2840.0999999996275","","","","","","","","","","","","","","","","","","","","","","","",""
"pit-comprehension","116","931870","0.0-2.0-25.0-0.0","battery-v0.2","","""event"",""trial"",""time""
""blur"",""1"",""2389""
""focus"",""1"",""2426""
""fullscreenenter"",""1"",""4086""
","""event"",""trial"",""time""
""blur"",""1"",""2389""
","""event"",""trial"",""time""
""focus"",""1"",""2426""
","""event"",""trial"",""time""
""fullscreenenter"",""1"",""4086""
","
","","","6600.299999998882","[""True""]","0","23","10666","5151","","","","","","","","","","","","","","","","","","",""
"pit-instructions","117","933349","0.0-2.0-25.0-1.0","battery-v0.2","","""event"",""trial"",""time""
""blur"",""1"",""2389""
""focus"",""1"",""2426""
""fullscreenenter"",""1"",""4086""
","""event"",""trial"",""time""
""blur"",""1"",""2389""
","""event"",""trial"",""time""
""focus"",""1"",""2426""
","""event"",""trial"",""time""
""fullscreenenter"",""1"",""4086""
","
","","[{""page_index"":0,""viewing_time"":1449.9000000003725}]","1450.0999999996275","","","","","","","","","","","","","","","","","","","","","","","",""
"pit-comprehension","118","938778","0.0-2.0-26.0-0.0","battery-v0.2","","""event"",""trial"",""time""
""blur"",""1"",""2389""
""focus"",""1"",""2426""
""fullscreenenter"",""1"",""4086""
","""event"",""trial"",""time""
""blur"",""1"",""2389""
","""event"",""trial"",""time""
""focus"",""1"",""2426""
","""event"",""trial"",""time""
""fullscreenenter"",""1"",""4086""
","
","","","5426.5","[""False""]","0","23","10666","5151","","","","","","","","","","","","","","","","","","",""
"pit-instructions","119","940721","0.0-2.0-26.0-1.0","battery-v0.2","","""event"",""trial"",""time""
""blur"",""1"",""2389""
""focus"",""1"",""2426""
""fullscreenenter"",""1"",""4086""
","""event"",""trial"",""time""
""blur"",""1"",""2389""
","""event"",""trial"",""time""
""focus"",""1"",""2426""
","""event"",""trial"",""time""
""fullscreenenter"",""1"",""4086""
","
","","[{""page_index"":0,""viewing_time"":1916.4000000003725}]","1916.5","","","","","","","","","","","","","","","","","","","","","","","",""
"pit-instructions","120","958800","0.0-3.0","battery-v0.2","","""event"",""trial"",""time""
""blur"",""1"",""2389""
""focus"",""1"",""2426""
""fullscreenenter"",""1"",""4086""
","""event"",""trial"",""time""
""blur"",""1"",""2389""
","""event"",""trial"",""time""
""focus"",""1"",""2426""
","""event"",""trial"",""time""
""fullscreenenter"",""1"",""4086""
","
","","[{""page_index"":0,""viewing_time"":5005.200000001118},{""page_index"":1,""viewing_time"":5662.699999999255},{""page_index"":2,""viewing_time"":7410.0999999996275}]","18078.10000000149","","","","","","","","","","","","","","","","","","","","","","","",""
"pit-trial","121","962094","0.0-4.0","battery-v0.2","","""event"",""trial"",""time""
""blur"",""1"",""2389""
""focus"",""1"",""2426""
""fullscreenenter"",""1"",""4086""
","""event"",""trial"",""time""
""blur"",""1"",""2389""
","""event"",""trial"",""time""
""focus"",""1"",""2426""
","""event"",""trial"",""time""
""fullscreenenter"",""1"",""4086""
","
","","","425","","","23","10666","5151","&#9752;","elianto","#f73b6a7A"," "," ","1","-10","[1284.199999999255]","1","1","","","10666","1","3","3","lose","go","1"
"pit-trial","122","965595","0.0-5.0","battery-v0.2","","""event"",""trial"",""time""
""blur"",""1"",""2389""
""focus"",""1"",""2426""
""fullscreenenter"",""1"",""4086""
","""event"",""trial"",""time""
""blur"",""1"",""2389""
","""event"",""trial"",""time""
""focus"",""1"",""2426""
","""event"",""trial"",""time""
""fullscreenenter"",""1"",""4086""
","
","","","636.0999999996275","","","23","10666","5151","&#9733;","elianto","#3366ff99","-1"," ","0","0","[1488]","1","1","","","10666","2","2","2","win","no-go","0"
"pit-trial","123","969342","0.0-6.0","battery-v0.2","","""event"",""trial"",""time""
""blur"",""1"",""2389""
""focus"",""1"",""2426""
""fullscreenenter"",""1"",""4086""
","""event"",""trial"",""time""
""blur"",""1"",""2389""
","""event"",""trial"",""time""
""focus"",""1"",""2426""
","""event"",""trial"",""time""
""fullscreenenter"",""1"",""4086""
","
","","","886.3000000007451","","","23","10666","5151","&#9728;","elianto","#f73b6a7A","-1"," ","0","-10","[1738.2999999988824]","1","1","","","10666","3","0","4","lose","no-go","0"
"pit-trial","124","972685","0.0-7.0","battery-v0.2","","""event"",""trial"",""time""
""blur"",""1"",""2389""
""focus"",""1"",""2426""
""fullscreenenter"",""1"",""4086""
","""event"",""trial"",""time""
""blur"",""1"",""2389""
","""event"",""trial"",""time""
""focus"",""1"",""2426""
","""event"",""trial"",""time""
""fullscreenenter"",""1"",""4086""
","
","","","472.40000000037253","","","23","10666","5151","&#9730;","elianto","#3366ff99"," "," ","1","+10","[1328.2000000011176]","1","1","","","10666","4","1","1","win","go","0"
"pit-trial","125","976089","0.0-8.0","battery-v0.2","","""event"",""trial"",""time""
""blur"",""1"",""2389""
""focus"",""1"",""2426""
""fullscreenenter"",""1"",""4086""
","""event"",""trial"",""time""
""blur"",""1"",""2389""
","""event"",""trial"",""time""
""focus"",""1"",""2426""
","""event"",""trial"",""time""
""fullscreenenter"",""1"",""4086""
","
","","","530.5","","","23","10666","5151","&#9730;","elianto","#3366ff99"," "," ","1","0","[1392.6000000014901]","1","1","","","10666","5","1","1","win","go","1"
"pit-trial","126","979985","0.0-9.0","battery-v0.2","","""event"",""trial"",""time""
""blur"",""1"",""2389""
""focus"",""1"",""2426""
""fullscreenenter"",""1"",""4086""
","""event"",""trial"",""time""
""blur"",""1"",""2389""
","""event"",""trial"",""time""
""focus"",""1"",""2426""
","""event"",""trial"",""time""
""fullscreenenter"",""1"",""4086""
","
","","","1032.300000000745","","","23","10666","5151","&#9752;","elianto","#f73b6a7A"," "," ","1","0","[1885]","1","1","","","10666","6","3","3","lose","go","0"
"pit-trial","127","984863","0.0-10.0","battery-v0.2","","""event"",""trial"",""time""
""blur"",""1"",""2389""
""focus"",""1"",""2426""
""fullscreenenter"",""1"",""4086""
","""event"",""trial"",""time""
""blur"",""1"",""2389""
","""event"",""trial"",""time""
""focus"",""1"",""2426""
","""event"",""trial"",""time""
""fullscreenenter"",""1"",""4086""
","
","","","-1","","","23","10666","5151","&#9728;","elianto","#f73b6a7A","-1","-1","1","-10","[]","0","1","","","10666","7","0","4","lose","no-go","1"
"pit-trial","128","988681","0.0-11.0","battery-v0.2","","""event"",""trial"",""time""
""blur"",""1"",""2389""
""focus"",""1"",""2426""
""fullscreenenter"",""1"",""4086""
","""event"",""trial"",""time""
""blur"",""1"",""2389""
","""event"",""trial"",""time""
""focus"",""1"",""2426""
","""event"",""trial"",""time""
""fullscreenenter"",""1"",""4086""
","
","","","955.6999999992549","","","23","10666","5151","&#9733;","elianto","#3366ff99","-1"," ","0","0","[1806.7999999988824]","1","1","","","10666","8","2","2","win","no-go","0"
"pit-trial","129","992120","0.0-12.0","battery-v0.2","","""event"",""trial"",""time""
""blur"",""1"",""2389""
""focus"",""1"",""2426""
""fullscreenenter"",""1"",""4086""
","""event"",""trial"",""time""
""blur"",""1"",""2389""
","""event"",""trial"",""time""
""focus"",""1"",""2426""
","""event"",""trial"",""time""
""fullscreenenter"",""1"",""4086""
","
","","","586","","","23","10666","5151","&#9730;","elianto","#3366ff99"," "," ","1","+10","[1436.5]","1","1","","","10666","9","1","1","win","go","0"
"pit-trial","130","995624","0.0-13.0","battery-v0.2","","""event"",""trial"",""time""
""blur"",""1"",""2389""
""focus"",""1"",""2426""
""fullscreenenter"",""1"",""4086""
","""event"",""trial"",""time""
""blur"",""1"",""2389""
","""event"",""trial"",""time""
""focus"",""1"",""2426""
","""event"",""trial"",""time""
""fullscreenenter"",""1"",""4086""
","
","","","651.7000000011176","","","23","10666","5151","&#9728;","elianto","#f73b6a7A","-1"," ","0","0","[1502.1000000014901]","1","1","","","10666","10","0","4","lose","no-go","1"
"pit-trial","131","999024","0.0-14.0","battery-v0.2","","""event"",""trial"",""time""
""blur"",""1"",""2389""
""focus"",""1"",""2426""
""fullscreenenter"",""1"",""4086""
","""event"",""trial"",""time""
""blur"",""1"",""2389""
","""event"",""trial"",""time""
""focus"",""1"",""2426""
","""event"",""trial"",""time""
""fullscreenenter"",""1"",""4086""
","
","","","547.5999999996275","","","23","10666","5151","&#9752;","elianto","#f73b6a7A"," "," ","1","-10","[1398.2999999988824]","1","1","","","10666","11","3","3","lose","go","1"
"pit-trial","132","1003877","0.0-15.0","battery-v0.2","","""event"",""trial"",""time""
""blur"",""1"",""2389""
""focus"",""1"",""2426""
""fullscreenenter"",""1"",""4086""
","""event"",""trial"",""time""
""blur"",""1"",""2389""
","""event"",""trial"",""time""
""focus"",""1"",""2426""
","""event"",""trial"",""time""
""fullscreenenter"",""1"",""4086""
","
","","","-1","","","23","10666","5151","&#9733;","elianto","#3366ff99","-1","-1","1","+10","[]","0","1","","","10666","12","2","2","win","no-go","0"
"pit-trial","133","1007336","0.0-16.0","battery-v0.2","","""event"",""trial"",""time""
""blur"",""1"",""2389""
""focus"",""1"",""2426""
""fullscreenenter"",""1"",""4086""
","""event"",""trial"",""time""
""blur"",""1"",""2389""
","""event"",""trial"",""time""
""focus"",""1"",""2426""
","""event"",""trial"",""time""
""fullscreenenter"",""1"",""4086""
","
","","","606.7000000011176","","","23","10666","5151","&#9730;","elianto","#3366ff99"," "," ","1","+10","[1457.300000000745]","1","1","","","10666","13","1","1","win","go","0"
"pit-trial","134","1012190","0.0-17.0","battery-v0.2","","""event"",""trial"",""time""
""blur"",""1"",""2389""
""focus"",""1"",""2426""
""fullscreenenter"",""1"",""4086""
","""event"",""trial"",""time""
""blur"",""1"",""2389""
","""event"",""trial"",""time""
""focus"",""1"",""2426""
","""event"",""trial"",""time""
""fullscreenenter"",""1"",""4086""
","
","","","-1","","","23","10666","5151","&#9733;","elianto","#3366ff99","-1","-1","1","0","[]","0","1","","","10666","14","2","2","win","no-go","1"
"pit-trial","135","1015600","0.0-18.0","battery-v0.2","","""event"",""trial"",""time""
""blur"",""1"",""2389""
""focus"",""1"",""2426""
""fullscreenenter"",""1"",""4086""
","""event"",""trial"",""time""
""blur"",""1"",""2389""
","""event"",""trial"",""time""
""focus"",""1"",""2426""
","""event"",""trial"",""time""
""fullscreenenter"",""1"",""4086""
","
","","","558.0999999996275","","","23","10666","5151","&#9728;","elianto","#f73b6a7A","-1"," ","0","0","[1408.5999999996275]","1","1","","","10666","15","0","4","lose","no-go","1"
"pit-trial","136","1019023","0.0-19.0","battery-v0.2","","""event"",""trial"",""time""
""blur"",""1"",""2389""
""focus"",""1"",""2426""
""fullscreenenter"",""1"",""4086""
","""event"",""trial"",""time""
""blur"",""1"",""2389""
","""event"",""trial"",""time""
""focus"",""1"",""2426""
","""event"",""trial"",""time""
""fullscreenenter"",""1"",""4086""
","
","","","571.1999999992549","","","23","10666","5151","&#9752;","elianto","#f73b6a7A"," "," ","1","-10","[1421.199999999255]","1","1","","","10666","16","3","3","lose","go","1"
"pit-trial","137","1022391","0.0-20.0","battery-v0.2","","""event"",""trial"",""time""
""blur"",""1"",""2389""
""focus"",""1"",""2426""
""fullscreenenter"",""1"",""4086""
","""event"",""trial"",""time""
""blur"",""1"",""2389""
","""event"",""trial"",""time""
""focus"",""1"",""2426""
","""event"",""trial"",""time""
""fullscreenenter"",""1"",""4086""
","
","","","515.5","","","23","10666","5151","&#9730;","elianto","#3366ff99"," "," ","1","+10","[1366.2000000011176]","1","1","","","10666","17","1","1","win","go","0"
"pit-trial","138","1027245","0.0-21.0","battery-v0.2","","""event"",""trial"",""time""
""blur"",""1"",""2389""
""focus"",""1"",""2426""
""fullscreenenter"",""1"",""4086""
","""event"",""trial"",""time""
""blur"",""1"",""2389""
","""event"",""trial"",""time""
""focus"",""1"",""2426""
","""event"",""trial"",""time""
""fullscreenenter"",""1"",""4086""
","
","","","-1","","","23","10666","5151","&#9752;","elianto","#f73b6a7A"," ","-1","0","-10","[]","0","1","","","10666","18","3","3","lose","go","0"
"pit-trial","139","1032097","0.0-22.0","battery-v0.2","","""event"",""trial"",""time""
""blur"",""1"",""2389""
""focus"",""1"",""2426""
""fullscreenenter"",""1"",""4086""
","""event"",""trial"",""time""
""blur"",""1"",""2389""
","""event"",""trial"",""time""
""focus"",""1"",""2426""
","""event"",""trial"",""time""
""fullscreenenter"",""1"",""4086""
","
","","","-1","","","23","10666","5151","&#9733;","elianto","#3366ff99","-1","-1","1","0","[]","0","1","","","10666","19","2","2","win","no-go","1"
"pit-trial","140","1035488","0.0-23.0","battery-v0.2","","""event"",""trial"",""time""
""blur"",""1"",""2389""
""focus"",""1"",""2426""
""fullscreenenter"",""1"",""4086""
","""event"",""trial"",""time""
""blur"",""1"",""2389""
","""event"",""trial"",""time""
""focus"",""1"",""2426""
","""event"",""trial"",""time""
""fullscreenenter"",""1"",""4086""
","
","","","536.6999999992549","","","23","10666","5151","&#9728;","elianto","#f73b6a7A","-1"," ","0","-10","[1388.2999999988824]","1","1","","","10666","20","0","4","lose","no-go","0"
"pit-instructions","141","1047788","0.0-24.0","battery-v0.2","","""event"",""trial"",""time""
""blur"",""1"",""2389""
""focus"",""1"",""2426""
""fullscreenenter"",""1"",""4086""
","""event"",""trial"",""time""
""blur"",""1"",""2389""
","""event"",""trial"",""time""
""focus"",""1"",""2426""
","""event"",""trial"",""time""
""fullscreenenter"",""1"",""4086""
","
","","[{""page_index"":0,""viewing_time"":5469.9000000003725},{""page_index"":1,""viewing_time"":6829.199999999255}]","12299.299999998882","","","","","","","","","","","","","","","","","","","","","","","",""
"pit-trial","142","1052658","0.0-25.0","battery-v0.2","","""event"",""trial"",""time""
""blur"",""1"",""2389""
""focus"",""1"",""2426""
""fullscreenenter"",""1"",""4086""
","""event"",""trial"",""time""
""blur"",""1"",""2389""
","""event"",""trial"",""time""
""focus"",""1"",""2426""
","""event"",""trial"",""time""
""fullscreenenter"",""1"",""4086""
","
","","","-1","","","23","10666","5151","j","elianto","#f73b6a7A","-1","-1","1","-10","[]","0","2","","","10666","21","0","4","lose","no-go","1"
"pit-trial","143","1057516","0.0-26.0","battery-v0.2","","""event"",""trial"",""time""
""blur"",""1"",""2389""
""focus"",""1"",""2426""
""fullscreenenter"",""1"",""4086""
","""event"",""trial"",""time""
""blur"",""1"",""2389""
","""event"",""trial"",""time""
""focus"",""1"",""2426""
","""event"",""trial"",""time""
""fullscreenenter"",""1"",""4086""
","
","","","-1","","","23","10666","5151","d","elianto","#3366ff99"," ","-1","0","0","[]","0","2","","","10666","22","1","1","win","go","0"
"pit-trial","144","1060894","0.0-27.0","battery-v0.2","","""event"",""trial"",""time""
""blur"",""1"",""2389""
""focus"",""1"",""2426""
""fullscreenenter"",""1"",""4086""
","""event"",""trial"",""time""
""blur"",""1"",""2389""
","""event"",""trial"",""time""
""focus"",""1"",""2426""
","""event"",""trial"",""time""
""fullscreenenter"",""1"",""4086""
","
","","","506","","","23","10666","5151","w","elianto","#f73b6a7A"," "," ","1","0","[1361.5999999996275]","1","2","","","10666","23","3","3","lose","go","0"
"pit-trial","145","1064658","0.0-28.0","battery-v0.2","","""event"",""trial"",""time""
""blur"",""1"",""2389""
""focus"",""1"",""2426""
""fullscreenenter"",""1"",""4086""
","""event"",""trial"",""time""
""blur"",""1"",""2389""
","""event"",""trial"",""time""
""focus"",""1"",""2426""
","""event"",""trial"",""time""
""fullscreenenter"",""1"",""4086""
","
","","","900","","","23","10666","5151","e","elianto","#f73b6a7A","-1"," ","0","-10","[1751.5]","1","2","","","10666","24","2","4","lose","no-go","0"
"pit-trial","146","1069522","0.0-29.0","battery-v0.2","","""event"",""trial"",""time""
""blur"",""1"",""2389""
""focus"",""1"",""2426""
""fullscreenenter"",""1"",""4086""
","""event"",""trial"",""time""
""blur"",""1"",""2389""
","""event"",""trial"",""time""
""focus"",""1"",""2426""
","""event"",""trial"",""time""
""fullscreenenter"",""1"",""4086""
","
","","","-1","","","23","10666","5151","e","elianto","#f73b6a7A","-1","-1","1","-10","[]","0","2","","","10666","25","2","4","lose","no-go","1"
"pit-trial","147","1072890","0.0-30.0","battery-v0.2","","""event"",""trial"",""time""
""blur"",""1"",""2389""
""focus"",""1"",""2426""
""fullscreenenter"",""1"",""4086""
","""event"",""trial"",""time""
""blur"",""1"",""2389""
","""event"",""trial"",""time""
""focus"",""1"",""2426""
","""event"",""trial"",""time""
""fullscreenenter"",""1"",""4086""
","
","","","499","","","23","10666","5151","w","elianto","#f73b6a7A"," "," ","1","0","[1355.8999999985099]","1","2","","","10666","26","3","3","lose","go","0"
"pit-trial","148","1076484","0.0-31.0","battery-v0.2","","""event"",""trial"",""time""
""blur"",""1"",""2389""
""focus"",""1"",""2426""
""fullscreenenter"",""1"",""4086""
","""event"",""trial"",""time""
""blur"",""1"",""2389""
","""event"",""trial"",""time""
""focus"",""1"",""2426""
","""event"",""trial"",""time""
""fullscreenenter"",""1"",""4086""
","
","","","734.1999999992549","","","23","10666","5151","d","elianto","#3366ff99"," "," ","1","+10","[1587.4000000003725]","1","2","","","10666","27","1","1","win","go","0"
"pit-trial","149","1079871","0.0-32.0","battery-v0.2","","""event"",""trial"",""time""
""blur"",""1"",""2389""
""focus"",""1"",""2426""
""fullscreenenter"",""1"",""4086""
","""event"",""trial"",""time""
""blur"",""1"",""2389""
","""event"",""trial"",""time""
""focus"",""1"",""2426""
","""event"",""trial"",""time""
""fullscreenenter"",""1"",""4086""
","
","","","529","","","23","10666","5151","j","elianto","#f73b6a7A","-1"," ","0","-10","[1385.9000000003725]","1","2","","","10666","28","0","4","lose","no-go","0"
"pit-trial","150","1083255","0.0-33.0","battery-v0.2","","""event"",""trial"",""time""
""blur"",""1"",""2389""
""focus"",""1"",""2426""
""fullscreenenter"",""1"",""4086""
","""event"",""trial"",""time""
""blur"",""1"",""2389""
","""event"",""trial"",""time""
""focus"",""1"",""2426""
","""event"",""trial"",""time""
""fullscreenenter"",""1"",""4086""
","
","","","532.8000000007451","","","23","10666","5151","w","elianto","#f73b6a7A"," "," ","1","0","[1383.1000000014901]","1","2","","","10666","29","3","3","lose","go","0"
"pit-trial","151","1086689","0.0-34.0","battery-v0.2","","""event"",""trial"",""time""
""blur"",""1"",""2389""
""focus"",""1"",""2426""
""fullscreenenter"",""1"",""4086""
","""event"",""trial"",""time""
""blur"",""1"",""2389""
","""event"",""trial"",""time""
""focus"",""1"",""2426""
","""event"",""trial"",""time""
""fullscreenenter"",""1"",""4086""
","
","","","579.7999999988824","","","23","10666","5151","d","elianto","#3366ff99"," "," ","1","+10","[1430.3999999985099]","1","2","","","10666","30","1","1","win","go","0"
"pit-trial","152","1090096","0.0-35.0","battery-v0.2","","""event"",""trial"",""time""
""blur"",""1"",""2389""
""focus"",""1"",""2426""
""fullscreenenter"",""1"",""4086""
","""event"",""trial"",""time""
""blur"",""1"",""2389""
","""event"",""trial"",""time""
""focus"",""1"",""2426""
","""event"",""trial"",""time""
""fullscreenenter"",""1"",""4086""
","
","","","554.9000000003725","","","23","10666","5151","j","elianto","#f73b6a7A","-1"," ","0","-10","[1405.5999999996275]","1","2","","","10666","31","0","4","lose","no-go","0"
"pit-trial","153","1094949","0.0-36.0","battery-v0.2","","""event"",""trial"",""time""
""blur"",""1"",""2389""
""focus"",""1"",""2426""
""fullscreenenter"",""1"",""4086""
","""event"",""trial"",""time""
""blur"",""1"",""2389""
","""event"",""trial"",""time""
""focus"",""1"",""2426""
","""event"",""trial"",""time""
""fullscreenenter"",""1"",""4086""
","
","","","-1","","","23","10666","5151","e","elianto","#f73b6a7A","-1","-1","1","-10","[]","0","2","","","10666","32","2","4","lose","no-go","1"
"pit-trial","154","1098280","0.0-37.0","battery-v0.2","","""event"",""trial"",""time""
""blur"",""1"",""2389""
""focus"",""1"",""2426""
""fullscreenenter"",""1"",""4086""
","""event"",""trial"",""time""
""blur"",""1"",""2389""
","""event"",""trial"",""time""
""focus"",""1"",""2426""
","""event"",""trial"",""time""
""fullscreenenter"",""1"",""4086""
","
","","","477.2000000011176","","","23","10666","5151","d","elianto","#3366ff99"," "," ","1","+10","[1329.0999999996275]","1","2","","","10666","33","1","1","win","go","0"
"pit-trial","155","1103132","0.0-38.0","battery-v0.2","","""event"",""trial"",""time""
""blur"",""1"",""2389""
""focus"",""1"",""2426""
""fullscreenenter"",""1"",""4086""
","""event"",""trial"",""time""
""blur"",""1"",""2389""
","""event"",""trial"",""time""
""focus"",""1"",""2426""
","""event"",""trial"",""time""
""fullscreenenter"",""1"",""4086""
","
","","","-1","","","23","10666","5151","j","elianto","#f73b6a7A","-1","-1","1","0","[]","0","2","","","10666","34","0","4","lose","no-go","0"
"pit-trial","156","1106632","0.0-39.0","battery-v0.2","","""event"",""trial"",""time""
""blur"",""1"",""2389""
""focus"",""1"",""2426""
""fullscreenenter"",""1"",""4086""
","""event"",""trial"",""time""
""blur"",""1"",""2389""
","""event"",""trial"",""time""
""focus"",""1"",""2426""
","""event"",""trial"",""time""
""fullscreenenter"",""1"",""4086""
","
","","","647.3999999985099","","","23","10666","5151","e","elianto","#f73b6a7A","-1"," ","0","-10","[1498.199999999255]","1","2","","","10666","35","2","4","lose","no-go","0"
"pit-trial","157","1109968","0.0-40.0","battery-v0.2","","""event"",""trial"",""time""
""blur"",""1"",""2389""
""focus"",""1"",""2426""
""fullscreenenter"",""1"",""4086""
","""event"",""trial"",""time""
""blur"",""1"",""2389""
","""event"",""trial"",""time""
""focus"",""1"",""2426""
","""event"",""trial"",""time""
""fullscreenenter"",""1"",""4086""
","
","","","483","","","23","10666","5151","w","elianto","#f73b6a7A"," "," ","1","-10","[1333.5]","1","2","","","10666","36","3","3","lose","go","1"
"pit-trial","158","1114820","0.0-41.0","battery-v0.2","","""event"",""trial"",""time""
""blur"",""1"",""2389""
""focus"",""1"",""2426""
""fullscreenenter"",""1"",""4086""
","""event"",""trial"",""time""
""blur"",""1"",""2389""
","""event"",""trial"",""time""
""focus"",""1"",""2426""
","""event"",""trial"",""time""
""fullscreenenter"",""1"",""4086""
","
","","","-1","","","23","10666","5151","j","elianto","#f73b6a7A","-1","-1","1","0","[]","0","2","","","10666","37","0","4","lose","no-go","0"
"pit-trial","159","1118144","0.0-42.0","battery-v0.2","","""event"",""trial"",""time""
""blur"",""1"",""2389""
""focus"",""1"",""2426""
""fullscreenenter"",""1"",""4086""
","""event"",""trial"",""time""
""blur"",""1"",""2389""
","""event"",""trial"",""time""
""focus"",""1"",""2426""
","""event"",""trial"",""time""
""fullscreenenter"",""1"",""4086""
","
","","","472.2999999988824","","","23","10666","5151","d","elianto","#3366ff99"," "," ","1","+10","[1322.3999999985099]","1","2","","","10666","38","1","1","win","go","0"
"pit-trial","160","1122996","0.0-43.0","battery-v0.2","","""event"",""trial"",""time""
""blur"",""1"",""2389""
""focus"",""1"",""2426""
""fullscreenenter"",""1"",""4086""
","""event"",""trial"",""time""
""blur"",""1"",""2389""
","""event"",""trial"",""time""
""focus"",""1"",""2426""
","""event"",""trial"",""time""
""fullscreenenter"",""1"",""4086""
","
","","","-1","","","23","10666","5151","w","elianto","#f73b6a7A"," ","-1","0","-10","[]","0","2","","","10666","39","3","3","lose","go","0"
"pit-trial","161","1126672","0.0-44.0","battery-v0.2","","""event"",""trial"",""time""
""blur"",""1"",""2389""
""focus"",""1"",""2426""
""fullscreenenter"",""1"",""4086""
","""event"",""trial"",""time""
""blur"",""1"",""2389""
","""event"",""trial"",""time""
""focus"",""1"",""2426""
","""event"",""trial"",""time""
""fullscreenenter"",""1"",""4086""
","
","","","822.4000000003725","","","23","10666","5151","e","elianto","#f73b6a7A","-1"," ","0","-10","[1674.300000000745]","1","2","","","10666","40","2","4","lose","no-go","0"
"pit-trial","162","1131525","0.0-45.0","battery-v0.2","","""event"",""trial"",""time""
""blur"",""1"",""2389""
""focus"",""1"",""2426""
""fullscreenenter"",""1"",""4086""
","""event"",""trial"",""time""
""blur"",""1"",""2389""
","""event"",""trial"",""time""
""focus"",""1"",""2426""
","""event"",""trial"",""time""
""fullscreenenter"",""1"",""4086""
","
","","","-1","","","23","10666","5151","j","elianto","#f73b6a7A","-1","-1","1","0","[]","0","2","","","10666","41","0","4","lose","no-go","0"
"pit-trial","163","1136378","0.0-46.0","battery-v0.2","","""event"",""trial"",""time""
""blur"",""1"",""2389""
""focus"",""1"",""2426""
""fullscreenenter"",""1"",""4086""
","""event"",""trial"",""time""
""blur"",""1"",""2389""
","""event"",""trial"",""time""
""focus"",""1"",""2426""
","""event"",""trial"",""time""
""fullscreenenter"",""1"",""4086""
","
","","","-1","","","23","10666","5151","e","elianto","#f73b6a7A","-1","-1","1","0","[]","0","2","","","10666","42","2","4","lose","no-go","0"
"pit-trial","164","1141230","0.0-47.0","battery-v0.2","","""event"",""trial"",""time""
""blur"",""1"",""2389""
""focus"",""1"",""2426""
""fullscreenenter"",""1"",""4086""
","""event"",""trial"",""time""
""blur"",""1"",""2389""
","""event"",""trial"",""time""
""focus"",""1"",""2426""
","""event"",""trial"",""time""
""fullscreenenter"",""1"",""4086""
","
","","","-1","","","23","10666","5151","w","elianto","#f73b6a7A"," ","-1","0","-10","[]","0","2","","","10666","43","3","3","lose","go","0"
"pit-trial","165","1144505","0.0-48.0","battery-v0.2","","""event"",""trial"",""time""
""blur"",""1"",""2389""
""focus"",""1"",""2426""
""fullscreenenter"",""1"",""4086""
","""event"",""trial"",""time""
""blur"",""1"",""2389""
","""event"",""trial"",""time""
""focus"",""1"",""2426""
","""event"",""trial"",""time""
""fullscreenenter"",""1"",""4086""
","
","","","421","","","23","10666","5151","d","elianto","#3366ff99"," "," ","1","+10","[1272.0999999996275]","1","2","","","10666","44","1","1","win","go","0"
"pit-trial","166","1149357","0.0-49.0","battery-v0.2","","""event"",""trial"",""time""
""blur"",""1"",""2389""
""focus"",""1"",""2426""
""fullscreenenter"",""1"",""4086""
","""event"",""trial"",""time""
""blur"",""1"",""2389""
","""event"",""trial"",""time""
""focus"",""1"",""2426""
","""event"",""trial"",""time""
""fullscreenenter"",""1"",""4086""
","
","","","-1","","","23","10666","5151","j","elianto","#f73b6a7A","-1","-1","1","0","[]","0","2","","","10666","45","0","4","lose","no-go","0"
"pit-trial","167","1154210","0.0-50.0","battery-v0.2","","""event"",""trial"",""time""
""blur"",""1"",""2389""
""focus"",""1"",""2426""
""fullscreenenter"",""1"",""4086""
","""event"",""trial"",""time""
""blur"",""1"",""2389""
","""event"",""trial"",""time""
""focus"",""1"",""2426""
","""event"",""trial"",""time""
""fullscreenenter"",""1"",""4086""
","
","","","-1","","","23","10666","5151","e","elianto","#f73b6a7A","-1","-1","1","0","[]","0","2","","","10666","46","2","4","lose","no-go","0"
"pit-trial","168","1157753","0.0-51.0","battery-v0.2","","""event"",""trial"",""time""
""blur"",""1"",""2389""
""focus"",""1"",""2426""
""fullscreenenter"",""1"",""4086""
","""event"",""trial"",""time""
""blur"",""1"",""2389""
","""event"",""trial"",""time""
""focus"",""1"",""2426""
","""event"",""trial"",""time""
""fullscreenenter"",""1"",""4086""
","
","","","690.0999999996275","","","23","10666","5151","s","elianto","#3366ff99","-1"," ","0","+10","[1540.9000000003725]","1","2","","","10666","47","4","2","win","no-go","1"
"pit-trial","169","1161328","0.0-52.0","battery-v0.2","","""event"",""trial"",""time""
""blur"",""1"",""2389""
""focus"",""1"",""2426""
""fullscreenenter"",""1"",""4086""
","""event"",""trial"",""time""
""blur"",""1"",""2389""
","""event"",""trial"",""time""
""focus"",""1"",""2426""
","""event"",""trial"",""time""
""fullscreenenter"",""1"",""4086""
","
","","","722.8999999985099","","","23","10666","5151","w","elianto","#f73b6a7A"," "," ","1","0","[1573.699999999255]","1","2","","","10666","48","3","3","lose","go","0"
"pit-trial","170","1164648","0.0-53.0","battery-v0.2","","""event"",""trial"",""time""
""blur"",""1"",""2389""
""focus"",""1"",""2426""
""fullscreenenter"",""1"",""4086""
","""event"",""trial"",""time""
""blur"",""1"",""2389""
","""event"",""trial"",""time""
""focus"",""1"",""2426""
","""event"",""trial"",""time""
""fullscreenenter"",""1"",""4086""
","
","","","466.19999999925494","","","23","10666","5151","w","elianto","#f73b6a7A"," "," ","1","0","[1318]","1","2","","","10666","49","3","3","lose","go","0"
"pit-trial","171","1168049","0.0-54.0","battery-v0.2","","""event"",""trial"",""time""
""blur"",""1"",""2389""
""focus"",""1"",""2426""
""fullscreenenter"",""1"",""4086""
","""event"",""trial"",""time""
""blur"",""1"",""2389""
","""event"",""trial"",""time""
""focus"",""1"",""2426""
","""event"",""trial"",""time""
""fullscreenenter"",""1"",""4086""
","
","","","548.3000000007451","","","23","10666","5151","d","elianto","#3366ff99"," "," ","1","+10","[1398.699999999255]","1","2","","","10666","50","1","1","win","go","0"
"pit-trial","172","1172902","0.0-55.0","battery-v0.2","","""event"",""trial"",""time""
""blur"",""1"",""2389""
""focus"",""1"",""2426""
""fullscreenenter"",""1"",""4086""
","""event"",""trial"",""time""
""blur"",""1"",""2389""
","""event"",""trial"",""time""
""focus"",""1"",""2426""
","""event"",""trial"",""time""
""fullscreenenter"",""1"",""4086""
","
","","","-1","","","23","10666","5151","j","elianto","#f73b6a7A","-1","-1","1","0","[]","0","2","","","10666","51","0","4","lose","no-go","0"
"pit-trial","173","1176368","0.0-56.0","battery-v0.2","","""event"",""trial"",""time""
""blur"",""1"",""2389""
""focus"",""1"",""2426""
""fullscreenenter"",""1"",""4086""
","""event"",""trial"",""time""
""blur"",""1"",""2389""
","""event"",""trial"",""time""
""focus"",""1"",""2426""
","""event"",""trial"",""time""
""fullscreenenter"",""1"",""4086""
","
","","","613.7999999988824","","","23","10666","5151","s","elianto","#3366ff99","-1"," ","0","+10","[1464.5]","1","2","","","10666","52","4","2","win","no-go","1"
"pit-trial","174","1181220","0.0-57.0","battery-v0.2","","""event"",""trial"",""time""
""blur"",""1"",""2389""
""focus"",""1"",""2426""
""fullscreenenter"",""1"",""4086""
","""event"",""trial"",""time""
""blur"",""1"",""2389""
","""event"",""trial"",""time""
""focus"",""1"",""2426""
","""event"",""trial"",""time""
""fullscreenenter"",""1"",""4086""
","
","","","-1","","","23","10666","5151","e","elianto","#f73b6a7A","-1","-1","1","0","[]","0","2","","","10666","53","2","4","lose","no-go","0"
"pit-trial","175","1184568","0.0-58.0","battery-v0.2","","""event"",""trial"",""time""
""blur"",""1"",""2389""
""focus"",""1"",""2426""
""fullscreenenter"",""1"",""4086""
","""event"",""trial"",""time""
""blur"",""1"",""2389""
","""event"",""trial"",""time""
""focus"",""1"",""2426""
","""event"",""trial"",""time""
""fullscreenenter"",""1"",""4086""
","
","","","494.80000000074506","","","23","10666","5151","d","elianto","#3366ff99"," "," ","1","0","[1345.7000000011176]","1","2","","","10666","54","1","1","win","go","1"
"pit-trial","176","1189421","0.0-59.0","battery-v0.2","","""event"",""trial"",""time""
""blur"",""1"",""2389""
""focus"",""1"",""2426""
""fullscreenenter"",""1"",""4086""
","""event"",""trial"",""time""
""blur"",""1"",""2389""
","""event"",""trial"",""time""
""focus"",""1"",""2426""
","""event"",""trial"",""time""
""fullscreenenter"",""1"",""4086""
","
","","","-1","","","23","10666","5151","j","elianto","#f73b6a7A","-1","-1","1","0","[]","0","2","","","10666","55","0","4","lose","no-go","0"
"pit-trial","177","1192768","0.0-60.0","battery-v0.2","","""event"",""trial"",""time""
""blur"",""1"",""2389""
""focus"",""1"",""2426""
""fullscreenenter"",""1"",""4086""
","""event"",""trial"",""time""
""blur"",""1"",""2389""
","""event"",""trial"",""time""
""focus"",""1"",""2426""
","""event"",""trial"",""time""
""fullscreenenter"",""1"",""4086""
","
","","","494.40000000037253","","","23","10666","5151","s","elianto","#3366ff99","-1"," ","0","0","[1344.699999999255]","1","2","","","10666","56","4","2","win","no-go","0"
"pit-trial","178","1197621","0.0-61.0","battery-v0.2","","""event"",""trial"",""time""
""blur"",""1"",""2389""
""focus"",""1"",""2426""
""fullscreenenter"",""1"",""4086""
","""event"",""trial"",""time""
""blur"",""1"",""2389""
","""event"",""trial"",""time""
""focus"",""1"",""2426""
","""event"",""trial"",""time""
""fullscreenenter"",""1"",""4086""
","
","","","-1","","","23","10666","5151","j","elianto","#f73b6a7A","-1","-1","1","0","[]","0","2","","","10666","57","0","4","lose","no-go","0"
"pit-trial","179","1201000","0.0-62.0","battery-v0.2","","""event"",""trial"",""time""
""blur"",""1"",""2389""
""focus"",""1"",""2426""
""fullscreenenter"",""1"",""4086""
","""event"",""trial"",""time""
""blur"",""1"",""2389""
","""event"",""trial"",""time""
""focus"",""1"",""2426""
","""event"",""trial"",""time""
""fullscreenenter"",""1"",""4086""
","
","","","526.2999999988824","","","23","10666","5151","d","elianto","#3366ff99"," "," ","1","+10","[1376.800000000745]","1","2","","","10666","58","1","1","win","go","0"
"pit-trial","180","1204392","0.0-63.0","battery-v0.2","","""event"",""trial"",""time""
""blur"",""1"",""2389""
""focus"",""1"",""2426""
""fullscreenenter"",""1"",""4086""
","""event"",""trial"",""time""
""blur"",""1"",""2389""
","""event"",""trial"",""time""
""focus"",""1"",""2426""
","""event"",""trial"",""time""
""fullscreenenter"",""1"",""4086""
","
","","","539.5","","","23","10666","5151","w","elianto","#f73b6a7A"," "," ","1","0","[1389.800000000745]","1","2","","","10666","59","3","3","lose","go","0"
"pit-trial","181","1207744","0.0-64.0","battery-v0.2","","""event"",""trial"",""time""
""blur"",""1"",""2389""
""focus"",""1"",""2426""
""fullscreenenter"",""1"",""4086""
","""event"",""trial"",""time""
""blur"",""1"",""2389""
","""event"",""trial"",""time""
""focus"",""1"",""2426""
","""event"",""trial"",""time""
""fullscreenenter"",""1"",""4086""
","
","","","499.40000000037253","","","23","10666","5151","s","elianto","#3366ff99","-1"," ","0","0","[1350]","1","2","","","10666","60","4","2","win","no-go","0"
"pit-trial","182","1211129","0.0-65.0","battery-v0.2","","""event"",""trial"",""time""
""blur"",""1"",""2389""
""focus"",""1"",""2426""
""fullscreenenter"",""1"",""4086""
","""event"",""trial"",""time""
""blur"",""1"",""2389""
","""event"",""trial"",""time""
""focus"",""1"",""2426""
","""event"",""trial"",""time""
""fullscreenenter"",""1"",""4086""
","
","","","532.5","","","23","10666","5151","d","elianto","#3366ff99"," "," ","1","+10","[1383]","1","2","","","10666","61","1","1","win","go","0"
"pit-trial","183","1215981","0.0-66.0","battery-v0.2","","""event"",""trial"",""time""
""blur"",""1"",""2389""
""focus"",""1"",""2426""
""fullscreenenter"",""1"",""4086""
","""event"",""trial"",""time""
""blur"",""1"",""2389""
","""event"",""trial"",""time""
""focus"",""1"",""2426""
","""event"",""trial"",""time""
""fullscreenenter"",""1"",""4086""
","
","","","-1","","","23","10666","5151","e","elianto","#f73b6a7A","-1","-1","1","0","[]","0","2","","","10666","62","2","4","lose","no-go","0"
"pit-trial","184","1219384","0.0-67.0","battery-v0.2","","""event"",""trial"",""time""
""blur"",""1"",""2389""
""focus"",""1"",""2426""
""fullscreenenter"",""1"",""4086""
","""event"",""trial"",""time""
""blur"",""1"",""2389""
","""event"",""trial"",""time""
""focus"",""1"",""2426""
","""event"",""trial"",""time""
""fullscreenenter"",""1"",""4086""
","
","","","550.2000000011176","","","23","10666","5151","w","elianto","#f73b6a7A"," "," ","1","0","[1401]","1","2","","","10666","63","3","3","lose","go","0"
"pit-trial","185","1222689","0.0-68.0","battery-v0.2","","""event"",""trial"",""time""
""blur"",""1"",""2389""
""focus"",""1"",""2426""
""fullscreenenter"",""1"",""4086""
","""event"",""trial"",""time""
""blur"",""1"",""2389""
","""event"",""trial"",""time""
""focus"",""1"",""2426""
","""event"",""trial"",""time""
""fullscreenenter"",""1"",""4086""
","
","","","452.09999999962747","","","23","10666","5151","s","elianto","#3366ff99","-1"," ","0","0","[1302.4000000003725]","1","2","","","10666","64","4","2","win","no-go","0"
"pit-trial","186","1225953","0.0-69.0","battery-v0.2","","""event"",""trial"",""time""
""blur"",""1"",""2389""
""focus"",""1"",""2426""
""fullscreenenter"",""1"",""4086""
","""event"",""trial"",""time""
""blur"",""1"",""2389""
","""event"",""trial"",""time""
""focus"",""1"",""2426""
","""event"",""trial"",""time""
