"trial_type","trial_index","time_elapsed","internal_node_id","task_version","subject_id","interactions","blur_events","focus_events","fullscreenenter_events","fullscreenexit_events","success","view_history","rt","rune","rune_set","hex","correct","choice","accuracy","outcome","keys","total_keys","age","subject","participantId","sub","block","trial","stimulus","robot","valence","action","sham"
"pavlovia","0","6","0.0-0.0","battery-v0.2","","""event"",""trial"",""time""
""fullscreenenter"",""1"",""1284""
","
","
","""event"",""trial"",""time""
""fullscreenenter"",""1"",""1284""
","
","","","","","","","","","","","","","","","","","","","","","","",""
"fullscreen","1","2270","0.0-1.0","battery-v0.2","","""event"",""trial"",""time""
""fullscreenenter"",""1"",""1284""
","
","
","""event"",""trial"",""time""
""fullscreenenter"",""1"",""1284""
","
","true","","","","","","","","","","","","","","","","","","","","","",""
"pit-instructions","2","19407","0.0-2.0","battery-v0.2","","""event"",""trial"",""time""
""fullscreenenter"",""1"",""1284""
","
","
","""event"",""trial"",""time""
""fullscreenenter"",""1"",""1284""
","
","","[{""page_index"":0,""viewing_time"":3631.399999976158},{""page_index"":1,""viewing_time"":5851.899999976158},{""page_index"":2,""viewing_time"":7651.5}]","17135.399999976158","","","","","","","","","","","","","","","","","","","",""
"pit-trial","3","23625","0.0-3.0","battery-v0.2","","""event"",""trial"",""time""
""fullscreenenter"",""1"",""1284""
","
","
","""event"",""trial"",""time""
""fullscreenenter"",""1"",""1284""
","
","","","1364.7999999523163","&#9730;","elianto","#3366ff99"," "," ","1","+10","[2215.7000000476837]","1","9","999","999","999","1","1","1","1","win","go","0"
"pit-trial","4","27630","0.0-4.0","battery-v0.2","","""event"",""trial"",""time""
""fullscreenenter"",""1"",""1284""
","
","
","""event"",""trial"",""time""
""fullscreenenter"",""1"",""1284""
","
","","","1152","&#9728;","elianto","#f73b6a7A","-1"," ","0","-10","[2002.6000000238419]","1","9","999","999","999","1","2","0","4","lose","no-go","0"
"pit-trial","5","32486","0.0-5.0","battery-v0.2","","""event"",""trial"",""time""
""fullscreenenter"",""1"",""1284""
","
","
","""event"",""trial"",""time""
""fullscreenenter"",""1"",""1284""
","
","","","-1","&#9752;","elianto","#f73b6a7A"," ","-1","0","-10","[]","0","9","999","999","999","1","3","3","3","lose","go","0"
"pit-trial","6","36540","0.0-6.0","battery-v0.2","","""event"",""trial"",""time""
""fullscreenenter"",""1"",""1284""
","
","
","""event"",""trial"",""time""
""fullscreenenter"",""1"",""1284""
","
","","","1200.2000000476837","&#9733;","elianto","#3366ff99","-1"," ","0","+10","[2051.7999999523163]","1","9","999","999","999","1","4","2","2","win","no-go","1"
"pit-trial","7","40141","0.0-7.0","battery-v0.2","","""event"",""trial"",""time""
""fullscreenenter"",""1"",""1284""
","
","
","""event"",""trial"",""time""
""fullscreenenter"",""1"",""1284""
","
","","","746.5","&#9752;","elianto","#f73b6a7A"," "," ","1","-10","[1596.3999999761581]","1","9","999","999","999","1","5","3","3","lose","go","1"
"pit-trial","8","44525","0.0-8.0","battery-v0.2","","""event"",""trial"",""time""
""fullscreenenter"",""1"",""1284""
","
","
","""event"",""trial"",""time""
""fullscreenenter"",""1"",""1284""
","
","","","1532.4000000953674","&#9728;","elianto","#f73b6a7A","-1"," ","0","0","[2382.399999976158]","1","9","999","999","999","1","6","0","4","lose","no-go","1"
"pit-trial","9","48150","0.0-9.0","battery-v0.2","","""event"",""trial"",""time""
""fullscreenenter"",""1"",""1284""
","
","
","""event"",""trial"",""time""
""fullscreenenter"",""1"",""1284""
","
","","","770.2000000476837","&#9733;","elianto","#3366ff99","-1"," ","0","0","[1620.8000000715256]","1","9","999","999","999","1","7","2","2","win","no-go","0"
"pit-trial","10","51571","0.0-10.0","battery-v0.2","","""event"",""trial"",""time""
""fullscreenenter"",""1"",""1284""
","
","
","""event"",""trial"",""time""
""fullscreenenter"",""1"",""1284""
","
","","","563.2000000476837","&#9730;","elianto","#3366ff99"," "," ","1","0","[1415.5]","1","9","999","999","999","1","8","1","1","win","go","1"
"pit-trial","11","56429","0.0-11.0","battery-v0.2","","""event"",""trial"",""time""
""fullscreenenter"",""1"",""1284""
","
","
","""event"",""trial"",""time""
""fullscreenenter"",""1"",""1284""
","
","","","-1","&#9752;","elianto","#f73b6a7A"," ","-1","0","0","[]","0","9","999","999","999","1","9","3","3","lose","go","1"
"pit-trial","12","60051","0.0-12.0","battery-v0.2","","""event"",""trial"",""time""
""fullscreenenter"",""1"",""1284""
","
","
","""event"",""trial"",""time""
""fullscreenenter"",""1"",""1284""
","
","","","768.6000000238419","&#9730;","elianto","#3366ff99"," "," ","1","+10","[1619.3000000715256]","1","9","999","999","999","1","10","1","1","win","go","0"
"pit-trial","13","63496","0.0-13.0","battery-v0.2","","""event"",""trial"",""time""
""fullscreenenter"",""1"",""1284""
","
","
","""event"",""trial"",""time""
""fullscreenenter"",""1"",""1284""
","
","","","588.0999999046326","&#9728;","elianto","#f73b6a7A","-1"," ","0","-10","[1439.6999999284744]","1","9","999","999","999","1","11","0","4","lose","no-go","0"
"pit-trial","14","67569","0.0-14.0","battery-v0.2","","""event"",""trial"",""time""
""fullscreenenter"",""1"",""1284""
","
","
","""event"",""trial"",""time""
""fullscreenenter"",""1"",""1284""
","
","","","1216.2999999523163","&#9733;","elianto","#3366ff99","-1"," ","0","0","[2067.2000000476837]","1","9","999","999","999","1","12","2","2","win","no-go","0"
"pit-trial","15","71255","0.0-15.0","battery-v0.2","","""event"",""trial"",""time""
""fullscreenenter"",""1"",""1284""
","
","
","""event"",""trial"",""time""
""fullscreenenter"",""1"",""1284""
","
","","","831.2999999523163","&#9730;","elianto","#3366ff99"," "," ","1","+10","[1683.6000000238419]","1","9","999","999","999","1","13","1","1","win","go","0"
"pit-trial","16","76109","0.0-16.0","battery-v0.2","","""event"",""trial"",""time""
""fullscreenenter"",""1"",""1284""
","
","
","""event"",""trial"",""time""
""fullscreenenter"",""1"",""1284""
","
","","","-1","&#9733;","elianto","#3366ff99","-1","-1","1","+10","[]","0","9","999","999","999","1","14","2","2","win","no-go","0"
"pit-trial","17","79896","0.0-17.0","battery-v0.2","","""event"",""trial"",""time""
""fullscreenenter"",""1"",""1284""
","
","
","""event"",""trial"",""time""
""fullscreenenter"",""1"",""1284""
","
","","","933","&#9728;","elianto","#f73b6a7A","-1"," ","0","-10","[1783.3000000715256]","1","9","999","999","999","1","15","0","4","lose","no-go","0"
"pit-trial","18","84753","0.0-18.0","battery-v0.2","","""event"",""trial"",""time""
""fullscreenenter"",""1"",""1284""
","
","
","""event"",""trial"",""time""
""fullscreenenter"",""1"",""1284""
","
","","","-1","&#9752;","elianto","#f73b6a7A"," ","-1","0","-10","[]","0","9","999","999","999","1","16","3","3","lose","go","0"
"pit-trial","19","89609","0.0-19.0","battery-v0.2","","""event"",""trial"",""time""
""fullscreenenter"",""1"",""1284""
","
","
","""event"",""trial"",""time""
""fullscreenenter"",""1"",""1284""
","
","","","-1","&#9733;","elianto","#3366ff99","-1","-1","1","0","[]","0","9","999","999","999","1","17","2","2","win","no-go","1"
"pit-trial","20","92988","0.0-20.0","battery-v0.2","","""event"",""trial"",""time""
""fullscreenenter"",""1"",""1284""
","
","
","""event"",""trial"",""time""
""fullscreenenter"",""1"",""1284""
","
","","","526.8999999761581","&#9730;","elianto","#3366ff99"," "," ","1","+10","[1377.5999999046326]","1","9","999","999","999","1","18","1","1","win","go","0"
"pit-trial","21","96498","0.0-21.0","battery-v0.2","","""event"",""trial"",""time""
""fullscreenenter"",""1"",""1284""
","
","
","""event"",""trial"",""time""
""fullscreenenter"",""1"",""1284""
","
","","","656.2000000476837","&#9728;","elianto","#f73b6a7A","-1"," ","0","0","[1508.3000000715256]","1","9","999","999","999","1","19","0","4","lose","no-go","1"
"pit-trial","22","99809","0.0-22.0","battery-v0.2","","""event"",""trial"",""time""
""fullscreenenter"",""1"",""1284""
","
","
","""event"",""trial"",""time""
""fullscreenenter"",""1"",""1284""
","
","","","455","&#9752;","elianto","#f73b6a7A"," "," ","1","0","[1305.3000000715256]","1","9","999","999","999","1","20","3","3","lose","go","0"
"pit-instructions","23","121099","0.0-23.0","battery-v0.2","","""event"",""trial"",""time""
""fullscreenenter"",""1"",""1284""
","
","
","""event"",""trial"",""time""
""fullscreenenter"",""1"",""1284""
","
","","[{""page_index"":0,""viewing_time"":13404.300000071526},{""page_index"":1,""viewing_time"":7885.299999952316}]","21289.899999976158","","","","","","","","","","","","","","","","","","","",""
"pit-trial","24","125953","0.0-24.0","battery-v0.2","","""event"",""trial"",""time""
""fullscreenenter"",""1"",""1284""
","
","
","""event"",""trial"",""time""
""fullscreenenter"",""1"",""1284""
","
","","","-1","d","elianto","#f73b6a7A"," ","-1","0","0","[]","0","9","999","999","999","2","21","1","3","lose","go","1"
"pit-trial","25","129845","0.0-25.0","battery-v0.2","","""event"",""trial"",""time""
""fullscreenenter"",""1"",""1284""
","
","
","""event"",""trial"",""time""
""fullscreenenter"",""1"",""1284""
","
","","","1036.7000000476837","e","elianto","#f73b6a7A","-1"," ","0","-10","[1886.8999999761581]","1","9","999","999","999","2","22","2","4","lose","no-go","0"
"pit-trial","26","134699","0.0-26.0","battery-v0.2","","""event"",""trial"",""time""
""fullscreenenter"",""1"",""1284""
","
","
","""event"",""trial"",""time""
""fullscreenenter"",""1"",""1284""
","
","","","-1","w","elianto","#3366ff99"," ","-1","0","0","[]","0","9","999","999","999","2","23","3","1","win","go","0"
"pit-trial","27","139558","0.0-27.0","battery-v0.2","","""event"",""trial"",""time""
""fullscreenenter"",""1"",""1284""
","
","
","""event"",""trial"",""time""
""fullscreenenter"",""1"",""1284""
","
","","","-1","j","elianto","#3366ff99","-1","-1","1","+10","[]","0","9","999","999","999","2","24","0","2","win","no-go","0"
"pit-trial","28","144411","0.0-28.0","battery-v0.2","","""event"",""trial"",""time""
""fullscreenenter"",""1"",""1284""
","
","
","""event"",""trial"",""time""
""fullscreenenter"",""1"",""1284""
","
","","","-1","w","elianto","#3366ff99"," ","-1","0","0","[]","0","9","999","999","999","2","25","3","1","win","go","0"
"pit-trial","29","148426","0.0-29.0","battery-v0.2","","""event"",""trial"",""time""
""fullscreenenter"",""1"",""1284""
","
","
","""event"",""trial"",""time""
""fullscreenenter"",""1"",""1284""
","
","","","1160.3000000715256","e","elianto","#f73b6a7A","-1"," ","0","-10","[2013.3000000715256]","1","9","999","999","999","2","26","2","4","lose","no-go","0"
"pit-trial","30","151868","0.0-30.0","battery-v0.2","","""event"",""trial"",""time""
""fullscreenenter"",""1"",""1284""
","
","
","""event"",""trial"",""time""
""fullscreenenter"",""1"",""1284""
","
","","","588.5999999046326","j","elianto","#3366ff99","-1"," ","0","0","[1440.8999999761581]","1","9","999","999","999","2","27","0","2","win","no-go","0"
"pit-trial","31","155357","0.0-31.0","battery-v0.2","","""event"",""trial"",""time""
""fullscreenenter"",""1"",""1284""
","
","
","""event"",""trial"",""time""
""fullscreenenter"",""1"",""1284""
","
","","","635.6000000238419","d","elianto","#f73b6a7A"," "," ","1","0","[1486.2000000476837]","1","9","999","999","999","2","28","1","3","lose","go","0"
"pit-trial","32","159361","0.0-32.0","battery-v0.2","","""event"",""trial"",""time""
""fullscreenenter"",""1"",""1284""
","
","
","""event"",""trial"",""time""
""fullscreenenter"",""1"",""1284""
","
","","","1150.7000000476837","j","elianto","#3366ff99","-1"," ","0","+10","[2001.2000000476837]","1","9","999","999","999","2","29","0","2","win","no-go","1"
"pit-trial","33","164218","0.0-33.0","battery-v0.2","","""event"",""trial"",""time""
""fullscreenenter"",""1"",""1284""
","
","
","""event"",""trial"",""time""
""fullscreenenter"",""1"",""1284""
","
","","","-1","w","elianto","#3366ff99"," ","-1","0","+10","[]","0","9","999","999","999","2","30","3","1","win","go","1"
"pit-trial","34","167958","0.0-34.0","battery-v0.2","","""event"",""trial"",""time""
""fullscreenenter"",""1"",""1284""
","
","
","""event"",""trial"",""time""
""fullscreenenter"",""1"",""1284""
","
","","","884.8999999761581","d","elianto","#f73b6a7A"," "," ","1","0","[1735]","1","9","999","999","999","2","31","1","3","lose","go","0"
"pit-trial","35","172811","0.0-35.0","battery-v0.2","","""event"",""trial"",""time""
""fullscreenenter"",""1"",""1284""
","
","
","""event"",""trial"",""time""
""fullscreenenter"",""1"",""1284""
","
","","","-1","e","elianto","#f73b6a7A","-1","-1","1","0","[]","0","9","999","999","999","2","32","2","4","lose","no-go","0"
"pit-trial","36","176620","0.0-36.0","battery-v0.2","","""event"",""trial"",""time""
""fullscreenenter"",""1"",""1284""
","
","
","""event"",""trial"",""time""
""fullscreenenter"",""1"",""1284""
","
","","","953.6000000238419","w","elianto","#3366ff99"," "," ","1","+10","[1805.1999999284744]","1","9","999","999","999","2","33","3","1","win","go","0"
"pit-trial","37","181477","0.0-37.0","battery-v0.2","","""event"",""trial"",""time""
""fullscreenenter"",""1"",""1284""
","
","
","""event"",""trial"",""time""
""fullscreenenter"",""1"",""1284""
","
","","","-1","e","elianto","#f73b6a7A","-1","-1","1","-10","[]","0","9","999","999","999","2","34","2","4","lose","no-go","1"
"pit-trial","38","184923","0.0-38.0","battery-v0.2","","""event"",""trial"",""time""
""fullscreenenter"",""1"",""1284""
","
","
","""event"",""trial"",""time""
""fullscreenenter"",""1"",""1284""
","
","","","589.5","d","elianto","#f73b6a7A"," "," ","1","-10","[1441.3000000715256]","1","9","999","999","999","2","35","1","3","lose","go","1"
"pit-trial","39","188768","0.0-39.0","battery-v0.2","","""event"",""trial"",""time""
""fullscreenenter"",""1"",""1284""
","
","
","""event"",""trial"",""time""
""fullscreenenter"",""1"",""1284""
","
","","","990.8999999761581","j","elianto","#3366ff99","-1"," ","0","0","[1841.8000000715256]","1","9","999","999","999","2","36","0","2","win","no-go","0"
"pit-trial","40","193626","0.0-40.0","battery-v0.2","","""event"",""trial"",""time""
""fullscreenenter"",""1"",""1284""
","
","
","""event"",""trial"",""time""
""fullscreenenter"",""1"",""1284""
","
","","","-1","w","elianto","#3366ff99"," ","-1","0","0","[]","0","9","999","999","999","2","37","3","1","win","go","0"
"pit-trial","41","197227","0.0-41.0","battery-v0.2","","""event"",""trial"",""time""
""fullscreenenter"",""1"",""1284""
","
","
","""event"",""trial"",""time""
""fullscreenenter"",""1"",""1284""
","
","","","749.3000000715256","e","elianto","#f73b6a7A","-1"," ","0","-10","[1599.5]","1","9","999","999","999","2","38","2","4","lose","no-go","0"
"pit-trial","42","201120","0.0-42.0","battery-v0.2","","""event"",""trial"",""time""
""fullscreenenter"",""1"",""1284""
","
","
","""event"",""trial"",""time""
""fullscreenenter"",""1"",""1284""
","
","","","1039.5","j","elianto","#3366ff99","-1"," ","0","0","[1890.6000000238419]","1","9","999","999","999","2","39","0","2","win","no-go","0"
"pit-trial","43","204944","0.0-43.0","battery-v0.2","","""event"",""trial"",""time""
""fullscreenenter"",""1"",""1284""
","
","
","""event"",""trial"",""time""
""fullscreenenter"",""1"",""1284""
","
","","","971.6999999284744","d","elianto","#f73b6a7A"," "," ","1","0","[1822.5]","1","9","999","999","999","2","40","1","3","lose","go","0"
"pit-trial","44","208298","0.0-44.0","battery-v0.2","","""event"",""trial"",""time""
""fullscreenenter"",""1"",""1284""
","
","
","""event"",""trial"",""time""
""fullscreenenter"",""1"",""1284""
","
","","","498.89999997615814","j","elianto","#3366ff99","-1"," ","0","0","[1350.2000000476837]","1","9","999","999","999","2","41","0","2","win","no-go","0"
"pit-trial","45","211427","0.0-45.0","battery-v0.2","","""event"",""trial"",""time""
""fullscreenenter"",""1"",""1284""
","
","
","""event"",""trial"",""time""
""fullscreenenter"",""1"",""1284""
","
","","","272.7000000476837","d","elianto","#f73b6a7A"," "," ","1","0","[1123.7000000476837]","1","9","999","999","999","2","42","1","3","lose","go","0"
"pit-trial","46","216287","0.0-46.0","battery-v0.2","","""event"",""trial"",""time""
""fullscreenenter"",""1"",""1284""
","
","
","""event"",""trial"",""time""
""fullscreenenter"",""1"",""1284""
","
","","","-1","e","elianto","#f73b6a7A","-1","-1","1","0","[]","0","9","999","999","999","2","43","2","4","lose","no-go","0"
"pit-trial","47","219973","0.0-47.0","battery-v0.2","","""event"",""trial"",""time""
""fullscreenenter"",""1"",""1284""
","
","
","""event"",""trial"",""time""
""fullscreenenter"",""1"",""1284""
","
","","","834.1000000238419","w","elianto","#3366ff99"," "," ","1","+10","[1684.7999999523163]","1","9","999","999","999","2","44","3","1","win","go","0"
"pit-trial","48","224826","0.0-48.0","battery-v0.2","","""event"",""trial"",""time""
""fullscreenenter"",""1"",""1284""
","
","
","""event"",""trial"",""time""
""fullscreenenter"",""1"",""1284""
","
","","","-1","j","elianto","#3366ff99","-1","-1","1","+10","[]","0","9","999","999","999","2","45","0","2","win","no-go","0"
"pit-trial","49","229682","0.0-49.0","battery-v0.2","","""event"",""trial"",""time""
""fullscreenenter"",""1"",""1284""
","
","
","""event"",""trial"",""time""
""fullscreenenter"",""1"",""1284""
","
","","","-1","s","elianto","#f73b6a7A"," ","-1","0","-10","[]","0","9","999","999","999","2","46","4","3","lose","go","0"
"pit-trial","50","234539","0.0-50.0","battery-v0.2","","""event"",""trial"",""time""
""fullscreenenter"",""1"",""1284""
","
","
","""event"",""trial"",""time""
""fullscreenenter"",""1"",""1284""
","
","","","-1","e","elianto","#f73b6a7A","-1","-1","1","-10","[]","0","9","999","999","999","2","47","2","4","lose","no-go","1"
"pit-trial","51","238580","0.0-51.0","battery-v0.2","","""event"",""trial"",""time""
""fullscreenenter"",""1"",""1284""
","
","
","""event"",""trial"",""time""
""fullscreenenter"",""1"",""1284""
","
","","","1188.5","w","elianto","#3366ff99"," "," ","1","+10","[2039.5]","1","9","999","999","999","2","48","3","1","win","go","0"
"pit-trial","52","242452","0.0-52.0","battery-v0.2","","""event"",""trial"",""time""
""fullscreenenter"",""1"",""1284""
","
","
","""event"",""trial"",""time""
""fullscreenenter"",""1"",""1284""
","
","","","1016.1000000238419","w","elianto","#3366ff99"," "," ","1","+10","[1867.3999999761581]","1","9","999","999","999","2","49","3","1","win","go","0"
"pit-trial","53","247088","0.0-53.0","battery-v0.2","","""event"",""trial"",""time""
""fullscreenenter"",""1"",""1284""
","
","
","""event"",""trial"",""time""
""fullscreenenter"",""1"",""1284""
","
","","","1778.1000000238419","e","elianto","#f73b6a7A","-1"," ","0","-10","[2630.399999976158]","1","9","999","999","999","2","50","2","4","lose","no-go","0"
"pit-trial","54","250687","0.0-54.0","battery-v0.2","","""event"",""trial"",""time""
""fullscreenenter"",""1"",""1284""
","
","
","""event"",""trial"",""time""
""fullscreenenter"",""1"",""1284""
","
","","","743.5999999046326","d","elianto","#f73b6a7A"," "," ","1","-10","[1593.6000000238419]","1","9","999","999","999","2","51","1","3","lose","go","1"
"pit-trial","55","254265","0.0-55.0","battery-v0.2","","""event"",""trial"",""time""
""fullscreenenter"",""1"",""1284""
","
","
","""event"",""trial"",""time""
""fullscreenenter"",""1"",""1284""
","
","","","721.1000000238419","j","elianto","#3366ff99","-1"," ","0","+10","[1572.7999999523163]","1","9","999","999","999","2","52","0","2","win","no-go","1"
"pit-trial","56","259122","0.0-56.0","battery-v0.2","","""event"",""trial"",""time""
""fullscreenenter"",""1"",""1284""
","
","
","""event"",""trial"",""time""
""fullscreenenter"",""1"",""1284""
","
","","","-1","j","elianto","#f73b6a7A","-1","-1","1","0","[]","0","9","999","999","999","2","53","0","4","lose","no-go","0"
"pit-trial","57","263977","0.0-57.0","battery-v0.2","","""event"",""trial"",""time""
""fullscreenenter"",""1"",""1284""
","
","
","""event"",""trial"",""time""
""fullscreenenter"",""1"",""1284""
","
","","","-1","d","elianto","#f73b6a7A"," ","-1","0","-10","[]","0","9","999","999","999","2","54","1","3","lose","go","0"
"pit-trial","58","268835","0.0-58.0","battery-v0.2","","""event"",""trial"",""time""
""fullscreenenter"",""1"",""1284""
","
","
","""event"",""trial"",""time""
""fullscreenenter"",""1"",""1284""
","
","","","-1","e","elianto","#f73b6a7A","-1","-1","1","0","[]","0","9","999","999","999","2","55","2","4","lose","no-go","0"
"pit-trial","59","273694","0.0-59.0","battery-v0.2","","""event"",""trial"",""time""
""fullscreenenter"",""1"",""1284""
","
","
","""event"",""trial"",""time""
""fullscreenenter"",""1"",""1284""
","
","","","-1","s","elianto","#f73b6a7A"," ","-1","0","-10","[]","0","9","999","999","999","2","56","4","3","lose","go","0"
"pit-trial","60","278553","0.0-60.0","battery-v0.2","","""event"",""trial"",""time""
""fullscreenenter"",""1"",""1284""
","
","
","""event"",""trial"",""time""
""fullscreenenter"",""1"",""1284""
","
","","","-1","d","elianto","#f73b6a7A"," ","-1","0","0","[]","0","9","999","999","999","2","57","1","3","lose","go","1"
"pit-trial","61","283410","0.0-61.0","battery-v0.2","","""event"",""trial"",""time""
""fullscreenenter"",""1"",""1284""
","
","
","""event"",""trial"",""time""
""fullscreenenter"",""1"",""1284""
","
","","","-1","w","elianto","#f73b6a7A","-1","-1","1","0","[]","0","9","999","999","999","2","58","3","4","lose","no-go","0"
"pit-trial","62","288265","0.0-62.0","battery-v0.2","","""event"",""trial"",""time""
""fullscreenenter"",""1"",""1284""
","
","
","""event"",""trial"",""time""
""fullscreenenter"",""1"",""1284""
","
","","","-1","s","elianto","#f73b6a7A","-1","-1","1","0","[]","0","9","999","999","999","2","59","4","4","lose","no-go","0"
"pit-trial","63","293122","0.0-63.0","battery-v0.2","","""event"",""trial"",""time""
""fullscreenenter"",""1"",""1284""
""fullscreenexit"",""64"",""297576""
","
","
","""event"",""trial"",""time""
""fullscreenenter"",""1"",""1284""
","""event"",""trial"",""time""
""fullscreenexit"",""64"",""297576""
","","","-1","j","elianto","#f73b6a7A"," ","-1","0","-10","[]","0","9","999","999","999","2","60","0","3","lose","go","0"
"pit-trial","64","297978","0.0-64.0","battery-v0.2","","""event"",""trial"",""time""
""fullscreenenter"",""1"",""1284""
""fullscreenexit"",""64"",""297576""
","
","
","""event"",""trial"",""time""
""fullscreenenter"",""1"",""1284""
","""event"",""trial"",""time""
""fullscreenexit"",""64"",""297576""
","","","-1","s","elianto","#f73b6a7A","-1","-1","1","0","[]","0","9","999","999","999","2","61","4","4","lose","no-go","0"
"pit-trial","65","302836","0.0-65.0","battery-v0.2","","""event"",""trial"",""time""
""fullscreenenter"",""1"",""1284""
""fullscreenexit"",""64"",""297576""
""blur"",""66"",""303298""
","""event"",""trial"",""time""
""blur"",""66"",""303298""
","
","""event"",""trial"",""time""
""fullscreenenter"",""1"",""1284""
","""event"",""trial"",""time""
""fullscreenexit"",""64"",""297576""
","","","-1","w","elianto","#f73b6a7A","-1","-1","1","0","[]","0","9","999","999","999","2","62","3","4","lose","no-go","0"
"pit-trial","66","307693","0.0-66.0","battery-v0.2","","""event"",""trial"",""time""
""fullscreenenter"",""1"",""1284""
""fullscreenexit"",""64"",""297576""
""blur"",""66"",""303298""
","""event"",""trial"",""time""
""blur"",""66"",""303298""
","
","""event"",""trial"",""time""
""fullscreenenter"",""1"",""1284""
","""event"",""trial"",""time""
""fullscreenexit"",""64"",""297576""
","","","-1","e","elianto","#3366ff99","-1","-1","1","+10","[]","0","9","999","999","999","2","63","2","2","win","no-go","0"
"pit-trial","67","312549","0.0-67.0","battery-v0.2","","""event"",""trial"",""time""
""fullscreenenter"",""1"",""1284""
""fullscreenexit"",""64"",""297576""
""blur"",""66"",""303298""
","""event"",""trial"",""time""
""blur"",""66"",""303298""
","
","""event"",""trial"",""time""
""fullscreenenter"",""1"",""1284""
","""event"",""trial"",""time""
""fullscreenexit"",""64"",""297576""
","","","-1","d","elianto","#f73b6a7A"," ","-1","0","-10","[]","0","9","999","999","999","2","64","1","3","lose","go","0"
"pit-trial","68","317405","0.0-68.0","battery-v0.2","","""event"",""trial"",""time""
""fullscreenenter"",""1"",""1284""
""fullscreenexit"",""64"",""297576""
""blur"",""66"",""303298""
","""event"",""trial"",""time""
""blur"",""66"",""303298""
","
","""event"",""trial"",""time""
""fullscreenenter"",""1"",""1284""
","""event"",""trial"",""time""
""fullscreenexit"",""64"",""297576""
","","","-1","s","elianto","#f73b6a7A"," ","-1","0","-10","[]","0","9","999","999","999","2","65","4","3","lose","go","0"
"pit-trial","69","322263","0.0-69.0","battery-v0.2","","""event"",""trial"",""time""
""fullscreenenter"",""1"",""1284""
""fullscreenexit"",""64"",""297576""
""blur"",""66"",""303298""
","""event"",""trial"",""time""
""blur"",""66"",""303298""
","
","""event"",""trial"",""time""
""fullscreenenter"",""1"",""1284""
","""event"",""trial"",""time""
""fullscreenexit"",""64"",""297576""
","","","-1","e","elianto","#f73b6a7A","-1","-1","1","0","[]","0","9","999","999","999","2","66","2","4","lose","no-go","0"
"pit-trial","70","327122","0.0-70.0","battery-v0.2","","""event"",""trial"",""time""
""fullscreenenter"",""1"",""1284""
""fullscreenexit"",""64"",""297576""
""blur"",""66"",""303298""
","""event"",""trial"",""time""
""blur"",""66"",""303298""
","
","""event"",""trial"",""time""
""fullscreenenter"",""1"",""1284""
","""event"",""trial"",""time""
""fullscreenexit"",""64"",""297576""
","","","-1","d","elianto","#f73b6a7A","-1","-1","1","-10","[]","0","9","999","999","999","2","67","1","4","lose","no-go","1"
"pit-trial","71","331979","0.0-71.0","battery-v0.2","","""event"",""trial"",""time""
""fullscreenenter"",""1"",""1284""
""fullscreenexit"",""64"",""297576""
""blur"",""66"",""303298""
","""event"",""trial"",""time""
""blur"",""66"",""303298""
","
","""event"",""trial"",""time""
""fullscreenenter"",""1"",""1284""
","""event"",""trial"",""time""
""fullscreenexit"",""64"",""297576""
","","","-1","w","elianto","#3366ff99","-1","-1","1","+10","[]","0","9","999","999","999","2","68","3","2","win","no-go","0"
"pit-trial","72","336836","0.0-72.0","battery-v0.2","","""event"",""trial"",""time""
""fullscreenenter"",""1"",""1284""
""fullscreenexit"",""64"",""297576""
""blur"",""66"",""303298""
","""event"",""trial"",""time""
""blur"",""66"",""303298""
","
","""event"",""trial"",""time""
""fullscreenenter"",""1"",""1284""
","""event"",""trial"",""time""
""fullscreenexit"",""64"",""297576""
","","","-1","p","elianto","#f73b6a7A"," ","-1","0","-10","[]","0","9","999","999","999","2","69","5","3","lose","go","0"
"pit-trial","73","341692","0.0-73.0","battery-v0.2","","""event"",""trial"",""time""
""fullscreenenter"",""1"",""1284""
""fullscreenexit"",""64"",""297576""
""blur"",""66"",""303298""
","""event"",""trial"",""time""
""blur"",""66"",""303298""
","
","""event"",""trial"",""time""
""fullscreenenter"",""1"",""1284""
","""event"",""trial"",""time""
""fullscreenexit"",""64"",""297576""
","","","-1","w","elianto","#f73b6a7A","-1","-1","1","0","[]","0","9","999","999","999","2","70","3","4","lose","no-go","0"
"pit-trial","74","346546","0.0-74.0","battery-v0.2","","""event"",""trial"",""time""
""fullscreenenter"",""1"",""1284""
""fullscreenexit"",""64"",""297576""
""blur"",""66"",""303298""
","""event"",""trial"",""time""
""blur"",""66"",""303298""
","
","""event"",""trial"",""time""
""fullscreenenter"",""1"",""1284""
","""event"",""trial"",""time""
""fullscreenexit"",""64"",""297576""
","","","-1","e","elianto","#3366ff99"," ","-1","0","0","[]","0","9","999","999","999","2","71","2","1","win","go","0"
"pit-trial","75","351404","0.0-75.0","battery-v0.2","","""event"",""trial"",""time""
""fullscreenenter"",""1"",""1284""
""fullscreenexit"",""64"",""297576""
""blur"",""66"",""303298""
","""event"",""trial"",""time""
""blur"",""66"",""303298""
","
","""event"",""trial"",""time""
""fullscreenenter"",""1"",""1284""
","""event"",""trial"",""time""
""fullscreenexit"",""64"",""297576""
","","","-1","d","elianto","#3366ff99","-1","-1","1","+10","[]","0","9","999","999","999","2","72","1","2","win","no-go","0"
"pit-trial","76","356260","0.0-76.0","battery-v0.2","","""event"",""trial"",""time""
""fullscreenenter"",""1"",""1284""
""fullscreenexit"",""64"",""297576""
""blur"",""66"",""303298""
","""event"",""trial"",""time""
""blur"",""66"",""303298""
","
","""event"",""trial"",""time""
""fullscreenenter"",""1"",""1284""
","""event"",""trial"",""time""
""fullscreenexit"",""64"",""297576""
","","","-1","d","elianto","#3366ff99","-1","-1","1","+10","[]","0","9","999","999","999","2","73","1","2","win","no-go","0"
"pit-trial","77","361116","0.0-77.0","battery-v0.2","","""event"",""trial"",""time""
""fullscreenenter"",""1"",""1284""
""fullscreenexit"",""64"",""297576""
""blur"",""66"",""303298""
","""event"",""trial"",""time""
""blur"",""66"",""303298""
","
","""event"",""trial"",""time""
""fullscreenenter"",""1"",""1284""
","""event"",""trial"",""time""
""fullscreenexit"",""64"",""297576""
","","","-1","s","elianto","#f73b6a7A","-1","-1","1","0","[]","0","9","999","999","999","2","74","4","4","lose","no-go","0"
"pit-trial","78","365971","0.0-78.0","battery-v0.2","","""event"",""trial"",""time""
""fullscreenenter"",""1"",""1284""
""fullscreenexit"",""64"",""297576""
""blur"",""66"",""303298""
","""event"",""trial"",""time""
""blur"",""66"",""303298""
","
","""event"",""trial"",""time""
""fullscreenenter"",""1"",""1284""
","""event"",""trial"",""time""
""fullscreenexit"",""64"",""297576""
","","","-1","w","elianto","#f73b6a7A"," ","-1","0","-10","[]","0","9","999","999","999","2","75","3","3","lose","go","0"
"pit-trial","79","370823","0.0-79.0","battery-v0.2","","""event"",""trial"",""time""
""fullscreenenter"",""1"",""1284""
""fullscreenexit"",""64"",""297576""
""blur"",""66"",""303298""
""focus"",""80"",""373484""
""blur"",""80"",""374799""
","""event"",""trial"",""time""
""blur"",""66"",""303298""
""blur"",""80"",""374799""
","""event"",""trial"",""time""
""focus"",""80"",""373484""
","""event"",""trial"",""time""
""fullscreenenter"",""1"",""1284""
","""event"",""trial"",""time""
""fullscreenexit"",""64"",""297576""
","","","-1","p","elianto","#3366ff99"," ","-1","0","0","[]","0","9","999","999","999","2","76","5","1","win","go","0"
"pit-trial","80","375681","0.0-80.0","battery-v0.2","","""event"",""trial"",""time""
""fullscreenenter"",""1"",""1284""
""fullscreenexit"",""64"",""297576""
""blur"",""66"",""303298""
""focus"",""80"",""373484""
""blur"",""80"",""374799""
""focus"",""81"",""378899""
""blur"",""81"",""378899""
""focus"",""81"",""378901""
","""event"",""trial"",""time""
""blur"",""66"",""303298""
""blur"",""80"",""374799""
""blur"",""81"",""378899""
","""event"",""trial"",""time""
""focus"",""80"",""373484""
""focus"",""81"",""378899""
""focus"",""81"",""378901""
","""event"",""trial"",""time""
""fullscreenenter"",""1"",""1284""
","""event"",""trial"",""time""
""fullscreenexit"",""64"",""297576""
","","","-1","p","elianto","#3366ff99","-1","-1","1","+10","[]","0","9","999","999","999","2","77","5","2","win","no-go","0"
