"trial_type","trial_index","time_elapsed","internal_node_id","task_version","subject_id","interactions","blur_events","focus_events","fullscreenenter_events","fullscreenexit_events","success","view_history","rt","responses","num_errors","age","subject","participantId","rune","rune_set","hex","correct","choice","accuracy","outcome","keys","total_keys","block","practice","value","sub","trial","stimulus","robot","valence","action","sham"
"pavlovia","0","59","0.0-0.0","battery-v0.2","","""event"",""trial"",""time""
""fullscreenenter"",""1"",""2323""
","
","
","""event"",""trial"",""time""
""fullscreenenter"",""1"",""2323""
","
","","","","","","","","","","","","","","","","","","","","","","","","","","",""
"fullscreen","1","3248","0.0-1.0","battery-v0.2","","""event"",""trial"",""time""
""fullscreenenter"",""1"",""2323""
","
","
","""event"",""trial"",""time""
""fullscreenenter"",""1"",""2323""
","
","true","","","","","","","","","","","","","","","","","","","","","","","","","",""
"pit-instructions","2","8683","0.0-2.0-0.0","battery-v0.2","","""event"",""trial"",""time""
""fullscreenenter"",""1"",""2323""
","
","
","""event"",""trial"",""time""
""fullscreenenter"",""1"",""2323""
","
","","[{""page_index"":0,""viewing_time"":5420.5}]","5422.5999999940395","","","","","","","","","","","","","","","","","","","","","","","",""
"pit-comprehension","3","21530","0.0-2.0-1.0-0.0","battery-v0.2","","""event"",""trial"",""time""
""fullscreenenter"",""1"",""2323""
","
","
","""event"",""trial"",""time""
""fullscreenenter"",""1"",""2323""
","
","","","12831.300000011921","[""shark""]","0","14","5027","2315","","","","","","","","","","","","","","","","","","",""
"pit-instructions","4","25908","0.0-2.0-1.0-1.0","battery-v0.2","","""event"",""trial"",""time""
""fullscreenenter"",""1"",""2323""
","
","
","""event"",""trial"",""time""
""fullscreenenter"",""1"",""2323""
","
","","[{""page_index"":0,""viewing_time"":4326.100000023842}]","4327","","","","","","","","","","","","","","","","","","","","","","","",""
"pit-comprehension","5","63178","0.0-2.0-2.0-0.0","battery-v0.2","","""event"",""trial"",""time""
""fullscreenenter"",""1"",""2323""
","
","
","""event"",""trial"",""time""
""fullscreenenter"",""1"",""2323""
","
","","","37256","[""tiger""]","0","14","5027","2315","","","","","","","","","","","","","","","","","","",""
"pit-instructions","6","64851","0.0-2.0-2.0-1.0","battery-v0.2","","""event"",""trial"",""time""
""fullscreenenter"",""1"",""2323""
","
","
","""event"",""trial"",""time""
""fullscreenenter"",""1"",""2323""
","
","","[{""page_index"":0,""viewing_time"":1657.7000000178814}]","1658.7000000178814","","","","","","","","","","","","","","","","","","","","","","","",""
"pit-instructions","7","201989","0.0-2.0-3.0","battery-v0.2","","""event"",""trial"",""time""
""fullscreenenter"",""1"",""2323""
","
","
","""event"",""trial"",""time""
""fullscreenenter"",""1"",""2323""
","
","","[{""page_index"":0,""viewing_time"":38228.79999998212},{""page_index"":1,""viewing_time"":9561.100000023842},{""page_index"":2,""viewing_time"":6169.399999976158},{""page_index"":3,""viewing_time"":8434.5},{""page_index"":4,""viewing_time"":9286.40000000596},{""page_index"":5,""viewing_time"":6728.5},{""page_index"":6,""viewing_time"":7413.9000000059605},{""page_index"":7,""viewing_time"":7856.0999999940395},{""page_index"":8,""viewing_time"":6628.5},{""page_index"":9,""viewing_time"":9492.300000011921},{""page_index"":10,""viewing_time"":7219.9000000059605},{""page_index"":11,""viewing_time"":8312.5},{""page_index"":12,""viewing_time"":6606},{""page_index"":13,""viewing_time"":5179}]","137117.90000000596","","","","","","","","","","","","","","","","","","","","","","","",""
"pit-trial","8","205606","0.0-2.0-4.0-0.0","battery-v0.2","","""event"",""trial"",""time""
""fullscreenenter"",""1"",""2323""
","
","
","""event"",""trial"",""time""
""fullscreenenter"",""1"",""2323""
","
","","","732.6999999880791","","","14","5027","2315","&#9784;","elianto","#FFFFF080"," "," ","1","&#10004","[1587.800000011921]","1","0","0","","","","","","","",""
"pit-trial","9","209225","0.0-2.0-4.1-0.1","battery-v0.2","","""event"",""trial"",""time""
""fullscreenenter"",""1"",""2323""
","
","
","""event"",""trial"",""time""
""fullscreenenter"",""1"",""2323""
","
","","","728.4000000059605","","","14","5027","2315","&#9784;","elianto","#FFFFF080"," "," ","1","&#10004","[1580.800000011921]","1","0","0","","","","","","","",""
"pit-trial","10","212756","0.0-2.0-4.2-0.2","battery-v0.2","","""event"",""trial"",""time""
""fullscreenenter"",""1"",""2323""
","
","
","""event"",""trial"",""time""
""fullscreenenter"",""1"",""2323""
","
","","","651.5999999940395","","","14","5027","2315","&#9784;","elianto","#FFFFF080"," "," ","1","&#10004","[1501.9000000059605]","1","0","0","","","","","","","",""
"pit-trial","11","216185","0.0-2.0-4.3-0.3","battery-v0.2","","""event"",""trial"",""time""
""fullscreenenter"",""1"",""2323""
","
","
","""event"",""trial"",""time""
""fullscreenenter"",""1"",""2323""
","
","","","565.9000000059605","","","14","5027","2315","&#9784;","elianto","#FFFFF080"," "," ","1","&#10004","[1415.800000011921]","1","0","0","","","","","","","",""
"pit-trial","12","219647","0.0-2.0-4.4-0.4","battery-v0.2","","""event"",""trial"",""time""
""fullscreenenter"",""1"",""2323""
","
","
","""event"",""trial"",""time""
""fullscreenenter"",""1"",""2323""
","
","","","585.3999999761581","","","14","5027","2315","&#9784;","elianto","#FFFFF080"," "," ","1","&#10004","[1435.699999988079]","1","0","0","","","","","","","",""
"pit-instructions","13","240690","0.0-2.0-5.0","battery-v0.2","","""event"",""trial"",""time""
""fullscreenenter"",""1"",""2323""
","
","
","""event"",""trial"",""time""
""fullscreenenter"",""1"",""2323""
","
","","[{""page_index"":0,""viewing_time"":5475.5999999940395},{""page_index"":1,""viewing_time"":5058.799999982119},{""page_index"":2,""viewing_time"":5075.5},{""page_index"":3,""viewing_time"":5418}]","21028.899999976158","","","","","","","","","","","","","","","","","","","","","","","",""
"pit-trial","14","245566","0.0-2.0-6.0-0.0","battery-v0.2","","""event"",""trial"",""time""
""fullscreenenter"",""1"",""2323""
","
","
","""event"",""trial"",""time""
""fullscreenenter"",""1"",""2323""
","
","","","-1","","","14","5027","2315","&#9854;","elianto","#FFFFF080","-1","-1","1","&#10004","[]","0","0","1","","","","","","","",""
"pit-trial","15","250452","0.0-2.0-6.1-0.1","battery-v0.2","","""event"",""trial"",""time""
""fullscreenenter"",""1"",""2323""
","
","
","""event"",""trial"",""time""
""fullscreenenter"",""1"",""2323""
","
","","","-1","","","14","5027","2315","&#9854;","elianto","#FFFFF080","-1","-1","1","&#10004","[]","0","0","1","","","","","","","",""
"pit-trial","16","255337","0.0-2.0-6.2-0.2","battery-v0.2","","""event"",""trial"",""time""
""fullscreenenter"",""1"",""2323""
","
","
","""event"",""trial"",""time""
""fullscreenenter"",""1"",""2323""
","
","","","-1","","","14","5027","2315","&#9854;","elianto","#FFFFF080","-1","-1","1","&#10004","[]","0","0","1","","","","","","","",""
"pit-trial","17","260227","0.0-2.0-6.3-0.3","battery-v0.2","","""event"",""trial"",""time""
""fullscreenenter"",""1"",""2323""
","
","
","""event"",""trial"",""time""
""fullscreenenter"",""1"",""2323""
","
","","","-1","","","14","5027","2315","&#9854;","elianto","#FFFFF080","-1","-1","1","&#10004","[]","0","0","1","","","","","","","",""
"pit-trial","18","265107","0.0-2.0-6.4-0.4","battery-v0.2","","""event"",""trial"",""time""
""fullscreenenter"",""1"",""2323""
","
","
","""event"",""trial"",""time""
""fullscreenenter"",""1"",""2323""
","
","","","-1","","","14","5027","2315","&#9854;","elianto","#FFFFF080","-1","-1","1","&#10004","[]","0","0","1","","","","","","","",""
"pit-instructions","19","390511","0.0-2.0-7.0","battery-v0.2","","""event"",""trial"",""time""
""fullscreenenter"",""1"",""2323""
","
","
","""event"",""trial"",""time""
""fullscreenenter"",""1"",""2323""
","
","","[{""page_index"":0,""viewing_time"":7431.5},{""page_index"":1,""viewing_time"":7246.4000000059605},{""page_index"":2,""viewing_time"":5930.799999982119},{""page_index"":3,""viewing_time"":7224.600000023842},{""page_index"":4,""viewing_time"":5260.0999999940395},{""page_index"":5,""viewing_time"":5393.799999982119},{""page_index"":6,""viewing_time"":5115.9000000059605},{""page_index"":7,""viewing_time"":7819.9000000059605},{""page_index"":8,""viewing_time"":14976.5},{""page_index"":9,""viewing_time"":8704.90000000596},{""page_index"":10,""viewing_time"":6755.799999982119},{""page_index"":11,""viewing_time"":4286.200000017881},{""page_index"":12,""viewing_time"":6484.199999988079},{""page_index"":13,""viewing_time"":6124.300000011921},{""page_index"":14,""viewing_time"":6910.5999999940395},{""page_index"":15,""viewing_time"":6879.9000000059605},{""page_index"":16,""viewing_time"":6734.199999988079},{""page_index"":17,""viewing_time"":6114}]","125394.80000001192","","","","","","","","","","","","","","","","","","","","","","","",""
"pit-trial","20","394009","0.0-2.0-8.0-0.0","battery-v0.2","","""event"",""trial"",""time""
""fullscreenenter"",""1"",""2323""
","
","
","""event"",""trial"",""time""
""fullscreenenter"",""1"",""2323""
","
","","","624.4000000059605","","","14","5027","2315","&#9776;","elianto","#3366ff99"," "," ","1","+10","[1480.2999999821186]","1","0","1","","","","","","","",""
"pit-trial","21","397443","0.0-2.0-8.0-1.0","battery-v0.2","","""event"",""trial"",""time""
""fullscreenenter"",""1"",""2323""
","
","
","""event"",""trial"",""time""
""fullscreenenter"",""1"",""2323""
","
","","","524","","","14","5027","2315","&#9776;","elianto","#3366ff99"," "," ","1","+10","[1384.199999988079]","1","0","1","","","","","","","",""
"pit-trial","22","400881","0.0-2.0-8.0-2.0","battery-v0.2","","""event"",""trial"",""time""
""fullscreenenter"",""1"",""2323""
","
","
","""event"",""trial"",""time""
""fullscreenenter"",""1"",""2323""
","
","","","565.6999999880791","","","14","5027","2315","&#9776;","elianto","#3366ff99"," "," ","1","+10","[1419.7999999821186]","1","0","1","","","","","","","",""
"pit-trial","23","404270","0.0-2.0-8.0-3.0","battery-v0.2","","""event"",""trial"",""time""
""fullscreenenter"",""1"",""2323""
","
","
","""event"",""trial"",""time""
""fullscreenenter"",""1"",""2323""
","
","","","491.7000000178814","","","14","5027","2315","&#9776;","elianto","#3366ff99"," "," ","1","0","[1353.3999999761581]","1","0","1","","","","","","","",""
"pit-trial","24","407764","0.0-2.0-8.0-4.0","battery-v0.2","","""event"",""trial"",""time""
""fullscreenenter"",""1"",""2323""
","
","
","""event"",""trial"",""time""
""fullscreenenter"",""1"",""2323""
","
","","","603.8999999761581","","","14","5027","2315","&#9776;","elianto","#3366ff99"," "," ","1","+10","[1456.699999988079]","1","0","1","","","","","","","",""
"pit-trial","25","411246","0.0-2.0-8.1-0.1","battery-v0.2","","""event"",""trial"",""time""
""fullscreenenter"",""1"",""2323""
","
","
","""event"",""trial"",""time""
""fullscreenenter"",""1"",""2323""
","
","","","605.9000000059605","","","14","5027","2315","&#9776;","elianto","#3366ff99"," "," ","1","+10","[1458]","1","0","1","","","","","","","",""
"pit-trial","26","414735","0.0-2.0-8.1-1.1","battery-v0.2","","""event"",""trial"",""time""
""fullscreenenter"",""1"",""2323""
","
","
","""event"",""trial"",""time""
""fullscreenenter"",""1"",""2323""
","
","","","603.1999999880791","","","14","5027","2315","&#9776;","elianto","#3366ff99"," "," ","1","+10","[1456.3999999761581]","1","0","1","","","","","","","",""
"pit-trial","27","418222","0.0-2.0-8.1-2.1","battery-v0.2","","""event"",""trial"",""time""
""fullscreenenter"",""1"",""2323""
","
","
","""event"",""trial"",""time""
""fullscreenenter"",""1"",""2323""
","
","","","619.5","","","14","5027","2315","&#9776;","elianto","#3366ff99"," "," ","1","+10","[1473.5999999940395]","1","0","1","","","","","","","",""
"pit-trial","28","421637","0.0-2.0-8.1-3.1","battery-v0.2","","""event"",""trial"",""time""
""fullscreenenter"",""1"",""2323""
","
","
","""event"",""trial"",""time""
""fullscreenenter"",""1"",""2323""
","
","","","532.9000000059605","","","14","5027","2315","&#9776;","elianto","#3366ff99"," "," ","1","0","[1387.300000011921]","1","0","1","","","","","","","",""
"pit-trial","29","425083","0.0-2.0-8.1-4.1","battery-v0.2","","""event"",""trial"",""time""
""fullscreenenter"",""1"",""2323""
","
","
","""event"",""trial"",""time""
""fullscreenenter"",""1"",""2323""
","
","","","551.9000000059605","","","14","5027","2315","&#9776;","elianto","#3366ff99"," "," ","1","+10","[1406.2000000178814]","1","0","1","","","","","","","",""
"pit-trial","30","428453","0.0-2.0-8.2-0.2","battery-v0.2","","""event"",""trial"",""time""
""fullscreenenter"",""1"",""2323""
","
","
","""event"",""trial"",""time""
""fullscreenenter"",""1"",""2323""
","
","","","481.80000001192093","","","14","5027","2315","&#9776;","elianto","#3366ff99"," "," ","1","+10","[1345]","1","0","1","","","","","","","",""
"pit-trial","31","431794","0.0-2.0-8.2-1.2","battery-v0.2","","""event"",""trial"",""time""
""fullscreenenter"",""1"",""2323""
","
","
","""event"",""trial"",""time""
""fullscreenenter"",""1"",""2323""
","
","","","468.2000000178814","","","14","5027","2315","&#9776;","elianto","#3366ff99"," "," ","1","+10","[1325.6000000238419]","1","0","1","","","","","","","",""
"pit-trial","32","435237","0.0-2.0-8.2-2.2","battery-v0.2","","""event"",""trial"",""time""
""fullscreenenter"",""1"",""2323""
","
","
","""event"",""trial"",""time""
""fullscreenenter"",""1"",""2323""
","
","","","558.8000000119209","","","14","5027","2315","&#9776;","elianto","#3366ff99"," "," ","1","+10","[1415.2999999821186]","1","0","1","","","","","","","",""
"pit-trial","33","438640","0.0-2.0-8.2-3.2","battery-v0.2","","""event"",""trial"",""time""
""fullscreenenter"",""1"",""2323""
","
","
","""event"",""trial"",""time""
""fullscreenenter"",""1"",""2323""
","
","","","532.1000000238419","","","14","5027","2315","&#9776;","elianto","#3366ff99"," "," ","1","0","[1382.9000000059605]","1","0","1","","","","","","","",""
"pit-trial","34","441978","0.0-2.0-8.2-4.2","battery-v0.2","","""event"",""trial"",""time""
""fullscreenenter"",""1"",""2323""
","
","
","""event"",""trial"",""time""
""fullscreenenter"",""1"",""2323""
","
","","","464.59999999403954","","","14","5027","2315","&#9776;","elianto","#3366ff99"," "," ","1","+10","[1320.5999999940395]","1","0","1","","","","","","","",""
"call-function","35","441986","0.0-2.0-9.0","battery-v0.2","","""event"",""trial"",""time""
""fullscreenenter"",""1"",""2323""
","
","
","""event"",""trial"",""time""
""fullscreenenter"",""1"",""2323""
","
","","","","","","","","","","","","","","","","","","","","","","","","","","",""
"pit-instructions","36","482997","0.0-2.0-10.0","battery-v0.2","","""event"",""trial"",""time""
""fullscreenenter"",""1"",""2323""
","
","
","""event"",""trial"",""time""
""fullscreenenter"",""1"",""2323""
","
","","[{""page_index"":0,""viewing_time"":5576.5999999940395},{""page_index"":1,""viewing_time"":9052.90000000596},{""page_index"":2,""viewing_time"":9077.5},{""page_index"":3,""viewing_time"":8850.699999988079},{""page_index"":4,""viewing_time"":8450.300000011921}]","41009.30000001192","","","","","","","","","","","","","","","","","","","","","","","",""
"pit-trial","37","486489","0.0-2.0-11.0-0.0","battery-v0.2","","""event"",""trial"",""time""
""fullscreenenter"",""1"",""2323""
","
","
","""event"",""trial"",""time""
""fullscreenenter"",""1"",""2323""
","
","","","599.4000000059605","","","14","5027","2315","&#9761;","elianto","#3366ff99","-1"," ","0","0","[1454.800000011921]","1","0","2","","","","","","","",""
"pit-trial","38","489882","0.0-2.0-11.0-1.0","battery-v0.2","","""event"",""trial"",""time""
""fullscreenenter"",""1"",""2323""
","
","
","""event"",""trial"",""time""
""fullscreenenter"",""1"",""2323""
","
","","","508.09999999403954","","","14","5027","2315","&#9761;","elianto","#3366ff99","-1"," ","0","0","[1357.4000000059605]","1","0","2","","","","","","","",""
"pit-trial","39","494782","0.0-2.0-11.0-2.0","battery-v0.2","","""event"",""trial"",""time""
""fullscreenenter"",""1"",""2323""
","
","
","""event"",""trial"",""time""
""fullscreenenter"",""1"",""2323""
","
","","","-1","","","14","5027","2315","&#9761;","elianto","#3366ff99","-1","-1","1","+10","[]","0","0","2","","","","","","","",""
"pit-trial","40","499694","0.0-2.0-11.0-3.0","battery-v0.2","","""event"",""trial"",""time""
""fullscreenenter"",""1"",""2323""
","
","
","""event"",""trial"",""time""
""fullscreenenter"",""1"",""2323""
","
","","","-1","","","14","5027","2315","&#9761;","elianto","#3366ff99","-1","-1","1","0","[]","0","0","2","","","","","","","",""
"pit-trial","41","504592","0.0-2.0-11.0-4.0","battery-v0.2","","""event"",""trial"",""time""
""fullscreenenter"",""1"",""2323""
","
","
","""event"",""trial"",""time""
""fullscreenenter"",""1"",""2323""
","
","","","-1","","","14","5027","2315","&#9761;","elianto","#3366ff99","-1","-1","1","+10","[]","0","0","2","","","","","","","",""
"pit-trial","42","509477","0.0-2.0-11.1-0.1","battery-v0.2","","""event"",""trial"",""time""
""fullscreenenter"",""1"",""2323""
","
","
","""event"",""trial"",""time""
""fullscreenenter"",""1"",""2323""
","
","","","-1","","","14","5027","2315","&#9761;","elianto","#3366ff99","-1","-1","1","+10","[]","0","0","2","","","","","","","",""
"pit-trial","43","514361","0.0-2.0-11.1-1.1","battery-v0.2","","""event"",""trial"",""time""
""fullscreenenter"",""1"",""2323""
","
","
","""event"",""trial"",""time""
""fullscreenenter"",""1"",""2323""
","
","","","-1","","","14","5027","2315","&#9761;","elianto","#3366ff99","-1","-1","1","+10","[]","0","0","2","","","","","","","",""
"pit-trial","44","519229","0.0-2.0-11.1-2.1","battery-v0.2","","""event"",""trial"",""time""
""fullscreenenter"",""1"",""2323""
","
","
","""event"",""trial"",""time""
""fullscreenenter"",""1"",""2323""
","
","","","-1","","","14","5027","2315","&#9761;","elianto","#3366ff99","-1","-1","1","+10","[]","0","0","2","","","","","","","",""
"pit-trial","45","524112","0.0-2.0-11.1-3.1","battery-v0.2","","""event"",""trial"",""time""
""fullscreenenter"",""1"",""2323""
","
","
","""event"",""trial"",""time""
""fullscreenenter"",""1"",""2323""
","
","","","-1","","","14","5027","2315","&#9761;","elianto","#3366ff99","-1","-1","1","0","[]","0","0","2","","","","","","","",""
"pit-trial","46","528996","0.0-2.0-11.1-4.1","battery-v0.2","","""event"",""trial"",""time""
""fullscreenenter"",""1"",""2323""
","
","
","""event"",""trial"",""time""
""fullscreenenter"",""1"",""2323""
","
","","","-1","","","14","5027","2315","&#9761;","elianto","#3366ff99","-1","-1","1","+10","[]","0","0","2","","","","","","","",""
"pit-trial","47","533870","0.0-2.0-11.2-0.2","battery-v0.2","","""event"",""trial"",""time""
""fullscreenenter"",""1"",""2323""
","
","
","""event"",""trial"",""time""
""fullscreenenter"",""1"",""2323""
","
","","","-1","","","14","5027","2315","&#9761;","elianto","#3366ff99","-1","-1","1","+10","[]","0","0","2","","","","","","","",""
"pit-trial","48","538760","0.0-2.0-11.2-1.2","battery-v0.2","","""event"",""trial"",""time""
""fullscreenenter"",""1"",""2323""
","
","
","""event"",""trial"",""time""
""fullscreenenter"",""1"",""2323""
","
","","","-1","","","14","5027","2315","&#9761;","elianto","#3366ff99","-1","-1","1","+10","[]","0","0","2","","","","","","","",""
"pit-trial","49","543638","0.0-2.0-11.2-2.2","battery-v0.2","","""event"",""trial"",""time""
""fullscreenenter"",""1"",""2323""
","
","
","""event"",""trial"",""time""
""fullscreenenter"",""1"",""2323""
","
","","","-1","","","14","5027","2315","&#9761;","elianto","#3366ff99","-1","-1","1","+10","[]","0","0","2","","","","","","","",""
"pit-trial","50","548511","0.0-2.0-11.2-3.2","battery-v0.2","","""event"",""trial"",""time""
""fullscreenenter"",""1"",""2323""
","
","
","""event"",""trial"",""time""
""fullscreenenter"",""1"",""2323""
","
","","","-1","","","14","5027","2315","&#9761;","elianto","#3366ff99","-1","-1","1","0","[]","0","0","2","","","","","","","",""
"pit-trial","51","553386","0.0-2.0-11.2-4.2","battery-v0.2","","""event"",""trial"",""time""
""fullscreenenter"",""1"",""2323""
","
","
","""event"",""trial"",""time""
""fullscreenenter"",""1"",""2323""
","
","","","-1","","","14","5027","2315","&#9761;","elianto","#3366ff99","-1","-1","1","+10","[]","0","0","2","","","","","","","",""
"pit-trial","52","558258","0.0-2.0-11.3-0.3","battery-v0.2","","""event"",""trial"",""time""
""fullscreenenter"",""1"",""2323""
","
","
","""event"",""trial"",""time""
""fullscreenenter"",""1"",""2323""
","
","","","-1","","","14","5027","2315","&#9761;","elianto","#3366ff99","-1","-1","1","+10","[]","0","0","2","","","","","","","",""
"pit-trial","53","563135","0.0-2.0-11.3-1.3","battery-v0.2","","""event"",""trial"",""time""
""fullscreenenter"",""1"",""2323""
","
","
","""event"",""trial"",""time""
""fullscreenenter"",""1"",""2323""
","
","","","-1","","","14","5027","2315","&#9761;","elianto","#3366ff99","-1","-1","1","+10","[]","0","0","2","","","","","","","",""
"pit-trial","54","568009","0.0-2.0-11.3-2.3","battery-v0.2","","""event"",""trial"",""time""
""fullscreenenter"",""1"",""2323""
","
","
","""event"",""trial"",""time""
""fullscreenenter"",""1"",""2323""
","
","","","-1","","","14","5027","2315","&#9761;","elianto","#3366ff99","-1","-1","1","+10","[]","0","0","2","","","","","","","",""
"pit-trial","55","572887","0.0-2.0-11.3-3.3","battery-v0.2","","""event"",""trial"",""time""
""fullscreenenter"",""1"",""2323""
","
","
","""event"",""trial"",""time""
""fullscreenenter"",""1"",""2323""
","
","","","-1","","","14","5027","2315","&#9761;","elianto","#3366ff99","-1","-1","1","0","[]","0","0","2","","","","","","","",""
"pit-trial","56","577765","0.0-2.0-11.3-4.3","battery-v0.2","","""event"",""trial"",""time""
""fullscreenenter"",""1"",""2323""
","
","
","""event"",""trial"",""time""
""fullscreenenter"",""1"",""2323""
","
","","","-1","","","14","5027","2315","&#9761;","elianto","#3366ff99","-1","-1","1","+10","[]","0","0","2","","","","","","","",""
"call-function","57","577769","0.0-2.0-12.0","battery-v0.2","","""event"",""trial"",""time""
""fullscreenenter"",""1"",""2323""
","
","
","""event"",""trial"",""time""
""fullscreenenter"",""1"",""2323""
","
","","","","","","","","","","","","","","","","","","","","","","","","","","",""
"pit-instructions","58","618373","0.0-2.0-13.0","battery-v0.2","","""event"",""trial"",""time""
""fullscreenenter"",""1"",""2323""
","
","
","""event"",""trial"",""time""
""fullscreenenter"",""1"",""2323""
","
","","[{""page_index"":0,""viewing_time"":5878.299999982119},{""page_index"":1,""viewing_time"":7040.700000017881},{""page_index"":2,""viewing_time"":3977.5999999940395},{""page_index"":3,""viewing_time"":10310.300000011921},{""page_index"":4,""viewing_time"":13386.299999982119}]","40594.29999998212","","","","","","","","","","","","","","","","","","","","","","","",""
"pit-trial","59","621836","0.0-2.0-14.0-0.0","battery-v0.2","","""event"",""trial"",""time""
""fullscreenenter"",""1"",""2323""
","
","
","""event"",""trial"",""time""
""fullscreenenter"",""1"",""2323""
","
","","","592.1999999880791","","","14","5027","2315","&#9826;","elianto","#f73b6a7A","-1"," ","0","-10","[1446.4000000059605]","1","0","3","","","","","","","",""
"pit-trial","60","626723","0.0-2.0-14.0-1.0","battery-v0.2","","""event"",""trial"",""time""
""fullscreenenter"",""1"",""2323""
","
","
","""event"",""trial"",""time""
""fullscreenenter"",""1"",""2323""
","
","","","-1","","","14","5027","2315","&#9826;","elianto","#f73b6a7A","-1","-1","1","0","[]","0","0","3","","","","","","","",""
"pit-trial","61","631599","0.0-2.0-14.0-2.0","battery-v0.2","","""event"",""trial"",""time""
""fullscreenenter"",""1"",""2323""
","
","
","""event"",""trial"",""time""
""fullscreenenter"",""1"",""2323""
","
","","","-1","","","14","5027","2315","&#9826;","elianto","#f73b6a7A","-1","-1","1","0","[]","0","0","3","","","","","","","",""
"pit-trial","62","636506","0.0-2.0-14.0-3.0","battery-v0.2","","""event"",""trial"",""time""
""fullscreenenter"",""1"",""2323""
","
","
","""event"",""trial"",""time""
""fullscreenenter"",""1"",""2323""
","
","","","-1","","","14","5027","2315","&#9826;","elianto","#f73b6a7A","-1","-1","1","-10","[]","0","0","3","","","","","","","",""
"pit-trial","63","641389","0.0-2.0-14.0-4.0","battery-v0.2","","""event"",""trial"",""time""
""fullscreenenter"",""1"",""2323""
","
","
","""event"",""trial"",""time""
""fullscreenenter"",""1"",""2323""
","
","","","-1","","","14","5027","2315","&#9826;","elianto","#f73b6a7A","-1","-1","1","0","[]","0","0","3","","","","","","","",""
"pit-trial","64","646269","0.0-2.0-14.1-0.1","battery-v0.2","","""event"",""trial"",""time""
""fullscreenenter"",""1"",""2323""
","
","
","""event"",""trial"",""time""
""fullscreenenter"",""1"",""2323""
","
","","","-1","","","14","5027","2315","&#9826;","elianto","#f73b6a7A","-1","-1","1","0","[]","0","0","3","","","","","","","",""
"pit-trial","65","651156","0.0-2.0-14.1-1.1","battery-v0.2","","""event"",""trial"",""time""
""fullscreenenter"",""1"",""2323""
","
","
","""event"",""trial"",""time""
""fullscreenenter"",""1"",""2323""
","
","","","-1","","","14","5027","2315","&#9826;","elianto","#f73b6a7A","-1","-1","1","0","[]","0","0","3","","","","","","","",""
"pit-trial","66","656021","0.0-2.0-14.1-2.1","battery-v0.2","","""event"",""trial"",""time""
""fullscreenenter"",""1"",""2323""
","
","
","""event"",""trial"",""time""
""fullscreenenter"",""1"",""2323""
","
","","","-1","","","14","5027","2315","&#9826;","elianto","#f73b6a7A","-1","-1","1","0","[]","0","0","3","","","","","","","",""
"pit-trial","67","660899","0.0-2.0-14.1-3.1","battery-v0.2","","""event"",""trial"",""time""
""fullscreenenter"",""1"",""2323""
","
","
","""event"",""trial"",""time""
""fullscreenenter"",""1"",""2323""
","
","","","-1","","","14","5027","2315","&#9826;","elianto","#f73b6a7A","-1","-1","1","-10","[]","0","0","3","","","","","","","",""
"pit-trial","68","665774","0.0-2.0-14.1-4.1","battery-v0.2","","""event"",""trial"",""time""
""fullscreenenter"",""1"",""2323""
","
","
","""event"",""trial"",""time""
""fullscreenenter"",""1"",""2323""
","
","","","-1","","","14","5027","2315","&#9826;","elianto","#f73b6a7A","-1","-1","1","0","[]","0","0","3","","","","","","","",""
"pit-trial","69","670648","0.0-2.0-14.2-0.2","battery-v0.2","","""event"",""trial"",""time""
""fullscreenenter"",""1"",""2323""
","
","
","""event"",""trial"",""time""
""fullscreenenter"",""1"",""2323""
","
","","","-1","","","14","5027","2315","&#9826;","elianto","#f73b6a7A","-1","-1","1","0","[]","0","0","3","","","","","","","",""
"pit-trial","70","675519","0.0-2.0-14.2-1.2","battery-v0.2","","""event"",""trial"",""time""
""fullscreenenter"",""1"",""2323""
","
","
","""event"",""trial"",""time""
""fullscreenenter"",""1"",""2323""
","
","","","-1","","","14","5027","2315","&#9826;","elianto","#f73b6a7A","-1","-1","1","0","[]","0","0","3","","","","","","","",""
"pit-trial","71","680408","0.0-2.0-14.2-2.2","battery-v0.2","","""event"",""trial"",""time""
""fullscreenenter"",""1"",""2323""
","
","
","""event"",""trial"",""time""
""fullscreenenter"",""1"",""2323""
","
","","","-1","","","14","5027","2315","&#9826;","elianto","#f73b6a7A","-1","-1","1","0","[]","0","0","3","","","","","","","",""
"pit-trial","72","685279","0.0-2.0-14.2-3.2","battery-v0.2","","""event"",""trial"",""time""
""fullscreenenter"",""1"",""2323""
","
","
","""event"",""trial"",""time""
""fullscreenenter"",""1"",""2323""
","
","","","-1","","","14","5027","2315","&#9826;","elianto","#f73b6a7A","-1","-1","1","-10","[]","0","0","3","","","","","","","",""
"pit-trial","73","690163","0.0-2.0-14.2-4.2","battery-v0.2","","""event"",""trial"",""time""
""fullscreenenter"",""1"",""2323""
","
","
","""event"",""trial"",""time""
""fullscreenenter"",""1"",""2323""
","
","","","-1","","","14","5027","2315","&#9826;","elianto","#f73b6a7A","-1","-1","1","0","[]","0","0","3","","","","","","","",""
"pit-trial","74","695039","0.0-2.0-14.3-0.3","battery-v0.2","","""event"",""trial"",""time""
""fullscreenenter"",""1"",""2323""
","
","
","""event"",""trial"",""time""
""fullscreenenter"",""1"",""2323""
","
","","","-1","","","14","5027","2315","&#9826;","elianto","#f73b6a7A","-1","-1","1","0","[]","0","0","3","","","","","","","",""
"pit-trial","75","699912","0.0-2.0-14.3-1.3","battery-v0.2","","""event"",""trial"",""time""
""fullscreenenter"",""1"",""2323""
","
","
","""event"",""trial"",""time""
""fullscreenenter"",""1"",""2323""
","
","","","-1","","","14","5027","2315","&#9826;","elianto","#f73b6a7A","-1","-1","1","0","[]","0","0","3","","","","","","","",""
"pit-trial","76","704792","0.0-2.0-14.3-2.3","battery-v0.2","","""event"",""trial"",""time""
""fullscreenenter"",""1"",""2323""
","
","
","""event"",""trial"",""time""
""fullscreenenter"",""1"",""2323""
","
","","","-1","","","14","5027","2315","&#9826;","elianto","#f73b6a7A","-1","-1","1","0","[]","0","0","3","","","","","","","",""
"pit-trial","77","709669","0.0-2.0-14.3-3.3","battery-v0.2","","""event"",""trial"",""time""
""fullscreenenter"",""1"",""2323""
","
","
","""event"",""trial"",""time""
""fullscreenenter"",""1"",""2323""
","
","","","-1","","","14","5027","2315","&#9826;","elianto","#f73b6a7A","-1","-1","1","-10","[]","0","0","3","","","","","","","",""
"pit-trial","78","714544","0.0-2.0-14.3-4.3","battery-v0.2","","""event"",""trial"",""time""
""fullscreenenter"",""1"",""2323""
","
","
","""event"",""trial"",""time""
""fullscreenenter"",""1"",""2323""
","
","","","-1","","","14","5027","2315","&#9826;","elianto","#f73b6a7A","-1","-1","1","0","[]","0","0","3","","","","","","","",""
"call-function","79","714549","0.0-2.0-15.0","battery-v0.2","","""event"",""trial"",""time""
""fullscreenenter"",""1"",""2323""
","
","
","""event"",""trial"",""time""
""fullscreenenter"",""1"",""2323""
","
","","","","","","","","","","","","","","","","","","","","","","","","","","",""
"pit-instructions","80","754902","0.0-2.0-16.0","battery-v0.2","","""event"",""trial"",""time""
""fullscreenenter"",""1"",""2323""
","
","
","""event"",""trial"",""time""
""fullscreenenter"",""1"",""2323""
","
","","[{""page_index"":0,""viewing_time"":19737.09999999404},{""page_index"":1,""viewing_time"":10720.300000011921},{""page_index"":2,""viewing_time"":5724.0999999940395},{""page_index"":3,""viewing_time"":4164.199999988079}]","40348.59999999404","","","","","","","","","","","","","","","","","","","","","","","",""
"pit-trial","81","758327","0.0-2.0-17.0-0.0","battery-v0.2","","""event"",""trial"",""time""
""fullscreenenter"",""1"",""2323""
","
","
","""event"",""trial"",""time""
""fullscreenenter"",""1"",""2323""
","
","","","547.0999999940395","","","14","5027","2315","&#9789;","elianto","#f73b6a7A"," "," ","1","0","[1403.5]","1","0","4","","","","","","","",""
"pit-trial","82","761674","0.0-2.0-17.0-1.0","battery-v0.2","","""event"",""trial"",""time""
""fullscreenenter"",""1"",""2323""
","
","
","""event"",""trial"",""time""
""fullscreenenter"",""1"",""2323""
","
","","","465.90000000596046","","","14","5027","2315","&#9789;","elianto","#f73b6a7A"," "," ","1","0","[1322.4000000059605]","1","0","4","","","","","","","",""
"pit-trial","83","764951","0.0-2.0-17.0-2.0","battery-v0.2","","""event"",""trial"",""time""
""fullscreenenter"",""1"",""2323""
","
","
","""event"",""trial"",""time""
""fullscreenenter"",""1"",""2323""
","
","","","395.5","","","14","5027","2315","&#9789;","elianto","#f73b6a7A"," "," ","1","0","[1260.7000000178814]","1","0","4","","","","","","","",""
"pit-trial","84","768206","0.0-2.0-17.0-3.0","battery-v0.2","","""event"",""trial"",""time""
""fullscreenenter"",""1"",""2323""
","
","
","""event"",""trial"",""time""
""fullscreenenter"",""1"",""2323""
","
","","","386.30000001192093","","","14","5027","2315","&#9789;","elianto","#f73b6a7A"," "," ","1","-10","[1244.1000000238419]","1","0","4","","","","","","","",""
"pit-trial","85","771631","0.0-2.0-17.0-4.0","battery-v0.2","","""event"",""trial"",""time""
""fullscreenenter"",""1"",""2323""
","
","
","""event"",""trial"",""time""
""fullscreenenter"",""1"",""2323""
","
","","","542.5","","","14","5027","2315","&#9789;","elianto","#f73b6a7A"," "," ","1","0","[1402]","1","0","4","","","","","","","",""
"pit-trial","86","775941","0.0-2.0-17.1-0.1","battery-v0.2","","""event"",""trial"",""time""
""fullscreenenter"",""1"",""2323""
","
","
","""event"",""trial"",""time""
""fullscreenenter"",""1"",""2323""
","
","","","1431.699999988079","","","14","5027","2315","&#9789;","elianto","#f73b6a7A"," "," ","1","0","[2283.5999999940395]","1","0","4","","","","","","","",""
"pit-trial","87","779205","0.0-2.0-17.1-1.1","battery-v0.2","","""event"",""trial"",""time""
""fullscreenenter"",""1"",""2323""
","
","
","""event"",""trial"",""time""
""fullscreenenter"",""1"",""2323""
","
","","","388","","","14","5027","2315","&#9789;","elianto","#f73b6a7A"," "," ","1","0","[1240.5]","1","0","4","","","","","","","",""
"pit-trial","88","782527","0.0-2.0-17.1-2.1","battery-v0.2","","""event"",""trial"",""time""
""fullscreenenter"",""1"",""2323""
","
","
","""event"",""trial"",""time""
""fullscreenenter"",""1"",""2323""
","
","","","435.19999998807907","","","14","5027","2315","&#9789;","elianto","#f73b6a7A"," "," ","1","0","[1299.4000000059605]","1","0","4","","","","","","","",""
"pit-trial","89","785901","0.0-2.0-17.1-3.1","battery-v0.2","","""event"",""trial"",""time""
""fullscreenenter"",""1"",""2323""
","
","
","""event"",""trial"",""time""
""fullscreenenter"",""1"",""2323""
","
","","","502","","","14","5027","2315","&#9789;","elianto","#f73b6a7A"," "," ","1","-10","[1354.7999999821186]","1","0","4","","","","","","","",""
"pit-trial","90","789029","0.0-2.0-17.1-4.1","battery-v0.2","","""event"",""trial"",""time""
""fullscreenenter"",""1"",""2323""
","
","
","""event"",""trial"",""time""
""fullscreenenter"",""1"",""2323""
","
","","","262.30000001192093","","","14","5027","2315","&#9789;","elianto","#f73b6a7A"," "," ","1","0","[409,1115.5]","2","0","4","","","","","","","",""
"pit-trial","91","792118","0.0-2.0-17.2-0.2","battery-v0.2","","""event"",""trial"",""time""
""fullscreenenter"",""1"",""2323""
","
","
","""event"",""trial"",""time""
""fullscreenenter"",""1"",""2323""
","
","","","215.19999998807907","","","14","5027","2315","&#9789;","elianto","#f73b6a7A"," "," ","1","0","[1072]","1","0","4","","","","","","","",""
"pit-trial","92","795238","0.0-2.0-17.2-1.2","battery-v0.2","","""event"",""trial"",""time""
""fullscreenenter"",""1"",""2323""
","
","
","""event"",""trial"",""time""
""fullscreenenter"",""1"",""2323""
","
","","","248.19999998807907","","","14","5027","2315","&#9789;","elianto","#f73b6a7A"," "," ","1","0","[1106.7999999821186]","1","0","4","","","","","","","",""
"pit-trial","93","798355","0.0-2.0-17.2-2.2","battery-v0.2","","""event"",""trial"",""time""
""fullscreenenter"",""1"",""2323""
","
","
","""event"",""trial"",""time""
""fullscreenenter"",""1"",""2323""
","
","","","244.30000001192093","","","14","5027","2315","&#9789;","elianto","#f73b6a7A"," "," ","1","0","[1103.3999999761581]","1","0","4","","","","","","","",""
"pit-trial","94","801472","0.0-2.0-17.2-3.2","battery-v0.2","","""event"",""trial"",""time""
""fullscreenenter"",""1"",""2323""
","
","
","""event"",""trial"",""time""
""fullscreenenter"",""1"",""2323""
","
","","","251.09999999403954","","","14","5027","2315","&#9789;","elianto","#f73b6a7A"," "," ","1","-10","[1105.4000000059605]","1","0","4","","","","","","","",""
"pit-trial","95","804465","0.0-2.0-17.2-4.2","battery-v0.2","","""event"",""trial"",""time""
""fullscreenenter"",""1"",""2323""
","
","
","""event"",""trial"",""time""
""fullscreenenter"",""1"",""2323""
","
","","","125.5","","","14","5027","2315","&#9789;","elianto","#f73b6a7A"," "," ","1","0","[983.5]","1","0","4","","","","","","","",""
"pit-trial","96","807558","0.0-2.0-17.3-0.3","battery-v0.2","","""event"",""trial"",""time""
""fullscreenenter"",""1"",""2323""
","
","
","""event"",""trial"",""time""
""fullscreenenter"",""1"",""2323""
","
","","","224.30000001192093","","","14","5027","2315","&#9789;","elianto","#f73b6a7A"," "," ","1","0","[1076.7000000178814]","1","0","4","","","","","","","",""
"pit-trial","97","810757","0.0-2.0-17.3-1.3","battery-v0.2","","""event"",""trial"",""time""
""fullscreenenter"",""1"",""2323""
","
","
","""event"",""trial"",""time""
""fullscreenenter"",""1"",""2323""
","
","","","336.40000000596046","","","14","5027","2315","&#9789;","elianto","#f73b6a7A"," "," ","1","0","[1186.699999988079]","1","0","4","","","","","","","",""
"pit-trial","98","813833","0.0-2.0-17.3-2.3","battery-v0.2","","""event"",""trial"",""time""
""fullscreenenter"",""1"",""2323""
","
","
","""event"",""trial"",""time""
""fullscreenenter"",""1"",""2323""
","
","","","210.30000001192093","","","14","5027","2315","&#9789;","elianto","#f73b6a7A"," "," ","1","0","[1066.2000000178814]","1","0","4","","","","","","","",""
"pit-trial","99","816840","0.0-2.0-17.3-3.3","battery-v0.2","","""event"",""trial"",""time""
""fullscreenenter"",""1"",""2323""
","
","
","""event"",""trial"",""time""
""fullscreenenter"",""1"",""2323""
","
","","","134.40000000596046","","","14","5027","2315","&#9789;","elianto","#f73b6a7A"," "," ","1","-10","[985.3000000119209]","1","0","4","","","","","","","",""
"pit-trial","100","819872","0.0-2.0-17.3-4.3","battery-v0.2","","""event"",""trial"",""time""
""fullscreenenter"",""1"",""2323""
","
","
","""event"",""trial"",""time""
""fullscreenenter"",""1"",""2323""
","
","","","161","","","14","5027","2315","&#9789;","elianto","#f73b6a7A"," "," ","1","0","[1018.3000000119209]","1","0","4","","","","","","","",""
"call-function","101","819876","0.0-2.0-18.0","battery-v0.2","","""event"",""trial"",""time""
""fullscreenenter"",""1"",""2323""
","
","
","""event"",""trial"",""time""
""fullscreenenter"",""1"",""2323""
","
","","","","","","","","","","","","","","","","","","","","","","","","","","",""
"pit-instructions","102","887315","0.0-2.0-19.0","battery-v0.2","","""event"",""trial"",""time""
""fullscreenenter"",""1"",""2323""
","
","
","""event"",""trial"",""time""
""fullscreenenter"",""1"",""2323""
","
","","[{""page_index"":0,""viewing_time"":6634.800000011921},{""page_index"":1,""viewing_time"":5417.5},{""page_index"":2,""viewing_time"":14104.800000011921},{""page_index"":3,""viewing_time"":8022.199999988079},{""page_index"":4,""viewing_time"":8768.699999988079},{""page_index"":5,""viewing_time"":8261.700000017881},{""page_index"":6,""viewing_time"":6198},{""page_index"":7,""viewing_time"":5836.5999999940395},{""page_index"":8,""viewing_time"":4186.300000011921}]","67432","","","","","","","","","","","","","","","","","","","","","","","",""
"pit-comprehension","103","892523","0.0-2.0-20.0-0.0","battery-v0.2","","""event"",""trial"",""time""
""fullscreenenter"",""1"",""2323""
","
","
","""event"",""trial"",""time""
""fullscreenenter"",""1"",""2323""
","
","","","5195.600000023842","[""SPACE""]","0","14","5027","2315","","","","","","","","","","","","","","","","","","",""
"pit-instructions","104","895364","0.0-2.0-20.0-1.0","battery-v0.2","","""event"",""trial"",""time""
""fullscreenenter"",""1"",""2323""
","
","
","""event"",""trial"",""time""
""fullscreenenter"",""1"",""2323""
","
","","[{""page_index"":0,""viewing_time"":2598.800000011921}]","2599.5999999940395","","","","","","","","","","","","","","","","","","","","","","","",""
"pit-comprehension","105","902992","0.0-2.0-21.0-0.0","battery-v0.2","","""event"",""trial"",""time""
""fullscreenenter"",""1"",""2323""
","
","
","""event"",""trial"",""time""
""fullscreenenter"",""1"",""2323""
","
","","","7616.5","[""10""]","0","14","5027","2315","","","","","","","","","","","","","","","","","","",""
"pit-instructions","106","904882","0.0-2.0-21.0-1.0","battery-v0.2","","""event"",""trial"",""time""
""fullscreenenter"",""1"",""2323""
","
","
","""event"",""trial"",""time""
""fullscreenenter"",""1"",""2323""
","
","","[{""page_index"":0,""viewing_time"":1699}]","1700","","","","","","","","","","","","","","","","","","","","","","","",""
"pit-comprehension","107","914609","0.0-2.0-22.0-0.0","battery-v0.2","","""event"",""trial"",""time""
""fullscreenenter"",""1"",""2323""
","
","
","""event"",""trial"",""time""
""fullscreenenter"",""1"",""2323""
","
","","","9716.199999988079","[""0""]","0","14","5027","2315","","","","","","","","","","","","","","","","","","",""
"pit-instructions","108","916699","0.0-2.0-22.0-1.0","battery-v0.2","","""event"",""trial"",""time""
""fullscreenenter"",""1"",""2323""
","
","
","""event"",""trial"",""time""
""fullscreenenter"",""1"",""2323""
","
","","[{""page_index"":0,""viewing_time"":1811.3999999761581}]","1812.199999988079","","","","","","","","","","","","","","","","","","","","","","","",""
"pit-comprehension","109","926925","0.0-2.0-23.0-0.0","battery-v0.2","","""event"",""trial"",""time""
""fullscreenenter"",""1"",""2323""
","
","
","""event"",""trial"",""time""
""fullscreenenter"",""1"",""2323""
","
","","","10214.09999999404","[""True""]","0","14","5027","2315","","","","","","","","","","","","","","","","","","",""
"pit-instructions","110","928837","0.0-2.0-23.0-1.0","battery-v0.2","","""event"",""trial"",""time""
""fullscreenenter"",""1"",""2323""
","
","
","""event"",""trial"",""time""
""fullscreenenter"",""1"",""2323""
","
","","[{""page_index"":0,""viewing_time"":1700.199999988079}]","1701.0999999940395","","","","","","","","","","","","","","","","","","","","","","","",""
"pit-comprehension","111","937139","0.0-2.0-24.0-0.0","battery-v0.2","","""event"",""trial"",""time""
""fullscreenenter"",""1"",""2323""
","
","
","""event"",""trial"",""time""
""fullscreenenter"",""1"",""2323""
","
","","","8285.299999982119","[""True""]","0","14","5027","2315","","","","","","","","","","","","","","","","","","",""
"pit-instructions","112","938844","0.0-2.0-24.0-1.0","battery-v0.2","","""event"",""trial"",""time""
""fullscreenenter"",""1"",""2323""
","
","
","""event"",""trial"",""time""
""fullscreenenter"",""1"",""2323""
","
","","[{""page_index"":0,""viewing_time"":1512.7999999821186}]","1513.699999988079","","","","","","","","","","","","","","","","","","","","","","","",""
"pit-comprehension","113","947317","0.0-2.0-25.0-0.0","battery-v0.2","","""event"",""trial"",""time""
""fullscreenenter"",""1"",""2323""
","
","
","""event"",""trial"",""time""
""fullscreenenter"",""1"",""2323""
","
","","","8463.09999999404","[""True""]","0","14","5027","2315","","","","","","","","","","","","","","","","","","",""
"pit-instructions","114","949132","0.0-2.0-25.0-1.0","battery-v0.2","","""event"",""trial"",""time""
""fullscreenenter"",""1"",""2323""
","
","
","""event"",""trial"",""time""
""fullscreenenter"",""1"",""2323""
","
","","[{""page_index"":0,""viewing_time"":1608.5999999940395}]","1609.4000000059605","","","","","","","","","","","","","","","","","","","","","","","",""
"pit-comprehension","115","954862","0.0-2.0-26.0-0.0","battery-v0.2","","""event"",""trial"",""time""
""fullscreenenter"",""1"",""2323""
","
","
","""event"",""trial"",""time""
""fullscreenenter"",""1"",""2323""
","
","","","5720.4000000059605","[""False""]","0","14","5027","2315","","","","","","","","","","","","","","","","","","",""
"pit-instructions","116","956936","0.0-2.0-26.0-1.0","battery-v0.2","","""event"",""trial"",""time""
""fullscreenenter"",""1"",""2323""
","
","
","""event"",""trial"",""time""
""fullscreenenter"",""1"",""2323""
","
","","[{""page_index"":0,""viewing_time"":1861.5}]","1862.4000000059605","","","","","","","","","","","","","","","","","","","","","","","",""
"pit-instructions","117","974534","0.0-3.0","battery-v0.2","","""event"",""trial"",""time""
""fullscreenenter"",""1"",""2323""
","
","
","""event"",""trial"",""time""
""fullscreenenter"",""1"",""2323""
","
","","[{""page_index"":0,""viewing_time"":5291.799999982119},{""page_index"":1,""viewing_time"":5215.800000011921},{""page_index"":2,""viewing_time"":7080.0999999940395}]","17588.59999999404","","","","","","","","","","","","","","","","","","","","","","","",""
"pit-trial","118","978010","0.0-4.0","battery-v0.2","","""event"",""trial"",""time""
""fullscreenenter"",""1"",""2323""
","
","
","""event"",""trial"",""time""
""fullscreenenter"",""1"",""2323""
","
","","","583.5","","","14","5027","2315","&#9728;","elianto","#f73b6a7A","-1"," ","0","-10","[1448.9000000059605]","1","1","","","5027","1","0","4","lose","no-go","0"
"pit-trial","119","981581","0.0-5.0","battery-v0.2","","""event"",""trial"",""time""
""fullscreenenter"",""1"",""2323""
","
","
","""event"",""trial"",""time""
""fullscreenenter"",""1"",""2323""
","
","","","690.7999999821186","","","14","5027","2315","&#9733;","elianto","#3366ff99","-1"," ","0","0","[1557.5999999940395]","1","1","","","5027","2","2","2","win","no-go","0"
"pit-trial","120","985191","0.0-6.0","battery-v0.2","","""event"",""trial"",""time""
""fullscreenenter"",""1"",""2323""
","
","
","""event"",""trial"",""time""
""fullscreenenter"",""1"",""2323""
","
","","","731.5","","","14","5027","2315","&#9752;","elianto","#f73b6a7A"," "," ","1","0","[1585.2999999821186]","1","1","","","5027","3","3","3","lose","go","0"
"pit-trial","121","990082","0.0-7.0","battery-v0.2","","""event"",""trial"",""time""
""fullscreenenter"",""1"",""2323""
","
","
","""event"",""trial"",""time""
""fullscreenenter"",""1"",""2323""
","
","","","-1","","","14","5027","2315","&#9730;","elianto","#3366ff99"," ","-1","0","0","[]","0","1","","","5027","4","1","1","win","go","0"
"pit-trial","122","993897","0.0-8.0","battery-v0.2","","""event"",""trial"",""time""
""fullscreenenter"",""1"",""2323""
","
","
","""event"",""trial"",""time""
""fullscreenenter"",""1"",""2323""
","
","","","940.9000000059605","","","14","5027","2315","&#9752;","elianto","#f73b6a7A"," "," ","1","0","[1794.3999999761581]","1","1","","","5027","5","3","3","lose","go","0"
"pit-trial","123","997462","0.0-9.0","battery-v0.2","","""event"",""trial"",""time""
""fullscreenenter"",""1"",""2323""
","
","
","""event"",""trial"",""time""
""fullscreenenter"",""1"",""2323""
","
","","","684.5","","","14","5027","2315","&#9730;","elianto","#3366ff99"," "," ","1","+10","[1538.199999988079]","1","1","","","5027","6","1","1","win","go","0"
"pit-trial","124","1000802","0.0-10.0","battery-v0.2","","""event"",""trial"",""time""
""fullscreenenter"",""1"",""2323""
","
","
","""event"",""trial"",""time""
""fullscreenenter"",""1"",""2323""
","
","","","475.10000002384186","","","14","5027","2315","&#9733;","elianto","#3366ff99","-1"," ","0","0","[1325.8999999761581]","1","1","","","5027","7","2","2","win","no-go","0"
"pit-trial","125","1004377","0.0-11.0","battery-v0.2","","""event"",""trial"",""time""
""fullscreenenter"",""1"",""2323""
","
","
","""event"",""trial"",""time""
""fullscreenenter"",""1"",""2323""
","
","","","693.6999999880791","","","14","5027","2315","&#9728;","elianto","#f73b6a7A","-1"," ","0","-10","[1547.9000000059605]","1","1","","","5027","8","0","4","lose","no-go","0"
"pit-trial","126","1008016","0.0-12.0","battery-v0.2","","""event"",""trial"",""time""
""fullscreenenter"",""1"",""2323""
","
","
","""event"",""trial"",""time""
""fullscreenenter"",""1"",""2323""
","
","","","773.0999999940395","","","14","5027","2315","&#9730;","elianto","#3366ff99"," "," ","1","+10","[1626.199999988079]","1","1","","","5027","9","1","1","win","go","0"
"pit-trial","127","1012888","0.0-13.0","battery-v0.2","","""event"",""trial"",""time""
""fullscreenenter"",""1"",""2323""
","
","
","""event"",""trial"",""time""
""fullscreenenter"",""1"",""2323""
","
","","","-1","","","14","5027","2315","&#9733;","elianto","#3366ff99","-1","-1","1","+10","[]","0","1","","","5027","10","2","2","win","no-go","0"
"pit-trial","128","1017761","0.0-14.0","battery-v0.2","","""event"",""trial"",""time""
""fullscreenenter"",""1"",""2323""
","
","
","""event"",""trial"",""time""
""fullscreenenter"",""1"",""2323""
","
","","","-1","","","14","5027","2315","&#9752;","elianto","#f73b6a7A"," ","-1","0","-10","[]","0","1","","","5027","11","3","3","lose","go","0"
"pit-trial","129","1021165","0.0-15.0","battery-v0.2","","""event"",""trial"",""time""
""fullscreenenter"",""1"",""2323""
","
","
","""event"",""trial"",""time""
""fullscreenenter"",""1"",""2323""
","
","","","540.0999999940395","","","14","5027","2315","&#9728;","elianto","#f73b6a7A","-1"," ","0","0","[1390.5]","1","1","","","5027","12","0","4","lose","no-go","1"
"pit-trial","130","1024900","0.0-16.0","battery-v0.2","","""event"",""trial"",""time""
""fullscreenenter"",""1"",""2323""
","
","
","""event"",""trial"",""time""
""fullscreenenter"",""1"",""2323""
","
","","","862.7999999821186","","","14","5027","2315","&#9752;","elianto","#f73b6a7A"," "," ","1","0","[1721.7999999821186]","1","1","","","5027","13","3","3","lose","go","0"
"pit-trial","131","1028639","0.0-17.0","battery-v0.2","","""event"",""trial"",""time""
""fullscreenenter"",""1"",""2323""
","
","
","""event"",""trial"",""time""
""fullscreenenter"",""1"",""2323""
","
","","","872","","","14","5027","2315","&#9733;","elianto","#3366ff99","-1"," ","0","0","[1726.9000000059605]","1","1","","","5027","14","2","2","win","no-go","0"
"pit-trial","132","1032060","0.0-18.0","battery-v0.2","","""event"",""trial"",""time""
""fullscreenenter"",""1"",""2323""
","
","
","""event"",""trial"",""time""
""fullscreenenter"",""1"",""2323""
","
","","","547.2000000178814","","","14","5027","2315","&#9730;","elianto","#3366ff99"," "," ","1","+10","[1400.6000000238419]","1","1","","","5027","15","1","1","win","go","0"
"pit-trial","133","1036931","0.0-19.0","battery-v0.2","","""event"",""trial"",""time""
""fullscreenenter"",""1"",""2323""
","
","
","""event"",""trial"",""time""
""fullscreenenter"",""1"",""2323""
","
","","","-1","","","14","5027","2315","&#9728;","elianto","#f73b6a7A","-1","-1","1","-10","[]","0","1","","","5027","16","0","4","lose","no-go","1"
"pit-trial","134","1040643","0.0-20.0","battery-v0.2","","""event"",""trial"",""time""
""fullscreenenter"",""1"",""2323""
","
","
","""event"",""trial"",""time""
""fullscreenenter"",""1"",""2323""
","
","","","846.8000000119209","","","14","5027","2315","&#9730;","elianto","#3366ff99"," "," ","1","+10","[1704.699999988079]","1","1","","","5027","17","1","1","win","go","0"
"pit-trial","135","1045512","0.0-21.0","battery-v0.2","","""event"",""trial"",""time""
""fullscreenenter"",""1"",""2323""
","
","
","""event"",""trial"",""time""
""fullscreenenter"",""1"",""2323""
","
","","","-1","","","14","5027","2315","&#9733;","elianto","#3366ff99","-1","-1","1","+10","[]","0","1","","","5027","18","2","2","win","no-go","0"
"pit-trial","136","1049902","0.0-22.0","battery-v0.2","","""event"",""trial"",""time""
""fullscreenenter"",""1"",""2323""
","
","
","""event"",""trial"",""time""
""fullscreenenter"",""1"",""2323""
","
","","","1524.300000011921","","","14","5027","2315","&#9728;","elianto","#f73b6a7A","-1"," ","0","-10","[2378]","1","1","","","5027","19","0","4","lose","no-go","0"
"pit-trial","137","1053339","0.0-23.0","battery-v0.2","","""event"",""trial"",""time""
""fullscreenenter"",""1"",""2323""
","
","
","""event"",""trial"",""time""
""fullscreenenter"",""1"",""2323""
","
","","","561.4000000059605","","","14","5027","2315","&#9752;","elianto","#f73b6a7A"," "," ","1","0","[1420.199999988079]","1","1","","","5027","20","3","3","lose","go","0"
"pit-instructions","138","1066101","0.0-24.0","battery-v0.2","","""event"",""trial"",""time""
""fullscreenenter"",""1"",""2323""
","
","
","""event"",""trial"",""time""
""fullscreenenter"",""1"",""2323""
","
","","[{""page_index"":0,""viewing_time"":6381.5},{""page_index"":1,""viewing_time"":6374.399999976158}]","12757.09999999404","","","","","","","","","","","","","","","","","","","","","","","",""
"pit-trial","139","1069540","0.0-25.0","battery-v0.2","","""event"",""trial"",""time""
""fullscreenenter"",""1"",""2323""
","
","
","""event"",""trial"",""time""
""fullscreenenter"",""1"",""2323""
","
","","","566.5999999940395","","","14","5027","2315","r","elianto","#3366ff99"," "," ","1","+10","[1417.5999999940395]","1","2","","","5027","21","1","1","win","go","0"
"pit-trial","140","1074445","0.0-26.0","battery-v0.2","","""event"",""trial"",""time""
""fullscreenenter"",""1"",""2323""
","
","
","""event"",""trial"",""time""
""fullscreenenter"",""1"",""2323""
","
","","","-1","","","14","5027","2315","h","elianto","#f73b6a7A"," ","-1","0","-10","[]","0","2","","","5027","22","3","3","lose","go","0"
"pit-trial","141","1079331","0.0-27.0","battery-v0.2","","""event"",""trial"",""time""
""fullscreenenter"",""1"",""2323""
","
","
","""event"",""trial"",""time""
""fullscreenenter"",""1"",""2323""
","
","","","-1","","","14","5027","2315","m","elianto","#f73b6a7A","-1","-1","1","0","[]","0","2","","","5027","23","0","4","lose","no-go","0"
"pit-trial","142","1084210","0.0-28.0","battery-v0.2","","""event"",""trial"",""time""
""fullscreenenter"",""1"",""2323""
","
","
","""event"",""trial"",""time""
""fullscreenenter"",""1"",""2323""
","
","","","-1","","","14","5027","2315","y","elianto","#f73b6a7A","-1","-1","1","0","[]","0","2","","","5027","24","2","4","lose","no-go","0"
"pit-trial","143","1087680","0.0-29.0","battery-v0.2","","""event"",""trial"",""time""
""fullscreenenter"",""1"",""2323""
","
","
","""event"",""trial"",""time""
""fullscreenenter"",""1"",""2323""
","
","","","603.0999999940395","","","14","5027","2315","r","elianto","#3366ff99"," "," ","1","+10","[1454.5]","1","2","","","5027","25","1","1","win","go","0"
"pit-trial","144","1091190","0.0-30.0","battery-v0.2","","""event"",""trial"",""time""
""fullscreenenter"",""1"",""2323""
","
","
","""event"",""trial"",""time""
""fullscreenenter"",""1"",""2323""
","
","","","637.2999999821186","","","14","5027","2315","h","elianto","#f73b6a7A"," "," ","1","0","[1489.9000000059605]","1","2","","","5027","26","3","3","lose","go","0"
"pit-trial","145","1096086","0.0-31.0","battery-v0.2","","""event"",""trial"",""time""
""fullscreenenter"",""1"",""2323""
","
","
","""event"",""trial"",""time""
""fullscreenenter"",""1"",""2323""
","
","","","-1","","","14","5027","2315","y","elianto","#f73b6a7A","-1","-1","1","0","[]","0","2","","","5027","27","2","4","lose","no-go","0"
"pit-trial","146","1100962","0.0-32.0","battery-v0.2","","""event"",""trial"",""time""
""fullscreenenter"",""1"",""2323""
","
","
","""event"",""trial"",""time""
""fullscreenenter"",""1"",""2323""
","
","","","-1","","","14","5027","2315","m","elianto","#f73b6a7A","-1","-1","1","0","[]","0","2","","","5027","28","0","4","lose","no-go","0"
"pit-trial","147","1105830","0.0-33.0","battery-v0.2","","""event"",""trial"",""time""
""fullscreenenter"",""1"",""2323""
","
","
","""event"",""trial"",""time""
""fullscreenenter"",""1"",""2323""
","
","","","-1","","","14","5027","2315","m","elianto","#f73b6a7A","-1","-1","1","0","[]","0","2","","","5027","29","0","4","lose","no-go","0"
"pit-trial","148","1109558","0.0-34.0","battery-v0.2","","""event"",""trial"",""time""
""fullscreenenter"",""1"",""2323""
","
","
","""event"",""trial"",""time""
""fullscreenenter"",""1"",""2323""
","
","","","850.9000000059605","","","14","5027","2315","h","elianto","#f73b6a7A"," "," ","1","-10","[1705]","1","2","","","5027","30","3","3","lose","go","1"
"pit-trial","149","1113121","0.0-35.0","battery-v0.2","","""event"",""trial"",""time""
""fullscreenenter"",""1"",""2323""
","
","
","""event"",""trial"",""time""
""fullscreenenter"",""1"",""2323""
","
","","","686.4000000059605","","","14","5027","2315","r","elianto","#3366ff99"," "," ","1","+10","[1546.5,1695.300000011921]","2","2","","","5027","31","1","1","win","go","0"
"pit-trial","150","1118004","0.0-36.0","battery-v0.2","","""event"",""trial"",""time""
""fullscreenenter"",""1"",""2323""
","
","
","""event"",""trial"",""time""
""fullscreenenter"",""1"",""2323""
","
","","","-1","","","14","5027","2315","y","elianto","#f73b6a7A","-1","-1","1","0","[]","0","2","","","5027","32","2","4","lose","no-go","0"
"pit-trial","151","1122881","0.0-37.0","battery-v0.2","","""event"",""trial"",""time""
""fullscreenenter"",""1"",""2323""
","
","
","""event"",""trial"",""time""
""fullscreenenter"",""1"",""2323""
","
","","","-1","","","14","5027","2315","m","elianto","#f73b6a7A","-1","-1","1","0","[]","0","2","","","5027","33","0","4","lose","no-go","0"
"pit-trial","152","1127751","0.0-38.0","battery-v0.2","","""event"",""trial"",""time""
""fullscreenenter"",""1"",""2323""
","
","
","""event"",""trial"",""time""
""fullscreenenter"",""1"",""2323""
","
","","","-1","","","14","5027","2315","y","elianto","#f73b6a7A","-1","-1","1","0","[]","0","2","","","5027","34","2","4","lose","no-go","0"
"pit-trial","153","1131291","0.0-39.0","battery-v0.2","","""event"",""trial"",""time""
""fullscreenenter"",""1"",""2323""
","
","
","""event"",""trial"",""time""
""fullscreenenter"",""1"",""2323""
","
","","","667.2000000178814","","","14","5027","2315","h","elianto","#f73b6a7A"," "," ","1","0","[1521.7000000178814]","1","2","","","5027","35","3","3","lose","go","0"
"pit-trial","154","1134676","0.0-40.0","battery-v0.2","","""event"",""trial"",""time""
""fullscreenenter"",""1"",""2323""
","
","
","""event"",""trial"",""time""
""fullscreenenter"",""1"",""2323""
","
","","","515.9000000059605","","","14","5027","2315","r","elianto","#3366ff99"," "," ","1","+10","[1371]","1","2","","","5027","36","1","1","win","go","0"
"pit-trial","155","1139544","0.0-41.0","battery-v0.2","","""event"",""trial"",""time""
""fullscreenenter"",""1"",""2323""
","
","
","""event"",""trial"",""time""
""fullscreenenter"",""1"",""2323""
","
","","","-1","","","14","5027","2315","y","elianto","#f73b6a7A","-1","-1","1","0","[]","0","2","","","5027","37","2","4","lose","no-go","0"
"pit-trial","156","1143025","0.0-42.0","battery-v0.2","","""event"",""trial"",""time""
""fullscreenenter"",""1"",""2323""
","
","
","""event"",""trial"",""time""
""fullscreenenter"",""1"",""2323""
","
","","","617.5999999940395","","","14","5027","2315","r","elianto","#3366ff99"," "," ","1","+10","[1468.699999988079]","1","2","","","5027","38","1","1","win","go","0"
"pit-trial","157","1147899","0.0-43.0","battery-v0.2","","""event"",""trial"",""time""
""fullscreenenter"",""1"",""2323""
","
","
","""event"",""trial"",""time""
""fullscreenenter"",""1"",""2323""
","
","","","-1","","","14","5027","2315","m","elianto","#f73b6a7A","-1","-1","1","0","[]","0","2","","","5027","39","0","4","lose","no-go","0"
"pit-trial","158","1151402","0.0-44.0","battery-v0.2","","""event"",""trial"",""time""
""fullscreenenter"",""1"",""2323""
","
","
","""event"",""trial"",""time""
""fullscreenenter"",""1"",""2323""
","
","","","620.2999999821186","","","14","5027","2315","h","elianto","#f73b6a7A"," "," ","1","0","[1484.9000000059605]","1","2","","","5027","40","3","3","lose","go","0"
"pit-trial","159","1156273","0.0-45.0","battery-v0.2","","""event"",""trial"",""time""
""fullscreenenter"",""1"",""2323""
","
","
","""event"",""trial"",""time""
""fullscreenenter"",""1"",""2323""
","
","","","-1","","","14","5027","2315","m","elianto","#f73b6a7A","-1","-1","1","0","[]","0","2","","","5027","41","0","4","lose","no-go","0"
"pit-trial","160","1161148","0.0-46.0","battery-v0.2","","""event"",""trial"",""time""
""fullscreenenter"",""1"",""2323""
","
","
","""event"",""trial"",""time""
""fullscreenenter"",""1"",""2323""
","
","","","-1","","","14","5027","2315","y","elianto","#f73b6a7A","-1","-1","1","-10","[]","0","2","","","5027","42","2","4","lose","no-go","1"
"pit-trial","161","1164740","0.0-47.0","battery-v0.2","","""event"",""trial"",""time""
""fullscreenenter"",""1"",""2323""
","
","
","""event"",""trial"",""time""
""fullscreenenter"",""1"",""2323""
","
","","","720","","","14","5027","2315","h","elianto","#f73b6a7A"," "," ","1","0","[1579.2000000178814]","1","2","","","5027","43","3","3","lose","go","0"
"pit-trial","162","1168139","0.0-48.0","battery-v0.2","","""event"",""trial"",""time""
""fullscreenenter"",""1"",""2323""
","
","
","""event"",""trial"",""time""
""fullscreenenter"",""1"",""2323""
","
","","","526.5999999940395","","","14","5027","2315","r","elianto","#3366ff99"," "," ","1","0","[1379.300000011921]","1","2","","","5027","44","1","1","win","go","1"
"pit-trial","163","1172149","0.0-49.0","battery-v0.2","","""event"",""trial"",""time""
""fullscreenenter"",""1"",""2323""
","
","
","""event"",""trial"",""time""
""fullscreenenter"",""1"",""2323""
","
","","","1145.800000011921","","","14","5027","2315","z","elianto","#3366ff99","-1"," ","0","0","[1996.4000000059605]","1","2","","","5027","45","4","2","win","no-go","0"
"pit-trial","164","1177019","0.0-50.0","battery-v0.2","","""event"",""trial"",""time""
""fullscreenenter"",""1"",""2323""
","
","
","""event"",""trial"",""time""
""fullscreenenter"",""1"",""2323""
","
","","","-1","","","14","5027","2315","m","elianto","#f73b6a7A","-1","-1","1","0","[]","0","2","","","5027","46","0","4","lose","no-go","0"
"pit-trial","165","1180789","0.0-51.0","battery-v0.2","","""event"",""trial"",""time""
""fullscreenenter"",""1"",""2323""
","
","
","""event"",""trial"",""time""
""fullscreenenter"",""1"",""2323""
","
","","","900.4000000059605","","","14","5027","2315","h","elianto","#f73b6a7A"," "," ","1","0","[1756.4000000059605]","1","2","","","5027","47","3","3","lose","go","0"
"pit-trial","166","1185669","0.0-52.0","battery-v0.2","","""event"",""trial"",""time""
""fullscreenenter"",""1"",""2323""
","
","
","""event"",""trial"",""time""
""fullscreenenter"",""1"",""2323""
","
","","","-1","","","14","5027","2315","y","elianto","#f73b6a7A","-1","-1","1","0","[]","0","2","","","5027","48","2","4","lose","no-go","0"
"pit-trial","167","1189081","0.0-53.0","battery-v0.2","","""event"",""trial"",""time""
""fullscreenenter"",""1"",""2323""
","
","
","""event"",""trial"",""time""
""fullscreenenter"",""1"",""2323""
","
","","","544.1999999880791","","","14","5027","2315","r","elianto","#3366ff99"," "," ","1","+10","[1397.699999988079]","1","2","","","5027","49","1","1","win","go","0"
"pit-trial","168","1193948","0.0-54.0","battery-v0.2","","""event"",""trial"",""time""
""fullscreenenter"",""1"",""2323""
","
","
","""event"",""trial"",""time""
""fullscreenenter"",""1"",""2323""
","
","","","-1","","","14","5027","2315","m","elianto","#f73b6a7A","-1","-1","1","0","[]","0","2","","","5027","50","0","4","lose","no-go","0"
"pit-trial","169","1197546","0.0-55.0","battery-v0.2","","""event"",""trial"",""time""
""fullscreenenter"",""1"",""2323""
","
","
","""event"",""trial"",""time""
""fullscreenenter"",""1"",""2323""
","
","","","735.5","","","14","5027","2315","z","elianto","#3366ff99","-1"," ","0","0","[1586.300000011921]","1","2","","","5027","51","4","2","win","no-go","0"
"pit-trial","170","1201285","0.0-56.0","battery-v0.2","","""event"",""trial"",""time""
""fullscreenenter"",""1"",""2323""
","
","
","""event"",""trial"",""time""
""fullscreenenter"",""1"",""2323""
","
","","","863.5999999940395","","","14","5027","2315","h","elianto","#f73b6a7A"," "," ","1","0","[1719.5999999940395]","1","2","","","5027","52","3","3","lose","go","0"
"pit-trial","171","1206156","0.0-57.0","battery-v0.2","","""event"",""trial"",""time""
""fullscreenenter"",""1"",""2323""
","
","
","""event"",""trial"",""time""
""fullscreenenter"",""1"",""2323""
","
","","","-1","","","14","5027","2315","z","elianto","#3366ff99","-1","-1","1","+10","[]","0","2","","","5027","53","4","2","win","no-go","0"
"pit-trial","172","1211021","0.0-58.0","battery-v0.2","","""event"",""trial"",""time""
""fullscreenenter"",""1"",""2323""
","
","
","""event"",""trial"",""time""
""fullscreenenter"",""1"",""2323""
","
","","","-1","","","14","5027","2315","m","elianto","#f73b6a7A","-1","-1","1","0","[]","0","2","","","5027","54","0","4","lose","no-go","0"
"pit-trial","173","1215898","0.0-59.0","battery-v0.2","","""event"",""trial"",""time""
""fullscreenenter"",""1"",""2323""
","
","
","""event"",""trial"",""time""
""fullscreenenter"",""1"",""2323""
","
","","","-1","","","14","5027","2315","y","elianto","#f73b6a7A","-1","-1","1","-10","[]","0","2","","","5027","55","2","4","lose","no-go","1"
"pit-trial","174","1219382","0.0-60.0","battery-v0.2","","""event"",""trial"",""time""
""fullscreenenter"",""1"",""2323""
","
","
","""event"",""trial"",""time""
""fullscreenenter"",""1"",""2323""
","
","","","616.3999999761581","","","14","5027","2315","r","elianto","#3366ff99"," "," ","1","+10","[1471]","1","2","","","5027","56","1","1","win","go","0"
"pit-trial","175","1224252","0.0-61.0","battery-v0.2","","""event"",""trial"",""time""
""fullscreenenter"",""1"",""2323""
","
","
","""event"",""trial"",""time""
""fullscreenenter"",""1"",""2323""
","
","","","-1","","","14","5027","2315","m","elianto","#f73b6a7A","-1","-1","1","0","[]","0","2","","","5027","57","0","4","lose","no-go","0"
"pit-trial","176","1227874","0.0-62.0","battery-v0.2","","""event"",""trial"",""time""
""fullscreenenter"",""1"",""2323""
","
","
","""event"",""trial"",""time""
""fullscreenenter"",""1"",""2323""
","
","","","756.7000000178814","","","14","5027","2315","r","elianto","#3366ff99"," "," ","1","0","[1608.2000000178814]","1","2","","","5027","58","1","1","win","go","1"
"pit-trial","177","1232757","0.0-63.0","battery-v0.2","","""event"",""trial"",""time""
""fullscreenenter"",""1"",""2323""
","
","
","""event"",""trial"",""time""
""fullscreenenter"",""1"",""2323""
","
","","","-1","","","14","5027","2315","z","elianto","#3366ff99","-1","-1","1","+10","[]","0","2","","","5027","59","4","2","win","no-go","0"
"pit-trial","178","1236405","0.0-64.0","battery-v0.2","","""event"",""trial"",""time""
""fullscreenenter"",""1"",""2323""
","
","
","""event"",""trial"",""time""
""fullscreenenter"",""1"",""2323""
","
","","","768.3000000119209","","","14","5027","2315","h","elianto","#f73b6a7A"," "," ","1","-10","[1627]","1","2","","","5027","60","3","3","lose","go","1"
"pit-trial","179","1240379","0.0-65.0","battery-v0.2","","""event"",""trial"",""time""
""fullscreenenter"",""1"",""2323""
","
","
","""event"",""trial"",""time""
""fullscreenenter"",""1"",""2323""
","
","","","1109","","","14","5027","2315","h","elianto","#f73b6a7A"," "," ","1","-10","[1962]","1","2","","","5027","61","3","3","lose","go","1"
"pit-trial","180","1245256","0.0-66.0","battery-v0.2","","""event"",""trial"",""time""
""fullscreenenter"",""1"",""2323""
","
","
","""event"",""trial"",""time""
""fullscreenenter"",""1"",""2323""
","
","","","-1","","","14","5027","2315","y","elianto","#f73b6a7A","-1","-1","1","0","[]","0","2","","","5027","62","2","4","lose","no-go","0"
"pit-trial","181","1248730","0.0-67.0","battery-v0.2","","""event"",""trial"",""time""
""fullscreenenter"",""1"",""2323""
","
","
","""event"",""trial"",""time""
""fullscreenenter"",""1"",""2323""
","
","","","606.7000000178814","","","14","5027","2315","r","elianto","#3366ff99"," "," ","1","+10","[1460.3999999761581]","1","2","","","5027","63","1","1","win","go","0"
"pit-trial","182","1253604","0.0-68.0","battery-v0.2","","""event"",""trial"",""time""
""fullscreenenter"",""1"",""2323""
","
","
","""event"",""trial"",""time""
""fullscreenenter"",""1"",""2323""
","
","","","-1","","","14","5027","2315","z","elianto","#3366ff99","-1","-1","1","+10","[]","0","2","","","5027","64","4","2","win","no-go","0"
"pit-trial","183","1258483","0.0-69.0","battery-v0.2","","""event"",""trial"",""time""
""fullscreenenter"",""1"",""2323""
","
","
","""event"",""trial"",""time""
""fullscreenenter"",""1"",""2323""
","
","","","-1","","","14","5027","2315","z","elianto","#3366ff99","-1","-1","1","+10","[]","0","2","","","5027","65","4","2","win","no-go","0"
"pit-trial","184","1262068","0.0-70.0","battery-v0.2","","""event"",""trial"",""time""
""fullscreenenter"",""1"",""2323""
","
","
","""event"",""trial"",""time""
""fullscreenenter"",""1"",""2323""
","
","","","710.4000000059605","","","14","5027","2315","r","elianto","#3366ff99"," "," ","1","+10","[1564.4000000059605]","1","2","","","5027","66","1","1","win","go","0"
"pit-trial","185","1265684","0.0-71.0","battery-v0.2","","""event"",""trial"",""time""
""fullscreenenter"",""1"",""2323""
","
","
","""event"",""trial"",""time""
""fullscreenenter"",""1"",""2323""
","
","","","736.8000000119209","","","14","5027","2315","h","elianto","#f73b6a7A"," "," ","1","0","[1596.199999988079]","1","2","","","5027","67","3","3","lose","go","0"
"pit-trial","186","1270550","0.0-72.0","battery-v0.2","","""event"",""trial"",""time""
""fullscreenenter"",""1"",""2323""
","
","
","""event"",""trial"",""time""
""fullscreenenter"",""1"",""2323""
","
","","","-1","","","14","5027","2315","y","elianto","#f73b6a7A","-1","-1","1","0","[]","0","2","","","5027","68","2","4","lose","no-go","0"
"pit-trial","187","1274062","0.0-73.0","battery-v0.2","","""event"",""trial"",""time""
""fullscreenenter"",""1"",""2323""
","
","
","""event"",""trial"",""time""
""fullscreenenter"",""1"",""2323""
","
","","","647.2999999821186","","","14","5027","2315","r","elianto","#3366ff99"," "," ","1","+10","[1500.199999988079]","1","2","","","5027","69","1","1","win","go","0"
"pit-trial","188","1278937","0.0-74.0","battery-v0.2","","""event"",""trial"",""time""
""fullscreenenter"",""1"",""2323""
","
","
","""event"",""trial"",""time""
""fullscreenenter"",""1"",""2323""
","
","","","-1","","","14","5027","2315","z","elianto","#3366ff99","-1","-1","1","0","[]","0","2","","","5027","70","4","2","win","no-go","1"
"pit-trial","189","1282801","0.0-75.0","battery-v0.2","","""event"",""trial"",""time""
""fullscreenenter"",""1"",""2323""
","
","
","""event"",""trial"",""time""
""fullscreenenter"",""1"",""2323""
","
","","","999.5999999940395","","","14","5027","2315","h","elianto","#f73b6a7A"," "," ","1","-10","[1849.699999988079]","1","2","","","5027","71","3","3","lose","go","1"
"pit-trial","190","1287688","0.0-76.0","battery-v0.2","","""event"",""trial"",""time""
""fullscreenenter"",""1"",""2323""
","
","
","""event"",""trial"",""time""
""fullscreenenter"",""1"",""2323""
","
","","","-1","","","14","5027","2315","c","elianto","#3366ff99"," ","-1","0","0","[]","0","2","","","5027","72","5","1","win","go","0"
"pit-trial","191","1291414","0.0-77.0","battery-v0.2","","""event"",""trial"",""time""
""fullscreenenter"",""1"",""2323""
","
","
","""event"",""trial"",""time""
""fullscreenenter"",""1"",""2323""
","
","","","856.6000000238419","","","14","5027","2315","r","elianto","#3366ff99"," "," ","1","+10","[1711.5999999940395]","1","2","","","5027","73","1","1","win","go","0"
"pit-trial","192","1296285","0.0-78.0","battery-v0.2","","""event"",""trial"",""time""
""fullscreenenter"",""1"",""2323""
","
","
","""event"",""trial"",""time""
""fullscreenenter"",""1"",""2323""
","
","","","-1","","","14","5027","2315","z","elianto","#3366ff99","-1","-1","1","+10","[]","0","2","","","5027","74","4","2","win","no-go","0"
"pit-trial","193","1299831","0.0-79.0","battery-v0.2","","""event"",""trial"",""time""
""fullscreenenter"",""1"",""2323""
","
","
","""event"",""trial"",""time""
""fullscreenenter"",""1"",""2323""
","
","","","665.2999999821186","","","14","5027","2315","h","elianto","#f73b6a7A"," "," ","1","0","[1520.699999988079]","1","2","","","5027","75","3","3","lose","go","0"
"pit-trial","194","1303306","0.0-80.0","battery-v0.2","","""event"",""trial"",""time""
""fullscreenenter"",""1"",""2323""
","
","
","""event"",""trial"",""time""
""fullscreenenter"",""1"",""2323""
","
","","","611.0999999940395","","","14","5027","2315","c","elianto","#3366ff99"," "," ","1","0","[1464.7000000178814]","1","2","","","5027","76","5","1","win","go","1"
"pit-trial","195","1308186","0.0-81.0","battery-v0.2","","""event"",""trial"",""time""
""fullscreenenter"",""1"",""2323""
","
","
","""event"",""trial"",""time""
""fullscreenenter"",""1"",""2323""
","
","","","-1","","","14","5027","2315","b","elianto","#f73b6a7A","-1","-1","1","0","[]","0","2","","","5027","77","6","4","lose","no-go","0"
"pit-trial","196","1313066","0.0-82.0","battery-v0.2","","""event"",""trial"",""time""
""fullscreenenter"",""1"",""2323""
","
","
","""event"",""trial"",""time""
""fullscreenenter"",""1"",""2323""
","
","","","-1","","","14","5027","2315","z","elianto","#3366ff99","-1","-1","1","0","[]","0","2","","","5027","78","4","2","win","no-go","1"
"pit-trial","197","1316638","0.0-83.0","battery-v0.2","","""event"",""trial"",""time""
""fullscreenenter"",""1"",""2323""
","
","
","""event"",""trial"",""time""
""fullscreenenter"",""1"",""2323""
","
","","","699.5999999940395","","","14","5027","2315","c","elianto","#3366ff99"," "," ","1","+10","[1556.7999999821186]","1","2","","","5027","79","5","1","win","go","0"
"pit-trial","198","1320294","0.0-84.0","battery-v0.2","","""event"",""trial"",""time""
""fullscreenenter"",""1"",""2323""
","
","
","""event"",""trial"",""time""
""fullscreenenter"",""1"",""2323""
","
","","","782.8000000119209","","","14","5027","2315","h","elianto","#f73b6a7A"," "," ","1","0","[1636.5]","1","2","","","5027","80","3","3","lose","go","0"
"pit-trial","199","1323779","0.0-85.0","battery-v0.2","","""event"",""trial"",""time""
""fullscreenenter"",""1"",""2323""
","
","
","""event"",""trial"",""time""
""fullscreenenter"",""1"",""2323""
","
","","","613.7999999821186","","","14","5027","2315","z","elianto","#3366ff99","-1"," ","0","+10","[1468.9000000059605]","1","2","","","5027","81","4","2","win","no-go","1"
"pit-trial","200","1328652","0.0-86.0","battery-v0.2","","""event"",""trial"",""time""
""fullscreenenter"",""1"",""2323""
","
","
","""event"",""trial"",""time""
""fullscreenenter"",""1"",""2323""
","
","","","-1","","","14","5027","2315","b","elianto","#f73b6a7A","-1","-1","1","0","[]","0","2","","","5027","82","6","4","lose","no-go","0"
"pit-trial","201","1332535","0.0-87.0","battery-v0.2","","""event"",""trial"",""time""
""fullscreenenter"",""1"",""2323""
","
","
","""event"",""trial"",""time""
""fullscreenenter"",""1"",""2323""
","
","","","1010.8000000119209","","","14","5027","2315","c","elianto","#3366ff99"," "," ","1","+10","[1866.7000000178814]","1","2","","","5027","83","5","1","win","go","0"
"pit-trial","202","1337406","0.0-88.0","battery-v0.2","","""event"",""trial"",""time""
""fullscreenenter"",""1"",""2323""
","
","
","""event"",""trial"",""time""
""fullscreenenter"",""1"",""2323""
","
","","","-1","","","14","5027","2315","t","elianto","#f73b6a7A"," ","-1","0","-10","[]","0","2","","","5027","84","7","3","lose","go","0"
"pit-trial","203","1341481","0.0-89.0","battery-v0.2","","""event"",""trial"",""time""
""fullscreenenter"",""1"",""2323""
","
","
","""event"",""trial"",""time""
""fullscreenenter"",""1"",""2323""
","
","","","1209.4000000059605","","","14","5027","2315","t","elianto","#f73b6a7A"," "," ","1","0","[2063.7000000178814]","1","2","","","5027","85","7","3","lose","go","0"
"pit-trial","204","1345068","0.0-90.0","battery-v0.2","","""event"",""trial"",""time""
""fullscreenenter"",""1"",""2323""
","
","
","""event"",""trial"",""time""
""fullscreenenter"",""1"",""2323""
","
","","","706.5999999940395","","","14","5027","2315","c","elianto","#3366ff99"," "," ","1","+10","[1559.7000000178814]","1","2","","","5027","86","5","1","win","go","0"
"pit-trial","205","1349935","0.0-91.0","battery-v0.2","","""event"",""trial"",""time""
""fullscreenenter"",""1"",""2323""
","
","
","""event"",""trial"",""time""
""fullscreenenter"",""1"",""2323""
","
","","","-1","","","14","5027","2315","z","elianto","#3366ff99","-1","-1","1","+10","[]","0","2","","","5027","87","4","2","win","no-go","0"
"pit-trial","206","1354810","0.0-92.0","battery-v0.2","","""event"",""trial"",""time""
""fullscreenenter"",""1"",""2323""
","
","
","""event"",""trial"",""time""
""fullscreenenter"",""1"",""2323""
","
","","","-1","","","14","5027","2315","b","elianto","#f73b6a7A","-1","-1","1","0","[]","0","2","","","5027","88","6","4","lose","no-go","0"
"pit-trial","207","1359677","0.0-93.0","battery-v0.2","","""event"",""trial"",""time""
""fullscreenenter"",""1"",""2323""
","
","
","""event"",""trial"",""time""
""fullscreenenter"",""1"",""2323""
","
","","","-1","","","14","5027","2315","b","elianto","#f73b6a7A","-1","-1","1","0","[]","0","2","","","5027","89","6","4","lose","no-go","0"
"pit-trial","208","1363619","0.0-94.0","battery-v0.2","","""event"",""trial"",""time""
""fullscreenenter"",""1"",""2323""
","
","
","""event"",""trial"",""time""
""fullscreenenter"",""1"",""2323""
","
","","","1060.2000000178814","","","14","5027","2315","t","elianto","#f73b6a7A"," "," ","1","0","[1916.7000000178814]","1","2","","","5027","90","7","3","lose","go","0"
"pit-trial","209","1367130","0.0-95.0","battery-v0.2","","""event"",""trial"",""time""
""fullscreenenter"",""1"",""2323""
","
","
","""event"",""trial"",""time""
""fullscreenenter"",""1"",""2323""
","
","","","642.1999999880791","","","14","5027","2315","c","elianto","#3366ff99"," "," ","1","+10","[1492.2999999821186]","1","2","","","5027","91","5","1","win","go","0"
"pit-trial","210","1372001","0.0-96.0","battery-v0.2","","""event"",""trial"",""time""
""fullscreenenter"",""1"",""2323""
","
","
","""event"",""trial"",""time""
""fullscreenenter"",""1"",""2323""
","
","","","-1","","","14","5027","2315","z","elianto","#3366ff99","-1","-1","1","+10","[]","0","2","","","5027","92","4","2","win","no-go","0"
"pit-trial","211","1375647","0.0-97.0","battery-v0.2","","""event"",""trial"",""time""
""fullscreenenter"",""1"",""2323""
","
","
","""event"",""trial"",""time""
""fullscreenenter"",""1"",""2323""
","
","","","783.5","","","14","5027","2315","c","elianto","#3366ff99"," "," ","1","+10","[1637.9000000059605]","1","2","","","5027","93","5","1","win","go","0"
"pit-trial","212","1380525","0.0-98.0","battery-v0.2","","""event"",""trial"",""time""
""fullscreenenter"",""1"",""2323""
","
","
","""event"",""trial"",""time""
""fullscreenenter"",""1"",""2323""
","
","","","-1","","","14","5027","2315","b","elianto","#f73b6a7A","-1","-1","1","-10","[]","0","2","","","5027","94","6","4","lose","no-go","1"
"pit-trial","213","1385408","0.0-99.0","battery-v0.2","","""event"",""trial"",""time""
""fullscreenenter"",""1"",""2323""
","
","
","""event"",""trial"",""time""
""fullscreenenter"",""1"",""2323""
","
","","","-1","","","14","5027","2315","f","elianto","#3366ff99","-1","-1","1","+10","[]","0","2","","","5027","95","8","2","win","no-go","0"
"pit-trial","214","1389316","0.0-100.0","battery-v0.2","","""event"",""trial"",""time""
""fullscreenenter"",""1"",""2323""
","
","
","""event"",""trial"",""time""
""fullscreenenter"",""1"",""2323""
","
","","","1037.5999999940395","","","14","5027","2315","t","elianto","#f73b6a7A"," "," ","1","0","[1888]","1","2","","","5027","96","7","3","lose","go","0"
"pit-trial","215","1393013","0.0-101.0","battery-v0.2","","""event"",""trial"",""time""
""fullscreenenter"",""1"",""2323""
","
","
","""event"",""trial"",""time""
""fullscreenenter"",""1"",""2323""
","
","","","828.9000000059605","","","14","5027","2315","t","elianto","#f73b6a7A"," "," ","1","0","[1683.3999999761581]","1","2","","","5027","97","7","3","lose","go","0"
"pit-trial","216","1396475","0.0-102.0","battery-v0.2","","""event"",""trial"",""time""
""fullscreenenter"",""1"",""2323""
","
","
","""event"",""trial"",""time""
""fullscreenenter"",""1"",""2323""
","
","","","592.3000000119209","","","14","5027","2315","c","elianto","#3366ff99"," "," ","1","+10","[1443.9000000059605]","1","2","","","5027","98","5","1","win","go","0"
"pit-trial","217","1401349","0.0-103.0","battery-v0.2","","""event"",""trial"",""time""
""fullscreenenter"",""1"",""2323""
","
","
","""event"",""trial"",""time""
""fullscreenenter"",""1"",""2323""
","
","","","-1","","","14","5027","2315","f","elianto","#3366ff99","-1","-1","1","+10","[]","0","2","","","5027","99","8","2","win","no-go","0"
"pit-trial","218","1406223","0.0-104.0","battery-v0.2","","""event"",""trial"",""time""
""fullscreenenter"",""1"",""2323""
","
","
","""event"",""trial"",""time""
""fullscreenenter"",""1"",""2323""
","
","","","-1","","","14","5027","2315","b","elianto","#f73b6a7A","-1","-1","1","0","[]","0","2","","","5027","100","6","4","lose","no-go","0"
"pit-trial","219","1411107","0.0-105.0","battery-v0.2","","""event"",""trial"",""time""
""fullscreenenter"",""1"",""2323""
","
","
","""event"",""trial"",""time""
""fullscreenenter"",""1"",""2323""
","
","","","-1","","","14","5027","2315","n","elianto","#3366ff99","-1","-1","1","+10","[]","0","2","","","5027","101","9","2","win","no-go","0"
"pit-trial","220","1415979","0.0-106.0","battery-v0.2","","""event"",""trial"",""time""
""fullscreenenter"",""1"",""2323""
","
","
","""event"",""trial"",""time""
""fullscreenenter"",""1"",""2323""
","
","","","-1","","","14","5027","2315","f","elianto","#3366ff99","-1","-1","1","+10","[]","0","2","","","5027","102","8","2","win","no-go","0"
"pit-trial","221","1420849","0.0-107.0","battery-v0.2","","""event"",""trial"",""time""
""fullscreenenter"",""1"",""2323""
","
","
","""event"",""trial"",""time""
""fullscreenenter"",""1"",""2323""
","
","","","-1","","","14","5027","2315","b","elianto","#f73b6a7A","-1","-1","1","-10","[]","0","2","","","5027","103","6","4","lose","no-go","1"
"pit-trial","222","1424384","0.0-108.0","battery-v0.2","","""event"",""trial"",""time""
""fullscreenenter"",""1"",""2323""
","
","
","""event"",""trial"",""time""
""fullscreenenter"",""1"",""2323""
","
","","","664.7000000178814","","","14","5027","2315","c","elianto","#3366ff99"," "," ","1","+10","[1518.0999999940395]","1","2","","","5027","104","5","1","win","go","0"
"pit-trial","223","1429261","0.0-109.0","battery-v0.2","","""event"",""trial"",""time""
""fullscreenenter"",""1"",""2323""
","
","
","""event"",""trial"",""time""
""fullscreenenter"",""1"",""2323""
","
","","","-1","","","14","5027","2315","b","elianto","#f73b6a7A","-1","-1","1","-10","[]","0","2","","","5027","105","6","4","lose","no-go","1"
"pit-trial","224","1434137","0.0-110.0","battery-v0.2","","""event"",""trial"",""time""
""fullscreenenter"",""1"",""2323""
","
","
","""event"",""trial"",""time""
""fullscreenenter"",""1"",""2323""
","
","","","-1","","","14","5027","2315","n","elianto","#3366ff99","-1","-1","1","0","[]","0","2","","","5027","106","9","2","win","no-go","1"
"pit-trial","225","1437808","0.0-111.0","battery-v0.2","","""event"",""trial"",""time""
""fullscreenenter"",""1"",""2323""
","
","
","""event"",""trial"",""time""
""fullscreenenter"",""1"",""2323""
","
","","","798.3000000119209","","","14","5027","2315","c","elianto","#3366ff99"," "," ","1","+10","[1655.5999999940395]","1","2","","","5027","107","5","1","win","go","0"
"pit-trial","226","1442683","0.0-112.0","battery-v0.2","","""event"",""trial"",""time""
""fullscreenenter"",""1"",""2323""
","
","
","""event"",""trial"",""time""
""fullscreenenter"",""1"",""2323""
","
","","","-1","","","14","5027","2315","f","elianto","#3366ff99","-1","-1","1","0","[]","0","2","","","5027","108","8","2","win","no-go","1"
"pit-trial","227","1447550","0.0-113.0","battery-v0.2","","""event"",""trial"",""time""
""fullscreenenter"",""1"",""2323""
","
","
","""event"",""trial"",""time""
""fullscreenenter"",""1"",""2323""
","
","","","-1","","","14","5027","2315","f","elianto","#3366ff99","-1","-1","1","0","[]","0","2","","","5027","109","8","2","win","no-go","1"
"pit-trial","228","1451046","0.0-114.0","battery-v0.2","","""event"",""trial"",""time""
""fullscreenenter"",""1"",""2323""
","
","
","""event"",""trial"",""time""
""fullscreenenter"",""1"",""2323""
","
","","","632.1000000238419","","","14","5027","2315","c","elianto","#3366ff99"," "," ","1","+10","[1485.6000000238419]","1","2","","","5027","110","5","1","win","go","0"
"pit-trial","229","1454788","0.0-115.0","battery-v0.2","","""event"",""trial"",""time""
""fullscreenenter"",""1"",""2323""
","
","
","""event"",""trial"",""time""
""fullscreenenter"",""1"",""2323""
","
","","","866.3000000119209","","","14","5027","2315","n","elianto","#3366ff99","-1"," ","0","0","[1721.300000011921]","1","2","","","5027","111","9","2","win","no-go","0"
"pit-trial","230","1459378","0.0-116.0","battery-v0.2","","""event"",""trial"",""time""
""fullscreenenter"",""1"",""2323""
","
","
","""event"",""trial"",""time""
""fullscreenenter"",""1"",""2323""
","
","","","1721.199999988079","","","14","5027","2315","b","elianto","#f73b6a7A","-1"," ","0","-10","[2574.7999999821186]","1","2","","","5027","112","6","4","lose","no-go","0"
"pit-trial","231","1464252","0.0-117.0","battery-v0.2","","""event"",""trial"",""time""
""fullscreenenter"",""1"",""2323""
","
","
","""event"",""trial"",""time""
""fullscreenenter"",""1"",""2323""
","
","","","-1","","","14","5027","2315","f","elianto","#3366ff99","-1","-1","1","+10","[]","0","2","","","5027","113","8","2","win","no-go","0"
"pit-trial","232","1467729","0.0-118.0","battery-v0.2","","""event"",""trial"",""time""
""fullscreenenter"",""1"",""2323""
","
","
","""event"",""trial"",""time""
""fullscreenenter"",""1"",""2323""
","
","","","606.7999999821186","","","14","5027","2315","c","elianto","#3366ff99"," "," ","1","+10","[1461.3999999761581]","1","2","","","5027","114","5","1","win","go","0"
"pit-trial","233","1471189","0.0-119.0","battery-v0.2","","""event"",""trial"",""time""
""fullscreenenter"",""1"",""2323""
","
","
","""event"",""trial"",""time""
""fullscreenenter"",""1"",""2323""
","
","","","590.5999999940395","","","14","5027","2315","t","elianto","#f73b6a7A"," "," ","1","-10","[1442.699999988079]","1","2","","","5027","115","7","3","lose","go","1"
"pit-trial","234","1476061","0.0-120.0","battery-v0.2","","""event"",""trial"",""time""
""fullscreenenter"",""1"",""2323""
","
","
","""event"",""trial"",""time""
""fullscreenenter"",""1"",""2323""
","
","","","-1","","","14","5027","2315","n","elianto","#3366ff99","-1","-1","1","0","[]","0","2","","","5027","116","9","2","win","no-go","1"
"pit-trial","235","1480930","0.0-121.0","battery-v0.2","","""event"",""trial"",""time""
""fullscreenenter"",""1"",""2323""
","
","
","""event"",""trial"",""time""
""fullscreenenter"",""1"",""2323""
","
","","","-1","","","14","5027","2315","f","elianto","#3366ff99","-1","-1","1","+10","[]","0","2","","","5027","117","8","2","win","no-go","0"
"pit-trial","236","1485799","0.0-122.0","battery-v0.2","","""event"",""trial"",""time""
""fullscreenenter"",""1"",""2323""
","
","
","""event"",""trial"",""time""
""fullscreenenter"",""1"",""2323""
","
","","","-1","","","14","5027","2315","b","elianto","#f73b6a7A","-1","-1","1","0","[]","0","2","","","5027","118","6","4","lose","no-go","0"
"pit-trial","237","1489451","0.0-123.0","battery-v0.2","","""event"",""trial"",""time""
""fullscreenenter"",""1"",""2323""
","
","
","""event"",""trial"",""time""
""fullscreenenter"",""1"",""2323""
","
","","","780","","","14","5027","2315","c","elianto","#3366ff99"," "," ","1","+10","[1633.4000000059605]","1","2","","","5027","119","5","1","win","go","0"
"pit-trial","238","1494330","0.0-124.0","battery-v0.2","","""event"",""trial"",""time""
""fullscreenenter"",""1"",""2323""
","
","
","""event"",""trial"",""time""
""fullscreenenter"",""1"",""2323""
","
","","","-1","","","14","5027","2315","n","elianto","#3366ff99","-1","-1","1","+10","[]","0","2","","","5027","120","9","2","win","no-go","0"
"pit-trial","239","1497877","0.0-125.0","battery-v0.2","","""event"",""trial"",""time""
""fullscreenenter"",""1"",""2323""
","
","
","""event"",""trial"",""time""
""fullscreenenter"",""1"",""2323""
","
","","","667.1999999880791","","","14","5027","2315","t","elianto","#f73b6a7A"," "," ","1","0","[1525.0999999940395]","1","2","","","5027","121","7","3","lose","go","0"
"pit-trial","240","1502746","0.0-126.0","battery-v0.2","","""event"",""trial"",""time""
""fullscreenenter"",""1"",""2323""
","
","
","""event"",""trial"",""time""
""fullscreenenter"",""1"",""2323""
","
","","","-1","","","14","5027","2315","n","elianto","#3366ff99","-1","-1","1","+10","[]","0","2","","","5027","122","9","2","win","no-go","0"
"pit-trial","241","1507621","0.0-127.0","battery-v0.2","","""event"",""trial"",""time""
""fullscreenenter"",""1"",""2323""
","
","
","""event"",""trial"",""time""
""fullscreenenter"",""1"",""2323""
","
","","","-1","","","14","5027","2315","f","elianto","#3366ff99","-1","-1","1","+10","[]","0","2","","","5027","123","8","2","win","no-go","0"
"pit-trial","242","1511157","0.0-128.0","battery-v0.2","","""event"",""trial"",""time""
""fullscreenenter"",""1"",""2323""
","
","
","""event"",""trial"",""time""
""fullscreenenter"",""1"",""2323""
","
","","","663.9000000059605","","","14","5027","2315","c","elianto","#3366ff99"," "," ","1","0","[1518.7999999821186]","1","2","","","5027","124","5","1","win","go","1"
"pit-trial","243","1516029","0.0-129.0","battery-v0.2","","""event"",""trial"",""time""
""fullscreenenter"",""1"",""2323""
","
","
","""event"",""trial"",""time""
""fullscreenenter"",""1"",""2323""
","
","","","-1","","","14","5027","2315","n","elianto","#3366ff99","-1","-1","1","+10","[]","0","2","","","5027","125","9","2","win","no-go","0"
"pit-trial","244","1520902","0.0-130.0","battery-v0.2","","""event"",""trial"",""time""
""fullscreenenter"",""1"",""2323""
","
","
","""event"",""trial"",""time""
""fullscreenenter"",""1"",""2323""
","
","","","-1","","","14","5027","2315","f","elianto","#3366ff99","-1","-1","1","+10","[]","0","2","","","5027","126","8","2","win","no-go","0"
"pit-trial","245","1525780","0.0-131.0","battery-v0.2","","""event"",""trial"",""time""
""fullscreenenter"",""1"",""2323""
","
","
","""event"",""trial"",""time""
""fullscreenenter"",""1"",""2323""
","
","","","-1","","","14","5027","2315","b","elianto","#f73b6a7A","-1","-1","1","0","[]","0","2","","","5027","127","6","4","lose","no-go","0"
"pit-trial","246","1529504","0.0-132.0","battery-v0.2","","""event"",""trial"",""time""
""fullscreenenter"",""1"",""2323""
","
","
","""event"",""trial"",""time""
""fullscreenenter"",""1"",""2323""
","
","","","858.4000000059605","","","14","5027","2315","t","elianto","#f73b6a7A"," "," ","1","0","[1710.9000000059605]","1","2","","","5027","128","7","3","lose","go","0"
"pit-trial","247","1534373","0.0-133.0","battery-v0.2","","""event"",""trial"",""time""
""fullscreenenter"",""1"",""2323""
","
","
","""event"",""trial"",""time""
""fullscreenenter"",""1"",""2323""
","
","","","-1","","","14","5027","2315","f","elianto","#3366ff99","-1","-1","1","+10","[]","0","2","","","5027","129","8","2","win","no-go","0"
"pit-trial","248","1538034","0.0-134.0","battery-v0.2","","""event"",""trial"",""time""
""fullscreenenter"",""1"",""2323""
","
","
","""event"",""trial"",""time""
""fullscreenenter"",""1"",""2323""
","
","","","790.1999999880791","","","14","5027","2315","t","elianto","#f73b6a7A"," "," ","1","0","[1645.7999999821186]","1","2","","","5027","130","7","3","lose","go","0"
"pit-trial","249","1542909","0.0-135.0","battery-v0.2","","""event"",""trial"",""time""
""fullscreenenter"",""1"",""2323""
","
","
","""event"",""trial"",""time""
""fullscreenenter"",""1"",""2323""
","
","","","-1","","","14","5027","2315","b","elianto","#f73b6a7A","-1","-1","1","0","[89.2999999821186]","1","2","","","5027","131","6","4","lose","no-go","0"
"pit-trial","250","1547789","0.0-136.0","battery-v0.2","","""event"",""trial"",""time""
""fullscreenenter"",""1"",""2323""
","
","
","""event"",""trial"",""time""
""fullscreenenter"",""1"",""2323""
","
","","","-1","","","14","5027","2315","n","elianto","#3366ff99","-1","-1","1","0","[]","0","2","","","5027","132","9","2","win","no-go","1"
"pit-trial","251","1552663","0.0-137.0","battery-v0.2","","""event"",""trial"",""time""
""fullscreenenter"",""1"",""2323""
","
","
","""event"",""trial"",""time""
""fullscreenenter"",""1"",""2323""
","
","","","-1","","","14","5027","2315","f","elianto","#3366ff99","-1","-1","1","+10","[]","0","2","","","5027","133","8","2","win","no-go","0"
"pit-trial","252","1556210","0.0-138.0","battery-v0.2","","""event"",""trial"",""time""
""fullscreenenter"",""1"",""2323""
","
","
","""event"",""trial"",""time""
""fullscreenenter"",""1"",""2323""
","
","","","677.1999999880791","","","14","5027","2315","t","elianto","#f73b6a7A"," "," ","1","0","[1529.4000000059605]","1","2","","","5027","134","7","3","lose","go","0"
"pit-trial","253","1561089","0.0-139.0","battery-v0.2","","""event"",""trial"",""time""
""fullscreenenter"",""1"",""2323""
","
","
","""event"",""trial"",""time""
""fullscreenenter"",""1"",""2323""
","
","","","-1","","","14","5027","2315","n","elianto","#3366ff99","-1","-1","1","+10","[]","0","2","","","5027","135","9","2","win","no-go","0"
"pit-trial","254","1565272","0.0-140.0","battery-v0.2","","""event"",""trial"",""time""
""fullscreenenter"",""1"",""2323""
","
","
","""event"",""trial"",""time""
""fullscreenenter"",""1"",""2323""
","
","","","1317.5999999940395","","","14","5027","2315","b","elianto","#f73b6a7A","-1"," ","0","-10","[2169.899999976158]","1","2","","","5027","136","6","4","lose","no-go","0"
"pit-trial","255","1570144","0.0-141.0","battery-v0.2","","""event"",""trial"",""time""
""fullscreenenter"",""1"",""2323""
","
","
","""event"",""trial"",""time""
""fullscreenenter"",""1"",""2323""
","
","","","-1","","","14","5027","2315","f","elianto","#3366ff99","-1","-1","1","+10","[]","0","2","","","5027","137","8","2","win","no-go","0"
"pit-trial","256","1575017","0.0-142.0","battery-v0.2","","""event"",""trial"",""time""
""fullscreenenter"",""1"",""2323""
","
","
","""event"",""trial"",""time""
""fullscreenenter"",""1"",""2323""
","
","","","-1","","","14","5027","2315","n","elianto","#3366ff99","-1","-1","1","+10","[]","0","2","","","5027","138","9","2","win","no-go","0"
"pit-trial","257","1578722","0.0-143.0","battery-v0.2","","""event"",""trial"",""time""
""fullscreenenter"",""1"",""2323""
","
","
","""event"",""trial"",""time""
""fullscreenenter"",""1"",""2323""
","
","","","827.5","","","14","5027","2315","t","elianto","#f73b6a7A"," "," ","1","0","[1686.199999988079]","1","2","","","5027","139","7","3","lose","go","0"
"pit-trial","258","1583593","0.0-144.0","battery-v0.2","","""event"",""trial"",""time""
""fullscreenenter"",""1"",""2323""
","
","
","""event"",""trial"",""time""
""fullscreenenter"",""1"",""2323""
","
","","","-1","","","14","5027","2315","b","elianto","#f73b6a7A","-1","-1","1","0","[]","0","2","","","5027","140","6","4","lose","no-go","0"
"pit-instructions","259","1614980","0.0-145.0","battery-v0.2","","""event"",""trial"",""time""
""fullscreenenter"",""1"",""2323""
","
","
","""event"",""trial"",""time""
""fullscreenenter"",""1"",""2323""
","
","","[{""page_index"":0,""viewing_time"":20636.09999999404},{""page_index"":1,""viewing_time"":10745}]","31382.29999998212","","","","","","","","","","","","","","","","","","","","","","","",""
"pit-trial","260","1619883","0.0-146.0","battery-v0.2","","""event"",""trial"",""time""
""fullscreenenter"",""1"",""2323""
","
","
","""event"",""trial"",""time""
""fullscreenenter"",""1"",""2323""
","
","","","-1","","","14","5027","2315","d","elianto","#3366ff99","-1","-1","1","+10","[]","0","3","","","5027","141","1","2","win","no-go","0"
"pit-trial","261","1624787","0.0-147.0","battery-v0.2","","""event"",""trial"",""time""
""fullscreenenter"",""1"",""2323""
","
","
","""event"",""trial"",""time""
""fullscreenenter"",""1"",""2323""
","
","","","-1","","","14","5027","2315","w","elianto","#f73b6a7A","-1","-1","1","0","[]","0","3","","","5027","142","3","4","lose","no-go","0"
"pit-trial","262","1629688","0.0-148.0","battery-v0.2","","""event"",""trial"",""time""
""fullscreenenter"",""1"",""2323""
","
","
","""event"",""trial"",""time""
""fullscreenenter"",""1"",""2323""
","
","","","-1","","","14","5027","2315","j","elianto","#f73b6a7A"," ","-1","0","-10","[]","0","3","","","5027","143","0","3","lose","go","0"
"pit-trial","263","1634579","0.0-149.0","battery-v0.2","","""event"",""trial"",""time""
""fullscreenenter"",""1"",""2323""
","
","
","""event"",""trial"",""time""
""fullscreenenter"",""1"",""2323""
","
","","","-1","","","14","5027","2315","e","elianto","#f73b6a7A"," ","-1","0","-10","[]","0","3","","","5027","144","2","3","lose","go","0"
"pit-trial","264","1638419","0.0-150.0","battery-v0.2","","""event"",""trial"",""time""
""fullscreenenter"",""1"",""2323""
","
","
","""event"",""trial"",""time""
""fullscreenenter"",""1"",""2323""
","
","","","970.6999999880791","","","14","5027","2315","j","elianto","#f73b6a7A"," "," ","1","0","[1825.4000000059605]","1","3","","","5027","145","0","3","lose","go","0"
"pit-trial","265","1643306","0.0-151.0","battery-v0.2","","""event"",""trial"",""time""
""fullscreenenter"",""1"",""2323""
","
","
","""event"",""trial"",""time""
""fullscreenenter"",""1"",""2323""
","
","","","-1","","","14","5027","2315","w","elianto","#f73b6a7A","-1","-1","1","0","[]","0","3","","","5027","146","3","4","lose","no-go","0"
"pit-trial","266","1646915","0.0-152.0","battery-v0.2","","""event"",""trial"",""time""
""fullscreenenter"",""1"",""2323""
","
","
","""event"",""trial"",""time""
""fullscreenenter"",""1"",""2323""
","
","","","741.4000000059605","","","14","5027","2315","e","elianto","#f73b6a7A"," "," ","1","0","[1594.3999999761581]","1","3","","","5027","147","2","3","lose","go","0"
"pit-trial","267","1651782","0.0-153.0","battery-v0.2","","""event"",""trial"",""time""
""fullscreenenter"",""1"",""2323""
","
","
","""event"",""trial"",""time""
""fullscreenenter"",""1"",""2323""
","
","","","-1","","","14","5027","2315","d","elianto","#3366ff99","-1","-1","1","+10","[]","0","3","","","5027","148","1","2","win","no-go","0"
"pit-trial","268","1655439","0.0-154.0","battery-v0.2","","""event"",""trial"",""time""
""fullscreenenter"",""1"",""2323""
","
","
","""event"",""trial"",""time""
""fullscreenenter"",""1"",""2323""
","
