"trial_type","trial_index","time_elapsed","internal_node_id","task_version","subject_id","interactions","blur_events","focus_events","fullscreenenter_events","fullscreenexit_events","success","view_history","rt","responses","num_errors","age","subject","participantId","rune","rune_set","hex","correct","choice","accuracy","outcome","keys","total_keys","block","practice","value","sub","trial","stimulus","robot","valence","action","sham"
"pavlovia","0","10","0.0-0.0","battery-v0.2","","""event"",""trial"",""time""
""fullscreenenter"",""1"",""2506""
","
","
","""event"",""trial"",""time""
""fullscreenenter"",""1"",""2506""
","
","","","","","","","","","","","","","","","","","","","","","","","","","","",""
"fullscreen","1","3449","0.0-1.0","battery-v0.2","","""event"",""trial"",""time""
""fullscreenenter"",""1"",""2506""
","
","
","""event"",""trial"",""time""
""fullscreenenter"",""1"",""2506""
","
","true","","","","","","","","","","","","","","","","","","","","","","","","","",""
"pit-instructions","2","8363","0.0-2.0-0.0","battery-v0.2","","""event"",""trial"",""time""
""fullscreenenter"",""1"",""2506""
""blur"",""3"",""12072""
""focus"",""3"",""27705""
","""event"",""trial"",""time""
""blur"",""3"",""12072""
","""event"",""trial"",""time""
""focus"",""3"",""27705""
","""event"",""trial"",""time""
""fullscreenenter"",""1"",""2506""
","
","","[{""page_index"":0,""viewing_time"":4904.800000071526}]","4905.900000095367","","","","","","","","","","","","","","","","","","","","","","","",""
"pit-comprehension","3","48213","0.0-2.0-1.0-0.0","battery-v0.2","","""event"",""trial"",""time""
""fullscreenenter"",""1"",""2506""
""blur"",""3"",""12072""
""focus"",""3"",""27705""
","""event"",""trial"",""time""
""blur"",""3"",""12072""
","""event"",""trial"",""time""
""focus"",""3"",""27705""
","""event"",""trial"",""time""
""fullscreenenter"",""1"",""2506""
","
","","","39839.89999997616","[""shark""]","0","10","12451","812","","","","","","","","","","","","","","","","","","",""
"pit-instructions","4","53010","0.0-2.0-1.0-1.0","battery-v0.2","","""event"",""trial"",""time""
""fullscreenenter"",""1"",""2506""
""blur"",""3"",""12072""
""focus"",""3"",""27705""
""fullscreenexit"",""5"",""62539""
""blur"",""5"",""63822""
""focus"",""5"",""66112""
","""event"",""trial"",""time""
""blur"",""3"",""12072""
""blur"",""5"",""63822""
","""event"",""trial"",""time""
""focus"",""3"",""27705""
""focus"",""5"",""66112""
","""event"",""trial"",""time""
""fullscreenenter"",""1"",""2506""
","""event"",""trial"",""time""
""fullscreenexit"",""5"",""62539""
","","[{""page_index"":0,""viewing_time"":4774.399999976158}]","4774.600000023842","","","","","","","","","","","","","","","","","","","","","","","",""
"pit-comprehension","5","79346","0.0-2.0-2.0-0.0","battery-v0.2","","""event"",""trial"",""time""
""fullscreenenter"",""1"",""2506""
""blur"",""3"",""12072""
""focus"",""3"",""27705""
""fullscreenexit"",""5"",""62539""
""blur"",""5"",""63822""
""focus"",""5"",""66112""
","""event"",""trial"",""time""
""blur"",""3"",""12072""
""blur"",""5"",""63822""
","""event"",""trial"",""time""
""focus"",""3"",""27705""
""focus"",""5"",""66112""
","""event"",""trial"",""time""
""fullscreenenter"",""1"",""2506""
","""event"",""trial"",""time""
""fullscreenexit"",""5"",""62539""
","","","26331.100000023842","[""tiger""]","0","10","12451","812","","","","","","","","","","","","","","","","","","",""
"pit-instructions","6","124092","0.0-2.0-2.0-1.0","battery-v0.2","","""event"",""trial"",""time""
""fullscreenenter"",""1"",""2506""
""blur"",""3"",""12072""
""focus"",""3"",""27705""
""fullscreenexit"",""5"",""62539""
""blur"",""5"",""63822""
""focus"",""5"",""66112""
","""event"",""trial"",""time""
""blur"",""3"",""12072""
""blur"",""5"",""63822""
","""event"",""trial"",""time""
""focus"",""3"",""27705""
""focus"",""5"",""66112""
","""event"",""trial"",""time""
""fullscreenenter"",""1"",""2506""
","""event"",""trial"",""time""
""fullscreenexit"",""5"",""62539""
","","[{""page_index"":0,""viewing_time"":44739}]","44739.700000047684","","","","","","","","","","","","","","","","","","","","","","","",""
"pit-instructions","7","215179","0.0-2.0-3.0","battery-v0.2","","""event"",""trial"",""time""
""fullscreenenter"",""1"",""2506""
""blur"",""3"",""12072""
""focus"",""3"",""27705""
""fullscreenexit"",""5"",""62539""
""blur"",""5"",""63822""
""focus"",""5"",""66112""
","""event"",""trial"",""time""
""blur"",""3"",""12072""
""blur"",""5"",""63822""
","""event"",""trial"",""time""
""focus"",""3"",""27705""
""focus"",""5"",""66112""
","""event"",""trial"",""time""
""fullscreenenter"",""1"",""2506""
","""event"",""trial"",""time""
""fullscreenexit"",""5"",""62539""
","","[{""page_index"":0,""viewing_time"":7907.600000023842},{""page_index"":1,""viewing_time"":5791.899999976158},{""page_index"":2,""viewing_time"":6541.899999976158},{""page_index"":3,""viewing_time"":5052.799999952316},{""page_index"":4,""viewing_time"":7557.600000023842},{""page_index"":5,""viewing_time"":7251},{""page_index"":6,""viewing_time"":5140},{""page_index"":7,""viewing_time"":7375.200000047684},{""page_index"":8,""viewing_time"":6091.399999976158},{""page_index"":9,""viewing_time"":5474.5},{""page_index"":10,""viewing_time"":7352.600000023842},{""page_index"":11,""viewing_time"":8390.799999952316},{""page_index"":12,""viewing_time"":6043.5},{""page_index"":13,""viewing_time"":5108.200000047684}]","91079.69999992847","","","","","","","","","","","","","","","","","","","","","","","",""
"pit-trial","8","218562","0.0-2.0-4.0-0.0","battery-v0.2","","""event"",""trial"",""time""
""fullscreenenter"",""1"",""2506""
""blur"",""3"",""12072""
""focus"",""3"",""27705""
""fullscreenexit"",""5"",""62539""
""blur"",""5"",""63822""
""focus"",""5"",""66112""
","""event"",""trial"",""time""
""blur"",""3"",""12072""
""blur"",""5"",""63822""
","""event"",""trial"",""time""
""focus"",""3"",""27705""
""focus"",""5"",""66112""
","""event"",""trial"",""time""
""fullscreenenter"",""1"",""2506""
","""event"",""trial"",""time""
""fullscreenexit"",""5"",""62539""
","","","514.3000000715256","","","10","12451","812","&#9784;","elianto","#FFFFF080"," "," ","1","&#10004","[1368]","1","0","0","","","","","","","",""
"pit-trial","9","221989","0.0-2.0-4.1-0.1","battery-v0.2","","""event"",""trial"",""time""
""fullscreenenter"",""1"",""2506""
""blur"",""3"",""12072""
""focus"",""3"",""27705""
""fullscreenexit"",""5"",""62539""
""blur"",""5"",""63822""
""focus"",""5"",""66112""
","""event"",""trial"",""time""
""blur"",""3"",""12072""
""blur"",""5"",""63822""
","""event"",""trial"",""time""
""focus"",""3"",""27705""
""focus"",""5"",""66112""
","""event"",""trial"",""time""
""fullscreenenter"",""1"",""2506""
","""event"",""trial"",""time""
""fullscreenexit"",""5"",""62539""
","","","554.7000000476837","","","10","12451","812","&#9784;","elianto","#FFFFF080"," "," ","1","&#10004","[1407.8999999761581]","1","0","0","","","","","","","",""
"pit-trial","10","225442","0.0-2.0-4.2-0.2","battery-v0.2","","""event"",""trial"",""time""
""fullscreenenter"",""1"",""2506""
""blur"",""3"",""12072""
""focus"",""3"",""27705""
""fullscreenexit"",""5"",""62539""
""blur"",""5"",""63822""
""focus"",""5"",""66112""
","""event"",""trial"",""time""
""blur"",""3"",""12072""
""blur"",""5"",""63822""
","""event"",""trial"",""time""
""focus"",""3"",""27705""
""focus"",""5"",""66112""
","""event"",""trial"",""time""
""fullscreenenter"",""1"",""2506""
","""event"",""trial"",""time""
""fullscreenexit"",""5"",""62539""
","","","584.1000000238419","","","10","12451","812","&#9784;","elianto","#FFFFF080"," "," ","1","&#10004","[1436.1999999284744]","1","0","0","","","","","","","",""
"pit-trial","11","228719","0.0-2.0-4.3-0.3","battery-v0.2","","""event"",""trial"",""time""
""fullscreenenter"",""1"",""2506""
""blur"",""3"",""12072""
""focus"",""3"",""27705""
""fullscreenexit"",""5"",""62539""
""blur"",""5"",""63822""
""focus"",""5"",""66112""
","""event"",""trial"",""time""
""blur"",""3"",""12072""
""blur"",""5"",""63822""
","""event"",""trial"",""time""
""focus"",""3"",""27705""
""focus"",""5"",""66112""
","""event"",""trial"",""time""
""fullscreenenter"",""1"",""2506""
","""event"",""trial"",""time""
""fullscreenexit"",""5"",""62539""
","","","402.10000002384186","","","10","12451","812","&#9784;","elianto","#FFFFF080"," "," ","1","&#10004","[1261.8000000715256]","1","0","0","","","","","","","",""
"pit-trial","12","232179","0.0-2.0-4.4-0.4","battery-v0.2","","""event"",""trial"",""time""
""fullscreenenter"",""1"",""2506""
""blur"",""3"",""12072""
""focus"",""3"",""27705""
""fullscreenexit"",""5"",""62539""
""blur"",""5"",""63822""
""focus"",""5"",""66112""
","""event"",""trial"",""time""
""blur"",""3"",""12072""
""blur"",""5"",""63822""
","""event"",""trial"",""time""
""focus"",""3"",""27705""
""focus"",""5"",""66112""
","""event"",""trial"",""time""
""fullscreenenter"",""1"",""2506""
","""event"",""trial"",""time""
""fullscreenexit"",""5"",""62539""
","","","591.2999999523163","","","10","12451","812","&#9784;","elianto","#FFFFF080"," "," ","1","&#10004","[1441.7999999523163,3102.7999999523163]","2","0","0","","","","","","","",""
"pit-instructions","13","255742","0.0-2.0-5.0","battery-v0.2","","""event"",""trial"",""time""
""fullscreenenter"",""1"",""2506""
""blur"",""3"",""12072""
""focus"",""3"",""27705""
""fullscreenexit"",""5"",""62539""
""blur"",""5"",""63822""
""focus"",""5"",""66112""
","""event"",""trial"",""time""
""blur"",""3"",""12072""
""blur"",""5"",""63822""
","""event"",""trial"",""time""
""focus"",""3"",""27705""
""focus"",""5"",""66112""
","""event"",""trial"",""time""
""fullscreenenter"",""1"",""2506""
","""event"",""trial"",""time""
""fullscreenexit"",""5"",""62539""
","","[{""page_index"":0,""viewing_time"":5751.100000023842},{""page_index"":1,""viewing_time"":5770},{""page_index"":2,""viewing_time"":6657.100000023842},{""page_index"":3,""viewing_time"":5376.599999904633}]","23555.5","","","","","","","","","","","","","","","","","","","","","","","",""
"pit-trial","14","260604","0.0-2.0-6.0-0.0","battery-v0.2","","""event"",""trial"",""time""
""fullscreenenter"",""1"",""2506""
""blur"",""3"",""12072""
""focus"",""3"",""27705""
""fullscreenexit"",""5"",""62539""
""blur"",""5"",""63822""
""focus"",""5"",""66112""
","""event"",""trial"",""time""
""blur"",""3"",""12072""
""blur"",""5"",""63822""
","""event"",""trial"",""time""
""focus"",""3"",""27705""
""focus"",""5"",""66112""
","""event"",""trial"",""time""
""fullscreenenter"",""1"",""2506""
","""event"",""trial"",""time""
""fullscreenexit"",""5"",""62539""
","","","-1","","","10","12451","812","&#9854;","elianto","#FFFFF080","-1","-1","1","&#10004","[]","0","0","1","","","","","","","",""
"pit-trial","15","265480","0.0-2.0-6.1-0.1","battery-v0.2","","""event"",""trial"",""time""
""fullscreenenter"",""1"",""2506""
""blur"",""3"",""12072""
""focus"",""3"",""27705""
""fullscreenexit"",""5"",""62539""
""blur"",""5"",""63822""
""focus"",""5"",""66112""
","""event"",""trial"",""time""
""blur"",""3"",""12072""
""blur"",""5"",""63822""
","""event"",""trial"",""time""
""focus"",""3"",""27705""
""focus"",""5"",""66112""
","""event"",""trial"",""time""
""fullscreenenter"",""1"",""2506""
","""event"",""trial"",""time""
""fullscreenexit"",""5"",""62539""
","","","-1","","","10","12451","812","&#9854;","elianto","#FFFFF080","-1","-1","1","&#10004","[]","0","0","1","","","","","","","",""
"pit-trial","16","269428","0.0-2.0-6.2-0.2","battery-v0.2","","""event"",""trial"",""time""
""fullscreenenter"",""1"",""2506""
""blur"",""3"",""12072""
""focus"",""3"",""27705""
""fullscreenexit"",""5"",""62539""
""blur"",""5"",""63822""
""focus"",""5"",""66112""
","""event"",""trial"",""time""
""blur"",""3"",""12072""
""blur"",""5"",""63822""
","""event"",""trial"",""time""
""focus"",""3"",""27705""
""focus"",""5"",""66112""
","""event"",""trial"",""time""
""fullscreenenter"",""1"",""2506""
","""event"",""trial"",""time""
""fullscreenexit"",""5"",""62539""
","","","1078.5","","","10","12451","812","&#9854;","elianto","#FFFFF080","-1"," ","0","&#10060","[1931.8999999761581]","1","0","1","","","","","","","",""
"pit-trial","17","274292","0.0-2.0-6.3-0.3","battery-v0.2","","""event"",""trial"",""time""
""fullscreenenter"",""1"",""2506""
""blur"",""3"",""12072""
""focus"",""3"",""27705""
""fullscreenexit"",""5"",""62539""
""blur"",""5"",""63822""
""focus"",""5"",""66112""
","""event"",""trial"",""time""
""blur"",""3"",""12072""
""blur"",""5"",""63822""
","""event"",""trial"",""time""
""focus"",""3"",""27705""
""focus"",""5"",""66112""
","""event"",""trial"",""time""
""fullscreenenter"",""1"",""2506""
","""event"",""trial"",""time""
""fullscreenexit"",""5"",""62539""
","","","-1","","","10","12451","812","&#9854;","elianto","#FFFFF080","-1","-1","1","&#10004","[]","0","0","1","","","","","","","",""
"pit-trial","18","279154","0.0-2.0-6.4-0.4","battery-v0.2","","""event"",""trial"",""time""
""fullscreenenter"",""1"",""2506""
""blur"",""3"",""12072""
""focus"",""3"",""27705""
""fullscreenexit"",""5"",""62539""
""blur"",""5"",""63822""
""focus"",""5"",""66112""
","""event"",""trial"",""time""
""blur"",""3"",""12072""
""blur"",""5"",""63822""
","""event"",""trial"",""time""
""focus"",""3"",""27705""
""focus"",""5"",""66112""
","""event"",""trial"",""time""
""fullscreenenter"",""1"",""2506""
","""event"",""trial"",""time""
""fullscreenexit"",""5"",""62539""
","","","-1","","","10","12451","812","&#9854;","elianto","#FFFFF080","-1","-1","1","&#10004","[]","0","0","1","","","","","","","",""
"pit-trial","19","284014","0.0-2.0-6.5-0.5","battery-v0.2","","""event"",""trial"",""time""
""fullscreenenter"",""1"",""2506""
""blur"",""3"",""12072""
""focus"",""3"",""27705""
""fullscreenexit"",""5"",""62539""
""blur"",""5"",""63822""
""focus"",""5"",""66112""
","""event"",""trial"",""time""
""blur"",""3"",""12072""
""blur"",""5"",""63822""
","""event"",""trial"",""time""
""focus"",""3"",""27705""
""focus"",""5"",""66112""
","""event"",""trial"",""time""
""fullscreenenter"",""1"",""2506""
","""event"",""trial"",""time""
""fullscreenexit"",""5"",""62539""
","","","-1","","","10","12451","812","&#9854;","elianto","#FFFFF080","-1","-1","1","&#10004","[]","0","0","1","","","","","","","",""
"pit-instructions","20","397663","0.0-2.0-7.0","battery-v0.2","","""event"",""trial"",""time""
""fullscreenenter"",""1"",""2506""
""blur"",""3"",""12072""
""focus"",""3"",""27705""
""fullscreenexit"",""5"",""62539""
""blur"",""5"",""63822""
""focus"",""5"",""66112""
","""event"",""trial"",""time""
""blur"",""3"",""12072""
""blur"",""5"",""63822""
","""event"",""trial"",""time""
""focus"",""3"",""27705""
""focus"",""5"",""66112""
","""event"",""trial"",""time""
""fullscreenenter"",""1"",""2506""
","""event"",""trial"",""time""
""fullscreenexit"",""5"",""62539""
","","[{""page_index"":0,""viewing_time"":5800.899999976158},{""page_index"":1,""viewing_time"":6493.600000023842},{""page_index"":2,""viewing_time"":5322.600000023842},{""page_index"":3,""viewing_time"":5559.600000023842},{""page_index"":4,""viewing_time"":5202.699999928474},{""page_index"":5,""viewing_time"":5317.700000047684},{""page_index"":6,""viewing_time"":5182.399999976158},{""page_index"":7,""viewing_time"":7548.399999976158},{""page_index"":8,""viewing_time"":6617.399999976158},{""page_index"":9,""viewing_time"":5433.400000095367},{""page_index"":10,""viewing_time"":6244.5},{""page_index"":11,""viewing_time"":4936.599999904633},{""page_index"":12,""viewing_time"":12110.300000071526},{""page_index"":13,""viewing_time"":6091.199999928474},{""page_index"":14,""viewing_time"":6309.700000047684},{""page_index"":15,""viewing_time"":6653.100000023842},{""page_index"":16,""viewing_time"":6636.600000023842},{""page_index"":17,""viewing_time"":6181.299999952316}]","113642.60000002384","","","","","","","","","","","","","","","","","","","","","","","",""
"pit-trial","21","401331","0.0-2.0-8.0-0.0","battery-v0.2","","""event"",""trial"",""time""
""fullscreenenter"",""1"",""2506""
""blur"",""3"",""12072""
""focus"",""3"",""27705""
""fullscreenexit"",""5"",""62539""
""blur"",""5"",""63822""
""focus"",""5"",""66112""
","""event"",""trial"",""time""
""blur"",""3"",""12072""
""blur"",""5"",""63822""
","""event"",""trial"",""time""
""focus"",""3"",""27705""
""focus"",""5"",""66112""
","""event"",""trial"",""time""
""fullscreenenter"",""1"",""2506""
","""event"",""trial"",""time""
""fullscreenexit"",""5"",""62539""
","","","801.7000000476837","","","10","12451","812","&#9776;","elianto","#3366ff99"," "," ","1","+10","[1653.8000000715256]","1","0","1","","","","","","","",""
"pit-trial","22","404812","0.0-2.0-8.0-1.0","battery-v0.2","","""event"",""trial"",""time""
""fullscreenenter"",""1"",""2506""
""blur"",""3"",""12072""
""focus"",""3"",""27705""
""fullscreenexit"",""5"",""62539""
""blur"",""5"",""63822""
""focus"",""5"",""66112""
","""event"",""trial"",""time""
""blur"",""3"",""12072""
""blur"",""5"",""63822""
","""event"",""trial"",""time""
""focus"",""3"",""27705""
""focus"",""5"",""66112""
","""event"",""trial"",""time""
""fullscreenenter"",""1"",""2506""
","""event"",""trial"",""time""
""fullscreenexit"",""5"",""62539""
","","","611.6999999284744","","","10","12451","812","&#9776;","elianto","#3366ff99"," "," ","1","+10","[1470.2999999523163]","1","0","1","","","","","","","",""
"pit-trial","23","408164","0.0-2.0-8.0-2.0","battery-v0.2","","""event"",""trial"",""time""
""fullscreenenter"",""1"",""2506""
""blur"",""3"",""12072""
""focus"",""3"",""27705""
""fullscreenexit"",""5"",""62539""
""blur"",""5"",""63822""
""focus"",""5"",""66112""
","""event"",""trial"",""time""
""blur"",""3"",""12072""
""blur"",""5"",""63822""
","""event"",""trial"",""time""
""focus"",""3"",""27705""
""focus"",""5"",""66112""
","""event"",""trial"",""time""
""fullscreenenter"",""1"",""2506""
","""event"",""trial"",""time""
""fullscreenexit"",""5"",""62539""
","","","484.3000000715256","","","10","12451","812","&#9776;","elianto","#3366ff99"," "," ","1","+10","[1341.7999999523163]","1","0","1","","","","","","","",""
"pit-trial","24","411403","0.0-2.0-8.0-3.0","battery-v0.2","","""event"",""trial"",""time""
""fullscreenenter"",""1"",""2506""
""blur"",""3"",""12072""
""focus"",""3"",""27705""
""fullscreenexit"",""5"",""62539""
""blur"",""5"",""63822""
""focus"",""5"",""66112""
","""event"",""trial"",""time""
""blur"",""3"",""12072""
""blur"",""5"",""63822""
","""event"",""trial"",""time""
""focus"",""3"",""27705""
""focus"",""5"",""66112""
","""event"",""trial"",""time""
""fullscreenenter"",""1"",""2506""
","""event"",""trial"",""time""
""fullscreenexit"",""5"",""62539""
","","","383.5","","","10","12451","812","&#9776;","elianto","#3366ff99"," "," ","1","0","[1235.3999999761581]","1","0","1","","","","","","","",""
"pit-trial","25","414635","0.0-2.0-8.0-4.0","battery-v0.2","","""event"",""trial"",""time""
""fullscreenenter"",""1"",""2506""
""blur"",""3"",""12072""
""focus"",""3"",""27705""
""fullscreenexit"",""5"",""62539""
""blur"",""5"",""63822""
""focus"",""5"",""66112""
","""event"",""trial"",""time""
""blur"",""3"",""12072""
""blur"",""5"",""63822""
","""event"",""trial"",""time""
""focus"",""3"",""27705""
""focus"",""5"",""66112""
","""event"",""trial"",""time""
""fullscreenenter"",""1"",""2506""
","""event"",""trial"",""time""
""fullscreenexit"",""5"",""62539""
","","","358","","","10","12451","812","&#9776;","elianto","#3366ff99"," "," ","1","+10","[1214,3108.8000000715256]","2","0","1","","","","","","","",""
"pit-trial","26","418344","0.0-2.0-8.1-0.1","battery-v0.2","","""event"",""trial"",""time""
""fullscreenenter"",""1"",""2506""
""blur"",""3"",""12072""
""focus"",""3"",""27705""
""fullscreenexit"",""5"",""62539""
""blur"",""5"",""63822""
""focus"",""5"",""66112""
","""event"",""trial"",""time""
""blur"",""3"",""12072""
""blur"",""5"",""63822""
","""event"",""trial"",""time""
""focus"",""3"",""27705""
""focus"",""5"",""66112""
","""event"",""trial"",""time""
""fullscreenenter"",""1"",""2506""
","""event"",""trial"",""time""
""fullscreenexit"",""5"",""62539""
","","","849.2999999523163","","","10","12451","812","&#9776;","elianto","#3366ff99"," "," ","1","+10","[1702.1999999284744]","1","0","1","","","","","","","",""
"pit-trial","27","421816","0.0-2.0-8.1-1.1","battery-v0.2","","""event"",""trial"",""time""
""fullscreenenter"",""1"",""2506""
""blur"",""3"",""12072""
""focus"",""3"",""27705""
""fullscreenexit"",""5"",""62539""
""blur"",""5"",""63822""
""focus"",""5"",""66112""
","""event"",""trial"",""time""
""blur"",""3"",""12072""
""blur"",""5"",""63822""
","""event"",""trial"",""time""
""focus"",""3"",""27705""
""focus"",""5"",""66112""
","""event"",""trial"",""time""
""fullscreenenter"",""1"",""2506""
","""event"",""trial"",""time""
""fullscreenexit"",""5"",""62539""
","","","603.5","","","10","12451","812","&#9776;","elianto","#3366ff99"," "," ","1","+10","[1459.6000000238419]","1","0","1","","","","","","","",""
"pit-trial","28","425008","0.0-2.0-8.1-2.1","battery-v0.2","","""event"",""trial"",""time""
""fullscreenenter"",""1"",""2506""
""blur"",""3"",""12072""
""focus"",""3"",""27705""
""fullscreenexit"",""5"",""62539""
""blur"",""5"",""63822""
""focus"",""5"",""66112""
","""event"",""trial"",""time""
""blur"",""3"",""12072""
""blur"",""5"",""63822""
","""event"",""trial"",""time""
""focus"",""3"",""27705""
""focus"",""5"",""66112""
","""event"",""trial"",""time""
""fullscreenenter"",""1"",""2506""
","""event"",""trial"",""time""
""fullscreenexit"",""5"",""62539""
","","","330.2000000476837","","","10","12451","812","&#9776;","elianto","#3366ff99"," "," ","1","+10","[1182.8999999761581]","1","0","1","","","","","","","",""
"pit-trial","29","428250","0.0-2.0-8.1-3.1","battery-v0.2","","""event"",""trial"",""time""
""fullscreenenter"",""1"",""2506""
""blur"",""3"",""12072""
""focus"",""3"",""27705""
""fullscreenexit"",""5"",""62539""
""blur"",""5"",""63822""
""focus"",""5"",""66112""
","""event"",""trial"",""time""
""blur"",""3"",""12072""
""blur"",""5"",""63822""
","""event"",""trial"",""time""
""focus"",""3"",""27705""
""focus"",""5"",""66112""
","""event"",""trial"",""time""
""fullscreenenter"",""1"",""2506""
","""event"",""trial"",""time""
""fullscreenexit"",""5"",""62539""
","","","372.3000000715256","","","10","12451","812","&#9776;","elianto","#3366ff99"," "," ","1","0","[1224.1000000238419]","1","0","1","","","","","","","",""
"pit-trial","30","431258","0.0-2.0-8.1-4.1","battery-v0.2","","""event"",""trial"",""time""
""fullscreenenter"",""1"",""2506""
""blur"",""3"",""12072""
""focus"",""3"",""27705""
""fullscreenexit"",""5"",""62539""
""blur"",""5"",""63822""
""focus"",""5"",""66112""
","""event"",""trial"",""time""
""blur"",""3"",""12072""
""blur"",""5"",""63822""
","""event"",""trial"",""time""
""focus"",""3"",""27705""
""focus"",""5"",""66112""
","""event"",""trial"",""time""
""fullscreenenter"",""1"",""2506""
","""event"",""trial"",""time""
""fullscreenexit"",""5"",""62539""
","","","147","","","10","12451","812","&#9776;","elianto","#3366ff99"," "," ","1","+10","[1002.8999999761581]","1","0","1","","","","","","","",""
"pit-trial","31","434145","0.0-2.0-8.2-0.2","battery-v0.2","","""event"",""trial"",""time""
""fullscreenenter"",""1"",""2506""
""blur"",""3"",""12072""
""focus"",""3"",""27705""
""fullscreenexit"",""5"",""62539""
""blur"",""5"",""63822""
""focus"",""5"",""66112""
","""event"",""trial"",""time""
""blur"",""3"",""12072""
""blur"",""5"",""63822""
","""event"",""trial"",""time""
""focus"",""3"",""27705""
""focus"",""5"",""66112""
","""event"",""trial"",""time""
""fullscreenenter"",""1"",""2506""
","""event"",""trial"",""time""
""fullscreenexit"",""5"",""62539""
","","","26","","","10","12451","812","&#9776;","elianto","#3366ff99"," "," ","1","+10","[449.39999997615814,877.3999999761581,1171.8999999761581]","3","0","1","","","","","","","",""
"pit-trial","32","437176","0.0-2.0-8.2-1.2","battery-v0.2","","""event"",""trial"",""time""
""fullscreenenter"",""1"",""2506""
""blur"",""3"",""12072""
""focus"",""3"",""27705""
""fullscreenexit"",""5"",""62539""
""blur"",""5"",""63822""
""focus"",""5"",""66112""
","""event"",""trial"",""time""
""blur"",""3"",""12072""
""blur"",""5"",""63822""
","""event"",""trial"",""time""
""focus"",""3"",""27705""
""focus"",""5"",""66112""
","""event"",""trial"",""time""
""fullscreenenter"",""1"",""2506""
","""event"",""trial"",""time""
""fullscreenexit"",""5"",""62539""
","","","174.29999995231628","","","10","12451","812","&#9776;","elianto","#3366ff99"," "," ","1","+10","[1026.6999999284744,1479.2999999523163]","2","0","1","","","","","","","",""
"pit-trial","33","440195","0.0-2.0-8.2-2.2","battery-v0.2","","""event"",""trial"",""time""
""fullscreenenter"",""1"",""2506""
""blur"",""3"",""12072""
""focus"",""3"",""27705""
""fullscreenexit"",""5"",""62539""
""blur"",""5"",""63822""
""focus"",""5"",""66112""
","""event"",""trial"",""time""
""blur"",""3"",""12072""
""blur"",""5"",""63822""
","""event"",""trial"",""time""
""focus"",""3"",""27705""
""focus"",""5"",""66112""
","""event"",""trial"",""time""
""fullscreenenter"",""1"",""2506""
","""event"",""trial"",""time""
""fullscreenexit"",""5"",""62539""
","","","162.39999997615814","","","10","12451","812","&#9776;","elianto","#3366ff99"," "," ","1","+10","[1012.6000000238419]","1","0","1","","","","","","","",""
"pit-trial","34","443233","0.0-2.0-8.2-3.2","battery-v0.2","","""event"",""trial"",""time""
""fullscreenenter"",""1"",""2506""
""blur"",""3"",""12072""
""focus"",""3"",""27705""
""fullscreenexit"",""5"",""62539""
""blur"",""5"",""63822""
""focus"",""5"",""66112""
","""event"",""trial"",""time""
""blur"",""3"",""12072""
""blur"",""5"",""63822""
","""event"",""trial"",""time""
""focus"",""3"",""27705""
""focus"",""5"",""66112""
","""event"",""trial"",""time""
""fullscreenenter"",""1"",""2506""
","""event"",""trial"",""time""
""fullscreenexit"",""5"",""62539""
","","","184.10000002384186","","","10","12451","812","&#9776;","elianto","#3366ff99"," "," ","1","0","[504.7000000476837,1034.2000000476837]","2","0","1","","","","","","","",""
"pit-trial","35","446220","0.0-2.0-8.2-4.2","battery-v0.2","","""event"",""trial"",""time""
""fullscreenenter"",""1"",""2506""
""blur"",""3"",""12072""
""focus"",""3"",""27705""
""fullscreenexit"",""5"",""62539""
""blur"",""5"",""63822""
""focus"",""5"",""66112""
","""event"",""trial"",""time""
""blur"",""3"",""12072""
""blur"",""5"",""63822""
","""event"",""trial"",""time""
""focus"",""3"",""27705""
""focus"",""5"",""66112""
","""event"",""trial"",""time""
""fullscreenenter"",""1"",""2506""
","""event"",""trial"",""time""
""fullscreenexit"",""5"",""62539""
","","","129.19999992847443","","","10","12451","812","&#9776;","elianto","#3366ff99"," "," ","1","+10","[981.1000000238419]","1","0","1","","","","","","","",""
"call-function","36","446224","0.0-2.0-9.0","battery-v0.2","","""event"",""trial"",""time""
""fullscreenenter"",""1"",""2506""
""blur"",""3"",""12072""
""focus"",""3"",""27705""
""fullscreenexit"",""5"",""62539""
""blur"",""5"",""63822""
""focus"",""5"",""66112""
","""event"",""trial"",""time""
""blur"",""3"",""12072""
""blur"",""5"",""63822""
","""event"",""trial"",""time""
""focus"",""3"",""27705""
""focus"",""5"",""66112""
","""event"",""trial"",""time""
""fullscreenenter"",""1"",""2506""
","""event"",""trial"",""time""
""fullscreenexit"",""5"",""62539""
","","","","","","","","","","","","","","","","","","","","","","","","","","",""
"pit-instructions","37","483857","0.0-2.0-10.0","battery-v0.2","","""event"",""trial"",""time""
""fullscreenenter"",""1"",""2506""
""blur"",""3"",""12072""
""focus"",""3"",""27705""
""fullscreenexit"",""5"",""62539""
""blur"",""5"",""63822""
""focus"",""5"",""66112""
","""event"",""trial"",""time""
""blur"",""3"",""12072""
""blur"",""5"",""63822""
","""event"",""trial"",""time""
""focus"",""3"",""27705""
""focus"",""5"",""66112""
","""event"",""trial"",""time""
""fullscreenenter"",""1"",""2506""
","""event"",""trial"",""time""
""fullscreenexit"",""5"",""62539""
","","[{""page_index"":0,""viewing_time"":6702.400000095367},{""page_index"":1,""viewing_time"":6046.799999952316},{""page_index"":2,""viewing_time"":9383.399999976158},{""page_index"":3,""viewing_time"":8347.399999976158},{""page_index"":4,""viewing_time"":7154.600000023842}]","37635.300000071526","","","","","","","","","","","","","","","","","","","","","","","",""
"pit-trial","38","488729","0.0-2.0-11.0-0.0","battery-v0.2","","""event"",""trial"",""time""
""fullscreenenter"",""1"",""2506""
""blur"",""3"",""12072""
""focus"",""3"",""27705""
""fullscreenexit"",""5"",""62539""
""blur"",""5"",""63822""
""focus"",""5"",""66112""
","""event"",""trial"",""time""
""blur"",""3"",""12072""
""blur"",""5"",""63822""
","""event"",""trial"",""time""
""focus"",""3"",""27705""
""focus"",""5"",""66112""
","""event"",""trial"",""time""
""fullscreenenter"",""1"",""2506""
","""event"",""trial"",""time""
""fullscreenexit"",""5"",""62539""
","","","-1","","","10","12451","812","&#9761;","elianto","#3366ff99","-1","-1","1","+10","[]","0","0","2","","","","","","","",""
"pit-trial","39","493601","0.0-2.0-11.0-1.0","battery-v0.2","","""event"",""trial"",""time""
""fullscreenenter"",""1"",""2506""
""blur"",""3"",""12072""
""focus"",""3"",""27705""
""fullscreenexit"",""5"",""62539""
""blur"",""5"",""63822""
""focus"",""5"",""66112""
","""event"",""trial"",""time""
""blur"",""3"",""12072""
""blur"",""5"",""63822""
","""event"",""trial"",""time""
""focus"",""3"",""27705""
""focus"",""5"",""66112""
","""event"",""trial"",""time""
""fullscreenenter"",""1"",""2506""
","""event"",""trial"",""time""
""fullscreenexit"",""5"",""62539""
","","","-1","","","10","12451","812","&#9761;","elianto","#3366ff99","-1","-1","1","+10","[]","0","0","2","","","","","","","",""
"pit-trial","40","498461","0.0-2.0-11.0-2.0","battery-v0.2","","""event"",""trial"",""time""
""fullscreenenter"",""1"",""2506""
""blur"",""3"",""12072""
""focus"",""3"",""27705""
""fullscreenexit"",""5"",""62539""
""blur"",""5"",""63822""
""focus"",""5"",""66112""
","""event"",""trial"",""time""
""blur"",""3"",""12072""
""blur"",""5"",""63822""
","""event"",""trial"",""time""
""focus"",""3"",""27705""
""focus"",""5"",""66112""
","""event"",""trial"",""time""
""fullscreenenter"",""1"",""2506""
","""event"",""trial"",""time""
""fullscreenexit"",""5"",""62539""
","","","-1","","","10","12451","812","&#9761;","elianto","#3366ff99","-1","-1","1","+10","[]","0","0","2","","","","","","","",""
"pit-trial","41","503328","0.0-2.0-11.0-3.0","battery-v0.2","","""event"",""trial"",""time""
""fullscreenenter"",""1"",""2506""
""blur"",""3"",""12072""
""focus"",""3"",""27705""
""fullscreenexit"",""5"",""62539""
""blur"",""5"",""63822""
""focus"",""5"",""66112""
","""event"",""trial"",""time""
""blur"",""3"",""12072""
""blur"",""5"",""63822""
","""event"",""trial"",""time""
""focus"",""3"",""27705""
""focus"",""5"",""66112""
","""event"",""trial"",""time""
""fullscreenenter"",""1"",""2506""
","""event"",""trial"",""time""
""fullscreenexit"",""5"",""62539""
","","","-1","","","10","12451","812","&#9761;","elianto","#3366ff99","-1","-1","1","0","[3309.3000000715256]","1","0","2","","","","","","","",""
"pit-trial","42","508203","0.0-2.0-11.0-4.0","battery-v0.2","","""event"",""trial"",""time""
""fullscreenenter"",""1"",""2506""
""blur"",""3"",""12072""
""focus"",""3"",""27705""
""fullscreenexit"",""5"",""62539""
""blur"",""5"",""63822""
""focus"",""5"",""66112""
","""event"",""trial"",""time""
""blur"",""3"",""12072""
""blur"",""5"",""63822""
","""event"",""trial"",""time""
""focus"",""3"",""27705""
""focus"",""5"",""66112""
","""event"",""trial"",""time""
""fullscreenenter"",""1"",""2506""
","""event"",""trial"",""time""
""fullscreenexit"",""5"",""62539""
","","","-1","","","10","12451","812","&#9761;","elianto","#3366ff99","-1","-1","1","+10","[3254.0999999046326,3982.2999999523163,4473,4733.299999952316]","4","0","2","","","","","","","",""
"pit-trial","43","511280","0.0-2.0-11.1-0.1","battery-v0.2","","""event"",""trial"",""time""
""fullscreenenter"",""1"",""2506""
""blur"",""3"",""12072""
""focus"",""3"",""27705""
""fullscreenexit"",""5"",""62539""
""blur"",""5"",""63822""
""focus"",""5"",""66112""
","""event"",""trial"",""time""
""blur"",""3"",""12072""
""blur"",""5"",""63822""
","""event"",""trial"",""time""
""focus"",""3"",""27705""
""focus"",""5"",""66112""
","""event"",""trial"",""time""
""fullscreenenter"",""1"",""2506""
","""event"",""trial"",""time""
""fullscreenexit"",""5"",""62539""
","","","203.30000007152557","","","10","12451","812","&#9761;","elianto","#3366ff99","-1"," ","0","0","[437.60000002384186,1063.1000000238419,1732.7000000476837,2931.5]","4","0","2","","","","","","","",""
"pit-trial","44","514440","0.0-2.0-11.1-1.1","battery-v0.2","","""event"",""trial"",""time""
""fullscreenenter"",""1"",""2506""
""blur"",""3"",""12072""
""focus"",""3"",""27705""
""fullscreenexit"",""5"",""62539""
""blur"",""5"",""63822""
""focus"",""5"",""66112""
","""event"",""trial"",""time""
""blur"",""3"",""12072""
""blur"",""5"",""63822""
","""event"",""trial"",""time""
""focus"",""3"",""27705""
""focus"",""5"",""66112""
","""event"",""trial"",""time""
""fullscreenenter"",""1"",""2506""
","""event"",""trial"",""time""
""fullscreenexit"",""5"",""62539""
","","","291.90000009536743","","","10","12451","812","&#9761;","elianto","#3366ff99","-1"," ","0","0","[517.2000000476837,1154.1000000238419,2389.7000000476837,2987.100000023842]","4","0","2","","","","","","","",""
"pit-trial","45","519306","0.0-2.0-11.1-2.1","battery-v0.2","","""event"",""trial"",""time""
""fullscreenenter"",""1"",""2506""
""blur"",""3"",""12072""
""focus"",""3"",""27705""
""fullscreenexit"",""5"",""62539""
""blur"",""5"",""63822""
""focus"",""5"",""66112""
","""event"",""trial"",""time""
""blur"",""3"",""12072""
""blur"",""5"",""63822""
","""event"",""trial"",""time""
""focus"",""3"",""27705""
""focus"",""5"",""66112""
","""event"",""trial"",""time""
""fullscreenenter"",""1"",""2506""
","""event"",""trial"",""time""
""fullscreenexit"",""5"",""62539""
","","","-1","","","10","12451","812","&#9761;","elianto","#3366ff99","-1","-1","1","+10","[]","0","0","2","","","","","","","",""
"pit-trial","46","524172","0.0-2.0-11.1-3.1","battery-v0.2","","""event"",""trial"",""time""
""fullscreenenter"",""1"",""2506""
""blur"",""3"",""12072""
""focus"",""3"",""27705""
""fullscreenexit"",""5"",""62539""
""blur"",""5"",""63822""
""focus"",""5"",""66112""
","""event"",""trial"",""time""
""blur"",""3"",""12072""
""blur"",""5"",""63822""
","""event"",""trial"",""time""
""focus"",""3"",""27705""
""focus"",""5"",""66112""
","""event"",""trial"",""time""
""fullscreenenter"",""1"",""2506""
","""event"",""trial"",""time""
""fullscreenexit"",""5"",""62539""
","","","-1","","","10","12451","812","&#9761;","elianto","#3366ff99","-1","-1","1","0","[]","0","0","2","","","","","","","",""
"pit-trial","47","529041","0.0-2.0-11.1-4.1","battery-v0.2","","""event"",""trial"",""time""
""fullscreenenter"",""1"",""2506""
""blur"",""3"",""12072""
""focus"",""3"",""27705""
""fullscreenexit"",""5"",""62539""
""blur"",""5"",""63822""
""focus"",""5"",""66112""
","""event"",""trial"",""time""
""blur"",""3"",""12072""
""blur"",""5"",""63822""
","""event"",""trial"",""time""
""focus"",""3"",""27705""
""focus"",""5"",""66112""
","""event"",""trial"",""time""
""fullscreenenter"",""1"",""2506""
","""event"",""trial"",""time""
""fullscreenexit"",""5"",""62539""
","","","-1","","","10","12451","812","&#9761;","elianto","#3366ff99","-1","-1","1","+10","[]","0","0","2","","","","","","","",""
"pit-trial","48","533909","0.0-2.0-11.2-0.2","battery-v0.2","","""event"",""trial"",""time""
""fullscreenenter"",""1"",""2506""
""blur"",""3"",""12072""
""focus"",""3"",""27705""
""fullscreenexit"",""5"",""62539""
""blur"",""5"",""63822""
""focus"",""5"",""66112""
","""event"",""trial"",""time""
""blur"",""3"",""12072""
""blur"",""5"",""63822""
","""event"",""trial"",""time""
""focus"",""3"",""27705""
""focus"",""5"",""66112""
","""event"",""trial"",""time""
""fullscreenenter"",""1"",""2506""
","""event"",""trial"",""time""
""fullscreenexit"",""5"",""62539""
","","","-1","","","10","12451","812","&#9761;","elianto","#3366ff99","-1","-1","1","+10","[]","0","0","2","","","","","","","",""
"pit-trial","49","538772","0.0-2.0-11.2-1.2","battery-v0.2","","""event"",""trial"",""time""
""fullscreenenter"",""1"",""2506""
""blur"",""3"",""12072""
""focus"",""3"",""27705""
""fullscreenexit"",""5"",""62539""
""blur"",""5"",""63822""
""focus"",""5"",""66112""
","""event"",""trial"",""time""
""blur"",""3"",""12072""
""blur"",""5"",""63822""
","""event"",""trial"",""time""
""focus"",""3"",""27705""
""focus"",""5"",""66112""
","""event"",""trial"",""time""
""fullscreenenter"",""1"",""2506""
","""event"",""trial"",""time""
""fullscreenexit"",""5"",""62539""
","","","-1","","","10","12451","812","&#9761;","elianto","#3366ff99","-1","-1","1","+10","[]","0","0","2","","","","","","","",""
"pit-trial","50","543643","0.0-2.0-11.2-2.2","battery-v0.2","","""event"",""trial"",""time""
""fullscreenenter"",""1"",""2506""
""blur"",""3"",""12072""
""focus"",""3"",""27705""
""fullscreenexit"",""5"",""62539""
""blur"",""5"",""63822""
""focus"",""5"",""66112""
","""event"",""trial"",""time""
""blur"",""3"",""12072""
""blur"",""5"",""63822""
","""event"",""trial"",""time""
""focus"",""3"",""27705""
""focus"",""5"",""66112""
","""event"",""trial"",""time""
""fullscreenenter"",""1"",""2506""
","""event"",""trial"",""time""
""fullscreenexit"",""5"",""62539""
","","","-1","","","10","12451","812","&#9761;","elianto","#3366ff99","-1","-1","1","+10","[]","0","0","2","","","","","","","",""
"pit-trial","51","548508","0.0-2.0-11.2-3.2","battery-v0.2","","""event"",""trial"",""time""
""fullscreenenter"",""1"",""2506""
""blur"",""3"",""12072""
""focus"",""3"",""27705""
""fullscreenexit"",""5"",""62539""
""blur"",""5"",""63822""
""focus"",""5"",""66112""
","""event"",""trial"",""time""
""blur"",""3"",""12072""
""blur"",""5"",""63822""
","""event"",""trial"",""time""
""focus"",""3"",""27705""
""focus"",""5"",""66112""
","""event"",""trial"",""time""
""fullscreenenter"",""1"",""2506""
","""event"",""trial"",""time""
""fullscreenexit"",""5"",""62539""
","","","-1","","","10","12451","812","&#9761;","elianto","#3366ff99","-1","-1","1","0","[]","0","0","2","","","","","","","",""
"pit-trial","52","553405","0.0-2.0-11.2-4.2","battery-v0.2","","""event"",""trial"",""time""
""fullscreenenter"",""1"",""2506""
""blur"",""3"",""12072""
""focus"",""3"",""27705""
""fullscreenexit"",""5"",""62539""
""blur"",""5"",""63822""
""focus"",""5"",""66112""
","""event"",""trial"",""time""
""blur"",""3"",""12072""
""blur"",""5"",""63822""
","""event"",""trial"",""time""
""focus"",""3"",""27705""
""focus"",""5"",""66112""
","""event"",""trial"",""time""
""fullscreenenter"",""1"",""2506""
","""event"",""trial"",""time""
""fullscreenexit"",""5"",""62539""
","","","-1","","","10","12451","812","&#9761;","elianto","#3366ff99","-1","-1","1","+10","[]","0","0","2","","","","","","","",""
"pit-trial","53","558272","0.0-2.0-11.3-0.3","battery-v0.2","","""event"",""trial"",""time""
""fullscreenenter"",""1"",""2506""
""blur"",""3"",""12072""
""focus"",""3"",""27705""
""fullscreenexit"",""5"",""62539""
""blur"",""5"",""63822""
""focus"",""5"",""66112""
","""event"",""trial"",""time""
""blur"",""3"",""12072""
""blur"",""5"",""63822""
","""event"",""trial"",""time""
""focus"",""3"",""27705""
""focus"",""5"",""66112""
","""event"",""trial"",""time""
""fullscreenenter"",""1"",""2506""
","""event"",""trial"",""time""
""fullscreenexit"",""5"",""62539""
","","","-1","","","10","12451","812","&#9761;","elianto","#3366ff99","-1","-1","1","+10","[]","0","0","2","","","","","","","",""
"pit-trial","54","563135","0.0-2.0-11.3-1.3","battery-v0.2","","""event"",""trial"",""time""
""fullscreenenter"",""1"",""2506""
""blur"",""3"",""12072""
""focus"",""3"",""27705""
""fullscreenexit"",""5"",""62539""
""blur"",""5"",""63822""
""focus"",""5"",""66112""
","""event"",""trial"",""time""
""blur"",""3"",""12072""
""blur"",""5"",""63822""
","""event"",""trial"",""time""
""focus"",""3"",""27705""
""focus"",""5"",""66112""
","""event"",""trial"",""time""
""fullscreenenter"",""1"",""2506""
","""event"",""trial"",""time""
""fullscreenexit"",""5"",""62539""
","","","-1","","","10","12451","812","&#9761;","elianto","#3366ff99","-1","-1","1","+10","[]","0","0","2","","","","","","","",""
"pit-trial","55","567997","0.0-2.0-11.3-2.3","battery-v0.2","","""event"",""trial"",""time""
""fullscreenenter"",""1"",""2506""
""blur"",""3"",""12072""
""focus"",""3"",""27705""
""fullscreenexit"",""5"",""62539""
""blur"",""5"",""63822""
""focus"",""5"",""66112""
","""event"",""trial"",""time""
""blur"",""3"",""12072""
""blur"",""5"",""63822""
","""event"",""trial"",""time""
""focus"",""3"",""27705""
""focus"",""5"",""66112""
","""event"",""trial"",""time""
""fullscreenenter"",""1"",""2506""
","""event"",""trial"",""time""
""fullscreenexit"",""5"",""62539""
","","","-1","","","10","12451","812","&#9761;","elianto","#3366ff99","-1","-1","1","+10","[]","0","0","2","","","","","","","",""
"pit-trial","56","572871","0.0-2.0-11.3-3.3","battery-v0.2","","""event"",""trial"",""time""
""fullscreenenter"",""1"",""2506""
""blur"",""3"",""12072""
""focus"",""3"",""27705""
""fullscreenexit"",""5"",""62539""
""blur"",""5"",""63822""
""focus"",""5"",""66112""
","""event"",""trial"",""time""
""blur"",""3"",""12072""
""blur"",""5"",""63822""
","""event"",""trial"",""time""
""focus"",""3"",""27705""
""focus"",""5"",""66112""
","""event"",""trial"",""time""
""fullscreenenter"",""1"",""2506""
","""event"",""trial"",""time""
""fullscreenexit"",""5"",""62539""
","","","-1","","","10","12451","812","&#9761;","elianto","#3366ff99","-1","-1","1","0","[]","0","0","2","","","","","","","",""
"pit-trial","57","577734","0.0-2.0-11.3-4.3","battery-v0.2","","""event"",""trial"",""time""
""fullscreenenter"",""1"",""2506""
""blur"",""3"",""12072""
""focus"",""3"",""27705""
""fullscreenexit"",""5"",""62539""
""blur"",""5"",""63822""
""focus"",""5"",""66112""
","""event"",""trial"",""time""
""blur"",""3"",""12072""
""blur"",""5"",""63822""
","""event"",""trial"",""time""
""focus"",""3"",""27705""
""focus"",""5"",""66112""
","""event"",""trial"",""time""
""fullscreenenter"",""1"",""2506""
","""event"",""trial"",""time""
""fullscreenexit"",""5"",""62539""
","","","-1","","","10","12451","812","&#9761;","elianto","#3366ff99","-1","-1","1","+10","[]","0","0","2","","","","","","","",""
"call-function","58","577735","0.0-2.0-12.0","battery-v0.2","","""event"",""trial"",""time""
""fullscreenenter"",""1"",""2506""
""blur"",""3"",""12072""
""focus"",""3"",""27705""
""fullscreenexit"",""5"",""62539""
""blur"",""5"",""63822""
""focus"",""5"",""66112""
","""event"",""trial"",""time""
""blur"",""3"",""12072""
""blur"",""5"",""63822""
","""event"",""trial"",""time""
""focus"",""3"",""27705""
""focus"",""5"",""66112""
","""event"",""trial"",""time""
""fullscreenenter"",""1"",""2506""
","""event"",""trial"",""time""
""fullscreenexit"",""5"",""62539""
","","","","","","","","","","","","","","","","","","","","","","","","","","",""
"pit-instructions","59","606835","0.0-2.0-13.0","battery-v0.2","","""event"",""trial"",""time""
""fullscreenenter"",""1"",""2506""
""blur"",""3"",""12072""
""focus"",""3"",""27705""
""fullscreenexit"",""5"",""62539""
""blur"",""5"",""63822""
""focus"",""5"",""66112""
","""event"",""trial"",""time""
""blur"",""3"",""12072""
""blur"",""5"",""63822""
","""event"",""trial"",""time""
""focus"",""3"",""27705""
""focus"",""5"",""66112""
","""event"",""trial"",""time""
""fullscreenenter"",""1"",""2506""
","""event"",""trial"",""time""
""fullscreenexit"",""5"",""62539""
","","[{""page_index"":0,""viewing_time"":4860.899999976158},{""page_index"":1,""viewing_time"":6184.600000023842},{""page_index"":2,""viewing_time"":3283.1999999284744},{""page_index"":3,""viewing_time"":10041.399999976158},{""page_index"":4,""viewing_time"":4728.5}]","29099.199999928474","","","","","","","","","","","","","","","","","","","","","","","",""
"pit-trial","60","610366","0.0-2.0-14.0-0.0","battery-v0.2","","""event"",""trial"",""time""
""fullscreenenter"",""1"",""2506""
""blur"",""3"",""12072""
""focus"",""3"",""27705""
""fullscreenexit"",""5"",""62539""
""blur"",""5"",""63822""
""focus"",""5"",""66112""
","""event"",""trial"",""time""
""blur"",""3"",""12072""
""blur"",""5"",""63822""
","""event"",""trial"",""time""
""focus"",""3"",""27705""
""focus"",""5"",""66112""
","""event"",""trial"",""time""
""fullscreenenter"",""1"",""2506""
","""event"",""trial"",""time""
""fullscreenexit"",""5"",""62539""
","","","662.5999999046326","","","10","12451","812","&#9826;","elianto","#f73b6a7A","-1"," ","0","-10","[233.10000002384186,1516.3000000715256]","2","0","3","","","","","","","",""
"pit-trial","61","615239","0.0-2.0-14.0-1.0","battery-v0.2","","""event"",""trial"",""time""
""fullscreenenter"",""1"",""2506""
""blur"",""3"",""12072""
""focus"",""3"",""27705""
""fullscreenexit"",""5"",""62539""
""blur"",""5"",""63822""
""focus"",""5"",""66112""
","""event"",""trial"",""time""
""blur"",""3"",""12072""
""blur"",""5"",""63822""
","""event"",""trial"",""time""
""focus"",""3"",""27705""
""focus"",""5"",""66112""
","""event"",""trial"",""time""
""fullscreenenter"",""1"",""2506""
","""event"",""trial"",""time""
""fullscreenexit"",""5"",""62539""
","","","-1","","","10","12451","812","&#9826;","elianto","#f73b6a7A","-1","-1","1","0","[]","0","0","3","","","","","","","",""
"pit-trial","62","620108","0.0-2.0-14.0-2.0","battery-v0.2","","""event"",""trial"",""time""
""fullscreenenter"",""1"",""2506""
""blur"",""3"",""12072""
""focus"",""3"",""27705""
""fullscreenexit"",""5"",""62539""
""blur"",""5"",""63822""
""focus"",""5"",""66112""
","""event"",""trial"",""time""
""blur"",""3"",""12072""
""blur"",""5"",""63822""
","""event"",""trial"",""time""
""focus"",""3"",""27705""
""focus"",""5"",""66112""
","""event"",""trial"",""time""
""fullscreenenter"",""1"",""2506""
","""event"",""trial"",""time""
""fullscreenexit"",""5"",""62539""
","","","-1","","","10","12451","812","&#9826;","elianto","#f73b6a7A","-1","-1","1","0","[]","0","0","3","","","","","","","",""
"pit-trial","63","624975","0.0-2.0-14.0-3.0","battery-v0.2","","""event"",""trial"",""time""
""fullscreenenter"",""1"",""2506""
""blur"",""3"",""12072""
""focus"",""3"",""27705""
""fullscreenexit"",""5"",""62539""
""blur"",""5"",""63822""
""focus"",""5"",""66112""
","""event"",""trial"",""time""
""blur"",""3"",""12072""
""blur"",""5"",""63822""
","""event"",""trial"",""time""
""focus"",""3"",""27705""
""focus"",""5"",""66112""
","""event"",""trial"",""time""
""fullscreenenter"",""1"",""2506""
","""event"",""trial"",""time""
""fullscreenexit"",""5"",""62539""
","","","-1","","","10","12451","812","&#9826;","elianto","#f73b6a7A","-1","-1","1","-10","[]","0","0","3","","","","","","","",""
"pit-trial","64","629841","0.0-2.0-14.0-4.0","battery-v0.2","","""event"",""trial"",""time""
""fullscreenenter"",""1"",""2506""
""blur"",""3"",""12072""
""focus"",""3"",""27705""
""fullscreenexit"",""5"",""62539""
""blur"",""5"",""63822""
""focus"",""5"",""66112""
","""event"",""trial"",""time""
""blur"",""3"",""12072""
""blur"",""5"",""63822""
","""event"",""trial"",""time""
""focus"",""3"",""27705""
""focus"",""5"",""66112""
","""event"",""trial"",""time""
""fullscreenenter"",""1"",""2506""
","""event"",""trial"",""time""
""fullscreenexit"",""5"",""62539""
","","","-1","","","10","12451","812","&#9826;","elianto","#f73b6a7A","-1","-1","1","0","[]","0","0","3","","","","","","","",""
"pit-trial","65","634715","0.0-2.0-14.1-0.1","battery-v0.2","","""event"",""trial"",""time""
""fullscreenenter"",""1"",""2506""
""blur"",""3"",""12072""
""focus"",""3"",""27705""
""fullscreenexit"",""5"",""62539""
""blur"",""5"",""63822""
""focus"",""5"",""66112""
","""event"",""trial"",""time""
""blur"",""3"",""12072""
""blur"",""5"",""63822""
","""event"",""trial"",""time""
""focus"",""3"",""27705""
""focus"",""5"",""66112""
","""event"",""trial"",""time""
""fullscreenenter"",""1"",""2506""
","""event"",""trial"",""time""
""fullscreenexit"",""5"",""62539""
","","","-1","","","10","12451","812","&#9826;","elianto","#f73b6a7A","-1","-1","1","0","[]","0","0","3","","","","","","","",""
"pit-trial","66","639586","0.0-2.0-14.1-1.1","battery-v0.2","","""event"",""trial"",""time""
""fullscreenenter"",""1"",""2506""
""blur"",""3"",""12072""
""focus"",""3"",""27705""
""fullscreenexit"",""5"",""62539""
""blur"",""5"",""63822""
""focus"",""5"",""66112""
","""event"",""trial"",""time""
""blur"",""3"",""12072""
""blur"",""5"",""63822""
","""event"",""trial"",""time""
""focus"",""3"",""27705""
""focus"",""5"",""66112""
","""event"",""trial"",""time""
""fullscreenenter"",""1"",""2506""
","""event"",""trial"",""time""
""fullscreenexit"",""5"",""62539""
","","","-1","","","10","12451","812","&#9826;","elianto","#f73b6a7A","-1","-1","1","0","[]","0","0","3","","","","","","","",""
"pit-trial","67","644452","0.0-2.0-14.1-2.1","battery-v0.2","","""event"",""trial"",""time""
""fullscreenenter"",""1"",""2506""
""blur"",""3"",""12072""
""focus"",""3"",""27705""
""fullscreenexit"",""5"",""62539""
""blur"",""5"",""63822""
""focus"",""5"",""66112""
","""event"",""trial"",""time""
""blur"",""3"",""12072""
""blur"",""5"",""63822""
","""event"",""trial"",""time""
""focus"",""3"",""27705""
""focus"",""5"",""66112""
","""event"",""trial"",""time""
""fullscreenenter"",""1"",""2506""
","""event"",""trial"",""time""
""fullscreenexit"",""5"",""62539""
","","","-1","","","10","12451","812","&#9826;","elianto","#f73b6a7A","-1","-1","1","0","[]","0","0","3","","","","","","","",""
"pit-trial","68","649312","0.0-2.0-14.1-3.1","battery-v0.2","","""event"",""trial"",""time""
""fullscreenenter"",""1"",""2506""
""blur"",""3"",""12072""
""focus"",""3"",""27705""
""fullscreenexit"",""5"",""62539""
""blur"",""5"",""63822""
""focus"",""5"",""66112""
","""event"",""trial"",""time""
""blur"",""3"",""12072""
""blur"",""5"",""63822""
","""event"",""trial"",""time""
""focus"",""3"",""27705""
""focus"",""5"",""66112""
","""event"",""trial"",""time""
""fullscreenenter"",""1"",""2506""
","""event"",""trial"",""time""
""fullscreenexit"",""5"",""62539""
","","","-1","","","10","12451","812","&#9826;","elianto","#f73b6a7A","-1","-1","1","-10","[681.3999999761581]","1","0","3","","","","","","","",""
"pit-trial","69","654172","0.0-2.0-14.1-4.1","battery-v0.2","","""event"",""trial"",""time""
""fullscreenenter"",""1"",""2506""
""blur"",""3"",""12072""
""focus"",""3"",""27705""
""fullscreenexit"",""5"",""62539""
""blur"",""5"",""63822""
""focus"",""5"",""66112""
","""event"",""trial"",""time""
""blur"",""3"",""12072""
""blur"",""5"",""63822""
","""event"",""trial"",""time""
""focus"",""3"",""27705""
""focus"",""5"",""66112""
","""event"",""trial"",""time""
""fullscreenenter"",""1"",""2506""
","""event"",""trial"",""time""
""fullscreenexit"",""5"",""62539""
","","","-1","","","10","12451","812","&#9826;","elianto","#f73b6a7A","-1","-1","1","0","[213.89999997615814]","1","0","3","","","","","","","",""
"pit-trial","70","659042","0.0-2.0-14.2-0.2","battery-v0.2","","""event"",""trial"",""time""
""fullscreenenter"",""1"",""2506""
""blur"",""3"",""12072""
""focus"",""3"",""27705""
""fullscreenexit"",""5"",""62539""
""blur"",""5"",""63822""
""focus"",""5"",""66112""
","""event"",""trial"",""time""
""blur"",""3"",""12072""
""blur"",""5"",""63822""
","""event"",""trial"",""time""
""focus"",""3"",""27705""
""focus"",""5"",""66112""
","""event"",""trial"",""time""
""fullscreenenter"",""1"",""2506""
","""event"",""trial"",""time""
""fullscreenexit"",""5"",""62539""
","","","-1","","","10","12451","812","&#9826;","elianto","#f73b6a7A","-1","-1","1","0","[]","0","0","3","","","","","","","",""
"pit-trial","71","663900","0.0-2.0-14.2-1.2","battery-v0.2","","""event"",""trial"",""time""
""fullscreenenter"",""1"",""2506""
""blur"",""3"",""12072""
""focus"",""3"",""27705""
""fullscreenexit"",""5"",""62539""
""blur"",""5"",""63822""
""focus"",""5"",""66112""
","""event"",""trial"",""time""
""blur"",""3"",""12072""
""blur"",""5"",""63822""
","""event"",""trial"",""time""
""focus"",""3"",""27705""
""focus"",""5"",""66112""
","""event"",""trial"",""time""
""fullscreenenter"",""1"",""2506""
","""event"",""trial"",""time""
""fullscreenexit"",""5"",""62539""
","","","-1","","","10","12451","812","&#9826;","elianto","#f73b6a7A","-1","-1","1","0","[]","0","0","3","","","","","","","",""
"pit-trial","72","668762","0.0-2.0-14.2-2.2","battery-v0.2","","""event"",""trial"",""time""
""fullscreenenter"",""1"",""2506""
""blur"",""3"",""12072""
""focus"",""3"",""27705""
""fullscreenexit"",""5"",""62539""
""blur"",""5"",""63822""
""focus"",""5"",""66112""
","""event"",""trial"",""time""
""blur"",""3"",""12072""
""blur"",""5"",""63822""
","""event"",""trial"",""time""
""focus"",""3"",""27705""
""focus"",""5"",""66112""
","""event"",""trial"",""time""
""fullscreenenter"",""1"",""2506""
","""event"",""trial"",""time""
""fullscreenexit"",""5"",""62539""
","","","-1","","","10","12451","812","&#9826;","elianto","#f73b6a7A","-1","-1","1","0","[]","0","0","3","","","","","","","",""
"pit-trial","73","673635","0.0-2.0-14.2-3.2","battery-v0.2","","""event"",""trial"",""time""
""fullscreenenter"",""1"",""2506""
""blur"",""3"",""12072""
""focus"",""3"",""27705""
""fullscreenexit"",""5"",""62539""
""blur"",""5"",""63822""
""focus"",""5"",""66112""
","""event"",""trial"",""time""
""blur"",""3"",""12072""
""blur"",""5"",""63822""
","""event"",""trial"",""time""
""focus"",""3"",""27705""
""focus"",""5"",""66112""
","""event"",""trial"",""time""
""fullscreenenter"",""1"",""2506""
","""event"",""trial"",""time""
""fullscreenexit"",""5"",""62539""
","","","-1","","","10","12451","812","&#9826;","elianto","#f73b6a7A","-1","-1","1","-10","[]","0","0","3","","","","","","","",""
"pit-trial","74","678499","0.0-2.0-14.2-4.2","battery-v0.2","","""event"",""trial"",""time""
""fullscreenenter"",""1"",""2506""
""blur"",""3"",""12072""
""focus"",""3"",""27705""
""fullscreenexit"",""5"",""62539""
""blur"",""5"",""63822""
""focus"",""5"",""66112""
","""event"",""trial"",""time""
""blur"",""3"",""12072""
""blur"",""5"",""63822""
","""event"",""trial"",""time""
""focus"",""3"",""27705""
""focus"",""5"",""66112""
","""event"",""trial"",""time""
""fullscreenenter"",""1"",""2506""
","""event"",""trial"",""time""
""fullscreenexit"",""5"",""62539""
","","","-1","","","10","12451","812","&#9826;","elianto","#f73b6a7A","-1","-1","1","0","[]","0","0","3","","","","","","","",""
"pit-trial","75","683362","0.0-2.0-14.3-0.3","battery-v0.2","","""event"",""trial"",""time""
""fullscreenenter"",""1"",""2506""
""blur"",""3"",""12072""
""focus"",""3"",""27705""
""fullscreenexit"",""5"",""62539""
""blur"",""5"",""63822""
""focus"",""5"",""66112""
","""event"",""trial"",""time""
""blur"",""3"",""12072""
""blur"",""5"",""63822""
","""event"",""trial"",""time""
""focus"",""3"",""27705""
""focus"",""5"",""66112""
","""event"",""trial"",""time""
""fullscreenenter"",""1"",""2506""
","""event"",""trial"",""time""
""fullscreenexit"",""5"",""62539""
","","","-1","","","10","12451","812","&#9826;","elianto","#f73b6a7A","-1","-1","1","0","[]","0","0","3","","","","","","","",""
"pit-trial","76","688218","0.0-2.0-14.3-1.3","battery-v0.2","","""event"",""trial"",""time""
""fullscreenenter"",""1"",""2506""
""blur"",""3"",""12072""
""focus"",""3"",""27705""
""fullscreenexit"",""5"",""62539""
""blur"",""5"",""63822""
""focus"",""5"",""66112""
","""event"",""trial"",""time""
""blur"",""3"",""12072""
""blur"",""5"",""63822""
","""event"",""trial"",""time""
""focus"",""3"",""27705""
""focus"",""5"",""66112""
","""event"",""trial"",""time""
""fullscreenenter"",""1"",""2506""
","""event"",""trial"",""time""
""fullscreenexit"",""5"",""62539""
","","","-1","","","10","12451","812","&#9826;","elianto","#f73b6a7A","-1","-1","1","0","[]","0","0","3","","","","","","","",""
"pit-trial","77","693091","0.0-2.0-14.3-2.3","battery-v0.2","","""event"",""trial"",""time""
""fullscreenenter"",""1"",""2506""
""blur"",""3"",""12072""
""focus"",""3"",""27705""
""fullscreenexit"",""5"",""62539""
""blur"",""5"",""63822""
""focus"",""5"",""66112""
","""event"",""trial"",""time""
""blur"",""3"",""12072""
""blur"",""5"",""63822""
","""event"",""trial"",""time""
""focus"",""3"",""27705""
""focus"",""5"",""66112""
","""event"",""trial"",""time""
""fullscreenenter"",""1"",""2506""
","""event"",""trial"",""time""
""fullscreenexit"",""5"",""62539""
","","","-1","","","10","12451","812","&#9826;","elianto","#f73b6a7A","-1","-1","1","0","[]","0","0","3","","","","","","","",""
"pit-trial","78","697951","0.0-2.0-14.3-3.3","battery-v0.2","","""event"",""trial"",""time""
""fullscreenenter"",""1"",""2506""
""blur"",""3"",""12072""
""focus"",""3"",""27705""
""fullscreenexit"",""5"",""62539""
""blur"",""5"",""63822""
""focus"",""5"",""66112""
","""event"",""trial"",""time""
""blur"",""3"",""12072""
""blur"",""5"",""63822""
","""event"",""trial"",""time""
""focus"",""3"",""27705""
""focus"",""5"",""66112""
","""event"",""trial"",""time""
""fullscreenenter"",""1"",""2506""
","""event"",""trial"",""time""
""fullscreenexit"",""5"",""62539""
","","","-1","","","10","12451","812","&#9826;","elianto","#f73b6a7A","-1","-1","1","-10","[]","0","0","3","","","","","","","",""
"pit-trial","79","702814","0.0-2.0-14.3-4.3","battery-v0.2","","""event"",""trial"",""time""
""fullscreenenter"",""1"",""2506""
""blur"",""3"",""12072""
""focus"",""3"",""27705""
""fullscreenexit"",""5"",""62539""
""blur"",""5"",""63822""
""focus"",""5"",""66112""
","""event"",""trial"",""time""
""blur"",""3"",""12072""
""blur"",""5"",""63822""
","""event"",""trial"",""time""
""focus"",""3"",""27705""
""focus"",""5"",""66112""
","""event"",""trial"",""time""
""fullscreenenter"",""1"",""2506""
","""event"",""trial"",""time""
""fullscreenexit"",""5"",""62539""
","","","-1","","","10","12451","812","&#9826;","elianto","#f73b6a7A","-1","-1","1","0","[]","0","0","3","","","","","","","",""
"call-function","80","702818","0.0-2.0-15.0","battery-v0.2","","""event"",""trial"",""time""
""fullscreenenter"",""1"",""2506""
""blur"",""3"",""12072""
""focus"",""3"",""27705""
""fullscreenexit"",""5"",""62539""
""blur"",""5"",""63822""
""focus"",""5"",""66112""
","""event"",""trial"",""time""
""blur"",""3"",""12072""
""blur"",""5"",""63822""
","""event"",""trial"",""time""
""focus"",""3"",""27705""
""focus"",""5"",""66112""
","""event"",""trial"",""time""
""fullscreenenter"",""1"",""2506""
","""event"",""trial"",""time""
""fullscreenexit"",""5"",""62539""
","","","","","","","","","","","","","","","","","","","","","","","","","","",""
"pit-instructions","81","726114","0.0-2.0-16.0","battery-v0.2","","""event"",""trial"",""time""
""fullscreenenter"",""1"",""2506""
""blur"",""3"",""12072""
""focus"",""3"",""27705""
""fullscreenexit"",""5"",""62539""
""blur"",""5"",""63822""
""focus"",""5"",""66112""
","""event"",""trial"",""time""
""blur"",""3"",""12072""
""blur"",""5"",""63822""
","""event"",""trial"",""time""
""focus"",""3"",""27705""
""focus"",""5"",""66112""
","""event"",""trial"",""time""
""fullscreenenter"",""1"",""2506""
","""event"",""trial"",""time""
""fullscreenexit"",""5"",""62539""
","","[{""page_index"":0,""viewing_time"":6700.799999952316},{""page_index"":1,""viewing_time"":8196.5},{""page_index"":2,""viewing_time"":4114.899999976158},{""page_index"":3,""viewing_time"":4280.200000047684}]","23292.899999976158","","","","","","","","","","","","","","","","","","","","","","","",""
"pit-trial","82","729370","0.0-2.0-17.0-0.0","battery-v0.2","","""event"",""trial"",""time""
""fullscreenenter"",""1"",""2506""
""blur"",""3"",""12072""
""focus"",""3"",""27705""
""fullscreenexit"",""5"",""62539""
""blur"",""5"",""63822""
""focus"",""5"",""66112""
","""event"",""trial"",""time""
""blur"",""3"",""12072""
""blur"",""5"",""63822""
","""event"",""trial"",""time""
""focus"",""3"",""27705""
""focus"",""5"",""66112""
","""event"",""trial"",""time""
""fullscreenenter"",""1"",""2506""
","""event"",""trial"",""time""
""fullscreenexit"",""5"",""62539""
","","","391.1999999284744","","","10","12451","812","&#9789;","elianto","#f73b6a7A"," "," ","1","0","[1243.5999999046326,2785.899999976158]","2","0","4","","","","","","","",""
"pit-trial","83","732444","0.0-2.0-17.0-1.0","battery-v0.2","","""event"",""trial"",""time""
""fullscreenenter"",""1"",""2506""
""blur"",""3"",""12072""
""focus"",""3"",""27705""
""fullscreenexit"",""5"",""62539""
""blur"",""5"",""63822""
""focus"",""5"",""66112""
","""event"",""trial"",""time""
""blur"",""3"",""12072""
""blur"",""5"",""63822""
","""event"",""trial"",""time""
""focus"",""3"",""27705""
""focus"",""5"",""66112""
","""event"",""trial"",""time""
""fullscreenenter"",""1"",""2506""
","""event"",""trial"",""time""
""fullscreenexit"",""5"",""62539""
","","","207.5","","","10","12451","812","&#9789;","elianto","#f73b6a7A"," "," ","1","0","[1064.2000000476837]","1","0","4","","","","","","","",""
"pit-trial","84","735829","0.0-2.0-17.0-2.0","battery-v0.2","","""event"",""trial"",""time""
""fullscreenenter"",""1"",""2506""
""blur"",""3"",""12072""
""focus"",""3"",""27705""
""fullscreenexit"",""5"",""62539""
""blur"",""5"",""63822""
""focus"",""5"",""66112""
","""event"",""trial"",""time""
""blur"",""3"",""12072""
""blur"",""5"",""63822""
","""event"",""trial"",""time""
""focus"",""3"",""27705""
""focus"",""5"",""66112""
","""event"",""trial"",""time""
""fullscreenenter"",""1"",""2506""
","""event"",""trial"",""time""
""fullscreenexit"",""5"",""62539""
","","","516.5","","","10","12451","812","&#9789;","elianto","#f73b6a7A"," "," ","1","0","[1367.6000000238419]","1","0","4","","","","","","","",""
"pit-trial","85","738808","0.0-2.0-17.0-3.0","battery-v0.2","","""event"",""trial"",""time""
""fullscreenenter"",""1"",""2506""
""blur"",""3"",""12072""
""focus"",""3"",""27705""
""fullscreenexit"",""5"",""62539""
""blur"",""5"",""63822""
""focus"",""5"",""66112""
","""event"",""trial"",""time""
""blur"",""3"",""12072""
""blur"",""5"",""63822""
","""event"",""trial"",""time""
""focus"",""3"",""27705""
""focus"",""5"",""66112""
","""event"",""trial"",""time""
""fullscreenenter"",""1"",""2506""
","""event"",""trial"",""time""
""fullscreenexit"",""5"",""62539""
","","","109.20000004768372","","","10","12451","812","&#9789;","elianto","#f73b6a7A"," "," ","1","-10","[965.7000000476837]","1","0","4","","","","","","","",""
"pit-trial","86","741847","0.0-2.0-17.0-4.0","battery-v0.2","","""event"",""trial"",""time""
""fullscreenenter"",""1"",""2506""
""blur"",""3"",""12072""
""focus"",""3"",""27705""
""fullscreenexit"",""5"",""62539""
""blur"",""5"",""63822""
""focus"",""5"",""66112""
","""event"",""trial"",""time""
""blur"",""3"",""12072""
""blur"",""5"",""63822""
","""event"",""trial"",""time""
""focus"",""3"",""27705""
""focus"",""5"",""66112""
","""event"",""trial"",""time""
""fullscreenenter"",""1"",""2506""
","""event"",""trial"",""time""
""fullscreenexit"",""5"",""62539""
","","","165.79999995231628","","","10","12451","812","&#9789;","elianto","#f73b6a7A"," "," ","1","0","[1020.5999999046326]","1","0","4","","","","","","","",""
"pit-trial","87","744985","0.0-2.0-17.1-0.1","battery-v0.2","","""event"",""trial"",""time""
""fullscreenenter"",""1"",""2506""
""blur"",""3"",""12072""
""focus"",""3"",""27705""
""fullscreenexit"",""5"",""62539""
""blur"",""5"",""63822""
""focus"",""5"",""66112""
","""event"",""trial"",""time""
""blur"",""3"",""12072""
""blur"",""5"",""63822""
","""event"",""trial"",""time""
""focus"",""3"",""27705""
""focus"",""5"",""66112""
","""event"",""trial"",""time""
""fullscreenenter"",""1"",""2506""
","""event"",""trial"",""time""
""fullscreenexit"",""5"",""62539""
","","","278","","","10","12451","812","&#9789;","elianto","#f73b6a7A"," "," ","1","0","[1128.2000000476837]","1","0","4","","","","","","","",""
"pit-trial","88","747847","0.0-2.0-17.1-1.1","battery-v0.2","","""event"",""trial"",""time""
""fullscreenenter"",""1"",""2506""
""blur"",""3"",""12072""
""focus"",""3"",""27705""
""fullscreenexit"",""5"",""62539""
""blur"",""5"",""63822""
""focus"",""5"",""66112""
","""event"",""trial"",""time""
""blur"",""3"",""12072""
""blur"",""5"",""63822""
","""event"",""trial"",""time""
""focus"",""3"",""27705""
""focus"",""5"",""66112""
","""event"",""trial"",""time""
""fullscreenenter"",""1"",""2506""
","""event"",""trial"",""time""
""fullscreenexit"",""5"",""62539""
","","","3.200000047683716","","","10","12451","812","&#9789;","elianto","#f73b6a7A"," "," ","1","0","[854.7999999523163,1354.5]","2","0","4","","","","","","","",""
"pit-trial","89","750936","0.0-2.0-17.1-2.1","battery-v0.2","","""event"",""trial"",""time""
""fullscreenenter"",""1"",""2506""
""blur"",""3"",""12072""
""focus"",""3"",""27705""
""fullscreenexit"",""5"",""62539""
""blur"",""5"",""63822""
""focus"",""5"",""66112""
","""event"",""trial"",""time""
""blur"",""3"",""12072""
""blur"",""5"",""63822""
","""event"",""trial"",""time""
""focus"",""3"",""27705""
""focus"",""5"",""66112""
","""event"",""trial"",""time""
""fullscreenenter"",""1"",""2506""
","""event"",""trial"",""time""
""fullscreenexit"",""5"",""62539""
","","","215.40000009536743","","","10","12451","812","&#9789;","elianto","#f73b6a7A"," "," ","1","0","[728.5,1070.1000000238419,1564.1000000238419,1878.6000000238419,2188.6999999284744,2394,2631.600000023842,2862.5]","8","0","4","","","","","","","",""
"pit-trial","90","754058","0.0-2.0-17.1-3.1","battery-v0.2","","""event"",""trial"",""time""
""fullscreenenter"",""1"",""2506""
""blur"",""3"",""12072""
""focus"",""3"",""27705""
""fullscreenexit"",""5"",""62539""
""blur"",""5"",""63822""
""focus"",""5"",""66112""
","""event"",""trial"",""time""
""blur"",""3"",""12072""
""blur"",""5"",""63822""
","""event"",""trial"",""time""
""focus"",""3"",""27705""
""focus"",""5"",""66112""
","""event"",""trial"",""time""
""fullscreenenter"",""1"",""2506""
","""event"",""trial"",""time""
""fullscreenexit"",""5"",""62539""
","","","258.8000000715256","","","10","12451","812","&#9789;","elianto","#f73b6a7A"," "," ","1","-10","[72.69999992847443,331.2999999523163,564.1999999284744,844.5,1109.5,1383.7999999523163,2002.8999999761581,3097.600000023842]","8","0","4","","","","","","","",""
"pit-trial","91","756983","0.0-2.0-17.1-4.1","battery-v0.2","","""event"",""trial"",""time""
""fullscreenenter"",""1"",""2506""
""blur"",""3"",""12072""
""focus"",""3"",""27705""
""fullscreenexit"",""5"",""62539""
""blur"",""5"",""63822""
""focus"",""5"",""66112""
","""event"",""trial"",""time""
""blur"",""3"",""12072""
""blur"",""5"",""63822""
","""event"",""trial"",""time""
""focus"",""3"",""27705""
""focus"",""5"",""66112""
","""event"",""trial"",""time""
""fullscreenenter"",""1"",""2506""
","""event"",""trial"",""time""
""fullscreenexit"",""5"",""62539""
","","","69.79999995231628","","","10","12451","812","&#9789;","elianto","#f73b6a7A"," "," ","1","0","[243.10000002384186,492.39999997615814,722.8999999761581,920.2999999523163,1157.1000000238419,1538,1760.6999999284744,2172.399999976158,2670.600000023842]","9","0","4","","","","","","","",""
"pit-trial","92","760243","0.0-2.0-17.2-0.2","battery-v0.2","","""event"",""trial"",""time""
""fullscreenenter"",""1"",""2506""
""blur"",""3"",""12072""
""focus"",""3"",""27705""
""fullscreenexit"",""5"",""62539""
""blur"",""5"",""63822""
""focus"",""5"",""66112""
","""event"",""trial"",""time""
""blur"",""3"",""12072""
""blur"",""5"",""63822""
","""event"",""trial"",""time""
""focus"",""3"",""27705""
""focus"",""5"",""66112""
","""event"",""trial"",""time""
""fullscreenenter"",""1"",""2506""
","""event"",""trial"",""time""
""fullscreenexit"",""5"",""62539""
","","","389.39999997615814","","","10","12451","812","&#9789;","elianto","#f73b6a7A"," "," ","1","0","[195.60000002384186,821.2999999523163,1247.1999999284744,1560.8999999761581,1918.1999999284744,2508.899999976158,3064.600000023842]","7","0","4","","","","","","","",""
"pit-trial","93","763315","0.0-2.0-17.2-1.2","battery-v0.2","","""event"",""trial"",""time""
""fullscreenenter"",""1"",""2506""
""blur"",""3"",""12072""
""focus"",""3"",""27705""
""fullscreenexit"",""5"",""62539""
""blur"",""5"",""63822""
""focus"",""5"",""66112""
","""event"",""trial"",""time""
""blur"",""3"",""12072""
""blur"",""5"",""63822""
","""event"",""trial"",""time""
""focus"",""3"",""27705""
""focus"",""5"",""66112""
","""event"",""trial"",""time""
""fullscreenenter"",""1"",""2506""
","""event"",""trial"",""time""
""fullscreenexit"",""5"",""62539""
","","","215.39999997615814","","","10","12451","812","&#9789;","elianto","#f73b6a7A"," "," ","1","0","[473.89999997615814,1066.7000000476837,1739,2461.2999999523163,2963.5]","5","0","4","","","","","","","",""
"pit-trial","94","766322","0.0-2.0-17.2-2.2","battery-v0.2","","""event"",""trial"",""time""
""fullscreenenter"",""1"",""2506""
""blur"",""3"",""12072""
""focus"",""3"",""27705""
""fullscreenexit"",""5"",""62539""
""blur"",""5"",""63822""
""focus"",""5"",""66112""
","""event"",""trial"",""time""
""blur"",""3"",""12072""
""blur"",""5"",""63822""
","""event"",""trial"",""time""
""focus"",""3"",""27705""
""focus"",""5"",""66112""
","""event"",""trial"",""time""
""fullscreenenter"",""1"",""2506""
","""event"",""trial"",""time""
""fullscreenexit"",""5"",""62539""
","","","154.70000004768372","","","10","12451","812","&#9789;","elianto","#f73b6a7A"," "," ","1","0","[484.89999997615814,1004.8999999761581,1645.3999999761581,2259.6999999284744,2857.600000023842]","5","0","4","","","","","","","",""
"pit-trial","95","770071","0.0-2.0-17.2-3.2","battery-v0.2","","""event"",""trial"",""time""
""fullscreenenter"",""1"",""2506""
""blur"",""3"",""12072""
""focus"",""3"",""27705""
""fullscreenexit"",""5"",""62539""
""blur"",""5"",""63822""
""focus"",""5"",""66112""
","""event"",""trial"",""time""
""blur"",""3"",""12072""
""blur"",""5"",""63822""
","""event"",""trial"",""time""
""focus"",""3"",""27705""
""focus"",""5"",""66112""
","""event"",""trial"",""time""
""fullscreenenter"",""1"",""2506""
","""event"",""trial"",""time""
""fullscreenexit"",""5"",""62539""
","","","882.7999999523163","","","10","12451","812","&#9789;","elianto","#f73b6a7A"," "," ","1","-10","[478.3000000715256,829.9000000953674,1740.5,2497.8000000715256,3376.9000000953674]","5","0","4","","","","","","","",""
"pit-trial","96","773144","0.0-2.0-17.2-4.2","battery-v0.2","","""event"",""trial"",""time""
""fullscreenenter"",""1"",""2506""
""blur"",""3"",""12072""
""focus"",""3"",""27705""
""fullscreenexit"",""5"",""62539""
""blur"",""5"",""63822""
""focus"",""5"",""66112""
","""event"",""trial"",""time""
""blur"",""3"",""12072""
""blur"",""5"",""63822""
","""event"",""trial"",""time""
""focus"",""3"",""27705""
""focus"",""5"",""66112""
","""event"",""trial"",""time""
""fullscreenenter"",""1"",""2506""
","""event"",""trial"",""time""
""fullscreenexit"",""5"",""62539""
","","","212.80000007152557","","","10","12451","812","&#9789;","elianto","#f73b6a7A"," "," ","1","0","[64.60000002384186,554.1000000238419,1066.6000000238419,1637,2251.2000000476837,2781.2000000476837]","6","0","4","","","","","","","",""
"pit-trial","97","776480","0.0-2.0-17.3-0.3","battery-v0.2","","""event"",""trial"",""time""
""fullscreenenter"",""1"",""2506""
""blur"",""3"",""12072""
""focus"",""3"",""27705""
""fullscreenexit"",""5"",""62539""
""blur"",""5"",""63822""
""focus"",""5"",""66112""
","""event"",""trial"",""time""
""blur"",""3"",""12072""
""blur"",""5"",""63822""
","""event"",""trial"",""time""
""focus"",""3"",""27705""
""focus"",""5"",""66112""
","""event"",""trial"",""time""
""fullscreenenter"",""1"",""2506""
","""event"",""trial"",""time""
""fullscreenexit"",""5"",""62539""
","","","471","","","10","12451","812","&#9789;","elianto","#f73b6a7A"," "," ","1","0","[249.19999992847443,803.3999999761581,1321.3999999761581,1885.5999999046326,2395.7999999523163,2855.5999999046326,3221.6999999284744]","7","0","4","","","","","","","",""
"pit-trial","98","779675","0.0-2.0-17.3-1.3","battery-v0.2","","""event"",""trial"",""time""
""fullscreenenter"",""1"",""2506""
""blur"",""3"",""12072""
""focus"",""3"",""27705""
""fullscreenexit"",""5"",""62539""
""blur"",""5"",""63822""
""focus"",""5"",""66112""
","""event"",""trial"",""time""
""blur"",""3"",""12072""
""blur"",""5"",""63822""
","""event"",""trial"",""time""
""focus"",""3"",""27705""
""focus"",""5"",""66112""
","""event"",""trial"",""time""
""fullscreenenter"",""1"",""2506""
","""event"",""trial"",""time""
""fullscreenexit"",""5"",""62539""
","","","329.89999997615814","","","10","12451","812","&#9789;","elianto","#f73b6a7A"," "," ","1","0","[437.59999990463257,842.2999999523163,1182.6999999284744,2440.5999999046326]","4","0","4","","","","","","","",""
"pit-trial","99","783673","0.0-2.0-17.3-2.3","battery-v0.2","","""event"",""trial"",""time""
""fullscreenenter"",""1"",""2506""
""blur"",""3"",""12072""
""focus"",""3"",""27705""
""fullscreenexit"",""5"",""62539""
""blur"",""5"",""63822""
""focus"",""5"",""66112""
","""event"",""trial"",""time""
""blur"",""3"",""12072""
""blur"",""5"",""63822""
","""event"",""trial"",""time""
""focus"",""3"",""27705""
""focus"",""5"",""66112""
","""event"",""trial"",""time""
""fullscreenenter"",""1"",""2506""
","""event"",""trial"",""time""
""fullscreenexit"",""5"",""62539""
","","","1136","","","10","12451","812","&#9789;","elianto","#f73b6a7A"," "," ","1","0","[1989.8999999761581]","1","0","4","","","","","","","",""
"pit-trial","100","788533","0.0-2.0-17.3-3.3","battery-v0.2","","""event"",""trial"",""time""
""fullscreenenter"",""1"",""2506""
""blur"",""3"",""12072""
""focus"",""3"",""27705""
""fullscreenexit"",""5"",""62539""
""blur"",""5"",""63822""
""focus"",""5"",""66112""
","""event"",""trial"",""time""
""blur"",""3"",""12072""
""blur"",""5"",""63822""
","""event"",""trial"",""time""
""focus"",""3"",""27705""
""focus"",""5"",""66112""
","""event"",""trial"",""time""
""fullscreenenter"",""1"",""2506""
","""event"",""trial"",""time""
""fullscreenexit"",""5"",""62539""
","","","-1","","","10","12451","812","&#9789;","elianto","#f73b6a7A"," ","-1","0","0","[3008.100000023842]","1","0","4","","","","","","","",""
"pit-trial","101","791666","0.0-2.0-17.3-4.3","battery-v0.2","","""event"",""trial"",""time""
""fullscreenenter"",""1"",""2506""
""blur"",""3"",""12072""
""focus"",""3"",""27705""
""fullscreenexit"",""5"",""62539""
""blur"",""5"",""63822""
""focus"",""5"",""66112""
","""event"",""trial"",""time""
""blur"",""3"",""12072""
""blur"",""5"",""63822""
","""event"",""trial"",""time""
""focus"",""3"",""27705""
""focus"",""5"",""66112""
","""event"",""trial"",""time""
""fullscreenenter"",""1"",""2506""
","""event"",""trial"",""time""
""fullscreenexit"",""5"",""62539""
","","","273.10000002384186","","","10","12451","812","&#9789;","elianto","#f73b6a7A"," "," ","1","0","[1126]","1","0","4","","","","","","","",""
"call-function","102","791670","0.0-2.0-18.0","battery-v0.2","","""event"",""trial"",""time""
""fullscreenenter"",""1"",""2506""
""blur"",""3"",""12072""
""focus"",""3"",""27705""
""fullscreenexit"",""5"",""62539""
""blur"",""5"",""63822""
""focus"",""5"",""66112""
","""event"",""trial"",""time""
""blur"",""3"",""12072""
""blur"",""5"",""63822""
","""event"",""trial"",""time""
""focus"",""3"",""27705""
""focus"",""5"",""66112""
","""event"",""trial"",""time""
""fullscreenenter"",""1"",""2506""
","""event"",""trial"",""time""
""fullscreenexit"",""5"",""62539""
","","","","","","","","","","","","","","","","","","","","","","","","","","",""
"pit-instructions","103","843637","0.0-2.0-19.0","battery-v0.2","","""event"",""trial"",""time""
""fullscreenenter"",""1"",""2506""
""blur"",""3"",""12072""
""focus"",""3"",""27705""
""fullscreenexit"",""5"",""62539""
""blur"",""5"",""63822""
""focus"",""5"",""66112""
","""event"",""trial"",""time""
""blur"",""3"",""12072""
""blur"",""5"",""63822""
","""event"",""trial"",""time""
""focus"",""3"",""27705""
""focus"",""5"",""66112""
","""event"",""trial"",""time""
""fullscreenenter"",""1"",""2506""
","""event"",""trial"",""time""
""fullscreenexit"",""5"",""62539""
","","[{""page_index"":0,""viewing_time"":6199.399999976158},{""page_index"":1,""viewing_time"":4232.700000047684},{""page_index"":2,""viewing_time"":8763.100000023842},{""page_index"":3,""viewing_time"":5335.899999976158},{""page_index"":4,""viewing_time"":6258.700000047684},{""page_index"":5,""viewing_time"":8874.899999976158},{""page_index"":6,""viewing_time"":4771.299999952316},{""page_index"":7,""viewing_time"":4479},{""page_index"":8,""viewing_time"":3050.8000000715256}]","51966.39999997616","","","","","","","","","","","","","","","","","","","","","","","",""
"pit-comprehension","104","849621","0.0-2.0-20.0-0.0","battery-v0.2","","""event"",""trial"",""time""
""fullscreenenter"",""1"",""2506""
""blur"",""3"",""12072""
""focus"",""3"",""27705""
""fullscreenexit"",""5"",""62539""
""blur"",""5"",""63822""
""focus"",""5"",""66112""
","""event"",""trial"",""time""
""blur"",""3"",""12072""
""blur"",""5"",""63822""
","""event"",""trial"",""time""
""focus"",""3"",""27705""
""focus"",""5"",""66112""
","""event"",""trial"",""time""
""fullscreenenter"",""1"",""2506""
","""event"",""trial"",""time""
""fullscreenexit"",""5"",""62539""
","","","5967.200000047684","[""SPACE""]","0","10","12451","812","","","","","","","","","","","","","","","","","","",""
"pit-instructions","105","851749","0.0-2.0-20.0-1.0","battery-v0.2","","""event"",""trial"",""time""
""fullscreenenter"",""1"",""2506""
""blur"",""3"",""12072""
""focus"",""3"",""27705""
""fullscreenexit"",""5"",""62539""
""blur"",""5"",""63822""
""focus"",""5"",""66112""
","""event"",""trial"",""time""
""blur"",""3"",""12072""
""blur"",""5"",""63822""
","""event"",""trial"",""time""
""focus"",""3"",""27705""
""focus"",""5"",""66112""
","""event"",""trial"",""time""
""fullscreenenter"",""1"",""2506""
","""event"",""trial"",""time""
""fullscreenexit"",""5"",""62539""
","","[{""page_index"":0,""viewing_time"":2051.5}]","2052","","","","","","","","","","","","","","","","","","","","","","","",""
"pit-comprehension","106","860509","0.0-2.0-21.0-0.0","battery-v0.2","","""event"",""trial"",""time""
""fullscreenenter"",""1"",""2506""
""blur"",""3"",""12072""
""focus"",""3"",""27705""
""fullscreenexit"",""5"",""62539""
""blur"",""5"",""63822""
""focus"",""5"",""66112""
","""event"",""trial"",""time""
""blur"",""3"",""12072""
""blur"",""5"",""63822""
","""event"",""trial"",""time""
""focus"",""3"",""27705""
""focus"",""5"",""66112""
","""event"",""trial"",""time""
""fullscreenenter"",""1"",""2506""
","""event"",""trial"",""time""
""fullscreenexit"",""5"",""62539""
","","","8753.399999976158","[""10""]","0","10","12451","812","","","","","","","","","","","","","","","","","","",""
"pit-instructions","107","862498","0.0-2.0-21.0-1.0","battery-v0.2","","""event"",""trial"",""time""
""fullscreenenter"",""1"",""2506""
""blur"",""3"",""12072""
""focus"",""3"",""27705""
""fullscreenexit"",""5"",""62539""
""blur"",""5"",""63822""
""focus"",""5"",""66112""
","""event"",""trial"",""time""
""blur"",""3"",""12072""
""blur"",""5"",""63822""
","""event"",""trial"",""time""
""focus"",""3"",""27705""
""focus"",""5"",""66112""
","""event"",""trial"",""time""
""fullscreenenter"",""1"",""2506""
","""event"",""trial"",""time""
""fullscreenexit"",""5"",""62539""
","","[{""page_index"":0,""viewing_time"":1933.3999999761581}]","1933.7999999523163","","","","","","","","","","","","","","","","","","","","","","","",""
"pit-comprehension","108","868520","0.0-2.0-22.0-0.0","battery-v0.2","","""event"",""trial"",""time""
""fullscreenenter"",""1"",""2506""
""blur"",""3"",""12072""
""focus"",""3"",""27705""
""fullscreenexit"",""5"",""62539""
""blur"",""5"",""63822""
""focus"",""5"",""66112""
","""event"",""trial"",""time""
""blur"",""3"",""12072""
""blur"",""5"",""63822""
","""event"",""trial"",""time""
""focus"",""3"",""27705""
""focus"",""5"",""66112""
","""event"",""trial"",""time""
""fullscreenenter"",""1"",""2506""
","""event"",""trial"",""time""
""fullscreenexit"",""5"",""62539""
","","","6016.799999952316","[""-10""]","1","10","12451","812","","","","","","","","","","","","","","","","","","",""
"pit-instructions","109","876980","0.0-2.0-22.0-1.0","battery-v0.2","","""event"",""trial"",""time""
""fullscreenenter"",""1"",""2506""
""blur"",""3"",""12072""
""focus"",""3"",""27705""
""fullscreenexit"",""5"",""62539""
""blur"",""5"",""63822""
""focus"",""5"",""66112""
","""event"",""trial"",""time""
""blur"",""3"",""12072""
""blur"",""5"",""63822""
","""event"",""trial"",""time""
""focus"",""3"",""27705""
""focus"",""5"",""66112""
","""event"",""trial"",""time""
""fullscreenenter"",""1"",""2506""
","""event"",""trial"",""time""
""fullscreenexit"",""5"",""62539""
","","[{""page_index"":0,""viewing_time"":8381.600000023842}]","8382.300000071526","","","","","","","","","","","","","","","","","","","","","","","",""
"pit-instructions","110","879883","0.0-2.0-22.0-2.0-0.0","battery-v0.2","","""event"",""trial"",""time""
""fullscreenenter"",""1"",""2506""
""blur"",""3"",""12072""
""focus"",""3"",""27705""
""fullscreenexit"",""5"",""62539""
""blur"",""5"",""63822""
""focus"",""5"",""66112""
","""event"",""trial"",""time""
""blur"",""3"",""12072""
""blur"",""5"",""63822""
","""event"",""trial"",""time""
""focus"",""3"",""27705""
""focus"",""5"",""66112""
","""event"",""trial"",""time""
""fullscreenenter"",""1"",""2506""
","""event"",""trial"",""time""
""fullscreenexit"",""5"",""62539""
","","[{""page_index"":0,""viewing_time"":2899.2999999523163}]","2899.600000023842","","","","","","","","","","","","","","","","","","","","","","","",""
"pit-comprehension","111","885931","0.0-2.0-22.1-0.1","battery-v0.2","","""event"",""trial"",""time""
""fullscreenenter"",""1"",""2506""
""blur"",""3"",""12072""
""focus"",""3"",""27705""
""fullscreenexit"",""5"",""62539""
""blur"",""5"",""63822""
""focus"",""5"",""66112""
","""event"",""trial"",""time""
""blur"",""3"",""12072""
""blur"",""5"",""63822""
","""event"",""trial"",""time""
""focus"",""3"",""27705""
""focus"",""5"",""66112""
","""event"",""trial"",""time""
""fullscreenenter"",""1"",""2506""
","""event"",""trial"",""time""
""fullscreenexit"",""5"",""62539""
","","","6043.5","[""0""]","0","10","12451","812","","","","","","","","","","","","","","","","","","",""
"pit-instructions","112","887672","0.0-2.0-22.1-1.1","battery-v0.2","","""event"",""trial"",""time""
""fullscreenenter"",""1"",""2506""
""blur"",""3"",""12072""
""focus"",""3"",""27705""
""fullscreenexit"",""5"",""62539""
""blur"",""5"",""63822""
""focus"",""5"",""66112""
","""event"",""trial"",""time""
""blur"",""3"",""12072""
""blur"",""5"",""63822""
","""event"",""trial"",""time""
""focus"",""3"",""27705""
""focus"",""5"",""66112""
","""event"",""trial"",""time""
""fullscreenenter"",""1"",""2506""
","""event"",""trial"",""time""
""fullscreenexit"",""5"",""62539""
","","[{""page_index"":0,""viewing_time"":1674.5}]","1674.8999999761581","","","","","","","","","","","","","","","","","","","","","","","",""
"pit-comprehension","113","901358","0.0-2.0-23.0-0.0","battery-v0.2","","""event"",""trial"",""time""
""fullscreenenter"",""1"",""2506""
""blur"",""3"",""12072""
""focus"",""3"",""27705""
""fullscreenexit"",""5"",""62539""
""blur"",""5"",""63822""
""focus"",""5"",""66112""
","""event"",""trial"",""time""
""blur"",""3"",""12072""
""blur"",""5"",""63822""
","""event"",""trial"",""time""
""focus"",""3"",""27705""
""focus"",""5"",""66112""
","""event"",""trial"",""time""
""fullscreenenter"",""1"",""2506""
","""event"",""trial"",""time""
""fullscreenexit"",""5"",""62539""
","","","13681.399999976158","[""True""]","0","10","12451","812","","","","","","","","","","","","","","","","","","",""
"pit-instructions","114","902964","0.0-2.0-23.0-1.0","battery-v0.2","","""event"",""trial"",""time""
""fullscreenenter"",""1"",""2506""
""blur"",""3"",""12072""
""focus"",""3"",""27705""
""fullscreenexit"",""5"",""62539""
""blur"",""5"",""63822""
""focus"",""5"",""66112""
","""event"",""trial"",""time""
""blur"",""3"",""12072""
""blur"",""5"",""63822""
","""event"",""trial"",""time""
""focus"",""3"",""27705""
""focus"",""5"",""66112""
","""event"",""trial"",""time""
""fullscreenenter"",""1"",""2506""
","""event"",""trial"",""time""
""fullscreenexit"",""5"",""62539""
","","[{""page_index"":0,""viewing_time"":1533.6999999284744}]","1534.1999999284744","","","","","","","","","","","","","","","","","","","","","","","",""
"pit-comprehension","115","910467","0.0-2.0-24.0-0.0","battery-v0.2","","""event"",""trial"",""time""
""fullscreenenter"",""1"",""2506""
""blur"",""3"",""12072""
""focus"",""3"",""27705""
""fullscreenexit"",""5"",""62539""
""blur"",""5"",""63822""
""focus"",""5"",""66112""
","""event"",""trial"",""time""
""blur"",""3"",""12072""
""blur"",""5"",""63822""
","""event"",""trial"",""time""
""focus"",""3"",""27705""
""focus"",""5"",""66112""
","""event"",""trial"",""time""
""fullscreenenter"",""1"",""2506""
","""event"",""trial"",""time""
""fullscreenexit"",""5"",""62539""
","","","7495.700000047684","[""True""]","0","10","12451","812","","","","","","","","","","","","","","","","","","",""
"pit-instructions","116","912191","0.0-2.0-24.0-1.0","battery-v0.2","","""event"",""trial"",""time""
""fullscreenenter"",""1"",""2506""
""blur"",""3"",""12072""
""focus"",""3"",""27705""
""fullscreenexit"",""5"",""62539""
""blur"",""5"",""63822""
""focus"",""5"",""66112""
","""event"",""trial"",""time""
""blur"",""3"",""12072""
""blur"",""5"",""63822""
","""event"",""trial"",""time""
""focus"",""3"",""27705""
""focus"",""5"",""66112""
","""event"",""trial"",""time""
""fullscreenenter"",""1"",""2506""
","""event"",""trial"",""time""
""fullscreenexit"",""5"",""62539""
","","[{""page_index"":0,""viewing_time"":1653.2000000476837}]","1653.8000000715256","","","","","","","","","","","","","","","","","","","","","","","",""
"pit-comprehension","117","920566","0.0-2.0-25.0-0.0","battery-v0.2","","""event"",""trial"",""time""
""fullscreenenter"",""1"",""2506""
""blur"",""3"",""12072""
""focus"",""3"",""27705""
""fullscreenexit"",""5"",""62539""
""blur"",""5"",""63822""
""focus"",""5"",""66112""
","""event"",""trial"",""time""
""blur"",""3"",""12072""
""blur"",""5"",""63822""
","""event"",""trial"",""time""
""focus"",""3"",""27705""
""focus"",""5"",""66112""
","""event"",""trial"",""time""
""fullscreenenter"",""1"",""2506""
","""event"",""trial"",""time""
""fullscreenexit"",""5"",""62539""
","","","8366.899999976158","[""False""]","1","10","12451","812","","","","","","","","","","","","","","","","","","",""
"pit-instructions","118","922488","0.0-2.0-25.0-1.0","battery-v0.2","","""event"",""trial"",""time""
""fullscreenenter"",""1"",""2506""
""blur"",""3"",""12072""
""focus"",""3"",""27705""
""fullscreenexit"",""5"",""62539""
""blur"",""5"",""63822""
""focus"",""5"",""66112""
","""event"",""trial"",""time""
""blur"",""3"",""12072""
""blur"",""5"",""63822""
","""event"",""trial"",""time""
""focus"",""3"",""27705""
""focus"",""5"",""66112""
","""event"",""trial"",""time""
""fullscreenenter"",""1"",""2506""
","""event"",""trial"",""time""
""fullscreenexit"",""5"",""62539""
","","[{""page_index"":0,""viewing_time"":1836.7999999523163}]","1837.2999999523163","","","","","","","","","","","","","","","","","","","","","","","",""
"pit-instructions","119","923957","0.0-2.0-25.0-2.0-0.0","battery-v0.2","","""event"",""trial"",""time""
""fullscreenenter"",""1"",""2506""
""blur"",""3"",""12072""
""focus"",""3"",""27705""
""fullscreenexit"",""5"",""62539""
""blur"",""5"",""63822""
""focus"",""5"",""66112""
","""event"",""trial"",""time""
""blur"",""3"",""12072""
""blur"",""5"",""63822""
","""event"",""trial"",""time""
""focus"",""3"",""27705""
""focus"",""5"",""66112""
","""event"",""trial"",""time""
""fullscreenenter"",""1"",""2506""
","""event"",""trial"",""time""
""fullscreenexit"",""5"",""62539""
","","[{""page_index"":0,""viewing_time"":1464.7999999523163}]","1465.2999999523163","","","","","","","","","","","","","","","","","","","","","","","",""
"pit-comprehension","120","929978","0.0-2.0-25.1-0.1","battery-v0.2","","""event"",""trial"",""time""
""fullscreenenter"",""1"",""2506""
""blur"",""3"",""12072""
""focus"",""3"",""27705""
""fullscreenexit"",""5"",""62539""
""blur"",""5"",""63822""
""focus"",""5"",""66112""
","""event"",""trial"",""time""
""blur"",""3"",""12072""
""blur"",""5"",""63822""
","""event"",""trial"",""time""
""focus"",""3"",""27705""
""focus"",""5"",""66112""
","""event"",""trial"",""time""
""fullscreenenter"",""1"",""2506""
","""event"",""trial"",""time""
""fullscreenexit"",""5"",""62539""
","","","6015.200000047684","[""True""]","0","10","12451","812","","","","","","","","","","","","","","","","","","",""
"pit-instructions","121","931404","0.0-2.0-25.1-1.1","battery-v0.2","","""event"",""trial"",""time""
""fullscreenenter"",""1"",""2506""
""blur"",""3"",""12072""
""focus"",""3"",""27705""
""fullscreenexit"",""5"",""62539""
""blur"",""5"",""63822""
""focus"",""5"",""66112""
","""event"",""trial"",""time""
""blur"",""3"",""12072""
""blur"",""5"",""63822""
","""event"",""trial"",""time""
""focus"",""3"",""27705""
""focus"",""5"",""66112""
","""event"",""trial"",""time""
""fullscreenenter"",""1"",""2506""
","""event"",""trial"",""time""
""fullscreenexit"",""5"",""62539""
","","[{""page_index"":0,""viewing_time"":1354}]","1354.7999999523163","","","","","","","","","","","","","","","","","","","","","","","",""
"pit-comprehension","122","947989","0.0-2.0-26.0-0.0","battery-v0.2","","""event"",""trial"",""time""
""fullscreenenter"",""1"",""2506""
""blur"",""3"",""12072""
""focus"",""3"",""27705""
""fullscreenexit"",""5"",""62539""
""blur"",""5"",""63822""
""focus"",""5"",""66112""
","""event"",""trial"",""time""
""blur"",""3"",""12072""
""blur"",""5"",""63822""
","""event"",""trial"",""time""
""focus"",""3"",""27705""
""focus"",""5"",""66112""
","""event"",""trial"",""time""
""fullscreenenter"",""1"",""2506""
","""event"",""trial"",""time""
""fullscreenexit"",""5"",""62539""
","","","16578.899999976158","[""True""]","1","10","12451","812","","","","","","","","","","","","","","","","","","",""
"pit-instructions","123","950651","0.0-2.0-26.0-1.0","battery-v0.2","","""event"",""trial"",""time""
""fullscreenenter"",""1"",""2506""
""blur"",""3"",""12072""
""focus"",""3"",""27705""
""fullscreenexit"",""5"",""62539""
""blur"",""5"",""63822""
""focus"",""5"",""66112""
","""event"",""trial"",""time""
""blur"",""3"",""12072""
""blur"",""5"",""63822""
","""event"",""trial"",""time""
""focus"",""3"",""27705""
""focus"",""5"",""66112""
","""event"",""trial"",""time""
""fullscreenenter"",""1"",""2506""
","""event"",""trial"",""time""
""fullscreenexit"",""5"",""62539""
","","[{""page_index"":0,""viewing_time"":2576.100000023842}]","2576.6999999284744","","","","","","","","","","","","","","","","","","","","","","","",""
"pit-instructions","124","952052","0.0-2.0-26.0-2.0-0.0","battery-v0.2","","""event"",""trial"",""time""
""fullscreenenter"",""1"",""2506""
""blur"",""3"",""12072""
""focus"",""3"",""27705""
""fullscreenexit"",""5"",""62539""
""blur"",""5"",""63822""
""focus"",""5"",""66112""
","""event"",""trial"",""time""
""blur"",""3"",""12072""
""blur"",""5"",""63822""
","""event"",""trial"",""time""
""focus"",""3"",""27705""
""focus"",""5"",""66112""
","""event"",""trial"",""time""
""fullscreenenter"",""1"",""2506""
","""event"",""trial"",""time""
""fullscreenexit"",""5"",""62539""
","","[{""page_index"":0,""viewing_time"":1396.3999999761581}]","1397","","","","","","","","","","","","","","","","","","","","","","","",""
"pit-comprehension","125","961020","0.0-2.0-26.1-0.1","battery-v0.2","","""event"",""trial"",""time""
""fullscreenenter"",""1"",""2506""
""blur"",""3"",""12072""
""focus"",""3"",""27705""
""fullscreenexit"",""5"",""62539""
""blur"",""5"",""63822""
""focus"",""5"",""66112""
","""event"",""trial"",""time""
""blur"",""3"",""12072""
""blur"",""5"",""63822""
","""event"",""trial"",""time""
""focus"",""3"",""27705""
""focus"",""5"",""66112""
","""event"",""trial"",""time""
""fullscreenenter"",""1"",""2506""
","""event"",""trial"",""time""
""fullscreenexit"",""5"",""62539""
","","","8963.5","[""False""]","0","10","12451","812","","","","","","","","","","","","","","","","","","",""
"pit-instructions","126","962649","0.0-2.0-26.1-1.1","battery-v0.2","","""event"",""trial"",""time""
""fullscreenenter"",""1"",""2506""
""blur"",""3"",""12072""
""focus"",""3"",""27705""
""fullscreenexit"",""5"",""62539""
""blur"",""5"",""63822""
""focus"",""5"",""66112""
","""event"",""trial"",""time""
""blur"",""3"",""12072""
""blur"",""5"",""63822""
","""event"",""trial"",""time""
""focus"",""3"",""27705""
""focus"",""5"",""66112""
","""event"",""trial"",""time""
""fullscreenenter"",""1"",""2506""
","""event"",""trial"",""time""
""fullscreenexit"",""5"",""62539""
","","[{""page_index"":0,""viewing_time"":1530.5}]","1531","","","","","","","","","","","","","","","","","","","","","","","",""
"pit-instructions","127","977666","0.0-3.0","battery-v0.2","","""event"",""trial"",""time""
""fullscreenenter"",""1"",""2506""
""blur"",""3"",""12072""
""focus"",""3"",""27705""
""fullscreenexit"",""5"",""62539""
""blur"",""5"",""63822""
""focus"",""5"",""66112""
","""event"",""trial"",""time""
""blur"",""3"",""12072""
""blur"",""5"",""63822""
","""event"",""trial"",""time""
""focus"",""3"",""27705""
""focus"",""5"",""66112""
","""event"",""trial"",""time""
""fullscreenenter"",""1"",""2506""
","""event"",""trial"",""time""
""fullscreenexit"",""5"",""62539""
","","[{""page_index"":0,""viewing_time"":3702.5999999046326},{""page_index"":1,""viewing_time"":5232.5},{""page_index"":2,""viewing_time"":6077.600000023842}]","15013.299999952316","","","","","","","","","","","","","","","","","","","","","","","",""
"pit-trial","128","981292","0.0-4.0","battery-v0.2","","""event"",""trial"",""time""
""fullscreenenter"",""1"",""2506""
""blur"",""3"",""12072""
""focus"",""3"",""27705""
""fullscreenexit"",""5"",""62539""
""blur"",""5"",""63822""
""focus"",""5"",""66112""
","""event"",""trial"",""time""
""blur"",""3"",""12072""
""blur"",""5"",""63822""
","""event"",""trial"",""time""
""focus"",""3"",""27705""
""focus"",""5"",""66112""
","""event"",""trial"",""time""
""fullscreenenter"",""1"",""2506""
","""event"",""trial"",""time""
""fullscreenexit"",""5"",""62539""
","","","749.7999999523163","","","10","12451","812","&#9730;","elianto","#3366ff99"," "," ","1","+10","[1612.7000000476837]","1","1","","","12451","1","1","1","win","go","0"
"pit-trial","129","986166","0.0-5.0","battery-v0.2","","""event"",""trial"",""time""
""fullscreenenter"",""1"",""2506""
""blur"",""3"",""12072""
""focus"",""3"",""27705""
""fullscreenexit"",""5"",""62539""
""blur"",""5"",""63822""
""focus"",""5"",""66112""
","""event"",""trial"",""time""
""blur"",""3"",""12072""
""blur"",""5"",""63822""
","""event"",""trial"",""time""
""focus"",""3"",""27705""
""focus"",""5"",""66112""
","""event"",""trial"",""time""
""fullscreenenter"",""1"",""2506""
","""event"",""trial"",""time""
""fullscreenexit"",""5"",""62539""
","","","-1","","","10","12451","812","&#9752;","elianto","#f73b6a7A"," ","-1","0","0","[]","0","1","","","12451","2","3","3","lose","go","1"
"pit-trial","130","990122","0.0-6.0","battery-v0.2","","""event"",""trial"",""time""
""fullscreenenter"",""1"",""2506""
""blur"",""3"",""12072""
""focus"",""3"",""27705""
""fullscreenexit"",""5"",""62539""
""blur"",""5"",""63822""
""focus"",""5"",""66112""
","""event"",""trial"",""time""
""blur"",""3"",""12072""
""blur"",""5"",""63822""
","""event"",""trial"",""time""
""focus"",""3"",""27705""
""focus"",""5"",""66112""
","""event"",""trial"",""time""
""fullscreenenter"",""1"",""2506""
","""event"",""trial"",""time""
""fullscreenexit"",""5"",""62539""
","","","1081.8999999761581","","","10","12451","812","&#9728;","elianto","#f73b6a7A","-1"," ","0","-10","[1938.9000000953674]","1","1","","","12451","3","0","4","lose","no-go","0"
"pit-trial","131","993648","0.0-7.0","battery-v0.2","","""event"",""trial"",""time""
""fullscreenenter"",""1"",""2506""
""blur"",""3"",""12072""
""focus"",""3"",""27705""
""fullscreenexit"",""5"",""62539""
""blur"",""5"",""63822""
""focus"",""5"",""66112""
","""event"",""trial"",""time""
""blur"",""3"",""12072""
""blur"",""5"",""63822""
","""event"",""trial"",""time""
""focus"",""3"",""27705""
""focus"",""5"",""66112""
","""event"",""trial"",""time""
""fullscreenenter"",""1"",""2506""
","""event"",""trial"",""time""
""fullscreenexit"",""5"",""62539""
","","","659.1000000238419","","","10","12451","812","&#9733;","elianto","#3366ff99","-1"," ","0","0","[1510.8000000715256]","1","1","","","12451","4","2","2","win","no-go","0"
"pit-trial","132","998523","0.0-8.0","battery-v0.2","","""event"",""trial"",""time""
""fullscreenenter"",""1"",""2506""
""blur"",""3"",""12072""
""focus"",""3"",""27705""
""fullscreenexit"",""5"",""62539""
""blur"",""5"",""63822""
""focus"",""5"",""66112""
","""event"",""trial"",""time""
""blur"",""3"",""12072""
""blur"",""5"",""63822""
","""event"",""trial"",""time""
""focus"",""3"",""27705""
""focus"",""5"",""66112""
","""event"",""trial"",""time""
""fullscreenenter"",""1"",""2506""
","""event"",""trial"",""time""
""fullscreenexit"",""5"",""62539""
","","","-1","","","10","12451","812","&#9728;","elianto","#f73b6a7A","-1","-1","1","0","[]","0","1","","","12451","5","0","4","lose","no-go","0"
"pit-trial","133","1002437","0.0-9.0","battery-v0.2","","""event"",""trial"",""time""
""fullscreenenter"",""1"",""2506""
""blur"",""3"",""12072""
