"trial_type","trial_index","time_elapsed","internal_node_id","task_version","subject_id","interactions","blur_events","focus_events","fullscreenenter_events","fullscreenexit_events","success","view_history","rt","responses","num_errors","age","subject","participantId","rune","rune_set","hex","correct","choice","accuracy","outcome","keys","total_keys","block","practice","value","sub","trial","stimulus","robot","valence","action","sham"
"pavlovia","0","6","0.0-0.0","battery-v0.2","","""event"",""trial"",""time""
""blur"",""1"",""3891""
""focus"",""1"",""11772""
""fullscreenenter"",""1"",""12748""
","""event"",""trial"",""time""
""blur"",""1"",""3891""
","""event"",""trial"",""time""
""focus"",""1"",""11772""
","""event"",""trial"",""time""
""fullscreenenter"",""1"",""12748""
","
","","","","","","","","","","","","","","","","","","","","","","","","","","",""
"fullscreen","1","13733","0.0-1.0","battery-v0.2","","""event"",""trial"",""time""
""blur"",""1"",""3891""
""focus"",""1"",""11772""
""fullscreenenter"",""1"",""12748""
","""event"",""trial"",""time""
""blur"",""1"",""3891""
","""event"",""trial"",""time""
""focus"",""1"",""11772""
","""event"",""trial"",""time""
""fullscreenenter"",""1"",""12748""
","
","true","","","","","","","","","","","","","","","","","","","","","","","","","",""
"pit-instructions","2","17551","0.0-2.0-0.0","battery-v0.2","","""event"",""trial"",""time""
""blur"",""1"",""3891""
""focus"",""1"",""11772""
""fullscreenenter"",""1"",""12748""
","""event"",""trial"",""time""
""blur"",""1"",""3891""
","""event"",""trial"",""time""
""focus"",""1"",""11772""
","""event"",""trial"",""time""
""fullscreenenter"",""1"",""12748""
","
","","[{""page_index"":0,""viewing_time"":3814.899999856949}]","3815.2999999523163","","","","","","","","","","","","","","","","","","","","","","","",""
"pit-comprehension","3","19680","0.0-2.0-1.0-0.0","battery-v0.2","","""event"",""trial"",""time""
""blur"",""1"",""3891""
""focus"",""1"",""11772""
""fullscreenenter"",""1"",""12748""
","""event"",""trial"",""time""
""blur"",""1"",""3891""
","""event"",""trial"",""time""
""focus"",""1"",""11772""
","""event"",""trial"",""time""
""fullscreenenter"",""1"",""12748""
","
","","","2126.7999999523163","[""shark""]","0","23","9113","3860","","","","","","","","","","","","","","","","","","",""
"pit-instructions","4","21677","0.0-2.0-1.0-1.0","battery-v0.2","","""event"",""trial"",""time""
""blur"",""1"",""3891""
""focus"",""1"",""11772""
""fullscreenenter"",""1"",""12748""
","""event"",""trial"",""time""
""blur"",""1"",""3891""
","""event"",""trial"",""time""
""focus"",""1"",""11772""
","""event"",""trial"",""time""
""fullscreenenter"",""1"",""12748""
","
","","[{""page_index"":0,""viewing_time"":1990}]","1990.2000000476837","","","","","","","","","","","","","","","","","","","","","","","",""
"pit-comprehension","5","24221","0.0-2.0-2.0-0.0","battery-v0.2","","""event"",""trial"",""time""
""blur"",""1"",""3891""
""focus"",""1"",""11772""
""fullscreenenter"",""1"",""12748""
","""event"",""trial"",""time""
""blur"",""1"",""3891""
","""event"",""trial"",""time""
""focus"",""1"",""11772""
","""event"",""trial"",""time""
""fullscreenenter"",""1"",""12748""
","
","","","2541.7000000476837","[""tiger""]","0","23","9113","3860","","","","","","","","","","","","","","","","","","",""
"pit-instructions","6","24883","0.0-2.0-2.0-1.0","battery-v0.2","","""event"",""trial"",""time""
""blur"",""1"",""3891""
""focus"",""1"",""11772""
""fullscreenenter"",""1"",""12748""
","""event"",""trial"",""time""
""blur"",""1"",""3891""
","""event"",""trial"",""time""
""focus"",""1"",""11772""
","""event"",""trial"",""time""
""fullscreenenter"",""1"",""12748""
","
","","[{""page_index"":0,""viewing_time"":659.5}]","659.8000001907349","","","","","","","","","","","","","","","","","","","","","","","",""
"pit-instructions","7","127594","0.0-2.0-3.0","battery-v0.2","","""event"",""trial"",""time""
""blur"",""1"",""3891""
""focus"",""1"",""11772""
""fullscreenenter"",""1"",""12748""
","""event"",""trial"",""time""
""blur"",""1"",""3891""
","""event"",""trial"",""time""
""focus"",""1"",""11772""
","""event"",""trial"",""time""
""fullscreenenter"",""1"",""12748""
","
","","[{""page_index"":0,""viewing_time"":13658.200000047684},{""page_index"":1,""viewing_time"":6485.400000095367},{""page_index"":2,""viewing_time"":8343.099999904633},{""page_index"":3,""viewing_time"":5682.200000047684},{""page_index"":4,""viewing_time"":5886.5},{""page_index"":5,""viewing_time"":6337.799999952316},{""page_index"":6,""viewing_time"":6814.299999952316},{""page_index"":7,""viewing_time"":6876.200000047684},{""page_index"":8,""viewing_time"":7157},{""page_index"":9,""viewing_time"":8328.799999952316},{""page_index"":10,""viewing_time"":8569.299999952316},{""page_index"":11,""viewing_time"":7016.300000190735},{""page_index"":12,""viewing_time"":6524.099999904633},{""page_index"":13,""viewing_time"":5029.099999904633}]","102708.70000004768","","","","","","","","","","","","","","","","","","","","","","","",""
"pit-trial","8","130951","0.0-2.0-4.0-0.0","battery-v0.2","","""event"",""trial"",""time""
""blur"",""1"",""3891""
""focus"",""1"",""11772""
""fullscreenenter"",""1"",""12748""
","""event"",""trial"",""time""
""blur"",""1"",""3891""
","""event"",""trial"",""time""
""focus"",""1"",""11772""
","""event"",""trial"",""time""
""fullscreenenter"",""1"",""12748""
","
","","","491.5","","","23","9113","3860","&#9784;","elianto","#FFFFF080"," "," ","1","&#10004","[1342.1000001430511]","1","0","0","","","","","","","",""
"pit-trial","9","134175","0.0-2.0-4.1-0.1","battery-v0.2","","""event"",""trial"",""time""
""blur"",""1"",""3891""
""focus"",""1"",""11772""
""fullscreenenter"",""1"",""12748""
","""event"",""trial"",""time""
""blur"",""1"",""3891""
","""event"",""trial"",""time""
""focus"",""1"",""11772""
","""event"",""trial"",""time""
""fullscreenenter"",""1"",""12748""
","
","","","360.5","","","23","9113","3860","&#9784;","elianto","#FFFFF080"," "," ","1","&#10004","[1214.8000001907349]","1","0","0","","","","","","","",""
"pit-trial","10","137411","0.0-2.0-4.2-0.2","battery-v0.2","","""event"",""trial"",""time""
""blur"",""1"",""3891""
""focus"",""1"",""11772""
""fullscreenenter"",""1"",""12748""
","""event"",""trial"",""time""
""blur"",""1"",""3891""
","""event"",""trial"",""time""
""focus"",""1"",""11772""
","""event"",""trial"",""time""
""fullscreenenter"",""1"",""12748""
","
","","","378.09999990463257","","","23","9113","3860","&#9784;","elianto","#FFFFF080"," "," ","1","&#10004","[1231.2000000476837]","1","0","0","","","","","","","",""
"pit-trial","11","140652","0.0-2.0-4.3-0.3","battery-v0.2","","""event"",""trial"",""time""
""blur"",""1"",""3891""
""focus"",""1"",""11772""
""fullscreenenter"",""1"",""12748""
","""event"",""trial"",""time""
""blur"",""1"",""3891""
","""event"",""trial"",""time""
""focus"",""1"",""11772""
","""event"",""trial"",""time""
""fullscreenenter"",""1"",""12748""
","
","","","369.89999985694885","","","23","9113","3860","&#9784;","elianto","#FFFFF080"," "," ","1","&#10004","[1222.5999999046326]","1","0","0","","","","","","","",""
"pit-trial","12","143889","0.0-2.0-4.4-0.4","battery-v0.2","","""event"",""trial"",""time""
""blur"",""1"",""3891""
""focus"",""1"",""11772""
""fullscreenenter"",""1"",""12748""
","""event"",""trial"",""time""
""blur"",""1"",""3891""
","""event"",""trial"",""time""
""focus"",""1"",""11772""
","""event"",""trial"",""time""
""fullscreenenter"",""1"",""12748""
","
","","","369.89999985694885","","","23","9113","3860","&#9784;","elianto","#FFFFF080"," "," ","1","&#10004","[1223.7000000476837]","1","0","0","","","","","","","",""
"pit-instructions","13","164856","0.0-2.0-5.0","battery-v0.2","","""event"",""trial"",""time""
""blur"",""1"",""3891""
""focus"",""1"",""11772""
""fullscreenenter"",""1"",""12748""
","""event"",""trial"",""time""
""blur"",""1"",""3891""
","""event"",""trial"",""time""
""focus"",""1"",""11772""
","""event"",""trial"",""time""
""fullscreenenter"",""1"",""12748""
","
","","[{""page_index"":0,""viewing_time"":4917.399999856949},{""page_index"":1,""viewing_time"":5922},{""page_index"":2,""viewing_time"":5027.5},{""page_index"":3,""viewing_time"":5096.299999952316}]","20963.5","","","","","","","","","","","","","","","","","","","","","","","",""
"pit-trial","14","169728","0.0-2.0-6.0-0.0","battery-v0.2","","""event"",""trial"",""time""
""blur"",""1"",""3891""
""focus"",""1"",""11772""
""fullscreenenter"",""1"",""12748""
","""event"",""trial"",""time""
""blur"",""1"",""3891""
","""event"",""trial"",""time""
""focus"",""1"",""11772""
","""event"",""trial"",""time""
""fullscreenenter"",""1"",""12748""
","
","","","-1","","","23","9113","3860","&#9854;","elianto","#FFFFF080","-1","-1","1","&#10004","[]","0","0","1","","","","","","","",""
"pit-trial","15","174592","0.0-2.0-6.1-0.1","battery-v0.2","","""event"",""trial"",""time""
""blur"",""1"",""3891""
""focus"",""1"",""11772""
""fullscreenenter"",""1"",""12748""
","""event"",""trial"",""time""
""blur"",""1"",""3891""
","""event"",""trial"",""time""
""focus"",""1"",""11772""
","""event"",""trial"",""time""
""fullscreenenter"",""1"",""12748""
","
","","","-1","","","23","9113","3860","&#9854;","elianto","#FFFFF080","-1","-1","1","&#10004","[]","0","0","1","","","","","","","",""
"pit-trial","16","179465","0.0-2.0-6.2-0.2","battery-v0.2","","""event"",""trial"",""time""
""blur"",""1"",""3891""
""focus"",""1"",""11772""
""fullscreenenter"",""1"",""12748""
","""event"",""trial"",""time""
""blur"",""1"",""3891""
","""event"",""trial"",""time""
""focus"",""1"",""11772""
","""event"",""trial"",""time""
""fullscreenenter"",""1"",""12748""
","
","","","-1","","","23","9113","3860","&#9854;","elianto","#FFFFF080","-1","-1","1","&#10004","[]","0","0","1","","","","","","","",""
"pit-trial","17","184331","0.0-2.0-6.3-0.3","battery-v0.2","","""event"",""trial"",""time""
""blur"",""1"",""3891""
""focus"",""1"",""11772""
""fullscreenenter"",""1"",""12748""
","""event"",""trial"",""time""
""blur"",""1"",""3891""
","""event"",""trial"",""time""
""focus"",""1"",""11772""
","""event"",""trial"",""time""
""fullscreenenter"",""1"",""12748""
","
","","","-1","","","23","9113","3860","&#9854;","elianto","#FFFFF080","-1","-1","1","&#10004","[]","0","0","1","","","","","","","",""
"pit-trial","18","189199","0.0-2.0-6.4-0.4","battery-v0.2","","""event"",""trial"",""time""
""blur"",""1"",""3891""
""focus"",""1"",""11772""
""fullscreenenter"",""1"",""12748""
","""event"",""trial"",""time""
""blur"",""1"",""3891""
","""event"",""trial"",""time""
""focus"",""1"",""11772""
","""event"",""trial"",""time""
""fullscreenenter"",""1"",""12748""
","
","","","-1","","","23","9113","3860","&#9854;","elianto","#FFFFF080","-1","-1","1","&#10004","[]","0","0","1","","","","","","","",""
"pit-instructions","19","297752","0.0-2.0-7.0","battery-v0.2","","""event"",""trial"",""time""
""blur"",""1"",""3891""
""focus"",""1"",""11772""
""fullscreenenter"",""1"",""12748""
","""event"",""trial"",""time""
""blur"",""1"",""3891""
","""event"",""trial"",""time""
""focus"",""1"",""11772""
","""event"",""trial"",""time""
""fullscreenenter"",""1"",""12748""
","
","","[{""page_index"":0,""viewing_time"":5624.799999952316},{""page_index"":1,""viewing_time"":6221.400000095367},{""page_index"":2,""viewing_time"":5097.700000047684},{""page_index"":3,""viewing_time"":6298.399999856949},{""page_index"":4,""viewing_time"":5088.200000047684},{""page_index"":5,""viewing_time"":5143.299999952316},{""page_index"":6,""viewing_time"":4931.900000095367},{""page_index"":7,""viewing_time"":7531.599999904633},{""page_index"":8,""viewing_time"":6048.200000047684},{""page_index"":9,""viewing_time"":5410.799999952316},{""page_index"":10,""viewing_time"":7811.299999952316},{""page_index"":11,""viewing_time"":4138.900000095367},{""page_index"":12,""viewing_time"":6654.799999952316},{""page_index"":13,""viewing_time"":6604.200000047684},{""page_index"":14,""viewing_time"":6671.900000095367},{""page_index"":15,""viewing_time"":6016.099999904633},{""page_index"":16,""viewing_time"":6439.900000095367},{""page_index"":17,""viewing_time"":6816.199999809265}]","108549.90000009537","","","","","","","","","","","","","","","","","","","","","","","",""
"pit-trial","20","301481","0.0-2.0-8.0-0.0","battery-v0.2","","""event"",""trial"",""time""
""blur"",""1"",""3891""
""focus"",""1"",""11772""
""fullscreenenter"",""1"",""12748""
","""event"",""trial"",""time""
""blur"",""1"",""3891""
","""event"",""trial"",""time""
""focus"",""1"",""11772""
","""event"",""trial"",""time""
""fullscreenenter"",""1"",""12748""
","
","","","861.4000000953674","","","23","9113","3860","&#9776;","elianto","#3366ff99"," "," ","1","+10","[1711.7000000476837]","1","0","1","","","","","","","",""
"pit-trial","21","304753","0.0-2.0-8.0-1.0","battery-v0.2","","""event"",""trial"",""time""
""blur"",""1"",""3891""
""focus"",""1"",""11772""
""fullscreenenter"",""1"",""12748""
","""event"",""trial"",""time""
""blur"",""1"",""3891""
","""event"",""trial"",""time""
""focus"",""1"",""11772""
","""event"",""trial"",""time""
""fullscreenenter"",""1"",""12748""
","
","","","410.7000000476837","","","23","9113","3860","&#9776;","elianto","#3366ff99"," "," ","1","+10","[1263]","1","0","1","","","","","","","",""
"pit-trial","22","307976","0.0-2.0-8.0-2.0","battery-v0.2","","""event"",""trial"",""time""
""blur"",""1"",""3891""
""focus"",""1"",""11772""
""fullscreenenter"",""1"",""12748""
","""event"",""trial"",""time""
""blur"",""1"",""3891""
","""event"",""trial"",""time""
""focus"",""1"",""11772""
","""event"",""trial"",""time""
""fullscreenenter"",""1"",""12748""
","
","","","362.7999999523163","","","23","9113","3860","&#9776;","elianto","#3366ff99"," "," ","1","+10","[1215.6999998092651]","1","0","1","","","","","","","",""
"pit-trial","23","311279","0.0-2.0-8.0-3.0","battery-v0.2","","""event"",""trial"",""time""
""blur"",""1"",""3891""
""focus"",""1"",""11772""
""fullscreenenter"",""1"",""12748""
","""event"",""trial"",""time""
""blur"",""1"",""3891""
","""event"",""trial"",""time""
""focus"",""1"",""11772""
","""event"",""trial"",""time""
""fullscreenenter"",""1"",""12748""
","
","","","446.10000014305115","","","23","9113","3860","&#9776;","elianto","#3366ff99"," "," ","1","0","[1297.8999998569489]","1","0","1","","","","","","","",""
"pit-trial","24","314615","0.0-2.0-8.0-4.0","battery-v0.2","","""event"",""trial"",""time""
""blur"",""1"",""3891""
""focus"",""1"",""11772""
""fullscreenenter"",""1"",""12748""
","""event"",""trial"",""time""
""blur"",""1"",""3891""
","""event"",""trial"",""time""
""focus"",""1"",""11772""
","""event"",""trial"",""time""
""fullscreenenter"",""1"",""12748""
","
","","","476.2000000476837","","","23","9113","3860","&#9776;","elianto","#3366ff99"," "," ","1","+10","[1328.2999999523163]","1","0","1","","","","","","","",""
"pit-trial","25","317966","0.0-2.0-8.1-0.1","battery-v0.2","","""event"",""trial"",""time""
""blur"",""1"",""3891""
""focus"",""1"",""11772""
""fullscreenenter"",""1"",""12748""
","""event"",""trial"",""time""
""blur"",""1"",""3891""
","""event"",""trial"",""time""
""focus"",""1"",""11772""
","""event"",""trial"",""time""
""fullscreenenter"",""1"",""12748""
","
","","","479.5","","","23","9113","3860","&#9776;","elianto","#3366ff99"," "," ","1","+10","[1334.9000000953674]","1","0","1","","","","","","","",""
"pit-trial","26","321368","0.0-2.0-8.1-1.1","battery-v0.2","","""event"",""trial"",""time""
""blur"",""1"",""3891""
""focus"",""1"",""11772""
""fullscreenenter"",""1"",""12748""
","""event"",""trial"",""time""
""blur"",""1"",""3891""
","""event"",""trial"",""time""
""focus"",""1"",""11772""
","""event"",""trial"",""time""
""fullscreenenter"",""1"",""12748""
","
","","","537.1000001430511","","","23","9113","3860","&#9776;","elianto","#3366ff99"," "," ","1","+10","[1388]","1","0","1","","","","","","","",""
"pit-trial","27","324573","0.0-2.0-8.1-2.1","battery-v0.2","","""event"",""trial"",""time""
""blur"",""1"",""3891""
""focus"",""1"",""11772""
""fullscreenenter"",""1"",""12748""
","""event"",""trial"",""time""
""blur"",""1"",""3891""
","""event"",""trial"",""time""
""focus"",""1"",""11772""
","""event"",""trial"",""time""
""fullscreenenter"",""1"",""12748""
","
","","","339.60000014305115","","","23","9113","3860","&#9776;","elianto","#3366ff99"," "," ","1","+10","[1202.1000001430511]","1","0","1","","","","","","","",""
"pit-trial","28","327797","0.0-2.0-8.1-3.1","battery-v0.2","","""event"",""trial"",""time""
""blur"",""1"",""3891""
""focus"",""1"",""11772""
""fullscreenenter"",""1"",""12748""
","""event"",""trial"",""time""
""blur"",""1"",""3891""
","""event"",""trial"",""time""
""focus"",""1"",""11772""
","""event"",""trial"",""time""
""fullscreenenter"",""1"",""12748""
","
","","","370.59999990463257","","","23","9113","3860","&#9776;","elianto","#3366ff99"," "," ","1","0","[1221.2999999523163]","1","0","1","","","","","","","",""
"pit-trial","29","330875","0.0-2.0-8.1-4.1","battery-v0.2","","""event"",""trial"",""time""
""blur"",""1"",""3891""
""focus"",""1"",""11772""
""fullscreenenter"",""1"",""12748""
","""event"",""trial"",""time""
""blur"",""1"",""3891""
","""event"",""trial"",""time""
""focus"",""1"",""11772""
","""event"",""trial"",""time""
""fullscreenenter"",""1"",""12748""
","
","","","224.20000004768372","","","23","9113","3860","&#9776;","elianto","#3366ff99"," "," ","1","+10","[1075.9000000953674]","1","0","1","","","","","","","",""
"pit-trial","30","334091","0.0-2.0-8.2-0.2","battery-v0.2","","""event"",""trial"",""time""
""blur"",""1"",""3891""
""focus"",""1"",""11772""
""fullscreenenter"",""1"",""12748""
","""event"",""trial"",""time""
""blur"",""1"",""3891""
","""event"",""trial"",""time""
""focus"",""1"",""11772""
","""event"",""trial"",""time""
""fullscreenenter"",""1"",""12748""
","
","","","362.7000000476837","","","23","9113","3860","&#9776;","elianto","#3366ff99"," "," ","1","+10","[1213.2000000476837]","1","0","1","","","","","","","",""
"pit-trial","31","337223","0.0-2.0-8.2-1.2","battery-v0.2","","""event"",""trial"",""time""
""blur"",""1"",""3891""
""focus"",""1"",""11772""
""fullscreenenter"",""1"",""12748""
","""event"",""trial"",""time""
""blur"",""1"",""3891""
","""event"",""trial"",""time""
""focus"",""1"",""11772""
","""event"",""trial"",""time""
""fullscreenenter"",""1"",""12748""
","
","","","278.7000000476837","","","23","9113","3860","&#9776;","elianto","#3366ff99"," "," ","1","+10","[1128.9000000953674]","1","0","1","","","","","","","",""
"pit-trial","32","340436","0.0-2.0-8.2-2.2","battery-v0.2","","""event"",""trial"",""time""
""blur"",""1"",""3891""
""focus"",""1"",""11772""
""fullscreenenter"",""1"",""12748""
","""event"",""trial"",""time""
""blur"",""1"",""3891""
","""event"",""trial"",""time""
""focus"",""1"",""11772""
","""event"",""trial"",""time""
""fullscreenenter"",""1"",""12748""
","
","","","361.2000000476837","","","23","9113","3860","&#9776;","elianto","#3366ff99"," "," ","1","+10","[1211.5]","1","0","1","","","","","","","",""
"pit-trial","33","343440","0.0-2.0-8.2-3.2","battery-v0.2","","""event"",""trial"",""time""
""blur"",""1"",""3891""
""focus"",""1"",""11772""
""fullscreenenter"",""1"",""12748""
","""event"",""trial"",""time""
""blur"",""1"",""3891""
","""event"",""trial"",""time""
""focus"",""1"",""11772""
","""event"",""trial"",""time""
""fullscreenenter"",""1"",""12748""
","
","","","150.59999990463257","","","23","9113","3860","&#9776;","elianto","#3366ff99"," "," ","1","0","[1001.2000000476837]","1","0","1","","","","","","","",""
"pit-trial","34","346445","0.0-2.0-8.2-4.2","battery-v0.2","","""event"",""trial"",""time""
""blur"",""1"",""3891""
""focus"",""1"",""11772""
""fullscreenenter"",""1"",""12748""
","""event"",""trial"",""time""
""blur"",""1"",""3891""
","""event"",""trial"",""time""
""focus"",""1"",""11772""
","""event"",""trial"",""time""
""fullscreenenter"",""1"",""12748""
","
","","","151.40000009536743","","","23","9113","3860","&#9776;","elianto","#3366ff99"," "," ","1","+10","[1002.3000001907349]","1","0","1","","","","","","","",""
"call-function","35","346447","0.0-2.0-9.0","battery-v0.2","","""event"",""trial"",""time""
""blur"",""1"",""3891""
""focus"",""1"",""11772""
""fullscreenenter"",""1"",""12748""
","""event"",""trial"",""time""
""blur"",""1"",""3891""
","""event"",""trial"",""time""
""focus"",""1"",""11772""
","""event"",""trial"",""time""
""fullscreenenter"",""1"",""12748""
","
","","","","","","","","","","","","","","","","","","","","","","","","","","",""
"pit-instructions","36","384418","0.0-2.0-10.0","battery-v0.2","","""event"",""trial"",""time""
""blur"",""1"",""3891""
""focus"",""1"",""11772""
""fullscreenenter"",""1"",""12748""
","""event"",""trial"",""time""
""blur"",""1"",""3891""
","""event"",""trial"",""time""
""focus"",""1"",""11772""
","""event"",""trial"",""time""
""fullscreenenter"",""1"",""12748""
","
","","[{""page_index"":0,""viewing_time"":6245.700000047684},{""page_index"":1,""viewing_time"":6064.5},{""page_index"":2,""viewing_time"":9841.299999952316},{""page_index"":3,""viewing_time"":8777.799999952316},{""page_index"":4,""viewing_time"":7040.400000095367}]","37970.09999990463","","","","","","","","","","","","","","","","","","","","","","","",""
"pit-trial","37","389295","0.0-2.0-11.0-0.0","battery-v0.2","","""event"",""trial"",""time""
""blur"",""1"",""3891""
""focus"",""1"",""11772""
""fullscreenenter"",""1"",""12748""
","""event"",""trial"",""time""
""blur"",""1"",""3891""
","""event"",""trial"",""time""
""focus"",""1"",""11772""
","""event"",""trial"",""time""
""fullscreenenter"",""1"",""12748""
","
","","","-1","","","23","9113","3860","&#9761;","elianto","#3366ff99","-1","-1","1","+10","[]","0","0","2","","","","","","","",""
"pit-trial","38","394158","0.0-2.0-11.0-1.0","battery-v0.2","","""event"",""trial"",""time""
""blur"",""1"",""3891""
""focus"",""1"",""11772""
""fullscreenenter"",""1"",""12748""
","""event"",""trial"",""time""
""blur"",""1"",""3891""
","""event"",""trial"",""time""
""focus"",""1"",""11772""
","""event"",""trial"",""time""
""fullscreenenter"",""1"",""12748""
","
","","","-1","","","23","9113","3860","&#9761;","elianto","#3366ff99","-1","-1","1","+10","[]","0","0","2","","","","","","","",""
"pit-trial","39","399028","0.0-2.0-11.0-2.0","battery-v0.2","","""event"",""trial"",""time""
""blur"",""1"",""3891""
""focus"",""1"",""11772""
""fullscreenenter"",""1"",""12748""
","""event"",""trial"",""time""
""blur"",""1"",""3891""
","""event"",""trial"",""time""
""focus"",""1"",""11772""
","""event"",""trial"",""time""
""fullscreenenter"",""1"",""12748""
","
","","","-1","","","23","9113","3860","&#9761;","elianto","#3366ff99","-1","-1","1","+10","[]","0","0","2","","","","","","","",""
"pit-trial","40","403889","0.0-2.0-11.0-3.0","battery-v0.2","","""event"",""trial"",""time""
""blur"",""1"",""3891""
""focus"",""1"",""11772""
""fullscreenenter"",""1"",""12748""
","""event"",""trial"",""time""
""blur"",""1"",""3891""
","""event"",""trial"",""time""
""focus"",""1"",""11772""
","""event"",""trial"",""time""
""fullscreenenter"",""1"",""12748""
","
","","","-1","","","23","9113","3860","&#9761;","elianto","#3366ff99","-1","-1","1","0","[]","0","0","2","","","","","","","",""
"pit-trial","41","408764","0.0-2.0-11.0-4.0","battery-v0.2","","""event"",""trial"",""time""
""blur"",""1"",""3891""
""focus"",""1"",""11772""
""fullscreenenter"",""1"",""12748""
","""event"",""trial"",""time""
""blur"",""1"",""3891""
","""event"",""trial"",""time""
""focus"",""1"",""11772""
","""event"",""trial"",""time""
""fullscreenenter"",""1"",""12748""
","
","","","-1","","","23","9113","3860","&#9761;","elianto","#3366ff99","-1","-1","1","+10","[]","0","0","2","","","","","","","",""
"pit-trial","42","413630","0.0-2.0-11.1-0.1","battery-v0.2","","""event"",""trial"",""time""
""blur"",""1"",""3891""
""focus"",""1"",""11772""
""fullscreenenter"",""1"",""12748""
","""event"",""trial"",""time""
""blur"",""1"",""3891""
","""event"",""trial"",""time""
""focus"",""1"",""11772""
","""event"",""trial"",""time""
""fullscreenenter"",""1"",""12748""
","
","","","-1","","","23","9113","3860","&#9761;","elianto","#3366ff99","-1","-1","1","+10","[]","0","0","2","","","","","","","",""
"pit-trial","43","418483","0.0-2.0-11.1-1.1","battery-v0.2","","""event"",""trial"",""time""
""blur"",""1"",""3891""
""focus"",""1"",""11772""
""fullscreenenter"",""1"",""12748""
","""event"",""trial"",""time""
""blur"",""1"",""3891""
","""event"",""trial"",""time""
""focus"",""1"",""11772""
","""event"",""trial"",""time""
""fullscreenenter"",""1"",""12748""
","
","","","-1","","","23","9113","3860","&#9761;","elianto","#3366ff99","-1","-1","1","+10","[]","0","0","2","","","","","","","",""
"pit-trial","44","423338","0.0-2.0-11.1-2.1","battery-v0.2","","""event"",""trial"",""time""
""blur"",""1"",""3891""
""focus"",""1"",""11772""
""fullscreenenter"",""1"",""12748""
","""event"",""trial"",""time""
""blur"",""1"",""3891""
","""event"",""trial"",""time""
""focus"",""1"",""11772""
","""event"",""trial"",""time""
""fullscreenenter"",""1"",""12748""
","
","","","-1","","","23","9113","3860","&#9761;","elianto","#3366ff99","-1","-1","1","+10","[]","0","0","2","","","","","","","",""
"pit-trial","45","428191","0.0-2.0-11.1-3.1","battery-v0.2","","""event"",""trial"",""time""
""blur"",""1"",""3891""
""focus"",""1"",""11772""
""fullscreenenter"",""1"",""12748""
","""event"",""trial"",""time""
""blur"",""1"",""3891""
","""event"",""trial"",""time""
""focus"",""1"",""11772""
","""event"",""trial"",""time""
""fullscreenenter"",""1"",""12748""
","
","","","-1","","","23","9113","3860","&#9761;","elianto","#3366ff99","-1","-1","1","0","[]","0","0","2","","","","","","","",""
"pit-trial","46","433046","0.0-2.0-11.1-4.1","battery-v0.2","","""event"",""trial"",""time""
""blur"",""1"",""3891""
""focus"",""1"",""11772""
""fullscreenenter"",""1"",""12748""
","""event"",""trial"",""time""
""blur"",""1"",""3891""
","""event"",""trial"",""time""
""focus"",""1"",""11772""
","""event"",""trial"",""time""
""fullscreenenter"",""1"",""12748""
","
","","","-1","","","23","9113","3860","&#9761;","elianto","#3366ff99","-1","-1","1","+10","[]","0","0","2","","","","","","","",""
"pit-trial","47","437899","0.0-2.0-11.2-0.2","battery-v0.2","","""event"",""trial"",""time""
""blur"",""1"",""3891""
""focus"",""1"",""11772""
""fullscreenenter"",""1"",""12748""
","""event"",""trial"",""time""
""blur"",""1"",""3891""
","""event"",""trial"",""time""
""focus"",""1"",""11772""
","""event"",""trial"",""time""
""fullscreenenter"",""1"",""12748""
","
","","","-1","","","23","9113","3860","&#9761;","elianto","#3366ff99","-1","-1","1","+10","[]","0","0","2","","","","","","","",""
"pit-trial","48","442753","0.0-2.0-11.2-1.2","battery-v0.2","","""event"",""trial"",""time""
""blur"",""1"",""3891""
""focus"",""1"",""11772""
""fullscreenenter"",""1"",""12748""
","""event"",""trial"",""time""
""blur"",""1"",""3891""
","""event"",""trial"",""time""
""focus"",""1"",""11772""
","""event"",""trial"",""time""
""fullscreenenter"",""1"",""12748""
","
","","","-1","","","23","9113","3860","&#9761;","elianto","#3366ff99","-1","-1","1","+10","[]","0","0","2","","","","","","","",""
"pit-trial","49","447607","0.0-2.0-11.2-2.2","battery-v0.2","","""event"",""trial"",""time""
""blur"",""1"",""3891""
""focus"",""1"",""11772""
""fullscreenenter"",""1"",""12748""
","""event"",""trial"",""time""
""blur"",""1"",""3891""
","""event"",""trial"",""time""
""focus"",""1"",""11772""
","""event"",""trial"",""time""
""fullscreenenter"",""1"",""12748""
","
","","","-1","","","23","9113","3860","&#9761;","elianto","#3366ff99","-1","-1","1","+10","[]","0","0","2","","","","","","","",""
"pit-trial","50","452460","0.0-2.0-11.2-3.2","battery-v0.2","","""event"",""trial"",""time""
""blur"",""1"",""3891""
""focus"",""1"",""11772""
""fullscreenenter"",""1"",""12748""
","""event"",""trial"",""time""
""blur"",""1"",""3891""
","""event"",""trial"",""time""
""focus"",""1"",""11772""
","""event"",""trial"",""time""
""fullscreenenter"",""1"",""12748""
","
","","","-1","","","23","9113","3860","&#9761;","elianto","#3366ff99","-1","-1","1","0","[]","0","0","2","","","","","","","",""
"pit-trial","51","457314","0.0-2.0-11.2-4.2","battery-v0.2","","""event"",""trial"",""time""
""blur"",""1"",""3891""
""focus"",""1"",""11772""
""fullscreenenter"",""1"",""12748""
","""event"",""trial"",""time""
""blur"",""1"",""3891""
","""event"",""trial"",""time""
""focus"",""1"",""11772""
","""event"",""trial"",""time""
""fullscreenenter"",""1"",""12748""
","
","","","-1","","","23","9113","3860","&#9761;","elianto","#3366ff99","-1","-1","1","+10","[]","0","0","2","","","","","","","",""
"pit-trial","52","462169","0.0-2.0-11.3-0.3","battery-v0.2","","""event"",""trial"",""time""
""blur"",""1"",""3891""
""focus"",""1"",""11772""
""fullscreenenter"",""1"",""12748""
","""event"",""trial"",""time""
""blur"",""1"",""3891""
","""event"",""trial"",""time""
""focus"",""1"",""11772""
","""event"",""trial"",""time""
""fullscreenenter"",""1"",""12748""
","
","","","-1","","","23","9113","3860","&#9761;","elianto","#3366ff99","-1","-1","1","+10","[]","0","0","2","","","","","","","",""
"pit-trial","53","467022","0.0-2.0-11.3-1.3","battery-v0.2","","""event"",""trial"",""time""
""blur"",""1"",""3891""
""focus"",""1"",""11772""
""fullscreenenter"",""1"",""12748""
","""event"",""trial"",""time""
""blur"",""1"",""3891""
","""event"",""trial"",""time""
""focus"",""1"",""11772""
","""event"",""trial"",""time""
""fullscreenenter"",""1"",""12748""
","
","","","-1","","","23","9113","3860","&#9761;","elianto","#3366ff99","-1","-1","1","+10","[]","0","0","2","","","","","","","",""
"pit-trial","54","471876","0.0-2.0-11.3-2.3","battery-v0.2","","""event"",""trial"",""time""
""blur"",""1"",""3891""
""focus"",""1"",""11772""
""fullscreenenter"",""1"",""12748""
","""event"",""trial"",""time""
""blur"",""1"",""3891""
","""event"",""trial"",""time""
""focus"",""1"",""11772""
","""event"",""trial"",""time""
""fullscreenenter"",""1"",""12748""
","
","","","-1","","","23","9113","3860","&#9761;","elianto","#3366ff99","-1","-1","1","+10","[]","0","0","2","","","","","","","",""
"pit-trial","55","476733","0.0-2.0-11.3-3.3","battery-v0.2","","""event"",""trial"",""time""
""blur"",""1"",""3891""
""focus"",""1"",""11772""
""fullscreenenter"",""1"",""12748""
","""event"",""trial"",""time""
""blur"",""1"",""3891""
","""event"",""trial"",""time""
""focus"",""1"",""11772""
","""event"",""trial"",""time""
""fullscreenenter"",""1"",""12748""
","
","","","-1","","","23","9113","3860","&#9761;","elianto","#3366ff99","-1","-1","1","0","[]","0","0","2","","","","","","","",""
"pit-trial","56","481587","0.0-2.0-11.3-4.3","battery-v0.2","","""event"",""trial"",""time""
""blur"",""1"",""3891""
""focus"",""1"",""11772""
""fullscreenenter"",""1"",""12748""
","""event"",""trial"",""time""
""blur"",""1"",""3891""
","""event"",""trial"",""time""
""focus"",""1"",""11772""
","""event"",""trial"",""time""
""fullscreenenter"",""1"",""12748""
","
","","","-1","","","23","9113","3860","&#9761;","elianto","#3366ff99","-1","-1","1","+10","[]","0","0","2","","","","","","","",""
"call-function","57","481589","0.0-2.0-12.0","battery-v0.2","","""event"",""trial"",""time""
""blur"",""1"",""3891""
""focus"",""1"",""11772""
""fullscreenenter"",""1"",""12748""
","""event"",""trial"",""time""
""blur"",""1"",""3891""
","""event"",""trial"",""time""
""focus"",""1"",""11772""
","""event"",""trial"",""time""
""fullscreenenter"",""1"",""12748""
","
","","","","","","","","","","","","","","","","","","","","","","","","","","",""
"pit-instructions","58","512332","0.0-2.0-13.0","battery-v0.2","","""event"",""trial"",""time""
""blur"",""1"",""3891""
""focus"",""1"",""11772""
""fullscreenenter"",""1"",""12748""
","""event"",""trial"",""time""
""blur"",""1"",""3891""
","""event"",""trial"",""time""
""focus"",""1"",""11772""
","""event"",""trial"",""time""
""fullscreenenter"",""1"",""12748""
","
","","[{""page_index"":0,""viewing_time"":5746.699999809265},{""page_index"":1,""viewing_time"":6719.900000095367},{""page_index"":2,""viewing_time"":3036.4000000953674},{""page_index"":3,""viewing_time"":10557.799999952316},{""page_index"":4,""viewing_time"":4681.799999952316}]","30742.89999985695","","","","","","","","","","","","","","","","","","","","","","","",""
"pit-trial","59","517196","0.0-2.0-14.0-0.0","battery-v0.2","","""event"",""trial"",""time""
""blur"",""1"",""3891""
""focus"",""1"",""11772""
""fullscreenenter"",""1"",""12748""
","""event"",""trial"",""time""
""blur"",""1"",""3891""
","""event"",""trial"",""time""
""focus"",""1"",""11772""
","""event"",""trial"",""time""
""fullscreenenter"",""1"",""12748""
","
","","","-1","","","23","9113","3860","&#9826;","elianto","#f73b6a7A","-1","-1","1","0","[]","0","0","3","","","","","","","",""
"pit-trial","60","522066","0.0-2.0-14.0-1.0","battery-v0.2","","""event"",""trial"",""time""
""blur"",""1"",""3891""
""focus"",""1"",""11772""
""fullscreenenter"",""1"",""12748""
","""event"",""trial"",""time""
""blur"",""1"",""3891""
","""event"",""trial"",""time""
""focus"",""1"",""11772""
","""event"",""trial"",""time""
""fullscreenenter"",""1"",""12748""
","
","","","-1","","","23","9113","3860","&#9826;","elianto","#f73b6a7A","-1","-1","1","0","[]","0","0","3","","","","","","","",""
"pit-trial","61","526941","0.0-2.0-14.0-2.0","battery-v0.2","","""event"",""trial"",""time""
""blur"",""1"",""3891""
""focus"",""1"",""11772""
""fullscreenenter"",""1"",""12748""
","""event"",""trial"",""time""
""blur"",""1"",""3891""
","""event"",""trial"",""time""
""focus"",""1"",""11772""
","""event"",""trial"",""time""
""fullscreenenter"",""1"",""12748""
","
","","","-1","","","23","9113","3860","&#9826;","elianto","#f73b6a7A","-1","-1","1","0","[]","0","0","3","","","","","","","",""
"pit-trial","62","531813","0.0-2.0-14.0-3.0","battery-v0.2","","""event"",""trial"",""time""
""blur"",""1"",""3891""
""focus"",""1"",""11772""
""fullscreenenter"",""1"",""12748""
","""event"",""trial"",""time""
""blur"",""1"",""3891""
","""event"",""trial"",""time""
""focus"",""1"",""11772""
","""event"",""trial"",""time""
""fullscreenenter"",""1"",""12748""
","
","","","-1","","","23","9113","3860","&#9826;","elianto","#f73b6a7A","-1","-1","1","-10","[]","0","0","3","","","","","","","",""
"pit-trial","63","536686","0.0-2.0-14.0-4.0","battery-v0.2","","""event"",""trial"",""time""
""blur"",""1"",""3891""
""focus"",""1"",""11772""
""fullscreenenter"",""1"",""12748""
","""event"",""trial"",""time""
""blur"",""1"",""3891""
","""event"",""trial"",""time""
""focus"",""1"",""11772""
","""event"",""trial"",""time""
""fullscreenenter"",""1"",""12748""
","
","","","-1","","","23","9113","3860","&#9826;","elianto","#f73b6a7A","-1","-1","1","0","[]","0","0","3","","","","","","","",""
"pit-trial","64","541546","0.0-2.0-14.1-0.1","battery-v0.2","","""event"",""trial"",""time""
""blur"",""1"",""3891""
""focus"",""1"",""11772""
""fullscreenenter"",""1"",""12748""
","""event"",""trial"",""time""
""blur"",""1"",""3891""
","""event"",""trial"",""time""
""focus"",""1"",""11772""
","""event"",""trial"",""time""
""fullscreenenter"",""1"",""12748""
","
","","","-1","","","23","9113","3860","&#9826;","elianto","#f73b6a7A","-1","-1","1","0","[]","0","0","3","","","","","","","",""
"pit-trial","65","546399","0.0-2.0-14.1-1.1","battery-v0.2","","""event"",""trial"",""time""
""blur"",""1"",""3891""
""focus"",""1"",""11772""
""fullscreenenter"",""1"",""12748""
","""event"",""trial"",""time""
""blur"",""1"",""3891""
","""event"",""trial"",""time""
""focus"",""1"",""11772""
","""event"",""trial"",""time""
""fullscreenenter"",""1"",""12748""
","
","","","-1","","","23","9113","3860","&#9826;","elianto","#f73b6a7A","-1","-1","1","0","[]","0","0","3","","","","","","","",""
"pit-trial","66","551252","0.0-2.0-14.1-2.1","battery-v0.2","","""event"",""trial"",""time""
""blur"",""1"",""3891""
""focus"",""1"",""11772""
""fullscreenenter"",""1"",""12748""
","""event"",""trial"",""time""
""blur"",""1"",""3891""
","""event"",""trial"",""time""
""focus"",""1"",""11772""
","""event"",""trial"",""time""
""fullscreenenter"",""1"",""12748""
","
","","","-1","","","23","9113","3860","&#9826;","elianto","#f73b6a7A","-1","-1","1","0","[]","0","0","3","","","","","","","",""
"pit-trial","67","556106","0.0-2.0-14.1-3.1","battery-v0.2","","""event"",""trial"",""time""
""blur"",""1"",""3891""
""focus"",""1"",""11772""
""fullscreenenter"",""1"",""12748""
","""event"",""trial"",""time""
""blur"",""1"",""3891""
","""event"",""trial"",""time""
""focus"",""1"",""11772""
","""event"",""trial"",""time""
""fullscreenenter"",""1"",""12748""
","
","","","-1","","","23","9113","3860","&#9826;","elianto","#f73b6a7A","-1","-1","1","-10","[]","0","0","3","","","","","","","",""
"pit-trial","68","560960","0.0-2.0-14.1-4.1","battery-v0.2","","""event"",""trial"",""time""
""blur"",""1"",""3891""
""focus"",""1"",""11772""
""fullscreenenter"",""1"",""12748""
","""event"",""trial"",""time""
""blur"",""1"",""3891""
","""event"",""trial"",""time""
""focus"",""1"",""11772""
","""event"",""trial"",""time""
""fullscreenenter"",""1"",""12748""
","
","","","-1","","","23","9113","3860","&#9826;","elianto","#f73b6a7A","-1","-1","1","0","[]","0","0","3","","","","","","","",""
"pit-trial","69","565815","0.0-2.0-14.2-0.2","battery-v0.2","","""event"",""trial"",""time""
""blur"",""1"",""3891""
""focus"",""1"",""11772""
""fullscreenenter"",""1"",""12748""
","""event"",""trial"",""time""
""blur"",""1"",""3891""
","""event"",""trial"",""time""
""focus"",""1"",""11772""
","""event"",""trial"",""time""
""fullscreenenter"",""1"",""12748""
","
","","","-1","","","23","9113","3860","&#9826;","elianto","#f73b6a7A","-1","-1","1","0","[]","0","0","3","","","","","","","",""
"pit-trial","70","570668","0.0-2.0-14.2-1.2","battery-v0.2","","""event"",""trial"",""time""
""blur"",""1"",""3891""
""focus"",""1"",""11772""
""fullscreenenter"",""1"",""12748""
","""event"",""trial"",""time""
""blur"",""1"",""3891""
","""event"",""trial"",""time""
""focus"",""1"",""11772""
","""event"",""trial"",""time""
""fullscreenenter"",""1"",""12748""
","
","","","-1","","","23","9113","3860","&#9826;","elianto","#f73b6a7A","-1","-1","1","0","[]","0","0","3","","","","","","","",""
"pit-trial","71","575522","0.0-2.0-14.2-2.2","battery-v0.2","","""event"",""trial"",""time""
""blur"",""1"",""3891""
""focus"",""1"",""11772""
""fullscreenenter"",""1"",""12748""
","""event"",""trial"",""time""
""blur"",""1"",""3891""
","""event"",""trial"",""time""
""focus"",""1"",""11772""
","""event"",""trial"",""time""
""fullscreenenter"",""1"",""12748""
","
","","","-1","","","23","9113","3860","&#9826;","elianto","#f73b6a7A","-1","-1","1","0","[]","0","0","3","","","","","","","",""
"pit-trial","72","580375","0.0-2.0-14.2-3.2","battery-v0.2","","""event"",""trial"",""time""
""blur"",""1"",""3891""
""focus"",""1"",""11772""
""fullscreenenter"",""1"",""12748""
","""event"",""trial"",""time""
""blur"",""1"",""3891""
","""event"",""trial"",""time""
""focus"",""1"",""11772""
","""event"",""trial"",""time""
""fullscreenenter"",""1"",""12748""
","
","","","-1","","","23","9113","3860","&#9826;","elianto","#f73b6a7A","-1","-1","1","-10","[]","0","0","3","","","","","","","",""
"pit-trial","73","585228","0.0-2.0-14.2-4.2","battery-v0.2","","""event"",""trial"",""time""
""blur"",""1"",""3891""
""focus"",""1"",""11772""
""fullscreenenter"",""1"",""12748""
","""event"",""trial"",""time""
""blur"",""1"",""3891""
","""event"",""trial"",""time""
""focus"",""1"",""11772""
","""event"",""trial"",""time""
""fullscreenenter"",""1"",""12748""
","
","","","-1","","","23","9113","3860","&#9826;","elianto","#f73b6a7A","-1","-1","1","0","[]","0","0","3","","","","","","","",""
"pit-trial","74","590083","0.0-2.0-14.3-0.3","battery-v0.2","","""event"",""trial"",""time""
""blur"",""1"",""3891""
""focus"",""1"",""11772""
""fullscreenenter"",""1"",""12748""
","""event"",""trial"",""time""
""blur"",""1"",""3891""
","""event"",""trial"",""time""
""focus"",""1"",""11772""
","""event"",""trial"",""time""
""fullscreenenter"",""1"",""12748""
","
","","","-1","","","23","9113","3860","&#9826;","elianto","#f73b6a7A","-1","-1","1","0","[]","0","0","3","","","","","","","",""
"pit-trial","75","594938","0.0-2.0-14.3-1.3","battery-v0.2","","""event"",""trial"",""time""
""blur"",""1"",""3891""
""focus"",""1"",""11772""
""fullscreenenter"",""1"",""12748""
","""event"",""trial"",""time""
""blur"",""1"",""3891""
","""event"",""trial"",""time""
""focus"",""1"",""11772""
","""event"",""trial"",""time""
""fullscreenenter"",""1"",""12748""
","
","","","-1","","","23","9113","3860","&#9826;","elianto","#f73b6a7A","-1","-1","1","0","[]","0","0","3","","","","","","","",""
"pit-trial","76","599791","0.0-2.0-14.3-2.3","battery-v0.2","","""event"",""trial"",""time""
""blur"",""1"",""3891""
""focus"",""1"",""11772""
""fullscreenenter"",""1"",""12748""
","""event"",""trial"",""time""
""blur"",""1"",""3891""
","""event"",""trial"",""time""
""focus"",""1"",""11772""
","""event"",""trial"",""time""
""fullscreenenter"",""1"",""12748""
","
","","","-1","","","23","9113","3860","&#9826;","elianto","#f73b6a7A","-1","-1","1","0","[]","0","0","3","","","","","","","",""
"pit-trial","77","604645","0.0-2.0-14.3-3.3","battery-v0.2","","""event"",""trial"",""time""
""blur"",""1"",""3891""
""focus"",""1"",""11772""
""fullscreenenter"",""1"",""12748""
","""event"",""trial"",""time""
""blur"",""1"",""3891""
","""event"",""trial"",""time""
""focus"",""1"",""11772""
","""event"",""trial"",""time""
""fullscreenenter"",""1"",""12748""
","
","","","-1","","","23","9113","3860","&#9826;","elianto","#f73b6a7A","-1","-1","1","-10","[]","0","0","3","","","","","","","",""
"pit-trial","78","609499","0.0-2.0-14.3-4.3","battery-v0.2","","""event"",""trial"",""time""
""blur"",""1"",""3891""
""focus"",""1"",""11772""
""fullscreenenter"",""1"",""12748""
","""event"",""trial"",""time""
""blur"",""1"",""3891""
","""event"",""trial"",""time""
""focus"",""1"",""11772""
","""event"",""trial"",""time""
""fullscreenenter"",""1"",""12748""
","
","","","-1","","","23","9113","3860","&#9826;","elianto","#f73b6a7A","-1","-1","1","0","[]","0","0","3","","","","","","","",""
"call-function","79","609501","0.0-2.0-15.0","battery-v0.2","","""event"",""trial"",""time""
""blur"",""1"",""3891""
""focus"",""1"",""11772""
""fullscreenenter"",""1"",""12748""
","""event"",""trial"",""time""
""blur"",""1"",""3891""
","""event"",""trial"",""time""
""focus"",""1"",""11772""
","""event"",""trial"",""time""
""fullscreenenter"",""1"",""12748""
","
","","","","","","","","","","","","","","","","","","","","","","","","","","",""
"pit-instructions","80","636922","0.0-2.0-16.0","battery-v0.2","","""event"",""trial"",""time""
""blur"",""1"",""3891""
""focus"",""1"",""11772""
""fullscreenenter"",""1"",""12748""
","""event"",""trial"",""time""
""blur"",""1"",""3891""
","""event"",""trial"",""time""
""focus"",""1"",""11772""
","""event"",""trial"",""time""
""fullscreenenter"",""1"",""12748""
","
","","[{""page_index"":0,""viewing_time"":8325.899999856949},{""page_index"":1,""viewing_time"":8288.200000047684},{""page_index"":2,""viewing_time"":4837.099999904633},{""page_index"":3,""viewing_time"":5968.5}]","27420.199999809265","","","","","","","","","","","","","","","","","","","","","","","",""
"pit-trial","81","640225","0.0-2.0-17.0-0.0","battery-v0.2","","""event"",""trial"",""time""
""blur"",""1"",""3891""
""focus"",""1"",""11772""
""fullscreenenter"",""1"",""12748""
","""event"",""trial"",""time""
""blur"",""1"",""3891""
","""event"",""trial"",""time""
""focus"",""1"",""11772""
","""event"",""trial"",""time""
""fullscreenenter"",""1"",""12748""
","
","","","426.30000019073486","","","23","9113","3860","&#9789;","elianto","#f73b6a7A"," "," ","1","0","[1285.5]","1","0","4","","","","","","","",""
"pit-trial","82","643403","0.0-2.0-17.0-1.0","battery-v0.2","","""event"",""trial"",""time""
""blur"",""1"",""3891""
""focus"",""1"",""11772""
""fullscreenenter"",""1"",""12748""
","""event"",""trial"",""time""
""blur"",""1"",""3891""
","""event"",""trial"",""time""
""focus"",""1"",""11772""
","""event"",""trial"",""time""
""fullscreenenter"",""1"",""12748""
","
","","","306.90000009536743","","","23","9113","3860","&#9789;","elianto","#f73b6a7A"," "," ","1","0","[1162.1999998092651]","1","0","4","","","","","","","",""
"pit-trial","83","646419","0.0-2.0-17.0-2.0","battery-v0.2","","""event"",""trial"",""time""
""blur"",""1"",""3891""
""focus"",""1"",""11772""
""fullscreenenter"",""1"",""12748""
","""event"",""trial"",""time""
""blur"",""1"",""3891""
","""event"",""trial"",""time""
""focus"",""1"",""11772""
","""event"",""trial"",""time""
""fullscreenenter"",""1"",""12748""
","
","","","155","","","23","9113","3860","&#9789;","elianto","#f73b6a7A"," "," ","1","0","[1009.7000000476837]","1","0","4","","","","","","","",""
"pit-trial","84","649411","0.0-2.0-17.0-3.0","battery-v0.2","","""event"",""trial"",""time""
""blur"",""1"",""3891""
""focus"",""1"",""11772""
""fullscreenenter"",""1"",""12748""
","""event"",""trial"",""time""
""blur"",""1"",""3891""
","""event"",""trial"",""time""
""focus"",""1"",""11772""
","""event"",""trial"",""time""
""fullscreenenter"",""1"",""12748""
","
","","","130.30000019073486","","","23","9113","3860","&#9789;","elianto","#f73b6a7A"," "," ","1","-10","[982.8000001907349]","1","0","4","","","","","","","",""
"pit-trial","85","652412","0.0-2.0-17.0-4.0","battery-v0.2","","""event"",""trial"",""time""
""blur"",""1"",""3891""
""focus"",""1"",""11772""
""fullscreenenter"",""1"",""12748""
","""event"",""trial"",""time""
""blur"",""1"",""3891""
","""event"",""trial"",""time""
""focus"",""1"",""11772""
","""event"",""trial"",""time""
""fullscreenenter"",""1"",""12748""
","
","","","145.5","","","23","9113","3860","&#9789;","elianto","#f73b6a7A"," "," ","1","0","[997.7000000476837]","1","0","4","","","","","","","",""
"pit-trial","86","655399","0.0-2.0-17.1-0.1","battery-v0.2","","""event"",""trial"",""time""
""blur"",""1"",""3891""
""focus"",""1"",""11772""
""fullscreenenter"",""1"",""12748""
","""event"",""trial"",""time""
""blur"",""1"",""3891""
","""event"",""trial"",""time""
""focus"",""1"",""11772""
","""event"",""trial"",""time""
""fullscreenenter"",""1"",""12748""
","
","","","128.5","","","23","9113","3860","&#9789;","elianto","#f73b6a7A"," "," ","1","0","[981.6999998092651]","1","0","4","","","","","","","",""
"pit-trial","87","658557","0.0-2.0-17.1-1.1","battery-v0.2","","""event"",""trial"",""time""
""blur"",""1"",""3891""
""focus"",""1"",""11772""
""fullscreenenter"",""1"",""12748""
","""event"",""trial"",""time""
""blur"",""1"",""3891""
","""event"",""trial"",""time""
""focus"",""1"",""11772""
","""event"",""trial"",""time""
""fullscreenenter"",""1"",""12748""
","
","","","302.2000000476837","","","23","9113","3860","&#9789;","elianto","#f73b6a7A"," "," ","1","0","[1152.5999999046326]","1","0","4","","","","","","","",""
"pit-trial","88","661573","0.0-2.0-17.1-2.1","battery-v0.2","","""event"",""trial"",""time""
""blur"",""1"",""3891""
""focus"",""1"",""11772""
""fullscreenenter"",""1"",""12748""
","""event"",""trial"",""time""
""blur"",""1"",""3891""
","""event"",""trial"",""time""
""focus"",""1"",""11772""
","""event"",""trial"",""time""
""fullscreenenter"",""1"",""12748""
","
","","","150.10000014305115","","","23","9113","3860","&#9789;","elianto","#f73b6a7A"," "," ","1","0","[1003.7000000476837]","1","0","4","","","","","","","",""
"pit-trial","89","664622","0.0-2.0-17.1-3.1","battery-v0.2","","""event"",""trial"",""time""
""blur"",""1"",""3891""
""focus"",""1"",""11772""
""fullscreenenter"",""1"",""12748""
","""event"",""trial"",""time""
""blur"",""1"",""3891""
","""event"",""trial"",""time""
""focus"",""1"",""11772""
","""event"",""trial"",""time""
""fullscreenenter"",""1"",""12748""
","
","","","190.69999980926514","","","23","9113","3860","&#9789;","elianto","#f73b6a7A"," "," ","1","-10","[1044.1999998092651]","1","0","4","","","","","","","",""
"pit-trial","90","667596","0.0-2.0-17.1-4.1","battery-v0.2","","""event"",""trial"",""time""
""blur"",""1"",""3891""
""focus"",""1"",""11772""
""fullscreenenter"",""1"",""12748""
","""event"",""trial"",""time""
""blur"",""1"",""3891""
","""event"",""trial"",""time""
""focus"",""1"",""11772""
","""event"",""trial"",""time""
""fullscreenenter"",""1"",""12748""
","
","","","119.90000009536743","","","23","9113","3860","&#9789;","elianto","#f73b6a7A"," "," ","1","0","[971.9000000953674]","1","0","4","","","","","","","",""
"pit-trial","91","670605","0.0-2.0-17.2-0.2","battery-v0.2","","""event"",""trial"",""time""
""blur"",""1"",""3891""
""focus"",""1"",""11772""
""fullscreenenter"",""1"",""12748""
","""event"",""trial"",""time""
""blur"",""1"",""3891""
","""event"",""trial"",""time""
""focus"",""1"",""11772""
","""event"",""trial"",""time""
""fullscreenenter"",""1"",""12748""
","
","","","154.5","","","23","9113","3860","&#9789;","elianto","#f73b6a7A"," "," ","1","0","[1005.4000000953674]","1","0","4","","","","","","","",""
"pit-trial","92","675458","0.0-2.0-17.2-1.2","battery-v0.2","","""event"",""trial"",""time""
""blur"",""1"",""3891""
""focus"",""1"",""11772""
""fullscreenenter"",""1"",""12748""
","""event"",""trial"",""time""
""blur"",""1"",""3891""
","""event"",""trial"",""time""
""focus"",""1"",""11772""
","""event"",""trial"",""time""
""fullscreenenter"",""1"",""12748""
","
","","","-1","","","23","9113","3860","&#9789;","elianto","#f73b6a7A"," ","-1","0","-10","[]","0","0","4","","","","","","","",""
"pit-trial","93","678522","0.0-2.0-17.2-2.2","battery-v0.2","","""event"",""trial"",""time""
""blur"",""1"",""3891""
""focus"",""1"",""11772""
""fullscreenenter"",""1"",""12748""
","""event"",""trial"",""time""
""blur"",""1"",""3891""
","""event"",""trial"",""time""
""focus"",""1"",""11772""
","""event"",""trial"",""time""
""fullscreenenter"",""1"",""12748""
","
","","","209","","","23","9113","3860","&#9789;","elianto","#f73b6a7A"," "," ","1","0","[1060.7999999523163]","1","0","4","","","","","","","",""
"pit-trial","94","681528","0.0-2.0-17.2-3.2","battery-v0.2","","""event"",""trial"",""time""
""blur"",""1"",""3891""
""focus"",""1"",""11772""
""fullscreenenter"",""1"",""12748""
","""event"",""trial"",""time""
""blur"",""1"",""3891""
","""event"",""trial"",""time""
""focus"",""1"",""11772""
","""event"",""trial"",""time""
""fullscreenenter"",""1"",""12748""
","
","","","153","","","23","9113","3860","&#9789;","elianto","#f73b6a7A"," "," ","1","-10","[1004.1000001430511]","1","0","4","","","","","","","",""
"pit-trial","95","684593","0.0-2.0-17.2-4.2","battery-v0.2","","""event"",""trial"",""time""
""blur"",""1"",""3891""
""focus"",""1"",""11772""
""fullscreenenter"",""1"",""12748""
","""event"",""trial"",""time""
""blur"",""1"",""3891""
","""event"",""trial"",""time""
""focus"",""1"",""11772""
","""event"",""trial"",""time""
""fullscreenenter"",""1"",""12748""
","
","","","210.79999995231628","","","23","9113","3860","&#9789;","elianto","#f73b6a7A"," "," ","1","0","[1062.1000001430511]","1","0","4","","","","","","","",""
"pit-trial","96","687589","0.0-2.0-17.3-0.3","battery-v0.2","","""event"",""trial"",""time""
""blur"",""1"",""3891""
""focus"",""1"",""11772""
""fullscreenenter"",""1"",""12748""
","""event"",""trial"",""time""
""blur"",""1"",""3891""
","""event"",""trial"",""time""
""focus"",""1"",""11772""
","""event"",""trial"",""time""
""fullscreenenter"",""1"",""12748""
","
","","","131.29999995231628","","","23","9113","3860","&#9789;","elianto","#f73b6a7A"," "," ","1","0","[981.7999999523163]","1","0","4","","","","","","","",""
"pit-trial","97","690567","0.0-2.0-17.3-1.3","battery-v0.2","","""event"",""trial"",""time""
""blur"",""1"",""3891""
""focus"",""1"",""11772""
""fullscreenenter"",""1"",""12748""
","""event"",""trial"",""time""
""blur"",""1"",""3891""
","""event"",""trial"",""time""
""focus"",""1"",""11772""
","""event"",""trial"",""time""
""fullscreenenter"",""1"",""12748""
","
","","","123.70000004768372","","","23","9113","3860","&#9789;","elianto","#f73b6a7A"," "," ","1","0","[974.8999998569489]","1","0","4","","","","","","","",""
"pit-trial","98","693541","0.0-2.0-17.3-2.3","battery-v0.2","","""event"",""trial"",""time""
""blur"",""1"",""3891""
""focus"",""1"",""11772""
""fullscreenenter"",""1"",""12748""
","""event"",""trial"",""time""
""blur"",""1"",""3891""
","""event"",""trial"",""time""
""focus"",""1"",""11772""
","""event"",""trial"",""time""
""fullscreenenter"",""1"",""12748""
","
","","","119.79999995231628","","","23","9113","3860","&#9789;","elianto","#f73b6a7A"," "," ","1","0","[970.2999999523163]","1","0","4","","","","","","","",""
"pit-trial","99","696462","0.0-2.0-17.3-3.3","battery-v0.2","","""event"",""trial"",""time""
""blur"",""1"",""3891""
""focus"",""1"",""11772""
""fullscreenenter"",""1"",""12748""
","""event"",""trial"",""time""
""blur"",""1"",""3891""
","""event"",""trial"",""time""
""focus"",""1"",""11772""
","""event"",""trial"",""time""
""fullscreenenter"",""1"",""12748""
","
","","","67.39999985694885","","","23","9113","3860","&#9789;","elianto","#f73b6a7A"," "," ","1","-10","[917.6000001430511]","1","0","4","","","","","","","",""
"pit-trial","100","699486","0.0-2.0-17.3-4.3","battery-v0.2","","""event"",""trial"",""time""
""blur"",""1"",""3891""
""focus"",""1"",""11772""
""fullscreenenter"",""1"",""12748""
","""event"",""trial"",""time""
""blur"",""1"",""3891""
","""event"",""trial"",""time""
""focus"",""1"",""11772""
","""event"",""trial"",""time""
""fullscreenenter"",""1"",""12748""
","
","","","171.20000004768372","","","23","9113","3860","&#9789;","elianto","#f73b6a7A"," "," ","1","0","[1021.5]","1","0","4","","","","","","","",""
"call-function","101","699488","0.0-2.0-18.0","battery-v0.2","","""event"",""trial"",""time""
""blur"",""1"",""3891""
""focus"",""1"",""11772""
""fullscreenenter"",""1"",""12748""
","""event"",""trial"",""time""
""blur"",""1"",""3891""
","""event"",""trial"",""time""
""focus"",""1"",""11772""
","""event"",""trial"",""time""
""fullscreenenter"",""1"",""12748""
","
","","","","","","","","","","","","","","","","","","","","","","","","","","",""
"pit-instructions","102","772253","0.0-2.0-19.0","battery-v0.2","","""event"",""trial"",""time""
""blur"",""1"",""3891""
""focus"",""1"",""11772""
""fullscreenenter"",""1"",""12748""
","""event"",""trial"",""time""
""blur"",""1"",""3891""
","""event"",""trial"",""time""
""focus"",""1"",""11772""
","""event"",""trial"",""time""
""fullscreenenter"",""1"",""12748""
","
","","[{""page_index"":0,""viewing_time"":8439},{""page_index"":1,""viewing_time"":7905.700000047684},{""page_index"":2,""viewing_time"":13914.400000095367},{""page_index"":3,""viewing_time"":8037.299999952316},{""page_index"":4,""viewing_time"":8224.5},{""page_index"":5,""viewing_time"":8091.900000095367},{""page_index"":6,""viewing_time"":8075.899999856949},{""page_index"":7,""viewing_time"":6377},{""page_index"":8,""viewing_time"":3698.9000000953674}]","72765","","","","","","","","","","","","","","","","","","","","","","","",""
"pit-comprehension","103","776444","0.0-2.0-20.0-0.0","battery-v0.2","","""event"",""trial"",""time""
""blur"",""1"",""3891""
""focus"",""1"",""11772""
""fullscreenenter"",""1"",""12748""
","""event"",""trial"",""time""
""blur"",""1"",""3891""
","""event"",""trial"",""time""
""focus"",""1"",""11772""
","""event"",""trial"",""time""
""fullscreenenter"",""1"",""12748""
","
","","","4188.100000143051","[""SPACE""]","0","23","9113","3860","","","","","","","","","","","","","","","","","","",""
"pit-instructions","104","781898","0.0-2.0-20.0-1.0","battery-v0.2","","""event"",""trial"",""time""
""blur"",""1"",""3891""
""focus"",""1"",""11772""
""fullscreenenter"",""1"",""12748""
","""event"",""trial"",""time""
""blur"",""1"",""3891""
","""event"",""trial"",""time""
""focus"",""1"",""11772""
","""event"",""trial"",""time""
""fullscreenenter"",""1"",""12748""
","
","","[{""page_index"":0,""viewing_time"":5413.799999952316}]","5414","","","","","","","","","","","","","","","","","","","","","","","",""
"pit-comprehension","105","786766","0.0-2.0-21.0-0.0","battery-v0.2","","""event"",""trial"",""time""
""blur"",""1"",""3891""
""focus"",""1"",""11772""
""fullscreenenter"",""1"",""12748""
","""event"",""trial"",""time""
""blur"",""1"",""3891""
","""event"",""trial"",""time""
""focus"",""1"",""11772""
","""event"",""trial"",""time""
""fullscreenenter"",""1"",""12748""
","
","","","4865.900000095367","[""10""]","0","23","9113","3860","","","","","","","","","","","","","","","","","","",""
"pit-instructions","106","791221","0.0-2.0-21.0-1.0","battery-v0.2","","""event"",""trial"",""time""
""blur"",""1"",""3891""
""focus"",""1"",""11772""
""fullscreenenter"",""1"",""12748""
","""event"",""trial"",""time""
""blur"",""1"",""3891""
","""event"",""trial"",""time""
""focus"",""1"",""11772""
","""event"",""trial"",""time""
""fullscreenenter"",""1"",""12748""
","
","","[{""page_index"":0,""viewing_time"":4425.899999856949}]","4426.299999952316","","","","","","","","","","","","","","","","","","","","","","","",""
"pit-comprehension","107","797675","0.0-2.0-22.0-0.0","battery-v0.2","","""event"",""trial"",""time""
""blur"",""1"",""3891""
""focus"",""1"",""11772""
""fullscreenenter"",""1"",""12748""
","""event"",""trial"",""time""
""blur"",""1"",""3891""
","""event"",""trial"",""time""
""focus"",""1"",""11772""
","""event"",""trial"",""time""
""fullscreenenter"",""1"",""12748""
","
","","","6451.600000143051","[""0""]","0","23","9113","3860","","","","","","","","","","","","","","","","","","",""
"pit-instructions","108","801498","0.0-2.0-22.0-1.0","battery-v0.2","","""event"",""trial"",""time""
""blur"",""1"",""3891""
""focus"",""1"",""11772""
""fullscreenenter"",""1"",""12748""
","""event"",""trial"",""time""
""blur"",""1"",""3891""
","""event"",""trial"",""time""
""focus"",""1"",""11772""
","""event"",""trial"",""time""
""fullscreenenter"",""1"",""12748""
","
","","[{""page_index"":0,""viewing_time"":3796.899999856949}]","3797.0999999046326","","","","","","","","","","","","","","","","","","","","","","","",""
"pit-comprehension","109","810082","0.0-2.0-23.0-0.0","battery-v0.2","","""event"",""trial"",""time""
""blur"",""1"",""3891""
""focus"",""1"",""11772""
""fullscreenenter"",""1"",""12748""
","""event"",""trial"",""time""
""blur"",""1"",""3891""
","""event"",""trial"",""time""
""focus"",""1"",""11772""
","""event"",""trial"",""time""
""fullscreenenter"",""1"",""12748""
","
","","","8582.299999952316","[""True""]","0","23","9113","3860","","","","","","","","","","","","","","","","","","",""
"pit-instructions","110","812548","0.0-2.0-23.0-1.0","battery-v0.2","","""event"",""trial"",""time""
""blur"",""1"",""3891""
""focus"",""1"",""11772""
""fullscreenenter"",""1"",""12748""
","""event"",""trial"",""time""
""blur"",""1"",""3891""
","""event"",""trial"",""time""
""focus"",""1"",""11772""
","""event"",""trial"",""time""
""fullscreenenter"",""1"",""12748""
","
","","[{""page_index"":0,""viewing_time"":2437.7000000476837}]","2437.9000000953674","","","","","","","","","","","","","","","","","","","","","","","",""
"pit-comprehension","111","819788","0.0-2.0-24.0-0.0","battery-v0.2","","""event"",""trial"",""time""
""blur"",""1"",""3891""
""focus"",""1"",""11772""
""fullscreenenter"",""1"",""12748""
","""event"",""trial"",""time""
""blur"",""1"",""3891""
","""event"",""trial"",""time""
""focus"",""1"",""11772""
","""event"",""trial"",""time""
""fullscreenenter"",""1"",""12748""
","
","","","7238.5","[""True""]","0","23","9113","3860","","","","","","","","","","","","","","","","","","",""
"pit-instructions","112","823595","0.0-2.0-24.0-1.0","battery-v0.2","","""event"",""trial"",""time""
""blur"",""1"",""3891""
""focus"",""1"",""11772""
""fullscreenenter"",""1"",""12748""
","""event"",""trial"",""time""
""blur"",""1"",""3891""
","""event"",""trial"",""time""
""focus"",""1"",""11772""
","""event"",""trial"",""time""
""fullscreenenter"",""1"",""12748""
","
","","[{""page_index"":0,""viewing_time"":3779.300000190735}]","3779.5","","","","","","","","","","","","","","","","","","","","","","","",""
"pit-comprehension","113","829760","0.0-2.0-25.0-0.0","battery-v0.2","","""event"",""trial"",""time""
""blur"",""1"",""3891""
""focus"",""1"",""11772""
""fullscreenenter"",""1"",""12748""
","""event"",""trial"",""time""
""blur"",""1"",""3891""
","""event"",""trial"",""time""
""focus"",""1"",""11772""
","""event"",""trial"",""time""
""fullscreenenter"",""1"",""12748""
","
","","","6162.799999952316","[""True""]","0","23","9113","3860","","","","","","","","","","","","","","","","","","",""
"pit-instructions","114","834901","0.0-2.0-25.0-1.0","battery-v0.2","","""event"",""trial"",""time""
""blur"",""1"",""3891""
""focus"",""1"",""11772""
""fullscreenenter"",""1"",""12748""
","""event"",""trial"",""time""
""blur"",""1"",""3891""
","""event"",""trial"",""time""
""focus"",""1"",""11772""
","""event"",""trial"",""time""
""fullscreenenter"",""1"",""12748""
","
","","[{""page_index"":0,""viewing_time"":5111.799999952316}]","5112.099999904633","","","","","","","","","","","","","","","","","","","","","","","",""
"pit-comprehension","115","839616","0.0-2.0-26.0-0.0","battery-v0.2","","""event"",""trial"",""time""
""blur"",""1"",""3891""
""focus"",""1"",""11772""
""fullscreenenter"",""1"",""12748""
","""event"",""trial"",""time""
""blur"",""1"",""3891""
","""event"",""trial"",""time""
""focus"",""1"",""11772""
","""event"",""trial"",""time""
""fullscreenenter"",""1"",""12748""
","
","","","4712.400000095367","[""False""]","0","23","9113","3860","","","","","","","","","","","","","","","","","","",""
"pit-instructions","116","841528","0.0-2.0-26.0-1.0","battery-v0.2","","""event"",""trial"",""time""
""blur"",""1"",""3891""
""focus"",""1"",""11772""
""fullscreenenter"",""1"",""12748""
","""event"",""trial"",""time""
""blur"",""1"",""3891""
","""event"",""trial"",""time""
""focus"",""1"",""11772""
","""event"",""trial"",""time""
""fullscreenenter"",""1"",""12748""
","
","","[{""page_index"":0,""viewing_time"":1881.6000001430511}]","1881.7999999523163","","","","","","","","","","","","","","","","","","","","","","","",""
"pit-instructions","117","858210","0.0-3.0","battery-v0.2","","""event"",""trial"",""time""
""blur"",""1"",""3891""
""focus"",""1"",""11772""
""fullscreenenter"",""1"",""12748""
","""event"",""trial"",""time""
""blur"",""1"",""3891""
","""event"",""trial"",""time""
""focus"",""1"",""11772""
","""event"",""trial"",""time""
""fullscreenenter"",""1"",""12748""
","
","","[{""page_index"":0,""viewing_time"":4272.900000095367},{""page_index"":1,""viewing_time"":5501.5},{""page_index"":2,""viewing_time"":6906.099999904633}]","16680.800000190735","","","","","","","","","","","","","","","","","","","","","","","",""
"pit-trial","118","863077","0.0-4.0","battery-v0.2","","""event"",""trial"",""time""
""blur"",""1"",""3891""
""focus"",""1"",""11772""
""fullscreenenter"",""1"",""12748""
","""event"",""trial"",""time""
""blur"",""1"",""3891""
","""event"",""trial"",""time""
""focus"",""1"",""11772""
","""event"",""trial"",""time""
""fullscreenenter"",""1"",""12748""
","
","","","-1","","","23","9113","3860","&#9752;","elianto","#f73b6a7A"," ","-1","0","-10","[]","0","1","","","9113","1","3","3","lose","go","0"
"pit-trial","119","866739","0.0-5.0","battery-v0.2","","""event"",""trial"",""time""
""blur"",""1"",""3891""
""focus"",""1"",""11772""
""fullscreenenter"",""1"",""12748""
","""event"",""trial"",""time""
""blur"",""1"",""3891""
","""event"",""trial"",""time""
""focus"",""1"",""11772""
","""event"",""trial"",""time""
""fullscreenenter"",""1"",""12748""
","
","","","797.0999999046326","","","23","9113","3860","&#9733;","elianto","#3366ff99","-1"," ","0","0","[1649.5]","1","1","","","9113","2","2","2","win","no-go","0"
"pit-trial","120","870315","0.0-6.0","battery-v0.2","","""event"",""trial"",""time""
""blur"",""1"",""3891""
""focus"",""1"",""11772""
""fullscreenenter"",""1"",""12748""
","""event"",""trial"",""time""
""blur"",""1"",""3891""
","""event"",""trial"",""time""
""focus"",""1"",""11772""
","""event"",""trial"",""time""
""fullscreenenter"",""1"",""12748""
","
","","","713.1000001430511","","","23","9113","3860","&#9728;","elianto","#f73b6a7A","-1"," ","0","0","[1567.8000001907349]","1","1","","","9113","3","0","4","lose","no-go","1"
"pit-trial","121","873791","0.0-7.0","battery-v0.2","","""event"",""trial"",""time""
""blur"",""1"",""3891""
""focus"",""1"",""11772""
""fullscreenenter"",""1"",""12748""
","""event"",""trial"",""time""
""blur"",""1"",""3891""
","""event"",""trial"",""time""
""focus"",""1"",""11772""
","""event"",""trial"",""time""
""fullscreenenter"",""1"",""12748""
","
","","","611.7000000476837","","","23","9113","3860","&#9730;","elianto","#3366ff99"," "," ","1","+10","[1465]","1","1","","","9113","4","1","1","win","go","0"
"pit-trial","122","877484","0.0-8.0","battery-v0.2","","""event"",""trial"",""time""
""blur"",""1"",""3891""
""focus"",""1"",""11772""
""fullscreenenter"",""1"",""12748""
","""event"",""trial"",""time""
""blur"",""1"",""3891""
","""event"",""trial"",""time""
""focus"",""1"",""11772""
","""event"",""trial"",""time""
""fullscreenenter"",""1"",""12748""
","
","","","825.3999998569489","","","23","9113","3860","&#9728;","elianto","#f73b6a7A","-1"," ","0","-10","[1686.5]","1","1","","","9113","5","0","4","lose","no-go","0"
"pit-trial","123","881002","0.0-9.0","battery-v0.2","","""event"",""trial"",""time""
""blur"",""1"",""3891""
""focus"",""1"",""11772""
""fullscreenenter"",""1"",""12748""
","""event"",""trial"",""time""
""blur"",""1"",""3891""
","""event"",""trial"",""time""
""focus"",""1"",""11772""
","""event"",""trial"",""time""
""fullscreenenter"",""1"",""12748""
","
","","","659.3999998569489","","","23","9113","3860","&#9733;","elianto","#3366ff99","-1"," ","0","+10","[1510.8999998569489]","1","1","","","9113","6","2","2","win","no-go","1"
"pit-trial","124","884352","0.0-10.0","battery-v0.2","","""event"",""trial"",""time""
""blur"",""1"",""3891""
""focus"",""1"",""11772""
""fullscreenenter"",""1"",""12748""
","""event"",""trial"",""time""
""blur"",""1"",""3891""
","""event"",""trial"",""time""
""focus"",""1"",""11772""
","""event"",""trial"",""time""
""fullscreenenter"",""1"",""12748""
","
","","","494","","","23","9113","3860","&#9730;","elianto","#3366ff99"," "," ","1","+10","[1345.9000000953674]","1","1","","","9113","7","1","1","win","go","0"
"pit-trial","125","888348","0.0-11.0","battery-v0.2","","""event"",""trial"",""time""
""blur"",""1"",""3891""
""focus"",""1"",""11772""
""fullscreenenter"",""1"",""12748""
","""event"",""trial"",""time""
""blur"",""1"",""3891""
","""event"",""trial"",""time""
""focus"",""1"",""11772""
","""event"",""trial"",""time""
""fullscreenenter"",""1"",""12748""
","
","","","1136.2999999523163","","","23","9113","3860","&#9752;","elianto","#f73b6a7A"," "," ","1","0","[1988.1000001430511]","1","1","","","9113","8","3","3","lose","go","0"
"pit-trial","126","891901","0.0-12.0","battery-v0.2","","""event"",""trial"",""time""
""blur"",""1"",""3891""
""focus"",""1"",""11772""
""fullscreenenter"",""1"",""12748""
","""event"",""trial"",""time""
""blur"",""1"",""3891""
","""event"",""trial"",""time""
""focus"",""1"",""11772""
","""event"",""trial"",""time""
""fullscreenenter"",""1"",""12748""
","
","","","698.8000001907349","","","23","9113","3860","&#9752;","elianto","#f73b6a7A"," "," ","1","0","[1549.3999998569489]","1","1","","","9113","9","3","3","lose","go","0"
"pit-trial","127","896755","0.0-13.0","battery-v0.2","","""event"",""trial"",""time""
""blur"",""1"",""3891""
""focus"",""1"",""11772""
""fullscreenenter"",""1"",""12748""
","""event"",""trial"",""time""
""blur"",""1"",""3891""
","""event"",""trial"",""time""
""focus"",""1"",""11772""
","""event"",""trial"",""time""
""fullscreenenter"",""1"",""12748""
","
","","","-1","","","23","9113","3860","&#9728;","elianto","#f73b6a7A","-1","-1","1","-10","[]","0","1","","","9113","10","0","4","lose","no-go","1"
"pit-trial","128","900185","0.0-14.0","battery-v0.2","","""event"",""trial"",""time""
""blur"",""1"",""3891""
""focus"",""1"",""11772""
""fullscreenenter"",""1"",""12748""
","""event"",""trial"",""time""
""blur"",""1"",""3891""
","""event"",""trial"",""time""
""focus"",""1"",""11772""
","""event"",""trial"",""time""
""fullscreenenter"",""1"",""12748""
","
","","","576.7999999523163","","","23","9113","3860","&#9733;","elianto","#3366ff99","-1"," ","0","0","[1427.9000000953674]","1","1","","","9113","11","2","2","win","no-go","0"
"pit-trial","129","903453","0.0-15.0","battery-v0.2","","""event"",""trial"",""time""
""blur"",""1"",""3891""
""focus"",""1"",""11772""
""fullscreenenter"",""1"",""12748""
","""event"",""trial"",""time""
""blur"",""1"",""3891""
","""event"",""trial"",""time""
""focus"",""1"",""11772""
","""event"",""trial"",""time""
""fullscreenenter"",""1"",""12748""
","
","","","414.09999990463257","","","23","9113","3860","&#9730;","elianto","#3366ff99"," "," ","1","+10","[1265.0999999046326]","1","1","","","9113","12","1","1","win","go","0"
"pit-trial","130","906923","0.0-16.0","battery-v0.2","","""event"",""trial"",""time""
""blur"",""1"",""3891""
""focus"",""1"",""11772""
""fullscreenenter"",""1"",""12748""
","""event"",""trial"",""time""
""blur"",""1"",""3891""
","""event"",""trial"",""time""
""focus"",""1"",""11772""
","""event"",""trial"",""time""
""fullscreenenter"",""1"",""12748""
","
","","","616.4000000953674","","","23","9113","3860","&#9730;","elianto","#3366ff99"," "," ","1","+10","[1466.6000001430511]","1","1","","","9113","13","1","1","win","go","0"
"pit-trial","131","910636","0.0-17.0","battery-v0.2","","""event"",""trial"",""time""
""blur"",""1"",""3891""
""focus"",""1"",""11772""
""fullscreenenter"",""1"",""12748""
","""event"",""trial"",""time""
""blur"",""1"",""3891""
","""event"",""trial"",""time""
""focus"",""1"",""11772""
","""event"",""trial"",""time""
""fullscreenenter"",""1"",""12748""
","
","","","859.2999999523163","","","23","9113","3860","&#9728;","elianto","#f73b6a7A","-1"," ","0","-10","[1710.0999999046326]","1","1","","","9113","14","0","4","lose","no-go","0"
"pit-trial","132","914190","0.0-18.0","battery-v0.2","","""event"",""trial"",""time""
""blur"",""1"",""3891""
""focus"",""1"",""11772""
""fullscreenenter"",""1"",""12748""
","""event"",""trial"",""time""
""blur"",""1"",""3891""
","""event"",""trial"",""time""
""focus"",""1"",""11772""
","""event"",""trial"",""time""
""fullscreenenter"",""1"",""12748""
","
","","","701.3000001907349","","","23","9113","3860","&#9752;","elianto","#f73b6a7A"," "," ","1","-10","[1551.5]","1","1","","","9113","15","3","3","lose","go","1"
"pit-trial","133","919043","0.0-19.0","battery-v0.2","","""event"",""trial"",""time""
""blur"",""1"",""3891""
""focus"",""1"",""11772""
""fullscreenenter"",""1"",""12748""
","""event"",""trial"",""time""
""blur"",""1"",""3891""
","""event"",""trial"",""time""
""focus"",""1"",""11772""
","""event"",""trial"",""time""
""fullscreenenter"",""1"",""12748""
","
","","","-1","","","23","9113","3860","&#9733;","elianto","#3366ff99","-1","-1","1","0","[]","0","1","","","9113","16","2","2","win","no-go","1"
"pit-trial","134","922430","0.0-20.0","battery-v0.2","","""event"",""trial"",""time""
""blur"",""1"",""3891""
""focus"",""1"",""11772""
""fullscreenenter"",""1"",""12748""
","""event"",""trial"",""time""
""blur"",""1"",""3891""
","""event"",""trial"",""time""
""focus"",""1"",""11772""
","""event"",""trial"",""time""
""fullscreenenter"",""1"",""12748""
","
","","","531.7000000476837","","","23","9113","3860","&#9730;","elianto","#3366ff99"," "," ","1","+10","[1383.7000000476837]","1","1","","","9113","17","1","1","win","go","0"
"pit-trial","135","927282","0.0-21.0","battery-v0.2","","""event"",""trial"",""time""
""blur"",""1"",""3891""
""focus"",""1"",""11772""
""fullscreenenter"",""1"",""12748""
","""event"",""trial"",""time""
""blur"",""1"",""3891""
","""event"",""trial"",""time""
""focus"",""1"",""11772""
","""event"",""trial"",""time""
""fullscreenenter"",""1"",""12748""
","
","","","-1","","","23","9113","3860","&#9728;","elianto","#f73b6a7A","-1","-1","1","0","[]","0","1","","","9113","18","0","4","lose","no-go","0"
"pit-trial","136","932140","0.0-22.0","battery-v0.2","","""event"",""trial"",""time""
""blur"",""1"",""3891""
""focus"",""1"",""11772""
""fullscreenenter"",""1"",""12748""
","""event"",""trial"",""time""
""blur"",""1"",""3891""
","""event"",""trial"",""time""
""focus"",""1"",""11772""
","""event"",""trial"",""time""
""fullscreenenter"",""1"",""12748""
","
","","","-1","","","23","9113","3860","&#9733;","elianto","#3366ff99","-1","-1","1","+10","[]","0","1","","","9113","19","2","2","win","no-go","0"
"pit-trial","137","935864","0.0-23.0","battery-v0.2","","""event"",""trial"",""time""
""blur"",""1"",""3891""
""focus"",""1"",""11772""
""fullscreenenter"",""1"",""12748""
","""event"",""trial"",""time""
""blur"",""1"",""3891""
","""event"",""trial"",""time""
""focus"",""1"",""11772""
","""event"",""trial"",""time""
""fullscreenenter"",""1"",""12748""
","
","","","870.7999999523163","","","23","9113","3860","&#9752;","elianto","#f73b6a7A"," "," ","1","0","[1721.4000000953674]","1","1","","","9113","20","3","3","lose","go","0"
"pit-instructions","138","952437","0.0-24.0","battery-v0.2","","""event"",""trial"",""time""
""blur"",""1"",""3891""
""focus"",""1"",""11772""
""fullscreenenter"",""1"",""12748""
","""event"",""trial"",""time""
""blur"",""1"",""3891""
","""event"",""trial"",""time""
""focus"",""1"",""11772""
","""event"",""trial"",""time""
""fullscreenenter"",""1"",""12748""
","
","","[{""page_index"":0,""viewing_time"":5671.200000047684},{""page_index"":1,""viewing_time"":10899.400000095367}]","16570.799999952316","","","","","","","","","","","","","","","","","","","","","","","",""
"pit-trial","139","957314","0.0-25.0","battery-v0.2","","""event"",""trial"",""time""
""blur"",""1"",""3891""
""focus"",""1"",""11772""
""fullscreenenter"",""1"",""12748""
","""event"",""trial"",""time""
""blur"",""1"",""3891""
","""event"",""trial"",""time""
""focus"",""1"",""11772""
","""event"",""trial"",""time""
""fullscreenenter"",""1"",""12748""
","
","","","-1","","","23","9113","3860","b","elianto","#f73b6a7A","-1","-1","1","0","[]","0","2","","","9113","21","3","4","lose","no-go","0"
"pit-trial","140","962193","0.0-26.0","battery-v0.2","","""event"",""trial"",""time""
""blur"",""1"",""3891""
""focus"",""1"",""11772""
""fullscreenenter"",""1"",""12748""
","""event"",""trial"",""time""
""blur"",""1"",""3891""
","""event"",""trial"",""time""
""focus"",""1"",""11772""
","""event"",""trial"",""time""
""fullscreenenter"",""1"",""12748""
","
","","","-1","","","23","9113","3860","n","elianto","#f73b6a7A"," ","-1","0","-10","[]","0","2","","","9113","22","0","3","lose","go","0"
"pit-trial","141","965944","0.0-27.0","battery-v0.2","","""event"",""trial"",""time""
""blur"",""1"",""3891""
""focus"",""1"",""11772""
""fullscreenenter"",""1"",""12748""
","""event"",""trial"",""time""
""blur"",""1"",""3891""
","""event"",""trial"",""time""
""focus"",""1"",""11772""
","""event"",""trial"",""time""
""fullscreenenter"",""1"",""12748""
","
","","","881.7000000476837","","","23","9113","3860","f","elianto","#3366ff99","-1"," ","0","+10","[1734.8000001907349]","1","2","","","9113","23","1","2","win","no-go","1"
"pit-trial","142","970810","0.0-28.0","battery-v0.2","","""event"",""trial"",""time""
""blur"",""1"",""3891""
""focus"",""1"",""11772""
""fullscreenenter"",""1"",""12748""
","""event"",""trial"",""time""
""blur"",""1"",""3891""
","""event"",""trial"",""time""
""focus"",""1"",""11772""
","""event"",""trial"",""time""
""fullscreenenter"",""1"",""12748""
","
","","","-1","","","23","9113","3860","t","elianto","#f73b6a7A"," ","-1","0","-10","[]","0","2","","","9113","24","2","3","lose","go","0"
"pit-trial","143","975690","0.0-29.0","battery-v0.2","","""event"",""trial"",""time""
""blur"",""1"",""3891""
""focus"",""1"",""11772""
""fullscreenenter"",""1"",""12748""
","""event"",""trial"",""time""
""blur"",""1"",""3891""
","""event"",""trial"",""time""
""focus"",""1"",""11772""
","""event"",""trial"",""time""
""fullscreenenter"",""1"",""12748""
","
","","","-1","","","23","9113","3860","b","elianto","#f73b6a7A","-1","-1","1","-10","[]","0","2","","","9113","25","3","4","lose","no-go","1"
"pit-trial","144","979277","0.0-30.0","battery-v0.2","","""event"",""trial"",""time""
""blur"",""1"",""3891""
""focus"",""1"",""11772""
""fullscreenenter"",""1"",""12748""
","""event"",""trial"",""time""
""blur"",""1"",""3891""
","""event"",""trial"",""time""
""focus"",""1"",""11772""
","""event"",""trial"",""time""
""fullscreenenter"",""1"",""12748""
","
","","","732.2000000476837","","","23","9113","3860","n","elianto","#f73b6a7A"," "," ","1","0","[1583.8999998569489]","1","2","","","9113","26","0","3","lose","go","0"
"pit-trial","145","983054","0.0-31.0","battery-v0.2","","""event"",""trial"",""time""
""blur"",""1"",""3891""
""focus"",""1"",""11772""
""fullscreenenter"",""1"",""12748""
","""event"",""trial"",""time""
""blur"",""1"",""3891""
","""event"",""trial"",""time""
""focus"",""1"",""11772""
","""event"",""trial"",""time""
""fullscreenenter"",""1"",""12748""
","
","","","922.9000000953674","","","23","9113","3860","t","elianto","#f73b6a7A"," "," ","1","0","[1773.6000001430511]","1","2","","","9113","27","2","3","lose","go","0"
"pit-trial","146","986393","0.0-32.0","battery-v0.2","","""event"",""trial"",""time""
""blur"",""1"",""3891""
""focus"",""1"",""11772""
""fullscreenenter"",""1"",""12748""
","""event"",""trial"",""time""
""blur"",""1"",""3891""
","""event"",""trial"",""time""
""focus"",""1"",""11772""
","""event"",""trial"",""time""
""fullscreenenter"",""1"",""12748""
","
","","","485.40000009536743","","","23","9113","3860","f","elianto","#3366ff99","-1"," ","0","+10","[1336.2999999523163]","1","2","","","9113","28","1","2","win","no-go","1"
"pit-trial","147","989926","0.0-33.0","battery-v0.2","","""event"",""trial"",""time""
""blur"",""1"",""3891""
""focus"",""1"",""11772""
""fullscreenenter"",""1"",""12748""
","""event"",""trial"",""time""
""blur"",""1"",""3891""
","""event"",""trial"",""time""
""focus"",""1"",""11772""
","""event"",""trial"",""time""
""fullscreenenter"",""1"",""12748""
","
","","","678.0999999046326","","","23","9113","3860","t","elianto","#f73b6a7A"," "," ","1","0","[1529]","1","2","","","9113","29","2","3","lose","go","0"
"pit-trial","148","994780","0.0-34.0","battery-v0.2","","""event"",""trial"",""time""
""blur"",""1"",""3891""
""focus"",""1"",""11772""
""fullscreenenter"",""1"",""12748""
","""event"",""trial"",""time""
""blur"",""1"",""3891""
","""event"",""trial"",""time""
""focus"",""1"",""11772""
","""event"",""trial"",""time""
""fullscreenenter"",""1"",""12748""
","
","","","-1","","","23","9113","3860","b","elianto","#f73b6a7A","-1","-1","1","0","[]","0","2","","","9113","30","3","4","lose","no-go","0"
"pit-trial","149","998111","0.0-35.0","battery-v0.2","","""event"",""trial"",""time""
""blur"",""1"",""3891""
""focus"",""1"",""11772""
""fullscreenenter"",""1"",""12748""
","""event"",""trial"",""time""
""blur"",""1"",""3891""
","""event"",""trial"",""time""
""focus"",""1"",""11772""
","""event"",""trial"",""time""
""fullscreenenter"",""1"",""12748""
","
","","","477.40000009536743","","","23","9113","3860","f","elianto","#3366ff99","-1"," ","0","+10","[1328.2000000476837]","1","2","","","9113","31","1","2","win","no-go","1"
"pit-trial","150","1001857","0.0-36.0","battery-v0.2","","""event"",""trial"",""time""
""blur"",""1"",""3891""
""focus"",""1"",""11772""
""fullscreenenter"",""1"",""12748""
","""event"",""trial"",""time""
""blur"",""1"",""3891""
","""event"",""trial"",""time""
""focus"",""1"",""11772""
","""event"",""trial"",""time""
""fullscreenenter"",""1"",""12748""
","
","","","891.2000000476837","","","23","9113","3860","n","elianto","#f73b6a7A"," "," ","1","0","[1742.2000000476837]","1","2","","","9113","32","0","3","lose","go","0"
"pit-trial","151","1005452","0.0-37.0","battery-v0.2","","""event"",""trial"",""time""
""blur"",""1"",""3891""
""focus"",""1"",""11772""
""fullscreenenter"",""1"",""12748""
","""event"",""trial"",""time""
""blur"",""1"",""3891""
","""event"",""trial"",""time""
""focus"",""1"",""11772""
","""event"",""trial"",""time""
""fullscreenenter"",""1"",""12748""
","
","","","741.5999999046326","","","23","9113","3860","n","elianto","#f73b6a7A"," "," ","1","0","[1591.7999999523163]","1","2","","","9113","33","0","3","lose","go","0"
"pit-trial","152","1008835","0.0-38.0","battery-v0.2","","""event"",""trial"",""time""
""blur"",""1"",""3891""
""focus"",""1"",""11772""
""fullscreenenter"",""1"",""12748""
","""event"",""trial"",""time""
""blur"",""1"",""3891""
","""event"",""trial"",""time""
""focus"",""1"",""11772""
","""event"",""trial"",""time""
""fullscreenenter"",""1"",""12748""
","
","","","528.7999999523163","","","23","9113","3860","f","elianto","#3366ff99","-1"," ","0","0","[1379.7000000476837]","1","2","","","9113","34","1","2","win","no-go","0"
"pit-trial","153","1012185","0.0-39.0","battery-v0.2","","""event"",""trial"",""time""
""blur"",""1"",""3891""
""focus"",""1"",""11772""
""fullscreenenter"",""1"",""12748""
","""event"",""trial"",""time""
""blur"",""1"",""3891""
","""event"",""trial"",""time""
""focus"",""1"",""11772""
","""event"",""trial"",""time""
""fullscreenenter"",""1"",""12748""
","
","","","485.7000000476837","","","23","9113","3860","b","elianto","#f73b6a7A","-1"," ","0","-10","[1336.1000001430511]","1","2","","","9113","35","3","4","lose","no-go","0"
"pit-trial","154","1015710","0.0-40.0","battery-v0.2","","""event"",""trial"",""time""
""blur"",""1"",""3891""
""focus"",""1"",""11772""
""fullscreenenter"",""1"",""12748""
","""event"",""trial"",""time""
""blur"",""1"",""3891""
","""event"",""trial"",""time""
""focus"",""1"",""11772""
","""event"",""trial"",""time""
""fullscreenenter"",""1"",""12748""
","
","","","672","","","23","9113","3860","t","elianto","#f73b6a7A"," "," ","1","-10","[1522.2000000476837]","1","2","","","9113","36","2","3","lose","go","1"
"pit-trial","155","1019147","0.0-41.0","battery-v0.2","","""event"",""trial"",""time""
""blur"",""1"",""3891""
""focus"",""1"",""11772""
""fullscreenenter"",""1"",""12748""
","""event"",""trial"",""time""
""blur"",""1"",""3891""
","""event"",""trial"",""time""
""focus"",""1"",""11772""
","""event"",""trial"",""time""
""fullscreenenter"",""1"",""12748""
","
","","","581.1000001430511","","","23","9113","3860","n","elianto","#f73b6a7A"," "," ","1","0","[1434.2000000476837]","1","2","","","9113","37","0","3","lose","go","0"
"pit-trial","156","1024002","0.0-42.0","battery-v0.2","","""event"",""trial"",""time""
""blur"",""1"",""3891""
""focus"",""1"",""11772""
""fullscreenenter"",""1"",""12748""
","""event"",""trial"",""time""
""blur"",""1"",""3891""
","""event"",""trial"",""time""
""focus"",""1"",""11772""
","""event"",""trial"",""time""
""fullscreenenter"",""1"",""12748""
","
","","","-1","","","23","9113","3860","b","elianto","#f73b6a7A","-1","-1","1","0","[]","0","2","","","9113","38","3","4","lose","no-go","0"
"pit-trial","157","1028855","0.0-43.0","battery-v0.2","","""event"",""trial"",""time""
""blur"",""1"",""3891""
""focus"",""1"",""11772""
""fullscreenenter"",""1"",""12748""
","""event"",""trial"",""time""
""blur"",""1"",""3891""
","""event"",""trial"",""time""
""focus"",""1"",""11772""
","""event"",""trial"",""time""
""fullscreenenter"",""1"",""12748""
","
","","","-1","","","23","9113","3860","t","elianto","#f73b6a7A"," ","-1","0","0","[]","0","2","","","9113","39","2","3","lose","go","1"
"pit-trial","158","1032151","0.0-44.0","battery-v0.2","","""event"",""trial"",""time""
""blur"",""1"",""3891""
""focus"",""1"",""11772""
""fullscreenenter"",""1"",""12748""
","""event"",""trial"",""time""
""blur"",""1"",""3891""
","""event"",""trial"",""time""
""focus"",""1"",""11772""
","""event"",""trial"",""time""
""fullscreenenter"",""1"",""12748""
","
","","","442.10000014305115","","","23","9113","3860","f","elianto","#3366ff99","-1"," ","0","0","[1292.7999999523163]","1","2","","","9113","40","1","2","win","no-go","0"
"pit-trial","159","1036015","0.0-45.0","battery-v0.2","","""event"",""trial"",""time""
""blur"",""1"",""3891""
""focus"",""1"",""11772""
""fullscreenenter"",""1"",""12748""
","""event"",""trial"",""time""
""blur"",""1"",""3891""
","""event"",""trial"",""time""
""focus"",""1"",""11772""
","""event"",""trial"",""time""
""fullscreenenter"",""1"",""12748""
","
","","","1010.8999998569489","","","23","9113","3860","n","elianto","#f73b6a7A"," "," ","1","0","[1861.2000000476837]","1","2","","","9113","41","0","3","lose","go","0"
"pit-trial","160","1040869","0.0-46.0","battery-v0.2","","""event"",""trial"",""time""
""blur"",""1"",""3891""
""focus"",""1"",""11772""
""fullscreenenter"",""1"",""12748""
","""event"",""trial"",""time""
""blur"",""1"",""3891""
","""event"",""trial"",""time""
""focus"",""1"",""11772""
","""event"",""trial"",""time""
""fullscreenenter"",""1"",""12748""
","
","","","-1","","","23","9113","3860","b","elianto","#f73b6a7A","-1","-1","1","0","[]","0","2","","","9113","42","3","4","lose","no-go","0"
"pit-trial","161","1045721","0.0-47.0","battery-v0.2","","""event"",""trial"",""time""
""blur"",""1"",""3891""
""focus"",""1"",""11772""
""fullscreenenter"",""1"",""12748""
","""event"",""trial"",""time""
""blur"",""1"",""3891""
","""event"",""trial"",""time""
""focus"",""1"",""11772""
","""event"",""trial"",""time""
""fullscreenenter"",""1"",""12748""
","
","","","-1","","","23","9113","3860","t","elianto","#f73b6a7A"," ","-1","0","-10","[]","0","2","","","9113","43","2","3","lose","go","0"
"pit-trial","162","1049076","0.0-48.0","battery-v0.2","","""event"",""trial"",""time""
""blur"",""1"",""3891""
""focus"",""1"",""11772""
""fullscreenenter"",""1"",""12748""
","""event"",""trial"",""time""
""blur"",""1"",""3891""
","""event"",""trial"",""time""
""focus"",""1"",""11772""
","""event"",""trial"",""time""
""fullscreenenter"",""1"",""12748""
","
","","","501.7000000476837","","","23","9113","3860","f","elianto","#3366ff99","-1"," ","0","0","[1352.6000001430511]","1","2","","","9113","44","1","2","win","no-go","0"
"pit-trial","163","1053931","0.0-49.0","battery-v0.2","","""event"",""trial"",""time""
""blur"",""1"",""3891""
""focus"",""1"",""11772""
""fullscreenenter"",""1"",""12748""
","""event"",""trial"",""time""
""blur"",""1"",""3891""
","""event"",""trial"",""time""
""focus"",""1"",""11772""
","""event"",""trial"",""time""
""fullscreenenter"",""1"",""12748""
","
","","","-1","","","23","9113","3860","t","elianto","#f73b6a7A"," ","-1","0","0","[]","0","2","","","9113","45","2","3","lose","go","1"
"pit-trial","164","1057260","0.0-50.0","battery-v0.2","","""event"",""trial"",""time""
""blur"",""1"",""3891""
""focus"",""1"",""11772""
""fullscreenenter"",""1"",""12748""
","""event"",""trial"",""time""
""blur"",""1"",""3891""
","""event"",""trial"",""time""
""focus"",""1"",""11772""
","""event"",""trial"",""time""
""fullscreenenter"",""1"",""12748""
","
","","","475","","","23","9113","3860","f","elianto","#3366ff99","-1"," ","0","0","[1326.1999998092651]","1","2","","","9113","46","1","2","win","no-go","0"
"pit-trial","165","1060965","0.0-51.0","battery-v0.2","","""event"",""trial"",""time""
""blur"",""1"",""3891""
""focus"",""1"",""11772""
""fullscreenenter"",""1"",""12748""
","""event"",""trial"",""time""
""blur"",""1"",""3891""
","""event"",""trial"",""time""
""focus"",""1"",""11772""
","""event"",""trial"",""time""
""fullscreenenter"",""1"",""12748""
","
","","","851.5999999046326","","","23","9113","3860","n","elianto","#f73b6a7A"," "," ","1","0","[1702.2999999523163]","1","2","","","9113","47","0","3","lose","go","0"
"pit-trial","166","1065819","0.0-52.0","battery-v0.2","","""event"",""trial"",""time""
""blur"",""1"",""3891""
""focus"",""1"",""11772""
""fullscreenenter"",""1"",""12748""
","""event"",""trial"",""time""
""blur"",""1"",""3891""
","""event"",""trial"",""time""
""focus"",""1"",""11772""
","""event"",""trial"",""time""
""fullscreenenter"",""1"",""12748""
","
","","","-1","","","23","9113","3860","b","elianto","#f73b6a7A","-1","-1","1","0","[]","0","2","","","9113","48","3","4","lose","no-go","0"
"pit-trial","167","1070674","0.0-53.0","battery-v0.2","","""event"",""trial"",""time""
""blur"",""1"",""3891""
""focus"",""1"",""11772""
""fullscreenenter"",""1"",""12748""
","""event"",""trial"",""time""
""blur"",""1"",""3891""
","""event"",""trial"",""time""
""focus"",""1"",""11772""
","""event"",""trial"",""time""
""fullscreenenter"",""1"",""12748""
","
","","","-1","","","23","9113","3860","n","elianto","#f73b6a7A"," ","-1","0","-10","[2877.199999809265]","1","2","","","9113","49","0","3","lose","go","0"
"pit-trial","168","1074223","0.0-54.0","battery-v0.2","","""event"",""trial"",""time""
""blur"",""1"",""3891""
""focus"",""1"",""11772""
""fullscreenenter"",""1"",""12748""
","""event"",""trial"",""time""
""blur"",""1"",""3891""
","""event"",""trial"",""time""
""focus"",""1"",""11772""
","""event"",""trial"",""time""
""fullscreenenter"",""1"",""12748""
","
","","","694.0999999046326","","","23","9113","3860","f","elianto","#3366ff99","-1"," ","0","0","[1544.9000000953674]","1","2","","","9113","50","1","2","win","no-go","0"
"pit-trial","169","1079077","0.0-55.0","battery-v0.2","","""event"",""trial"",""time""
""blur"",""1"",""3891""
""focus"",""1"",""11772""
""fullscreenenter"",""1"",""12748""
","""event"",""trial"",""time""
""blur"",""1"",""3891""
","""event"",""trial"",""time""
""focus"",""1"",""11772""
","""event"",""trial"",""time""
""fullscreenenter"",""1"",""12748""
","
","","","-1","","","23","9113","3860","b","elianto","#f73b6a7A","-1","-1","1","-10","[]","0","2","","","9113","51","3","4","lose","no-go","1"
"pit-trial","170","1083931","0.0-56.0","battery-v0.2","","""event"",""trial"",""time""
""blur"",""1"",""3891""
""focus"",""1"",""11772""
""fullscreenenter"",""1"",""12748""
","""event"",""trial"",""time""
""blur"",""1"",""3891""
","""event"",""trial"",""time""
""focus"",""1"",""11772""
","""event"",""trial"",""time""
""fullscreenenter"",""1"",""12748""
","
","","","-1","","","23","9113","3860","t","elianto","#f73b6a7A"," ","-1","0","-10","[]","0","2","","","9113","52","2","3","lose","go","0"
"pit-trial","171","1088474","0.0-57.0","battery-v0.2","","""event"",""trial"",""time""
""blur"",""1"",""3891""
""focus"",""1"",""11772""
""fullscreenenter"",""1"",""12748""
","""event"",""trial"",""time""
""blur"",""1"",""3891""
","""event"",""trial"",""time""
""focus"",""1"",""11772""
","""event"",""trial"",""time""
""fullscreenenter"",""1"",""12748""
","
","","","1688.8999998569489","","","23","9113","3860","t","elianto","#f73b6a7A"," "," ","1","0","[2540]","1","2","","","9113","53","2","3","lose","go","0"
"pit-trial","172","1093341","0.0-58.0","battery-v0.2","","""event"",""trial"",""time""
""blur"",""1"",""3891""
""focus"",""1"",""11772""
""fullscreenenter"",""1"",""12748""
","""event"",""trial"",""time""
""blur"",""1"",""3891""
","""event"",""trial"",""time""
""focus"",""1"",""11772""
","""event"",""trial"",""time""
""fullscreenenter"",""1"",""12748""
","
","","","-1","","","23","9113","3860","f","elianto","#3366ff99","-1","-1","1","+10","[]","0","2","","","9113","54","1","2","win","no-go","0"
"pit-trial","173","1098195","0.0-59.0","battery-v0.2","","""event"",""trial"",""time""
""blur"",""1"",""3891""
""focus"",""1"",""11772""
""fullscreenenter"",""1"",""12748""
","""event"",""trial"",""time""
""blur"",""1"",""3891""
","""event"",""trial"",""time""
""focus"",""1"",""11772""
","""event"",""trial"",""time""
""fullscreenenter"",""1"",""12748""
","
","","","-1","","","23","9113","3860","b","elianto","#f73b6a7A","-1","-1","1","0","[]","0","2","","","9113","55","3","4","lose","no-go","0"
"pit-trial","174","1101957","0.0-60.0","battery-v0.2","","""event"",""trial"",""time""
""blur"",""1"",""3891""
""focus"",""1"",""11772""
""fullscreenenter"",""1"",""12748""
","""event"",""trial"",""time""
""blur"",""1"",""3891""
","""event"",""trial"",""time""
""focus"",""1"",""11772""
","""event"",""trial"",""time""
""fullscreenenter"",""1"",""12748""
","
","","","908.5999999046326","","","23","9113","3860","n","elianto","#f73b6a7A"," "," ","1","0","[1759.0999999046326]","1","2","","","9113","56","0","3","lose","go","0"
"pit-trial","175","1105600","0.0-61.0","battery-v0.2","","""event"",""trial"",""time""
""blur"",""1"",""3891""
""focus"",""1"",""11772""
""fullscreenenter"",""1"",""12748""
","""event"",""trial"",""time""
""blur"",""1"",""3891""
","""event"",""trial"",""time""
""focus"",""1"",""11772""
","""event"",""trial"",""time""
""fullscreenenter"",""1"",""12748""
","
","","","787.4000000953674","","","23","9113","3860","t","elianto","#f73b6a7A"," "," ","1","-10","[1639.2999999523163]","1","2","","","9113","57","2","3","lose","go","1"
"pit-trial","176","1110454","0.0-62.0","battery-v0.2","","""event"",""trial"",""time""
""blur"",""1"",""3891""
""focus"",""1"",""11772""
""fullscreenenter"",""1"",""12748""
","""event"",""trial"",""time""
""blur"",""1"",""3891""
","""event"",""trial"",""time""
""focus"",""1"",""11772""
","""event"",""trial"",""time""
""fullscreenenter"",""1"",""12748""
","
","","","-1","","","23","9113","3860","b","elianto","#f73b6a7A","-1","-1","1","-10","[]","0","2","","","9113","58","3","4","lose","no-go","1"
"pit-trial","177","1114169","0.0-63.0","battery-v0.2","","""event"",""trial"",""time""
""blur"",""1"",""3891""
""focus"",""1"",""11772""
""fullscreenenter"",""1"",""12748""
","""event"",""trial"",""time""
""blur"",""1"",""3891""
","""event"",""trial"",""time""
""focus"",""1"",""11772""
","""event"",""trial"",""time""
""fullscreenenter"",""1"",""12748""
","
","","","860.8000001907349","","","23","9113","3860","c","elianto","#3366ff99"," "," ","1","+10","[1711.8000001907349]","1","2","","","9113","59","4","1","win","go","0"
"pit-trial","178","1117788","0.0-64.0","battery-v0.2","","""event"",""trial"",""time""
""blur"",""1"",""3891""
""focus"",""1"",""11772""
""fullscreenenter"",""1"",""12748""
","""event"",""trial"",""time""
""blur"",""1"",""3891""
","""event"",""trial"",""time""
""focus"",""1"",""11772""
","""event"",""trial"",""time""
""fullscreenenter"",""1"",""12748""
","
","","","765.6999998092651","","","23","9113","3860","n","elianto","#f73b6a7A"," "," ","1","0","[1616]","1","2","","","9113","60","0","3","lose","go","0"
"pit-trial","179","1122641","0.0-65.0","battery-v0.2","","""event"",""trial"",""time""
""blur"",""1"",""3891""
""focus"",""1"",""11772""
""fullscreenenter"",""1"",""12748""
","""event"",""trial"",""time""
""blur"",""1"",""3891""
","""event"",""trial"",""time""
""focus"",""1"",""11772""
","""event"",""trial"",""time""
""fullscreenenter"",""1"",""12748""
","
","","","-1","","","23","9113","3860","f","elianto","#3366ff99","-1","-1","1","+10","[]","0","2","","","9113","61","1","2","win","no-go","0"
"pit-trial","180","1126222","0.0-66.0","battery-v0.2","","""event"",""trial"",""time""
""blur"",""1"",""3891""
""focus"",""1"",""11772""
""fullscreenenter"",""1"",""12748""
","""event"",""trial"",""time""
""blur"",""1"",""3891""
","""event"",""trial"",""time""
""focus"",""1"",""11772""
","""event"",""trial"",""time""
""fullscreenenter"",""1"",""12748""
","
","","","727.4000000953674","","","23","9113","3860","c","elianto","#3366ff99"," "," ","1","+10","[1577.5999999046326]","1","2","","","9113","62","4","1","win","go","0"
"pit-trial","181","1131075","0.0-67.0","battery-v0.2","","""event"",""trial"",""time""
""blur"",""1"",""3891""
""focus"",""1"",""11772""
""fullscreenenter"",""1"",""12748""
","""event"",""trial"",""time""
""blur"",""1"",""3891""
","""event"",""trial"",""time""
""focus"",""1"",""11772""
","""event"",""trial"",""time""
""fullscreenenter"",""1"",""12748""
","
","","","-1","","","23","9113","3860","b","elianto","#f73b6a7A","-1","-1","1","0","[]","0","2","","","9113","63","3","4","lose","no-go","0"
"pit-trial","182","1134455","0.0-68.0","battery-v0.2","","""event"",""trial"",""time""
""blur"",""1"",""3891""
""focus"",""1"",""11772""
""fullscreenenter"",""1"",""12748""
","""event"",""trial"",""time""
""blur"",""1"",""3891""
","""event"",""trial"",""time""
""focus"",""1"",""11772""
","""event"",""trial"",""time""
""fullscreenenter"",""1"",""12748""
","
","","","525","","","23","9113","3860","t","elianto","#f73b6a7A"," "," ","1","0","[1376.6999998092651]","1","2","","","9113","64","2","3","lose","go","0"
"pit-trial","183","1139308","0.0-69.0","battery-v0.2","","""event"",""trial"",""time""
""blur"",""1"",""3891""
""focus"",""1"",""11772""
""fullscreenenter"",""1"",""12748""
","""event"",""trial"",""time""
""blur"",""1"",""3891""
","""event"",""trial"",""time""
""focus"",""1"",""11772""
","""event"",""trial"",""time""
""fullscreenenter"",""1"",""12748""
","
","","","-1","","","23","9113","3860","f","elianto","#3366ff99","-1","-1","1","+10","[]","0","2","","","9113","65","1","2","win","no-go","0"
"pit-trial","184","1142880","0.0-70.0","battery-v0.2","","""event"",""trial"",""time""
""blur"",""1"",""3891""
""focus"",""1"",""11772""
""fullscreenenter"",""1"",""12748""
","""event"",""trial"",""time""
""blur"",""1"",""3891""
","""event"",""trial"",""time""
""focus"",""1"",""11772""
","""event"",""trial"",""time""
""fullscreenenter"",""1"",""12748""
","
","","","718.5999999046326","","","23","9113","3860","z","elianto","#3366ff99","-1"," ","0","0","[1569]","1","2","","","9113","66","5","2","win","no-go","0"
"pit-trial","185","1146324","0.0-71.0","battery-v0.2","","""event"",""trial"",""time""
""blur"",""1"",""3891""
""focus"",""1"",""11772""
""fullscreenenter"",""1"",""12748""
","""event"",""trial"",""time""
""blur"",""1"",""3891""
