"trial_type","trial_index","time_elapsed","internal_node_id","task_version","subject_id","interactions","blur_events","focus_events","fullscreenenter_events","fullscreenexit_events","success","view_history","rt","responses","num_errors","age","subject","participantId","rune","rune_set","hex","correct","choice","accuracy","outcome","keys","total_keys","block","practice","value","sub","trial","stimulus","robot","valence","action","sham"
"pavlovia","0","23","0.0-0.0","battery-v0.2","","""event"",""trial"",""time""
""fullscreenenter"",""1"",""5896""
","
","
","""event"",""trial"",""time""
""fullscreenenter"",""1"",""5896""
","
","","","","","","","","","","","","","","","","","","","","","","","","","","",""
"fullscreen","1","6874","0.0-1.0","battery-v0.2","","""event"",""trial"",""time""
""fullscreenenter"",""1"",""5896""
","
","
","""event"",""trial"",""time""
""fullscreenenter"",""1"",""5896""
","
","true","","","","","","","","","","","","","","","","","","","","","","","","","",""
"pit-instructions","2","12596","0.0-2.0-0.0","battery-v0.2","","""event"",""trial"",""time""
""fullscreenenter"",""1"",""5896""
","
","
","""event"",""trial"",""time""
""fullscreenenter"",""1"",""5896""
","
","","[{""page_index"":0,""viewing_time"":5709.199999999721}]","5709.600000000093","","","","","","","","","","","","","","","","","","","","","","","",""
"pit-comprehension","3","17472","0.0-2.0-1.0-0.0","battery-v0.2","","""event"",""trial"",""time""
""fullscreenenter"",""1"",""5896""
","
","
","""event"",""trial"",""time""
""fullscreenenter"",""1"",""5896""
","
","","","4871.299999999814","[""shark""]","0","22","12856","5673","","","","","","","","","","","","","","","","","","",""
"pit-instructions","4","20422","0.0-2.0-1.0-1.0","battery-v0.2","","""event"",""trial"",""time""
""fullscreenenter"",""1"",""5896""
","
","
","""event"",""trial"",""time""
""fullscreenenter"",""1"",""5896""
","
","","[{""page_index"":0,""viewing_time"":2937}]","2937.2999999998137","","","","","","","","","","","","","","","","","","","","","","","",""
"pit-comprehension","5","24007","0.0-2.0-2.0-0.0","battery-v0.2","","""event"",""trial"",""time""
""fullscreenenter"",""1"",""5896""
","
","
","""event"",""trial"",""time""
""fullscreenenter"",""1"",""5896""
","
","","","3580.9000000003725","[""tiger""]","0","22","12856","5673","","","","","","","","","","","","","","","","","","",""
"pit-instructions","6","27700","0.0-2.0-2.0-1.0","battery-v0.2","","""event"",""trial"",""time""
""fullscreenenter"",""1"",""5896""
","
","
","""event"",""trial"",""time""
""fullscreenenter"",""1"",""5896""
","
","","[{""page_index"":0,""viewing_time"":3689.399999999907}]","3689.7999999998137","","","","","","","","","","","","","","","","","","","","","","","",""
"pit-instructions","7","143617","0.0-2.0-3.0","battery-v0.2","","""event"",""trial"",""time""
""fullscreenenter"",""1"",""5896""
","
","
","""event"",""trial"",""time""
""fullscreenenter"",""1"",""5896""
","
","","[{""page_index"":0,""viewing_time"":10928.399999999907},{""page_index"":1,""viewing_time"":6987.799999999814},{""page_index"":2,""viewing_time"":7279.700000000186},{""page_index"":3,""viewing_time"":7876.899999999907},{""page_index"":4,""viewing_time"":8128.700000000186},{""page_index"":5,""viewing_time"":6700.199999999721},{""page_index"":6,""viewing_time"":8990.700000000186},{""page_index"":7,""viewing_time"":9047.600000000093},{""page_index"":8,""viewing_time"":6429.199999999721},{""page_index"":9,""viewing_time"":10569.30000000028},{""page_index"":10,""viewing_time"":8845.599999999627},{""page_index"":11,""viewing_time"":9535.900000000373},{""page_index"":12,""viewing_time"":7427.199999999721},{""page_index"":13,""viewing_time"":7165.700000000186}]","115913.29999999981","","","","","","","","","","","","","","","","","","","","","","","",""
"pit-trial","8","147864","0.0-2.0-4.0-0.0","battery-v0.2","","""event"",""trial"",""time""
""fullscreenenter"",""1"",""5896""
","
","
","""event"",""trial"",""time""
""fullscreenenter"",""1"",""5896""
","
","","","1390","","","22","12856","5673","&#9784;","elianto","#FFFFF080"," "," ","1","&#10004","[2242.2999999998137]","1","0","0","","","","","","","",""
"pit-trial","9","151275","0.0-2.0-4.1-0.1","battery-v0.2","","""event"",""trial"",""time""
""fullscreenenter"",""1"",""5896""
","
","
","""event"",""trial"",""time""
""fullscreenenter"",""1"",""5896""
","
","","","552.5","","","22","12856","5673","&#9784;","elianto","#FFFFF080"," "," ","1","&#10004","[1402.5]","1","0","0","","","","","","","",""
"pit-trial","10","154625","0.0-2.0-4.2-0.2","battery-v0.2","","""event"",""trial"",""time""
""fullscreenenter"",""1"",""5896""
","
","
","""event"",""trial"",""time""
""fullscreenenter"",""1"",""5896""
","
","","","492.39999999990687","","","22","12856","5673","&#9784;","elianto","#FFFFF080"," "," ","1","&#10004","[1343.8999999999069]","1","0","0","","","","","","","",""
"pit-trial","11","158040","0.0-2.0-4.3-0.3","battery-v0.2","","""event"",""trial"",""time""
""fullscreenenter"",""1"",""5896""
","
","
","""event"",""trial"",""time""
""fullscreenenter"",""1"",""5896""
","
","","","555.7999999998137","","","22","12856","5673","&#9784;","elianto","#FFFFF080"," "," ","1","&#10004","[1409.5]","1","0","0","","","","","","","",""
"pit-trial","12","161459","0.0-2.0-4.4-0.4","battery-v0.2","","""event"",""trial"",""time""
""fullscreenenter"",""1"",""5896""
","
","
","""event"",""trial"",""time""
""fullscreenenter"",""1"",""5896""
","
","","","559.5","","","22","12856","5673","&#9784;","elianto","#FFFFF080"," "," ","1","&#10004","[1409.7999999998137]","1","0","0","","","","","","","",""
"pit-instructions","13","185504","0.0-2.0-5.0","battery-v0.2","","""event"",""trial"",""time""
""fullscreenenter"",""1"",""5896""
","
","
","""event"",""trial"",""time""
""fullscreenenter"",""1"",""5896""
","
","","[{""page_index"":0,""viewing_time"":5460.899999999907},{""page_index"":1,""viewing_time"":6426},{""page_index"":2,""viewing_time"":6320.399999999907},{""page_index"":3,""viewing_time"":5830.100000000093}]","24037.899999999907","","","","","","","","","","","","","","","","","","","","","","","",""
"pit-trial","14","190360","0.0-2.0-6.0-0.0","battery-v0.2","","""event"",""trial"",""time""
""fullscreenenter"",""1"",""5896""
","
","
","""event"",""trial"",""time""
""fullscreenenter"",""1"",""5896""
","
","","","-1","","","22","12856","5673","&#9854;","elianto","#FFFFF080","-1","-1","1","&#10004","[]","0","0","1","","","","","","","",""
"pit-trial","15","195218","0.0-2.0-6.1-0.1","battery-v0.2","","""event"",""trial"",""time""
""fullscreenenter"",""1"",""5896""
","
","
","""event"",""trial"",""time""
""fullscreenenter"",""1"",""5896""
","
","","","-1","","","22","12856","5673","&#9854;","elianto","#FFFFF080","-1","-1","1","&#10004","[]","0","0","1","","","","","","","",""
"pit-trial","16","200075","0.0-2.0-6.2-0.2","battery-v0.2","","""event"",""trial"",""time""
""fullscreenenter"",""1"",""5896""
","
","
","""event"",""trial"",""time""
""fullscreenenter"",""1"",""5896""
","
","","","-1","","","22","12856","5673","&#9854;","elianto","#FFFFF080","-1","-1","1","&#10004","[]","0","0","1","","","","","","","",""
"pit-trial","17","204933","0.0-2.0-6.3-0.3","battery-v0.2","","""event"",""trial"",""time""
""fullscreenenter"",""1"",""5896""
","
","
","""event"",""trial"",""time""
""fullscreenenter"",""1"",""5896""
","
","","","-1","","","22","12856","5673","&#9854;","elianto","#FFFFF080","-1","-1","1","&#10004","[]","0","0","1","","","","","","","",""
"pit-trial","18","209791","0.0-2.0-6.4-0.4","battery-v0.2","","""event"",""trial"",""time""
""fullscreenenter"",""1"",""5896""
","
","
","""event"",""trial"",""time""
""fullscreenenter"",""1"",""5896""
","
","","","-1","","","22","12856","5673","&#9854;","elianto","#FFFFF080","-1","-1","1","&#10004","[]","0","0","1","","","","","","","",""
"pit-instructions","19","342765","0.0-2.0-7.0","battery-v0.2","","""event"",""trial"",""time""
""fullscreenenter"",""1"",""5896""
","
","
","""event"",""trial"",""time""
""fullscreenenter"",""1"",""5896""
","
","","[{""page_index"":0,""viewing_time"":7335.5999999996275},{""page_index"":1,""viewing_time"":9332.600000000093},{""page_index"":2,""viewing_time"":6850.100000000093},{""page_index"":3,""viewing_time"":6569.399999999907},{""page_index"":4,""viewing_time"":7054.399999999907},{""page_index"":5,""viewing_time"":6668.600000000093},{""page_index"":6,""viewing_time"":5877.300000000279},{""page_index"":7,""viewing_time"":9229.5},{""page_index"":8,""viewing_time"":8374.799999999814},{""page_index"":9,""viewing_time"":7648.299999999814},{""page_index"":10,""viewing_time"":7067.800000000279},{""page_index"":11,""viewing_time"":6191.699999999721},{""page_index"":12,""viewing_time"":7733.200000000186},{""page_index"":13,""viewing_time"":8395.299999999814},{""page_index"":14,""viewing_time"":7276.800000000279},{""page_index"":15,""viewing_time"":6533.100000000093},{""page_index"":16,""viewing_time"":7187.399999999907},{""page_index"":17,""viewing_time"":7638.199999999721}]","132964.59999999963","","","","","","","","","","","","","","","","","","","","","","","",""
"pit-trial","20","346177","0.0-2.0-8.0-0.0","battery-v0.2","","""event"",""trial"",""time""
""fullscreenenter"",""1"",""5896""
","
","
","""event"",""trial"",""time""
""fullscreenenter"",""1"",""5896""
","
","","","557.8999999999069","","","22","12856","5673","&#9776;","elianto","#3366ff99"," "," ","1","+10","[1408.3999999999069]","1","0","1","","","","","","","",""
"pit-trial","21","349578","0.0-2.0-8.0-1.0","battery-v0.2","","""event"",""trial"",""time""
""fullscreenenter"",""1"",""5896""
","
","
","""event"",""trial"",""time""
""fullscreenenter"",""1"",""5896""
","
","","","544.8000000002794","","","22","12856","5673","&#9776;","elianto","#3366ff99"," "," ","1","+10","[1395.7000000001863,2885.5]","2","0","1","","","","","","","",""
"pit-trial","22","353068","0.0-2.0-8.0-2.0","battery-v0.2","","""event"",""trial"",""time""
""fullscreenenter"",""1"",""5896""
","
","
","""event"",""trial"",""time""
""fullscreenenter"",""1"",""5896""
","
","","","634.6000000000931","","","22","12856","5673","&#9776;","elianto","#3366ff99"," "," ","1","+10","[1485.1999999997206]","1","0","1","","","","","","","",""
"pit-trial","23","356458","0.0-2.0-8.0-3.0","battery-v0.2","","""event"",""trial"",""time""
""fullscreenenter"",""1"",""5896""
","
","
","""event"",""trial"",""time""
""fullscreenenter"",""1"",""5896""
","
","","","532.6000000000931","","","22","12856","5673","&#9776;","elianto","#3366ff99"," "," ","1","0","[1383.6000000000931]","1","0","1","","","","","","","",""
"pit-trial","24","359883","0.0-2.0-8.0-4.0","battery-v0.2","","""event"",""trial"",""time""
""fullscreenenter"",""1"",""5896""
","
","
","""event"",""trial"",""time""
""fullscreenenter"",""1"",""5896""
","
","","","567.7999999998137","","","22","12856","5673","&#9776;","elianto","#3366ff99"," "," ","1","+10","[1419]","1","0","1","","","","","","","",""
"pit-trial","25","363247","0.0-2.0-8.1-0.1","battery-v0.2","","""event"",""trial"",""time""
""fullscreenenter"",""1"",""5896""
","
","
","""event"",""trial"",""time""
""fullscreenenter"",""1"",""5896""
","
","","","506.10000000009313","","","22","12856","5673","&#9776;","elianto","#3366ff99"," "," ","1","+10","[1356.2999999998137]","1","0","1","","","","","","","",""
"pit-trial","26","366666","0.0-2.0-8.1-1.1","battery-v0.2","","""event"",""trial"",""time""
""fullscreenenter"",""1"",""5896""
","
","
","""event"",""trial"",""time""
""fullscreenenter"",""1"",""5896""
","
","","","564.2999999998137","","","22","12856","5673","&#9776;","elianto","#3366ff99"," "," ","1","+10","[1415.5]","1","0","1","","","","","","","",""
"pit-trial","27","370179","0.0-2.0-8.1-2.1","battery-v0.2","","""event"",""trial"",""time""
""fullscreenenter"",""1"",""5896""
","
","
","""event"",""trial"",""time""
""fullscreenenter"",""1"",""5896""
","
","","","656.1000000000931","","","22","12856","5673","&#9776;","elianto","#3366ff99"," "," ","1","+10","[1506.7999999998137]","1","0","1","","","","","","","",""
"pit-trial","28","373735","0.0-2.0-8.1-3.1","battery-v0.2","","""event"",""trial"",""time""
""fullscreenenter"",""1"",""5896""
","
","
","""event"",""trial"",""time""
""fullscreenenter"",""1"",""5896""
","
","","","700.6000000000931","","","22","12856","5673","&#9776;","elianto","#3366ff99"," "," ","1","0","[1551.7999999998137]","1","0","1","","","","","","","",""
"pit-trial","29","377096","0.0-2.0-8.1-4.1","battery-v0.2","","""event"",""trial"",""time""
""fullscreenenter"",""1"",""5896""
","
","
","""event"",""trial"",""time""
""fullscreenenter"",""1"",""5896""
","
","","","504","","","22","12856","5673","&#9776;","elianto","#3366ff99"," "," ","1","+10","[1357.1000000000931]","1","0","1","","","","","","","",""
"pit-trial","30","380500","0.0-2.0-8.2-0.2","battery-v0.2","","""event"",""trial"",""time""
""fullscreenenter"",""1"",""5896""
","
","
","""event"",""trial"",""time""
""fullscreenenter"",""1"",""5896""
","
","","","546.8000000002794","","","22","12856","5673","&#9776;","elianto","#3366ff99"," "," ","1","+10","[1397.6000000000931]","1","0","1","","","","","","","",""
"pit-trial","31","384023","0.0-2.0-8.2-1.2","battery-v0.2","","""event"",""trial"",""time""
""fullscreenenter"",""1"",""5896""
","
","
","""event"",""trial"",""time""
""fullscreenenter"",""1"",""5896""
","
","","","665.8999999999069","","","22","12856","5673","&#9776;","elianto","#3366ff99"," "," ","1","+10","[1518.2000000001863]","1","0","1","","","","","","","",""
"pit-trial","32","387478","0.0-2.0-8.2-2.2","battery-v0.2","","""event"",""trial"",""time""
""fullscreenenter"",""1"",""5896""
","
","
","""event"",""trial"",""time""
""fullscreenenter"",""1"",""5896""
","
","","","599.8000000002794","","","22","12856","5673","&#9776;","elianto","#3366ff99"," "," ","1","+10","[1450.1000000000931]","1","0","1","","","","","","","",""
"pit-trial","33","390878","0.0-2.0-8.2-3.2","battery-v0.2","","""event"",""trial"",""time""
""fullscreenenter"",""1"",""5896""
","
","
","""event"",""trial"",""time""
""fullscreenenter"",""1"",""5896""
","
","","","543.1000000000931","","","22","12856","5673","&#9776;","elianto","#3366ff99"," "," ","1","0","[1394.8999999999069]","1","0","1","","","","","","","",""
"pit-trial","34","394306","0.0-2.0-8.2-4.2","battery-v0.2","","""event"",""trial"",""time""
""fullscreenenter"",""1"",""5896""
","
","
","""event"",""trial"",""time""
""fullscreenenter"",""1"",""5896""
","
","","","571.6999999997206","","","22","12856","5673","&#9776;","elianto","#3366ff99"," "," ","1","+10","[1422.6999999997206]","1","0","1","","","","","","","",""
"call-function","35","394311","0.0-2.0-9.0","battery-v0.2","","""event"",""trial"",""time""
""fullscreenenter"",""1"",""5896""
","
","
","""event"",""trial"",""time""
""fullscreenenter"",""1"",""5896""
","
","","","","","","","","","","","","","","","","","","","","","","","","","","",""
"pit-instructions","36","440360","0.0-2.0-10.0","battery-v0.2","","""event"",""trial"",""time""
""fullscreenenter"",""1"",""5896""
","
","
","""event"",""trial"",""time""
""fullscreenenter"",""1"",""5896""
","
","","[{""page_index"":0,""viewing_time"":7473.600000000093},{""page_index"":1,""viewing_time"":8445},{""page_index"":2,""viewing_time"":11836.299999999814},{""page_index"":3,""viewing_time"":9333.700000000186},{""page_index"":4,""viewing_time"":8958.299999999814}]","46047.39999999991","","","","","","","","","","","","","","","","","","","","","","","",""
"pit-trial","37","443769","0.0-2.0-11.0-0.0","battery-v0.2","","""event"",""trial"",""time""
""fullscreenenter"",""1"",""5896""
","
","
","""event"",""trial"",""time""
""fullscreenenter"",""1"",""5896""
","
","","","556.2999999998137","","","22","12856","5673","&#9761;","elianto","#3366ff99","-1"," ","0","0","[1407.1000000000931]","1","0","2","","","","","","","",""
"pit-trial","38","446763","0.0-2.0-11.0-1.0","battery-v0.2","","""event"",""trial"",""time""
""fullscreenenter"",""1"",""5896""
","
","
","""event"",""trial"",""time""
""fullscreenenter"",""1"",""5896""
","
","","","141.59999999962747","","","22","12856","5673","&#9761;","elianto","#3366ff99","-1"," ","0","0","[991.7999999998137]","1","0","2","","","","","","","",""
"pit-trial","39","451619","0.0-2.0-11.0-2.0","battery-v0.2","","""event"",""trial"",""time""
""fullscreenenter"",""1"",""5896""
","
","
","""event"",""trial"",""time""
""fullscreenenter"",""1"",""5896""
","
","","","-1","","","22","12856","5673","&#9761;","elianto","#3366ff99","-1","-1","1","+10","[]","0","0","2","","","","","","","",""
"pit-trial","40","456475","0.0-2.0-11.0-3.0","battery-v0.2","","""event"",""trial"",""time""
""fullscreenenter"",""1"",""5896""
","
","
","""event"",""trial"",""time""
""fullscreenenter"",""1"",""5896""
","
","","","-1","","","22","12856","5673","&#9761;","elianto","#3366ff99","-1","-1","1","0","[]","0","0","2","","","","","","","",""
"pit-trial","41","461332","0.0-2.0-11.0-4.0","battery-v0.2","","""event"",""trial"",""time""
""fullscreenenter"",""1"",""5896""
","
","
","""event"",""trial"",""time""
""fullscreenenter"",""1"",""5896""
","
","","","-1","","","22","12856","5673","&#9761;","elianto","#3366ff99","-1","-1","1","+10","[]","0","0","2","","","","","","","",""
"pit-trial","42","465637","0.0-2.0-11.1-0.1","battery-v0.2","","""event"",""trial"",""time""
""fullscreenenter"",""1"",""5896""
","
","
","""event"",""trial"",""time""
""fullscreenenter"",""1"",""5896""
","
","","","1443.5999999996275","","","22","12856","5673","&#9761;","elianto","#3366ff99","-1"," ","0","0","[2297.5]","1","0","2","","","","","","","",""
"pit-trial","43","470493","0.0-2.0-11.1-1.1","battery-v0.2","","""event"",""trial"",""time""
""fullscreenenter"",""1"",""5896""
","
","
","""event"",""trial"",""time""
""fullscreenenter"",""1"",""5896""
","
","","","-1","","","22","12856","5673","&#9761;","elianto","#3366ff99","-1","-1","1","+10","[]","0","0","2","","","","","","","",""
"pit-trial","44","475072","0.0-2.0-11.1-2.1","battery-v0.2","","""event"",""trial"",""time""
""fullscreenenter"",""1"",""5896""
","
","
","""event"",""trial"",""time""
""fullscreenenter"",""1"",""5896""
","
","","","1722.8000000002794","","","22","12856","5673","&#9761;","elianto","#3366ff99","-1"," ","0","0","[2574.3000000002794]","1","0","2","","","","","","","",""
"pit-trial","45","478735","0.0-2.0-11.1-3.1","battery-v0.2","","""event"",""trial"",""time""
""fullscreenenter"",""1"",""5896""
","
","
","""event"",""trial"",""time""
""fullscreenenter"",""1"",""5896""
","
","","","809.2000000001863","","","22","12856","5673","&#9761;","elianto","#3366ff99","-1"," ","0","+10","[1660]","1","0","2","","","","","","","",""
"pit-trial","46","482128","0.0-2.0-11.1-4.1","battery-v0.2","","""event"",""trial"",""time""
""fullscreenenter"",""1"",""5896""
","
","
","""event"",""trial"",""time""
""fullscreenenter"",""1"",""5896""
","
","","","536.7000000001863","","","22","12856","5673","&#9761;","elianto","#3366ff99","-1"," ","0","0","[1387.6000000000931]","1","0","2","","","","","","","",""
"pit-trial","47","486067","0.0-2.0-11.2-0.2","battery-v0.2","","""event"",""trial"",""time""
""fullscreenenter"",""1"",""5896""
","
","
","""event"",""trial"",""time""
""fullscreenenter"",""1"",""5896""
","
","","","1081.1000000000931","","","22","12856","5673","&#9761;","elianto","#3366ff99","-1"," ","0","0","[1932]","1","0","2","","","","","","","",""
"pit-trial","48","489147","0.0-2.0-11.2-1.2","battery-v0.2","","""event"",""trial"",""time""
""fullscreenenter"",""1"",""5896""
","
","
","""event"",""trial"",""time""
""fullscreenenter"",""1"",""5896""
","
","","","225","","","22","12856","5673","&#9761;","elianto","#3366ff99","-1"," ","0","0","[1075]","1","0","2","","","","","","","",""
"pit-trial","49","494003","0.0-2.0-11.2-2.2","battery-v0.2","","""event"",""trial"",""time""
""fullscreenenter"",""1"",""5896""
","
","
","""event"",""trial"",""time""
""fullscreenenter"",""1"",""5896""
","
","","","-1","","","22","12856","5673","&#9761;","elianto","#3366ff99","-1","-1","1","+10","[]","0","0","2","","","","","","","",""
"pit-trial","50","498858","0.0-2.0-11.2-3.2","battery-v0.2","","""event"",""trial"",""time""
""fullscreenenter"",""1"",""5896""
","
","
","""event"",""trial"",""time""
""fullscreenenter"",""1"",""5896""
","
","","","-1","","","22","12856","5673","&#9761;","elianto","#3366ff99","-1","-1","1","0","[]","0","0","2","","","","","","","",""
"pit-trial","51","503715","0.0-2.0-11.2-4.2","battery-v0.2","","""event"",""trial"",""time""
""fullscreenenter"",""1"",""5896""
","
","
","""event"",""trial"",""time""
""fullscreenenter"",""1"",""5896""
","
","","","-1","","","22","12856","5673","&#9761;","elianto","#3366ff99","-1","-1","1","+10","[]","0","0","2","","","","","","","",""
"pit-trial","52","508570","0.0-2.0-11.3-0.3","battery-v0.2","","""event"",""trial"",""time""
""fullscreenenter"",""1"",""5896""
","
","
","""event"",""trial"",""time""
""fullscreenenter"",""1"",""5896""
","
","","","-1","","","22","12856","5673","&#9761;","elianto","#3366ff99","-1","-1","1","+10","[]","0","0","2","","","","","","","",""
"pit-trial","53","511740","0.0-2.0-11.3-1.3","battery-v0.2","","""event"",""trial"",""time""
""fullscreenenter"",""1"",""5896""
","
","
","""event"",""trial"",""time""
""fullscreenenter"",""1"",""5896""
","
","","","315.5","","","22","12856","5673","&#9761;","elianto","#3366ff99","-1"," ","0","0","[1166.4000000003725]","1","0","2","","","","","","","",""
"pit-trial","54","516593","0.0-2.0-11.3-2.3","battery-v0.2","","""event"",""trial"",""time""
""fullscreenenter"",""1"",""5896""
","
","
","""event"",""trial"",""time""
""fullscreenenter"",""1"",""5896""
","
","","","-1","","","22","12856","5673","&#9761;","elianto","#3366ff99","-1","-1","1","+10","[2856.7000000001863]","1","0","2","","","","","","","",""
"pit-trial","55","520029","0.0-2.0-11.3-3.3","battery-v0.2","","""event"",""trial"",""time""
""fullscreenenter"",""1"",""5896""
","
","
","""event"",""trial"",""time""
""fullscreenenter"",""1"",""5896""
","
","","","579.8000000007451","","","22","12856","5673","&#9761;","elianto","#3366ff99","-1"," ","0","+10","[1431.7000000001863]","1","0","2","","","","","","","",""
"pit-trial","56","524885","0.0-2.0-11.3-4.3","battery-v0.2","","""event"",""trial"",""time""
""fullscreenenter"",""1"",""5896""
","
","
","""event"",""trial"",""time""
""fullscreenenter"",""1"",""5896""
","
","","","-1","","","22","12856","5673","&#9761;","elianto","#3366ff99","-1","-1","1","+10","[]","0","0","2","","","","","","","",""
"call-function","57","524889","0.0-2.0-12.0","battery-v0.2","","""event"",""trial"",""time""
""fullscreenenter"",""1"",""5896""
","
","
","""event"",""trial"",""time""
""fullscreenenter"",""1"",""5896""
","
","","","","","","","","","","","","","","","","","","","","","","","","","","",""
"pit-instructions","58","560741","0.0-2.0-13.0","battery-v0.2","","""event"",""trial"",""time""
""fullscreenenter"",""1"",""5896""
","
","
","""event"",""trial"",""time""
""fullscreenenter"",""1"",""5896""
","
","","[{""page_index"":0,""viewing_time"":5825.399999999441},{""page_index"":1,""viewing_time"":9077.200000000186},{""page_index"":2,""viewing_time"":4476.5},{""page_index"":3,""viewing_time"":10383.5},{""page_index"":4,""viewing_time"":6087.799999999814}]","35850.799999999814","","","","","","","","","","","","","","","","","","","","","","","",""
"pit-trial","59","565595","0.0-2.0-14.0-0.0","battery-v0.2","","""event"",""trial"",""time""
""fullscreenenter"",""1"",""5896""
","
","
","""event"",""trial"",""time""
""fullscreenenter"",""1"",""5896""
","
","","","-1","","","22","12856","5673","&#9826;","elianto","#f73b6a7A","-1","-1","1","0","[]","0","0","3","","","","","","","",""
"pit-trial","60","570451","0.0-2.0-14.0-1.0","battery-v0.2","","""event"",""trial"",""time""
""fullscreenenter"",""1"",""5896""
","
","
","""event"",""trial"",""time""
""fullscreenenter"",""1"",""5896""
","
","","","-1","","","22","12856","5673","&#9826;","elianto","#f73b6a7A","-1","-1","1","0","[]","0","0","3","","","","","","","",""
"pit-trial","61","575307","0.0-2.0-14.0-2.0","battery-v0.2","","""event"",""trial"",""time""
""fullscreenenter"",""1"",""5896""
","
","
","""event"",""trial"",""time""
""fullscreenenter"",""1"",""5896""
","
","","","-1","","","22","12856","5673","&#9826;","elianto","#f73b6a7A","-1","-1","1","0","[]","0","0","3","","","","","","","",""
"pit-trial","62","580163","0.0-2.0-14.0-3.0","battery-v0.2","","""event"",""trial"",""time""
""fullscreenenter"",""1"",""5896""
","
","
","""event"",""trial"",""time""
""fullscreenenter"",""1"",""5896""
","
","","","-1","","","22","12856","5673","&#9826;","elianto","#f73b6a7A","-1","-1","1","-10","[]","0","0","3","","","","","","","",""
"pit-trial","63","585020","0.0-2.0-14.0-4.0","battery-v0.2","","""event"",""trial"",""time""
""fullscreenenter"",""1"",""5896""
","
","
","""event"",""trial"",""time""
""fullscreenenter"",""1"",""5896""
","
","","","-1","","","22","12856","5673","&#9826;","elianto","#f73b6a7A","-1","-1","1","0","[]","0","0","3","","","","","","","",""
"pit-trial","64","589877","0.0-2.0-14.1-0.1","battery-v0.2","","""event"",""trial"",""time""
""fullscreenenter"",""1"",""5896""
","
","
","""event"",""trial"",""time""
""fullscreenenter"",""1"",""5896""
","
","","","-1","","","22","12856","5673","&#9826;","elianto","#f73b6a7A","-1","-1","1","0","[]","0","0","3","","","","","","","",""
"pit-trial","65","594732","0.0-2.0-14.1-1.1","battery-v0.2","","""event"",""trial"",""time""
""fullscreenenter"",""1"",""5896""
","
","
","""event"",""trial"",""time""
""fullscreenenter"",""1"",""5896""
","
","","","-1","","","22","12856","5673","&#9826;","elianto","#f73b6a7A","-1","-1","1","0","[]","0","0","3","","","","","","","",""
"pit-trial","66","599586","0.0-2.0-14.1-2.1","battery-v0.2","","""event"",""trial"",""time""
""fullscreenenter"",""1"",""5896""
","
","
","""event"",""trial"",""time""
""fullscreenenter"",""1"",""5896""
","
","","","-1","","","22","12856","5673","&#9826;","elianto","#f73b6a7A","-1","-1","1","0","[]","0","0","3","","","","","","","",""
"pit-trial","67","604442","0.0-2.0-14.1-3.1","battery-v0.2","","""event"",""trial"",""time""
""fullscreenenter"",""1"",""5896""
","
","
","""event"",""trial"",""time""
""fullscreenenter"",""1"",""5896""
","
","","","-1","","","22","12856","5673","&#9826;","elianto","#f73b6a7A","-1","-1","1","-10","[]","0","0","3","","","","","","","",""
"pit-trial","68","609298","0.0-2.0-14.1-4.1","battery-v0.2","","""event"",""trial"",""time""
""fullscreenenter"",""1"",""5896""
","
","
","""event"",""trial"",""time""
""fullscreenenter"",""1"",""5896""
","
","","","-1","","","22","12856","5673","&#9826;","elianto","#f73b6a7A","-1","-1","1","0","[]","0","0","3","","","","","","","",""
"pit-trial","69","614154","0.0-2.0-14.2-0.2","battery-v0.2","","""event"",""trial"",""time""
""fullscreenenter"",""1"",""5896""
","
","
","""event"",""trial"",""time""
""fullscreenenter"",""1"",""5896""
","
","","","-1","","","22","12856","5673","&#9826;","elianto","#f73b6a7A","-1","-1","1","0","[]","0","0","3","","","","","","","",""
"pit-trial","70","619010","0.0-2.0-14.2-1.2","battery-v0.2","","""event"",""trial"",""time""
""fullscreenenter"",""1"",""5896""
","
","
","""event"",""trial"",""time""
""fullscreenenter"",""1"",""5896""
","
","","","-1","","","22","12856","5673","&#9826;","elianto","#f73b6a7A","-1","-1","1","0","[]","0","0","3","","","","","","","",""
"pit-trial","71","623866","0.0-2.0-14.2-2.2","battery-v0.2","","""event"",""trial"",""time""
""fullscreenenter"",""1"",""5896""
","
","
","""event"",""trial"",""time""
""fullscreenenter"",""1"",""5896""
","
","","","-1","","","22","12856","5673","&#9826;","elianto","#f73b6a7A","-1","-1","1","0","[]","0","0","3","","","","","","","",""
"pit-trial","72","628721","0.0-2.0-14.2-3.2","battery-v0.2","","""event"",""trial"",""time""
""fullscreenenter"",""1"",""5896""
","
","
","""event"",""trial"",""time""
""fullscreenenter"",""1"",""5896""
","
","","","-1","","","22","12856","5673","&#9826;","elianto","#f73b6a7A","-1","-1","1","-10","[]","0","0","3","","","","","","","",""
"pit-trial","73","633578","0.0-2.0-14.2-4.2","battery-v0.2","","""event"",""trial"",""time""
""fullscreenenter"",""1"",""5896""
","
","
","""event"",""trial"",""time""
""fullscreenenter"",""1"",""5896""
","
","","","-1","","","22","12856","5673","&#9826;","elianto","#f73b6a7A","-1","-1","1","0","[]","0","0","3","","","","","","","",""
"pit-trial","74","638435","0.0-2.0-14.3-0.3","battery-v0.2","","""event"",""trial"",""time""
""fullscreenenter"",""1"",""5896""
","
","
","""event"",""trial"",""time""
""fullscreenenter"",""1"",""5896""
","
","","","-1","","","22","12856","5673","&#9826;","elianto","#f73b6a7A","-1","-1","1","0","[]","0","0","3","","","","","","","",""
"pit-trial","75","643291","0.0-2.0-14.3-1.3","battery-v0.2","","""event"",""trial"",""time""
""fullscreenenter"",""1"",""5896""
","
","
","""event"",""trial"",""time""
""fullscreenenter"",""1"",""5896""
","
","","","-1","","","22","12856","5673","&#9826;","elianto","#f73b6a7A","-1","-1","1","0","[]","0","0","3","","","","","","","",""
"pit-trial","76","648147","0.0-2.0-14.3-2.3","battery-v0.2","","""event"",""trial"",""time""
""fullscreenenter"",""1"",""5896""
","
","
","""event"",""trial"",""time""
""fullscreenenter"",""1"",""5896""
","
","","","-1","","","22","12856","5673","&#9826;","elianto","#f73b6a7A","-1","-1","1","0","[]","0","0","3","","","","","","","",""
"pit-trial","77","653004","0.0-2.0-14.3-3.3","battery-v0.2","","""event"",""trial"",""time""
""fullscreenenter"",""1"",""5896""
","
","
","""event"",""trial"",""time""
""fullscreenenter"",""1"",""5896""
","
","","","-1","","","22","12856","5673","&#9826;","elianto","#f73b6a7A","-1","-1","1","-10","[]","0","0","3","","","","","","","",""
"pit-trial","78","657860","0.0-2.0-14.3-4.3","battery-v0.2","","""event"",""trial"",""time""
""fullscreenenter"",""1"",""5896""
","
","
","""event"",""trial"",""time""
""fullscreenenter"",""1"",""5896""
","
","","","-1","","","22","12856","5673","&#9826;","elianto","#f73b6a7A","-1","-1","1","0","[]","0","0","3","","","","","","","",""
"call-function","79","657865","0.0-2.0-15.0","battery-v0.2","","""event"",""trial"",""time""
""fullscreenenter"",""1"",""5896""
","
","
","""event"",""trial"",""time""
""fullscreenenter"",""1"",""5896""
","
","","","","","","","","","","","","","","","","","","","","","","","","","","",""
"pit-instructions","80","693123","0.0-2.0-16.0","battery-v0.2","","""event"",""trial"",""time""
""fullscreenenter"",""1"",""5896""
","
","
","""event"",""trial"",""time""
""fullscreenenter"",""1"",""5896""
","
","","[{""page_index"":0,""viewing_time"":10663},{""page_index"":1,""viewing_time"":13078.300000000745},{""page_index"":2,""viewing_time"":5583.5},{""page_index"":3,""viewing_time"":5931.799999999814}]","35257","","","","","","","","","","","","","","","","","","","","","","","",""
"pit-trial","81","696998","0.0-2.0-17.0-0.0","battery-v0.2","","""event"",""trial"",""time""
""fullscreenenter"",""1"",""5896""
","
","
","""event"",""trial"",""time""
""fullscreenenter"",""1"",""5896""
","
","","","1016.9000000003725","","","22","12856","5673","&#9789;","elianto","#f73b6a7A"," "," ","1","0","[1871.3999999994412]","1","0","4","","","","","","","",""
"pit-trial","82","700207","0.0-2.0-17.0-1.0","battery-v0.2","","""event"",""trial"",""time""
""fullscreenenter"",""1"",""5896""
","
","
","""event"",""trial"",""time""
""fullscreenenter"",""1"",""5896""
","
","","","352.69999999925494","","","22","12856","5673","&#9789;","elianto","#f73b6a7A"," "," ","1","0","[580.0999999996275,1203.7999999998137]","2","0","4","","","","","","","",""
"pit-trial","83","705062","0.0-2.0-17.0-2.0","battery-v0.2","","""event"",""trial"",""time""
""fullscreenenter"",""1"",""5896""
","
","
","""event"",""trial"",""time""
""fullscreenenter"",""1"",""5896""
","
","","","-1","","","22","12856","5673","&#9789;","elianto","#f73b6a7A"," ","-1","0","-10","[]","0","0","4","","","","","","","",""
"pit-trial","84","709918","0.0-2.0-17.0-3.0","battery-v0.2","","""event"",""trial"",""time""
""fullscreenenter"",""1"",""5896""
","
","
","""event"",""trial"",""time""
""fullscreenenter"",""1"",""5896""
","
","","","-1","","","22","12856","5673","&#9789;","elianto","#f73b6a7A"," ","-1","0","0","[]","0","0","4","","","","","","","",""
"pit-trial","85","714774","0.0-2.0-17.0-4.0","battery-v0.2","","""event"",""trial"",""time""
""fullscreenenter"",""1"",""5896""
","
","
","""event"",""trial"",""time""
""fullscreenenter"",""1"",""5896""
","
","","","-1","","","22","12856","5673","&#9789;","elianto","#f73b6a7A"," ","-1","0","-10","[]","0","0","4","","","","","","","",""
"pit-trial","86","719629","0.0-2.0-17.1-0.1","battery-v0.2","","""event"",""trial"",""time""
""fullscreenenter"",""1"",""5896""
","
","
","""event"",""trial"",""time""
""fullscreenenter"",""1"",""5896""
","
","","","-1","","","22","12856","5673","&#9789;","elianto","#f73b6a7A"," ","-1","0","-10","[]","0","0","4","","","","","","","",""
"pit-trial","87","724483","0.0-2.0-17.1-1.1","battery-v0.2","","""event"",""trial"",""time""
""fullscreenenter"",""1"",""5896""
","
","
","""event"",""trial"",""time""
""fullscreenenter"",""1"",""5896""
","
","","","-1","","","22","12856","5673","&#9789;","elianto","#f73b6a7A"," ","-1","0","-10","[]","0","0","4","","","","","","","",""
"pit-trial","88","729337","0.0-2.0-17.1-2.1","battery-v0.2","","""event"",""trial"",""time""
""fullscreenenter"",""1"",""5896""
","
","
","""event"",""trial"",""time""
""fullscreenenter"",""1"",""5896""
","
","","","-1","","","22","12856","5673","&#9789;","elianto","#f73b6a7A"," ","-1","0","-10","[]","0","0","4","","","","","","","",""
"pit-trial","89","734193","0.0-2.0-17.1-3.1","battery-v0.2","","""event"",""trial"",""time""
""fullscreenenter"",""1"",""5896""
","
","
","""event"",""trial"",""time""
""fullscreenenter"",""1"",""5896""
","
","","","-1","","","22","12856","5673","&#9789;","elianto","#f73b6a7A"," ","-1","0","0","[]","0","0","4","","","","","","","",""
"pit-trial","90","739050","0.0-2.0-17.1-4.1","battery-v0.2","","""event"",""trial"",""time""
""fullscreenenter"",""1"",""5896""
","
","
","""event"",""trial"",""time""
""fullscreenenter"",""1"",""5896""
","
","","","-1","","","22","12856","5673","&#9789;","elianto","#f73b6a7A"," ","-1","0","-10","[]","0","0","4","","","","","","","",""
"pit-trial","91","743908","0.0-2.0-17.2-0.2","battery-v0.2","","""event"",""trial"",""time""
""fullscreenenter"",""1"",""5896""
","
","
","""event"",""trial"",""time""
""fullscreenenter"",""1"",""5896""
","
","","","-1","","","22","12856","5673","&#9789;","elianto","#f73b6a7A"," ","-1","0","-10","[]","0","0","4","","","","","","","",""
"pit-trial","92","748763","0.0-2.0-17.2-1.2","battery-v0.2","","""event"",""trial"",""time""
""fullscreenenter"",""1"",""5896""
","
","
","""event"",""trial"",""time""
""fullscreenenter"",""1"",""5896""
","
","","","-1","","","22","12856","5673","&#9789;","elianto","#f73b6a7A"," ","-1","0","-10","[]","0","0","4","","","","","","","",""
"pit-trial","93","753618","0.0-2.0-17.2-2.2","battery-v0.2","","""event"",""trial"",""time""
""fullscreenenter"",""1"",""5896""
","
","
","""event"",""trial"",""time""
""fullscreenenter"",""1"",""5896""
","
","","","-1","","","22","12856","5673","&#9789;","elianto","#f73b6a7A"," ","-1","0","-10","[]","0","0","4","","","","","","","",""
"pit-trial","94","758474","0.0-2.0-17.2-3.2","battery-v0.2","","""event"",""trial"",""time""
""fullscreenenter"",""1"",""5896""
","
","
","""event"",""trial"",""time""
""fullscreenenter"",""1"",""5896""
","
","","","-1","","","22","12856","5673","&#9789;","elianto","#f73b6a7A"," ","-1","0","0","[]","0","0","4","","","","","","","",""
"pit-trial","95","763330","0.0-2.0-17.2-4.2","battery-v0.2","","""event"",""trial"",""time""
""fullscreenenter"",""1"",""5896""
","
","
","""event"",""trial"",""time""
""fullscreenenter"",""1"",""5896""
","
","","","-1","","","22","12856","5673","&#9789;","elianto","#f73b6a7A"," ","-1","0","-10","[]","0","0","4","","","","","","","",""
"pit-trial","96","768187","0.0-2.0-17.3-0.3","battery-v0.2","","""event"",""trial"",""time""
""fullscreenenter"",""1"",""5896""
","
","
","""event"",""trial"",""time""
""fullscreenenter"",""1"",""5896""
","
","","","-1","","","22","12856","5673","&#9789;","elianto","#f73b6a7A"," ","-1","0","-10","[]","0","0","4","","","","","","","",""
"pit-trial","97","773044","0.0-2.0-17.3-1.3","battery-v0.2","","""event"",""trial"",""time""
""fullscreenenter"",""1"",""5896""
","
","
","""event"",""trial"",""time""
""fullscreenenter"",""1"",""5896""
","
","","","-1","","","22","12856","5673","&#9789;","elianto","#f73b6a7A"," ","-1","0","-10","[]","0","0","4","","","","","","","",""
"pit-trial","98","777898","0.0-2.0-17.3-2.3","battery-v0.2","","""event"",""trial"",""time""
""fullscreenenter"",""1"",""5896""
","
","
","""event"",""trial"",""time""
""fullscreenenter"",""1"",""5896""
","
","","","-1","","","22","12856","5673","&#9789;","elianto","#f73b6a7A"," ","-1","0","-10","[]","0","0","4","","","","","","","",""
"pit-trial","99","782753","0.0-2.0-17.3-3.3","battery-v0.2","","""event"",""trial"",""time""
""fullscreenenter"",""1"",""5896""
","
","
","""event"",""trial"",""time""
""fullscreenenter"",""1"",""5896""
","
","","","-1","","","22","12856","5673","&#9789;","elianto","#f73b6a7A"," ","-1","0","0","[]","0","0","4","","","","","","","",""
"pit-trial","100","787609","0.0-2.0-17.3-4.3","battery-v0.2","","""event"",""trial"",""time""
""fullscreenenter"",""1"",""5896""
","
","
","""event"",""trial"",""time""
""fullscreenenter"",""1"",""5896""
","
","","","-1","","","22","12856","5673","&#9789;","elianto","#f73b6a7A"," ","-1","0","-10","[]","0","0","4","","","","","","","",""
"call-function","101","787614","0.0-2.0-18.0","battery-v0.2","","""event"",""trial"",""time""
""fullscreenenter"",""1"",""5896""
","
","
","""event"",""trial"",""time""
""fullscreenenter"",""1"",""5896""
","
","","","","","","","","","","","","","","","","","","","","","","","","","","",""
"pit-instructions","102","873522","0.0-2.0-19.0","battery-v0.2","","""event"",""trial"",""time""
""fullscreenenter"",""1"",""5896""
","
","
","""event"",""trial"",""time""
""fullscreenenter"",""1"",""5896""
","
","","[{""page_index"":0,""viewing_time"":10239.400000000373},{""page_index"":1,""viewing_time"":8887.299999999814},{""page_index"":2,""viewing_time"":15031.200000000186},{""page_index"":3,""viewing_time"":7792.799999999814},{""page_index"":4,""viewing_time"":8587.700000000186},{""page_index"":5,""viewing_time"":8990.599999999627},{""page_index"":6,""viewing_time"":10561.200000000186},{""page_index"":7,""viewing_time"":7367.799999999814},{""page_index"":8,""viewing_time"":8449}]","85907.40000000037","","","","","","","","","","","","","","","","","","","","","","","",""
"pit-comprehension","103","888378","0.0-2.0-20.0-0.0","battery-v0.2","","""event"",""trial"",""time""
""fullscreenenter"",""1"",""5896""
","
","
","""event"",""trial"",""time""
""fullscreenenter"",""1"",""5896""
","
","","","14852.900000000373","[""SPACE""]","0","22","12856","5673","","","","","","","","","","","","","","","","","","",""
"pit-instructions","104","892276","0.0-2.0-20.0-1.0","battery-v0.2","","""event"",""trial"",""time""
""fullscreenenter"",""1"",""5896""
","
","
","""event"",""trial"",""time""
""fullscreenenter"",""1"",""5896""
","
","","[{""page_index"":0,""viewing_time"":3842.2000000001863}]","3842.5999999996275","","","","","","","","","","","","","","","","","","","","","","","",""
"pit-comprehension","105","898780","0.0-2.0-21.0-0.0","battery-v0.2","","""event"",""trial"",""time""
""fullscreenenter"",""1"",""5896""
","
","
","""event"",""trial"",""time""
""fullscreenenter"",""1"",""5896""
","
","","","6499.700000000186","[""10""]","0","22","12856","5673","","","","","","","","","","","","","","","","","","",""
"pit-instructions","106","901989","0.0-2.0-21.0-1.0","battery-v0.2","","""event"",""trial"",""time""
""fullscreenenter"",""1"",""5896""
","
","
","""event"",""trial"",""time""
""fullscreenenter"",""1"",""5896""
","
","","[{""page_index"":0,""viewing_time"":3150.4000000003725}]","3150.7999999998137","","","","","","","","","","","","","","","","","","","","","","","",""
"pit-comprehension","107","910880","0.0-2.0-22.0-0.0","battery-v0.2","","""event"",""trial"",""time""
""fullscreenenter"",""1"",""5896""
","
","
","""event"",""trial"",""time""
""fullscreenenter"",""1"",""5896""
","
","","","8887.700000000186","[""0""]","0","22","12856","5673","","","","","","","","","","","","","","","","","","",""
"pit-instructions","108","914284","0.0-2.0-22.0-1.0","battery-v0.2","","""event"",""trial"",""time""
""fullscreenenter"",""1"",""5896""
","
","
","""event"",""trial"",""time""
""fullscreenenter"",""1"",""5896""
","
","","[{""page_index"":0,""viewing_time"":3349.2000000001863}]","3349.5999999996275","","","","","","","","","","","","","","","","","","","","","","","",""
"pit-comprehension","109","926205","0.0-2.0-23.0-0.0","battery-v0.2","","""event"",""trial"",""time""
""fullscreenenter"",""1"",""5896""
","
","
","""event"",""trial"",""time""
""fullscreenenter"",""1"",""5896""
","
","","","11917.699999999255","[""False""]","1","22","12856","5673","","","","","","","","","","","","","","","","","","",""
"pit-instructions","110","928599","0.0-2.0-23.0-1.0","battery-v0.2","","""event"",""trial"",""time""
""fullscreenenter"",""1"",""5896""
","
","
","""event"",""trial"",""time""
""fullscreenenter"",""1"",""5896""
","
","","[{""page_index"":0,""viewing_time"":2339.2000000001863}]","2339.5","","","","","","","","","","","","","","","","","","","","","","","",""
"pit-instructions","111","930278","0.0-2.0-23.0-2.0-0.0","battery-v0.2","","""event"",""trial"",""time""
""fullscreenenter"",""1"",""5896""
","
","
","""event"",""trial"",""time""
""fullscreenenter"",""1"",""5896""
","
","","[{""page_index"":0,""viewing_time"":1676.2999999998137}]","1676.7000000001863","","","","","","","","","","","","","","","","","","","","","","","",""
"pit-comprehension","112","938994","0.0-2.0-23.1-0.1","battery-v0.2","","""event"",""trial"",""time""
""fullscreenenter"",""1"",""5896""
","
","
","""event"",""trial"",""time""
""fullscreenenter"",""1"",""5896""
","
","","","8713.899999999441","[""True""]","0","22","12856","5673","","","","","","","","","","","","","","","","","","",""
"pit-instructions","113","941311","0.0-2.0-23.1-1.1","battery-v0.2","","""event"",""trial"",""time""
""fullscreenenter"",""1"",""5896""
","
","
","""event"",""trial"",""time""
""fullscreenenter"",""1"",""5896""
","
","","[{""page_index"":0,""viewing_time"":2261.5999999996275}]","2261.7999999998137","","","","","","","","","","","","","","","","","","","","","","","",""
"pit-comprehension","114","953965","0.0-2.0-24.0-0.0","battery-v0.2","","""event"",""trial"",""time""
""fullscreenenter"",""1"",""5896""
","
","
","""event"",""trial"",""time""
""fullscreenenter"",""1"",""5896""
","
","","","12650.100000000559","[""True""]","0","22","12856","5673","","","","","","","","","","","","","","","","","","",""
"pit-instructions","115","955563","0.0-2.0-24.0-1.0","battery-v0.2","","""event"",""trial"",""time""
""fullscreenenter"",""1"",""5896""
","
","
","""event"",""trial"",""time""
""fullscreenenter"",""1"",""5896""
","
","","[{""page_index"":0,""viewing_time"":1540.7000000001863}]","1541","","","","","","","","","","","","","","","","","","","","","","","",""
"pit-comprehension","116","962367","0.0-2.0-25.0-0.0","battery-v0.2","","""event"",""trial"",""time""
""fullscreenenter"",""1"",""5896""
","
","
","""event"",""trial"",""time""
""fullscreenenter"",""1"",""5896""
","
","","","6800.299999999814","[""True""]","0","22","12856","5673","","","","","","","","","","","","","","","","","","",""
"pit-instructions","117","964425","0.0-2.0-25.0-1.0","battery-v0.2","","""event"",""trial"",""time""
""fullscreenenter"",""1"",""5896""
","
","
","""event"",""trial"",""time""
""fullscreenenter"",""1"",""5896""
","
","","[{""page_index"":0,""viewing_time"":2002}]","2002.6000000005588","","","","","","","","","","","","","","","","","","","","","","","",""
"pit-comprehension","118","971673","0.0-2.0-26.0-0.0","battery-v0.2","","""event"",""trial"",""time""
""fullscreenenter"",""1"",""5896""
","
","
","""event"",""trial"",""time""
""fullscreenenter"",""1"",""5896""
","
","","","7243.9000000003725","[""True""]","1","22","12856","5673","","","","","","","","","","","","","","","","","","",""
"pit-instructions","119","974411","0.0-2.0-26.0-1.0","battery-v0.2","","""event"",""trial"",""time""
""fullscreenenter"",""1"",""5896""
","
","
","""event"",""trial"",""time""
""fullscreenenter"",""1"",""5896""
","
","","[{""page_index"":0,""viewing_time"":2677.0999999996275}]","2677.5","","","","","","","","","","","","","","","","","","","","","","","",""
"pit-instructions","120","977893","0.0-2.0-26.0-2.0-0.0","battery-v0.2","","""event"",""trial"",""time""
""fullscreenenter"",""1"",""5896""
","
","
","""event"",""trial"",""time""
""fullscreenenter"",""1"",""5896""
","
","","[{""page_index"":0,""viewing_time"":3480.7000000001863}]","3481","","","","","","","","","","","","","","","","","","","","","","","",""
"pit-comprehension","121","982075","0.0-2.0-26.1-0.1","battery-v0.2","","""event"",""trial"",""time""
""fullscreenenter"",""1"",""5896""
","
","
","""event"",""trial"",""time""
""fullscreenenter"",""1"",""5896""
","
","","","4179.200000000186","[""False""]","0","22","12856","5673","","","","","","","","","","","","","","","","","","",""
"pit-instructions","122","983677","0.0-2.0-26.1-1.1","battery-v0.2","","""event"",""trial"",""time""
""fullscreenenter"",""1"",""5896""
","
","
","""event"",""trial"",""time""
""fullscreenenter"",""1"",""5896""
","
","","[{""page_index"":0,""viewing_time"":1545.5}]","1545.9000000003725","","","","","","","","","","","","","","","","","","","","","","","",""
"pit-instructions","123","1009445","0.0-3.0","battery-v0.2","","""event"",""trial"",""time""
""fullscreenenter"",""1"",""5896""
","
","
","""event"",""trial"",""time""
""fullscreenenter"",""1"",""5896""
","
","","[{""page_index"":0,""viewing_time"":5103.100000000559},{""page_index"":1,""viewing_time"":6682.799999999814},{""page_index"":2,""viewing_time"":13980.400000000373}]","25766.60000000056","","","","","","","","","","","","","","","","","","","","","","","",""
"pit-trial","124","1014301","0.0-4.0","battery-v0.2","","""event"",""trial"",""time""
""fullscreenenter"",""1"",""5896""
","
","
","""event"",""trial"",""time""
""fullscreenenter"",""1"",""5896""
","
","","","-1","","","22","12856","5673","&#9728;","elianto","#f73b6a7A","-1","-1","1","0","[]","0","1","","","12856","1","0","4","lose","no-go","0"
"pit-trial","125","1017871","0.0-5.0","battery-v0.2","","""event"",""trial"",""time""
""fullscreenenter"",""1"",""5896""
","
","
","""event"",""trial"",""time""
""fullscreenenter"",""1"",""5896""
","
","","","717.7000000001863","","","22","12856","5673","&#9733;","elianto","#3366ff99","-1"," ","0","+10","[1568.2999999998137]","1","1","","","12856","2","2","2","win","no-go","1"
"pit-trial","126","1021541","0.0-6.0","battery-v0.2","","""event"",""trial"",""time""
""fullscreenenter"",""1"",""5896""
","
","
","""event"",""trial"",""time""
""fullscreenenter"",""1"",""5896""
","
","","","814","","","22","12856","5673","&#9730;","elianto","#3366ff99"," "," ","1","0","[1664.4000000003725]","1","1","","","12856","3","1","1","win","go","1"
"pit-trial","127","1026397","0.0-7.0","battery-v0.2","","""event"",""trial"",""time""
""fullscreenenter"",""1"",""5896""
","
","
","""event"",""trial"",""time""
""fullscreenenter"",""1"",""5896""
","
","","","-1","","","22","12856","5673","&#9752;","elianto","#f73b6a7A"," ","-1","0","-10","[]","0","1","","","12856","4","3","3","lose","go","0"
"pit-trial","128","1029816","0.0-8.0","battery-v0.2","","""event"",""trial"",""time""
""fullscreenenter"",""1"",""5896""
","
","
","""event"",""trial"",""time""
""fullscreenenter"",""1"",""5896""
","
","","","563.3000000007451","","","22","12856","5673","&#9733;","elianto","#3366ff99","-1"," ","0","0","[1413.5]","1","1","","","12856","5","2","2","win","no-go","0"
"pit-trial","129","1034672","0.0-9.0","battery-v0.2","","""event"",""trial"",""time""
""fullscreenenter"",""1"",""5896""
","
","
","""event"",""trial"",""time""
""fullscreenenter"",""1"",""5896""
","
","","","-1","","","22","12856","5673","&#9730;","elianto","#3366ff99"," ","-1","0","0","[]","0","1","","","12856","6","1","1","win","go","0"
"pit-trial","130","1038434","0.0-10.0","battery-v0.2","","""event"",""trial"",""time""
""fullscreenenter"",""1"",""5896""
","
","
","""event"",""trial"",""time""
""fullscreenenter"",""1"",""5896""
","
","","","906.7999999998137","","","22","12856","5673","&#9728;","elianto","#f73b6a7A","-1"," ","0","-10","[1757.5]","1","1","","","12856","7","0","4","lose","no-go","0"
"pit-trial","131","1043289","0.0-11.0","battery-v0.2","","""event"",""trial"",""time""
""fullscreenenter"",""1"",""5896""
","
","
","""event"",""trial"",""time""
""fullscreenenter"",""1"",""5896""
","
","","","-1","","","22","12856","5673","&#9752;","elianto","#f73b6a7A"," ","-1","0","-10","[]","0","1","","","12856","8","3","3","lose","go","0"
"pit-trial","132","1048145","0.0-12.0","battery-v0.2","","""event"",""trial"",""time""
""fullscreenenter"",""1"",""5896""
","
","
","""event"",""trial"",""time""
""fullscreenenter"",""1"",""5896""
","
","","","-1","","","22","12856","5673","&#9752;","elianto","#f73b6a7A"," ","-1","0","0","[]","0","1","","","12856","9","3","3","lose","go","1"
"pit-trial","133","1051590","0.0-13.0","battery-v0.2","","""event"",""trial"",""time""
""fullscreenenter"",""1"",""5896""
","
","
","""event"",""trial"",""time""
""fullscreenenter"",""1"",""5896""
","
","","","590.2000000001863","","","22","12856","5673","&#9733;","elianto","#3366ff99","-1"," ","0","0","[1440.699999999255]","1","1","","","12856","10","2","2","win","no-go","0"
"pit-trial","134","1056445","0.0-14.0","battery-v0.2","","""event"",""trial"",""time""
""fullscreenenter"",""1"",""5896""
","
","
","""event"",""trial"",""time""
""fullscreenenter"",""1"",""5896""
","
","","","-1","","","22","12856","5673","&#9730;","elianto","#3366ff99"," ","-1","0","+10","[]","0","1","","","12856","11","1","1","win","go","1"
"pit-trial","135","1061302","0.0-15.0","battery-v0.2","","""event"",""trial"",""time""
""fullscreenenter"",""1"",""5896""
","
","
","""event"",""trial"",""time""
""fullscreenenter"",""1"",""5896""
","
","","","-1","","","22","12856","5673","&#9728;","elianto","#f73b6a7A","-1","-1","1","-10","[]","0","1","","","12856","12","0","4","lose","no-go","1"
"pit-trial","136","1066158","0.0-16.0","battery-v0.2","","""event"",""trial"",""time""
""fullscreenenter"",""1"",""5896""
","
","
","""event"",""trial"",""time""
""fullscreenenter"",""1"",""5896""
","
","","","-1","","","22","12856","5673","&#9752;","elianto","#f73b6a7A"," ","-1","0","-10","[]","0","1","","","12856","13","3","3","lose","go","0"
"pit-trial","137","1071015","0.0-17.0","battery-v0.2","","""event"",""trial"",""time""
""fullscreenenter"",""1"",""5896""
","
","
","""event"",""trial"",""time""
""fullscreenenter"",""1"",""5896""
","
","","","-1","","","22","12856","5673","&#9728;","elianto","#f73b6a7A","-1","-1","1","-10","[]","0","1","","","12856","14","0","4","lose","no-go","1"
"pit-trial","138","1075027","0.0-18.0","battery-v0.2","","""event"",""trial"",""time""
""fullscreenenter"",""1"",""5896""
","
","
","""event"",""trial"",""time""
""fullscreenenter"",""1"",""5896""
","
","","","1157.5999999996275","","","22","12856","5673","&#9730;","elianto","#3366ff99"," "," ","1","+10","[2008.4000000003725]","1","1","","","12856","15","1","1","win","go","0"
"pit-trial","139","1078361","0.0-19.0","battery-v0.2","","""event"",""trial"",""time""
""fullscreenenter"",""1"",""5896""
","
","
","""event"",""trial"",""time""
""fullscreenenter"",""1"",""5896""
","
","","","480.29999999981374","","","22","12856","5673","&#9733;","elianto","#3366ff99","-1"," ","0","0","[1331.4000000003725]","1","1","","","12856","16","2","2","win","no-go","0"
"pit-trial","140","1083217","0.0-20.0","battery-v0.2","","""event"",""trial"",""time""
""fullscreenenter"",""1"",""5896""
","
","
","""event"",""trial"",""time""
""fullscreenenter"",""1"",""5896""
","
","","","-1","","","22","12856","5673","&#9752;","elianto","#f73b6a7A"," ","-1","0","-10","[]","0","1","","","12856","17","3","3","lose","go","0"
"pit-trial","141","1088073","0.0-21.0","battery-v0.2","","""event"",""trial"",""time""
""fullscreenenter"",""1"",""5896""
","
","
","""event"",""trial"",""time""
""fullscreenenter"",""1"",""5896""
","
","","","-1","","","22","12856","5673","&#9728;","elianto","#f73b6a7A","-1","-1","1","0","[]","0","1","","","12856","18","0","4","lose","no-go","0"
"pit-trial","142","1092928","0.0-22.0","battery-v0.2","","""event"",""trial"",""time""
""fullscreenenter"",""1"",""5896""
","
","
","""event"",""trial"",""time""
""fullscreenenter"",""1"",""5896""
","
","","","-1","","","22","12856","5673","&#9733;","elianto","#3366ff99","-1","-1","1","+10","[]","0","1","","","12856","19","2","2","win","no-go","0"
"pit-trial","143","1097785","0.0-23.0","battery-v0.2","","""event"",""trial"",""time""
""fullscreenenter"",""1"",""5896""
","
","
","""event"",""trial"",""time""
""fullscreenenter"",""1"",""5896""
","
","","","-1","","","22","12856","5673","&#9730;","elianto","#3366ff99"," ","-1","0","+10","[]","0","1","","","12856","20","1","1","win","go","1"
"pit-instructions","144","1112419","0.0-24.0","battery-v0.2","","""event"",""trial"",""time""
""fullscreenenter"",""1"",""5896""
","
","
","""event"",""trial"",""time""
""fullscreenenter"",""1"",""5896""
","
","","[{""page_index"":0,""viewing_time"":6450.5},{""page_index"":1,""viewing_time"":8180}]","14630.799999999814","","","","","","","","","","","","","","","","","","","","","","","",""
"pit-trial","145","1116207","0.0-25.0","battery-v0.2","","""event"",""trial"",""time""
""fullscreenenter"",""1"",""5896""
","
","
","""event"",""trial"",""time""
""fullscreenenter"",""1"",""5896""
","
","","","932","","","22","12856","5673","f","elianto","#3366ff99","-1"," ","0","0","[1783,3469.899999999441]","2","2","","","12856","21","1","2","win","no-go","0"
"pit-trial","146","1121063","0.0-26.0","battery-v0.2","","""event"",""trial"",""time""
""fullscreenenter"",""1"",""5896""
","
","
","""event"",""trial"",""time""
""fullscreenenter"",""1"",""5896""
","
","","","-1","","","22","12856","5673","t","elianto","#f73b6a7A"," ","-1","0","-10","[]","0","2","","","12856","22","2","3","lose","go","0"
"pit-trial","147","1125919","0.0-27.0","battery-v0.2","","""event"",""trial"",""time""
""fullscreenenter"",""1"",""5896""
","
","
","""event"",""trial"",""time""
""fullscreenenter"",""1"",""5896""
","
","","","-1","","","22","12856","5673","n","elianto","#f73b6a7A"," ","-1","0","-10","[]","0","2","","","12856","23","0","3","lose","go","0"
"pit-trial","148","1130775","0.0-28.0","battery-v0.2","","""event"",""trial"",""time""
""fullscreenenter"",""1"",""5896""
","
","
","""event"",""trial"",""time""
""fullscreenenter"",""1"",""5896""
","
","","","-1","","","22","12856","5673","b","elianto","#f73b6a7A","-1","-1","1","0","[]","0","2","","","12856","24","3","4","lose","no-go","0"
"pit-trial","149","1135629","0.0-29.0","battery-v0.2","","""event"",""trial"",""time""
""fullscreenenter"",""1"",""5896""
","
","
","""event"",""trial"",""time""
""fullscreenenter"",""1"",""5896""
","
","","","-1","","","22","12856","5673","t","elianto","#f73b6a7A"," ","-1","0","-10","[]","0","2","","","12856","25","2","3","lose","go","0"
"pit-trial","150","1139663","0.0-30.0","battery-v0.2","","""event"",""trial"",""time""
""fullscreenenter"",""1"",""5896""
","
","
","""event"",""trial"",""time""
""fullscreenenter"",""1"",""5896""
","
","","","1178.4000000003725","","","22","12856","5673","f","elianto","#3366ff99","-1"," ","0","0","[2029.7999999998137]","1","2","","","12856","26","1","2","win","no-go","0"
"pit-trial","151","1144523","0.0-31.0","battery-v0.2","","""event"",""trial"",""time""
""fullscreenenter"",""1"",""5896""
","
","
","""event"",""trial"",""time""
""fullscreenenter"",""1"",""5896""
","
","","","-1","","","22","12856","5673","b","elianto","#f73b6a7A","-1","-1","1","-10","[]","0","2","","","12856","27","3","4","lose","no-go","1"
"pit-trial","152","1149380","0.0-32.0","battery-v0.2","","""event"",""trial"",""time""
""fullscreenenter"",""1"",""5896""
","
","
","""event"",""trial"",""time""
""fullscreenenter"",""1"",""5896""
","
","","","-1","","","22","12856","5673","n","elianto","#f73b6a7A"," ","-1","0","-10","[]","0","2","","","12856","28","0","3","lose","go","0"
"pit-trial","153","1154236","0.0-33.0","battery-v0.2","","""event"",""trial"",""time""
""fullscreenenter"",""1"",""5896""
","
","
","""event"",""trial"",""time""
""fullscreenenter"",""1"",""5896""
","
","","","-1","","","22","12856","5673","b","elianto","#f73b6a7A","-1","-1","1","-10","[]","0","2","","","12856","29","3","4","lose","no-go","1"
"pit-trial","154","1158034","0.0-34.0","battery-v0.2","","""event"",""trial"",""time""
""fullscreenenter"",""1"",""5896""
","
","
","""event"",""trial"",""time""
""fullscreenenter"",""1"",""5896""
","
","","","941.5","","","22","12856","5673","f","elianto","#3366ff99","-1"," ","0","0","[1791.8999999994412,3720.899999999441]","2","2","","","12856","30","1","2","win","no-go","0"
"pit-trial","155","1162890","0.0-35.0","battery-v0.2","","""event"",""trial"",""time""
""fullscreenenter"",""1"",""5896""
","
","
","""event"",""trial"",""time""
""fullscreenenter"",""1"",""5896""
","
","","","-1","","","22","12856","5673","n","elianto","#f73b6a7A"," ","-1","0","0","[]","0","2","","","12856","31","0","3","lose","go","1"
"pit-trial","156","1167744","0.0-36.0","battery-v0.2","","""event"",""trial"",""time""
""fullscreenenter"",""1"",""5896""
","
","
","""event"",""trial"",""time""
""fullscreenenter"",""1"",""5896""
","
","","","-1","","","22","12856","5673","t","elianto","#f73b6a7A"," ","-1","0","0","[]","0","2","","","12856","32","2","3","lose","go","1"
"pit-trial","157","1172598","0.0-37.0","battery-v0.2","","""event"",""trial"",""time""
""fullscreenenter"",""1"",""5896""
","
","
","""event"",""trial"",""time""
""fullscreenenter"",""1"",""5896""
","
","","","-1","","","22","12856","5673","n","elianto","#f73b6a7A"," ","-1","0","0","[]","0","2","","","12856","33","0","3","lose","go","1"
"pit-trial","158","1176280","0.0-38.0","battery-v0.2","","""event"",""trial"",""time""
""fullscreenenter"",""1"",""5896""
","
","
","""event"",""trial"",""time""
""fullscreenenter"",""1"",""5896""
","
","","","826.6999999992549","","","22","12856","5673","f","elianto","#3366ff99","-1"," ","0","0","[1677.199999999255]","1","2","","","12856","34","1","2","win","no-go","0"
"pit-trial","159","1180399","0.0-39.0","battery-v0.2","","""event"",""trial"",""time""
""fullscreenenter"",""1"",""5896""
","
","
","""event"",""trial"",""time""
""fullscreenenter"",""1"",""5896""
","
","","","1263","","","22","12856","5673","t","elianto","#f73b6a7A"," "," ","1","0","[2113.5]","1","2","","","12856","35","2","3","lose","go","0"
"pit-trial","160","1185255","0.0-40.0","battery-v0.2","","""event"",""trial"",""time""
""fullscreenenter"",""1"",""5896""
","
","
","""event"",""trial"",""time""
""fullscreenenter"",""1"",""5896""
","
","","","-1","","","22","12856","5673","b","elianto","#f73b6a7A","-1","-1","1","0","[]","0","2","","","12856","36","3","4","lose","no-go","0"
"pit-trial","161","1190111","0.0-41.0","battery-v0.2","","""event"",""trial"",""time""
""fullscreenenter"",""1"",""5896""
","
","
","""event"",""trial"",""time""
""fullscreenenter"",""1"",""5896""
","
","","","-1","","","22","12856","5673","n","elianto","#f73b6a7A"," ","-1","0","-10","[]","0","2","","","12856","37","0","3","lose","go","0"
"pit-trial","162","1194966","0.0-42.0","battery-v0.2","","""event"",""trial"",""time""
""fullscreenenter"",""1"",""5896""
","
","
","""event"",""trial"",""time""
""fullscreenenter"",""1"",""5896""
","
","","","-1","","","22","12856","5673","t","elianto","#f73b6a7A"," ","-1","0","-10","[]","0","2","","","12856","38","2","3","lose","go","0"
"pit-trial","163","1198310","0.0-43.0","battery-v0.2","","""event"",""trial"",""time""
""fullscreenenter"",""1"",""5896""
","
","
","""event"",""trial"",""time""
""fullscreenenter"",""1"",""5896""
","
","","","489.79999999981374","","","22","12856","5673","f","elianto","#3366ff99","-1"," ","0","0","[1341.5]","1","2","","","12856","39","1","2","win","no-go","0"
"pit-trial","164","1203166","0.0-44.0","battery-v0.2","","""event"",""trial"",""time""
""fullscreenenter"",""1"",""5896""
","
","
","""event"",""trial"",""time""
""fullscreenenter"",""1"",""5896""
","
","","","-1","","","22","12856","5673","b","elianto","#f73b6a7A","-1","-1","1","0","[]","0","2","","","12856","40","3","4","lose","no-go","0"
"pit-trial","165","1208022","0.0-45.0","battery-v0.2","","""event"",""trial"",""time""
""fullscreenenter"",""1"",""5896""
","
","
","""event"",""trial"",""time""
""fullscreenenter"",""1"",""5896""
","
","","","-1","","","22","12856","5673","n","elianto","#f73b6a7A"," ","-1","0","-10","[]","0","2","","","12856","41","0","3","lose","go","0"
"pit-trial","166","1211715","0.0-46.0","battery-v0.2","","""event"",""trial"",""time""
""fullscreenenter"",""1"",""5896""
","
","
","""event"",""trial"",""time""
""fullscreenenter"",""1"",""5896""
","
","","","835.8000000007451","","","22","12856","5673","f","elianto","#3366ff99","-1"," ","0","+10","[1687.7000000001863]","1","2","","","12856","42","1","2","win","no-go","1"
"pit-trial","167","1216570","0.0-47.0","battery-v0.2","","""event"",""trial"",""time""
""fullscreenenter"",""1"",""5896""
","
","
","""event"",""trial"",""time""
""fullscreenenter"",""1"",""5896""
","
","","","-1","","","22","12856","5673","t","elianto","#f73b6a7A"," ","-1","0","-10","[]","0","2","","","12856","43","2","3","lose","go","0"
"pit-trial","168","1221426","0.0-48.0","battery-v0.2","","""event"",""trial"",""time""
""fullscreenenter"",""1"",""5896""
","
","
","""event"",""trial"",""time""
""fullscreenenter"",""1"",""5896""
","
","","","-1","","","22","12856","5673","b","elianto","#f73b6a7A","-1","-1","1","0","[]","0","2","","","12856","44","3","4","lose","no-go","0"
"pit-trial","169","1226282","0.0-49.0","battery-v0.2","","""event"",""trial"",""time""
""fullscreenenter"",""1"",""5896""
","
","
","""event"",""trial"",""time""
""fullscreenenter"",""1"",""5896""
","
","","","-1","","","22","12856","5673","n","elianto","#f73b6a7A"," ","-1","0","-10","[]","0","2","","","12856","45","0","3","lose","go","0"
"pit-trial","170","1231138","0.0-50.0","battery-v0.2","","""event"",""trial"",""time""
""fullscreenenter"",""1"",""5896""
","
","
","""event"",""trial"",""time""
""fullscreenenter"",""1"",""5896""
","
","","","-1","","","22","12856","5673","b","elianto","#f73b6a7A","-1","-1","1","-10","[]","0","2","","","12856","46","3","4","lose","no-go","1"
"pit-trial","171","1235994","0.0-51.0","battery-v0.2","","""event"",""trial"",""time""
""fullscreenenter"",""1"",""5896""
","
","
","""event"",""trial"",""time""
""fullscreenenter"",""1"",""5896""
","
","","","-1","","","22","12856","5673","t","elianto","#f73b6a7A"," ","-1","0","0","[]","0","2","","","12856","47","2","3","lose","go","1"
"pit-trial","172","1239579","0.0-52.0","battery-v0.2","","""event"",""trial"",""time""
""fullscreenenter"",""1"",""5896""
","
","
","""event"",""trial"",""time""
""fullscreenenter"",""1"",""5896""
","
","","","729.5999999996275","","","22","12856","5673","f","elianto","#3366ff99","-1"," ","0","+10","[1579.7999999998137]","1","2","","","12856","48","1","2","win","no-go","1"
"pit-trial","173","1244434","0.0-53.0","battery-v0.2","","""event"",""trial"",""time""
""fullscreenenter"",""1"",""5896""
","
","
","""event"",""trial"",""time""
""fullscreenenter"",""1"",""5896""
","
","","","-1","","","22","12856","5673","t","elianto","#f73b6a7A"," ","-1","0","0","[]","0","2","","","12856","49","2","3","lose","go","1"
"pit-trial","174","1249291","0.0-54.0","battery-v0.2","","""event"",""trial"",""time""
""fullscreenenter"",""1"",""5896""
","
","
","""event"",""trial"",""time""
""fullscreenenter"",""1"",""5896""
","
","","","-1","","","22","12856","5673","b","elianto","#f73b6a7A","-1","-1","1","-10","[]","0","2","","","12856","50","3","4","lose","no-go","1"
"pit-trial","175","1252975","0.0-55.0","battery-v0.2","","""event"",""trial"",""time""
""fullscreenenter"",""1"",""5896""
","
","
","""event"",""trial"",""time""
""fullscreenenter"",""1"",""5896""
","
","","","828.4000000003725","","","22","12856","5673","f","elianto","#3366ff99","-1"," ","0","0","[1678.7999999998137]","1","2","","","12856","51","1","2","win","no-go","0"
"pit-trial","176","1257832","0.0-56.0","battery-v0.2","","""event"",""trial"",""time""
""fullscreenenter"",""1"",""5896""
","
","
","""event"",""trial"",""time""
""fullscreenenter"",""1"",""5896""
","
","","","-1","","","22","12856","5673","n","elianto","#f73b6a7A"," ","-1","0","-10","[]","0","2","","","12856","52","0","3","lose","go","0"
"pit-trial","177","1262688","0.0-57.0","battery-v0.2","","""event"",""trial"",""time""
""fullscreenenter"",""1"",""5896""
","
","
","""event"",""trial"",""time""
""fullscreenenter"",""1"",""5896""
","
","","","-1","","","22","12856","5673","t","elianto","#f73b6a7A"," ","-1","0","-10","[]","0","2","","","12856","53","2","3","lose","go","0"
"pit-trial","178","1266313","0.0-58.0","battery-v0.2","","""event"",""trial"",""time""
""fullscreenenter"",""1"",""5896""
","
","
","""event"",""trial"",""time""
""fullscreenenter"",""1"",""5896""
","
","","","770.0999999996275","","","22","12856","5673","f","elianto","#3366ff99","-1"," ","0","0","[1620.1000000005588]","1","2","","","12856","54","1","2","win","no-go","0"
"pit-trial","179","1271169","0.0-59.0","battery-v0.2","","""event"",""trial"",""time""
""fullscreenenter"",""1"",""5896""
","
","
","""event"",""trial"",""time""
""fullscreenenter"",""1"",""5896""
","
","","","-1","","","22","12856","5673","n","elianto","#f73b6a7A"," ","-1","0","0","[]","0","2","","","12856","55","0","3","lose","go","1"
"pit-trial","180","1276026","0.0-60.0","battery-v0.2","","""event"",""trial"",""time""
""fullscreenenter"",""1"",""5896""
","
","
","""event"",""trial"",""time""
""fullscreenenter"",""1"",""5896""
","
","","","-1","","","22","12856","5673","b","elianto","#f73b6a7A","-1","-1","1","0","[]","0","2","","","12856","56","3","4","lose","no-go","0"
"pit-trial","181","1280881","0.0-61.0","battery-v0.2","","""event"",""trial"",""time""
""fullscreenenter"",""1"",""5896""
","
","
","""event"",""trial"",""time""
""fullscreenenter"",""1"",""5896""
","
","","","-1","","","22","12856","5673","t","elianto","#f73b6a7A"," ","-1","0","-10","[]","0","2","","","12856","57","2","3","lose","go","0"
"pit-trial","182","1285737","0.0-62.0","battery-v0.2","","""event"",""trial"",""time""
""fullscreenenter"",""1"",""5896""
","
","
","""event"",""trial"",""time""
""fullscreenenter"",""1"",""5896""
","
","","","-1","","","22","12856","5673","b","elianto","#f73b6a7A","-1","-1","1","0","[]","0","2","","","12856","58","3","4","lose","no-go","0"
"pit-trial","183","1290591","0.0-63.0","battery-v0.2","","""event"",""trial"",""time""
""fullscreenenter"",""1"",""5896""
","
","
","""event"",""trial"",""time""
""fullscreenenter"",""1"",""5896""
","
","","","-1","","","22","12856","5673","n","elianto","#f73b6a7A"," ","-1","0","-10","[]","0","2","","","12856","59","0","3","lose","go","0"
"pit-trial","184","1294169","0.0-64.0","battery-v0.2","","""event"",""trial"",""time""
""fullscreenenter"",""1"",""5896""
","
","
","""event"",""trial"",""time""
""fullscreenenter"",""1"",""5896""
","
","","","721.8999999994412","","","22","12856","5673","c","elianto","#3366ff99"," "," ","1","+10","[1572.5]","1","2","","","12856","60","4","1","win","go","0"
"pit-trial","185","1299025","0.0-65.0","battery-v0.2","","""event"",""trial"",""time""
""fullscreenenter"",""1"",""5896""
","
","
","""event"",""trial"",""time""
""fullscreenenter"",""1"",""5896""
","
","","","-1","","","22","12856","5673","b","elianto","#f73b6a7A","-1","-1","1","0","[]","0","2","","","12856","61","3","4","lose","no-go","0"
"pit-trial","186","1303685","0.0-66.0","battery-v0.2","","""event"",""trial"",""time""
""fullscreenenter"",""1"",""5896""
","
","
","""event"",""trial"",""time""
""fullscreenenter"",""1"",""5896""
","
","","","1804.3999999994412","","","22","12856","5673","c","elianto","#3366ff99"," "," ","1","+10","[2655.5]","1","2","","","12856","62","4","1","win","go","0"
"pit-trial","187","1307614","0.0-67.0","battery-v0.2","","""event"",""trial"",""time""
""fullscreenenter"",""1"",""5896""
","
","
","""event"",""trial"",""time""
""fullscreenenter"",""1"",""5896""
","
","","","1073.2999999998137","","","22","12856","5673","f","elianto","#3366ff99","-1"," ","0","0","[1924.6000000005588]","1","2","","","12856","63","1","2","win","no-go","0"
"pit-trial","188","1312470","0.0-68.0","battery-v0.2","","""event"",""trial"",""time""
""fullscreenenter"",""1"",""5896""
","
","
","""event"",""trial"",""time""
""fullscreenenter"",""1"",""5896""
","
","","","-1","","","22","12856","5673","t","elianto","#f73b6a7A"," ","-1","0","0","[]","0","2","","","12856","64","2","3","lose","go","1"
"pit-trial","189","1316647","0.0-69.0","battery-v0.2","","""event"",""trial"",""time""
""fullscreenenter"",""1"",""5896""
","
","
","""event"",""trial"",""time""
""fullscreenenter"",""1"",""5896""
","
","","","1320.5999999996275","","","22","12856","5673","z","elianto","#3366ff99","-1"," ","0","0","[2171.7999999998137]","1","2","","","12856","65","5","2","win","no-go","0"
"pit-trial","190","1320118","0.0-70.0","battery-v0.2","","""event"",""trial"",""time""
""fullscreenenter"",""1"",""5896""
","
","
","""event"",""trial"",""time""
""fullscreenenter"",""1"",""5896""
","
","","","615.7000000001863","","","22","12856","5673","c","elianto","#3366ff99"," "," ","1","+10","[1466.0999999996275]","1","2","","","12856","66","4","1","win","go","0"
"pit-trial","191","1324973","0.0-71.0","battery-v0.2","","""event"",""trial"",""time""
""fullscreenenter"",""1"",""5896""
","
","
","""event"",""trial"",""time""
""fullscreenenter"",""1"",""5896""
","
","","","-1","","","22","12856","5673","b","elianto","#f73b6a7A","-1","-1","1","0","[]","0","2","","","12856","67","3","4","lose","no-go","0"
"pit-trial","192","1328957","0.0-72.0","battery-v0.2","","""event"",""trial"",""time""
""fullscreenenter"",""1"",""5896""
","
","
","""event"",""trial"",""time""
""fullscreenenter"",""1"",""5896""
","
","","","1128.4000000003725","","","22","12856","5673","f","elianto","#3366ff99","-1"," ","0","0","[1979.2000000001863]","1","2","","","12856","68","1","2","win","no-go","0"
"pit-trial","193","1333813","0.0-73.0","battery-v0.2","","""event"",""trial"",""time""
""fullscreenenter"",""1"",""5896""
","
","
","""event"",""trial"",""time""
""fullscreenenter"",""1"",""5896""
","
","","","-1","","","22","12856","5673","t","elianto","#f73b6a7A"," ","-1","0","-10","[]","0","2","","","12856","69","2","3","lose","go","0"
"pit-trial","194","1337471","0.0-74.0","battery-v0.2","","""event"",""trial"",""time""
""fullscreenenter"",""1"",""5896""
","
","
","""event"",""trial"",""time""
""fullscreenenter"",""1"",""5896""
","
","","","802.2999999998137","","","22","12856","5673","z","elianto","#3366ff99","-1"," ","0","+10","[1654]","1","2","","","12856","70","5","2","win","no-go","1"
"pit-trial","195","1341059","0.0-75.0","battery-v0.2","","""event"",""trial"",""time""
""fullscreenenter"",""1"",""5896""
","
","
","""event"",""trial"",""time""
""fullscreenenter"",""1"",""5896""
","
","","","732.7000000001863","","","22","12856","5673","f","elianto","#3366ff99","-1"," ","0","0","[1583.6000000005588]","1","2","","","12856","71","1","2","win","no-go","0"
"pit-trial","196","1344825","0.0-76.0","battery-v0.2","","""event"",""trial"",""time""
""fullscreenenter"",""1"",""5896""
","
","
","""event"",""trial"",""time""
""fullscreenenter"",""1"",""5896""
","
","","","909.2000000001863","","","22","12856","5673","c","elianto","#3366ff99"," "," ","1","+10","[1760.1000000005588]","1","2","","","12856","72","4","1","win","go","0"
"pit-trial","197","1349681","0.0-77.0","battery-v0.2","","""event"",""trial"",""time""
""fullscreenenter"",""1"",""5896""
","
","
","""event"",""trial"",""time""
""fullscreenenter"",""1"",""5896""
","
","","","-1","","","22","12856","5673","b","elianto","#f73b6a7A","-1","-1","1","0","[]","0","2","","","12856","73","3","4","lose","no-go","0"
"pit-trial","198","1353603","0.0-78.0","battery-v0.2","","""event"",""trial"",""time""
""fullscreenenter"",""1"",""5896""
","
","
","""event"",""trial"",""time""
""fullscreenenter"",""1"",""5896""
","
","","","1066.0999999996275","","","22","12856","5673","c","elianto","#3366ff99"," "," ","1","+10","[1916.4000000003725]","1","2","","","12856","74","4","1","win","go","0"
"pit-trial","199","1357290","0.0-79.0","battery-v0.2","","""event"",""trial"",""time""
""fullscreenenter"",""1"",""5896""
","
","
","""event"",""trial"",""time""
""fullscreenenter"",""1"",""5896""
","
","","","828.5","","","22","12856","5673","z","elianto","#3366ff99","-1"," ","0","+10","[1680.2000000001863]","1","2","","","12856","75","5","2","win","no-go","1"
"pit-trial","200","1362146","0.0-80.0","battery-v0.2","","""event"",""trial"",""time""
""fullscreenenter"",""1"",""5896""
","
","
","""event"",""trial"",""time""
""fullscreenenter"",""1"",""5896""
","
","","","-1","","","22","12856","5673","f","elianto","#3366ff99","-1","-1","1","+10","[3580.399999999441]","1","2","","","12856","76","1","2","win","no-go","0"
"pit-trial","201","1365610","0.0-81.0","battery-v0.2","","""event"",""trial"",""time""
""fullscreenenter"",""1"",""5896""
","
","
","""event"",""trial"",""time""
""fullscreenenter"",""1"",""5896""
","
","","","606.1000000005588","","","22","12856","5673","c","elianto","#3366ff99"," "," ","1","+10","[1457.0999999996275]","1","2","","","12856","77","4","1","win","go","0"
"pit-trial","202","1370466","0.0-82.0","battery-v0.2","","""event"",""trial"",""time""
""fullscreenenter"",""1"",""5896""
","
","
","""event"",""trial"",""time""
""fullscreenenter"",""1"",""5896""
","
","","","-1","","","22","12856","5673","b","elianto","#f73b6a7A","-1","-1","1","0","[]","0","2","","","12856","78","3","4","lose","no-go","0"
"pit-trial","203","1374007","0.0-83.0","battery-v0.2","","""event"",""trial"",""time""
""fullscreenenter"",""1"",""5896""
","
","
","""event"",""trial"",""time""
""fullscreenenter"",""1"",""5896""
","
","","","685.2999999998137","","","22","12856","5673","z","elianto","#3366ff99","-1"," ","0","0","[1535.5]","1","2","","","12856","79","5","2","win","no-go","0"
"pit-trial","204","1377467","0.0-84.0","battery-v0.2","","""event"",""trial"",""time""
""fullscreenenter"",""1"",""5896""
","
","
","""event"",""trial"",""time""
""fullscreenenter"",""1"",""5896""
","
","","","606.1000000005588","","","22","12856","5673","c","elianto","#3366ff99"," "," ","1","+10","[1457.4000000003725]","1","2","","","12856","80","4","1","win","go","0"
"pit-trial","205","1382323","0.0-85.0","battery-v0.2","","""event"",""trial"",""time""
""fullscreenenter"",""1"",""5896""
","
","
","""event"",""trial"",""time""
""fullscreenenter"",""1"",""5896""
","
","","","-1","","","22","12856","5673","y","elianto","#f73b6a7A","-1","-1","1","0","[]","0","2","","","12856","81","7","4","lose","no-go","0"
"pit-trial","206","1385750","0.0-86.0","battery-v0.2","","""event"",""trial"",""time""
""fullscreenenter"",""1"",""5896""
","
","
","""event"",""trial"",""time""
""fullscreenenter"",""1"",""5896""
","
","","","571","","","22","12856","5673","z","elianto","#3366ff99","-1"," ","0","0","[1422.5]","1","2","","","12856","82","5","2","win","no-go","0"
"pit-trial","207","1389260","0.0-87.0","battery-v0.2","","""event"",""trial"",""time""
""fullscreenenter"",""1"",""5896""
","
","
","""event"",""trial"",""time""
""fullscreenenter"",""1"",""5896""
","
","","","657","","","22","12856","5673","c","elianto","#3366ff99"," "," ","1","+10","[1507.5]","1","2","","","12856","83","4","1","win","go","0"
"pit-trial","208","1394115","0.0-88.0","battery-v0.2","","""event"",""trial"",""time""
""fullscreenenter"",""1"",""5896""
","
","
","""event"",""trial"",""time""
""fullscreenenter"",""1"",""5896""
","
","","","-1","","","22","12856","5673","b","elianto","#f73b6a7A","-1","-1","1","-10","[]","0","2","","","12856","84","3","4","lose","no-go","1"
"pit-trial","209","1398971","0.0-89.0","battery-v0.2","","""event"",""trial"",""time""
""fullscreenenter"",""1"",""5896""
","
","
","""event"",""trial"",""time""
""fullscreenenter"",""1"",""5896""
","
","","","-1","","","22","12856","5673","h","elianto","#f73b6a7A"," ","-1","0","-10","[]","0","2","","","12856","85","6","3","lose","go","0"
"pit-trial","210","1402346","0.0-90.0","battery-v0.2","","""event"",""trial"",""time""
""fullscreenenter"",""1"",""5896""
","
","
","""event"",""trial"",""time""
""fullscreenenter"",""1"",""5896""
","
","","","519.4000000003725","","","22","12856","5673","z","elianto","#3366ff99","-1"," ","0","0","[1370.2000000001863]","1","2","","","12856","86","5","2","win","no-go","0"
"pit-trial","211","1405849","0.0-91.0","battery-v0.2","","""event"",""trial"",""time""
""fullscreenenter"",""1"",""5896""
","
","
","""event"",""trial"",""time""
""fullscreenenter"",""1"",""5896""
","
","","","647.2000000001863","","","22","12856","5673","c","elianto","#3366ff99"," "," ","1","+10","[1497.699999999255]","1","2","","","12856","87","4","1","win","go","0"
"pit-trial","212","1410705","0.0-92.0","battery-v0.2","","""event"",""trial"",""time""
""fullscreenenter"",""1"",""5896""
","
","
","""event"",""trial"",""time""
""fullscreenenter"",""1"",""5896""
","
","","","-1","","","22","12856","5673","y","elianto","#f73b6a7A","-1","-1","1","0","[]","0","2","","","12856","88","7","4","lose","no-go","0"
"pit-trial","213","1414109","0.0-93.0","battery-v0.2","","""event"",""trial"",""time""
""fullscreenenter"",""1"",""5896""
","
","
","""event"",""trial"",""time""
""fullscreenenter"",""1"",""5896""
","
","","","547.0999999996275","","","22","12856","5673","c","elianto","#3366ff99"," "," ","1","+10","[1398.4000000003725]","1","2","","","12856","89","4","1","win","go","0"
"pit-trial","214","1418964","0.0-94.0","battery-v0.2","","""event"",""trial"",""time""
""fullscreenenter"",""1"",""5896""
","
","
","""event"",""trial"",""time""
""fullscreenenter"",""1"",""5896""
","
","","","-1","","","22","12856","5673","y","elianto","#f73b6a7A","-1","-1","1","0","[]","0","2","","","12856","90","7","4","lose","no-go","0"
"pit-trial","215","1423820","0.0-95.0","battery-v0.2","","""event"",""trial"",""time""
""fullscreenenter"",""1"",""5896""
","
","
","""event"",""trial"",""time""
""fullscreenenter"",""1"",""5896""
","
","","","-1","","","22","12856","5673","h","elianto","#f73b6a7A"," ","-1","0","0","[]","0","2","","","12856","91","6","3","lose","go","1"
"pit-trial","216","1427230","0.0-96.0","battery-v0.2","","""event"",""trial"",""time""
""fullscreenenter"",""1"",""5896""
","
","
","""event"",""trial"",""time""
""fullscreenenter"",""1"",""5896""
","
","","","555.2999999998137","","","22","12856","5673","z","elianto","#3366ff99","-1"," ","0","0","[1405.3999999994412]","1","2","","","12856","92","5","2","win","no-go","0"
"pit-trial","217","1430633","0.0-97.0","battery-v0.2","","""event"",""trial"",""time""
""fullscreenenter"",""1"",""5896""
","
","
","""event"",""trial"",""time""
""fullscreenenter"",""1"",""5896""
","
","","","546.9000000003725","","","22","12856","5673","z","elianto","#3366ff99","-1"," ","0","0","[1398.5]","1","2","","","12856","93","5","2","win","no-go","0"
"pit-trial","218","1435489","0.0-98.0","battery-v0.2","","""event"",""trial"",""time""
""fullscreenenter"",""1"",""5896""
","
","
","""event"",""trial"",""time""
""fullscreenenter"",""1"",""5896""
","
","","","-1","","","22","12856","5673","h","elianto","#f73b6a7A"," ","-1","0","-10","[]","0","2","","","12856","94","6","3","lose","go","0"
"pit-trial","219","1440342","0.0-99.0","battery-v0.2","","""event"",""trial"",""time""
""fullscreenenter"",""1"",""5896""
","
","
","""event"",""trial"",""time""
""fullscreenenter"",""1"",""5896""
","
","","","-1","","","22","12856","5673","y","elianto","#f73b6a7A","-1","-1","1","-10","[]","0","2","","","12856","95","7","4","lose","no-go","1"
"pit-trial","220","1443728","0.0-100.0","battery-v0.2","","""event"",""trial"",""time""
""fullscreenenter"",""1"",""5896""
","
","
","""event"",""trial"",""time""
""fullscreenenter"",""1"",""5896""
","
","","","529","","","22","12856","5673","r","elianto","#3366ff99"," "," ","1","0","[1380]","1","2","","","12856","96","8","1","win","go","1"
"pit-trial","221","1447194","0.0-101.0","battery-v0.2","","""event"",""trial"",""time""
""fullscreenenter"",""1"",""5896""
","
","
","""event"",""trial"",""time""
""fullscreenenter"",""1"",""5896""
","
","","","612.7000000001863","","","22","12856","5673","z","elianto","#3366ff99","-1"," ","0","+10","[1463.0999999996275]","1","2","","","12856","97","5","2","win","no-go","1"
"pit-trial","222","1452049","0.0-102.0","battery-v0.2","","""event"",""trial"",""time""
""fullscreenenter"",""1"",""5896""
","
","
","""event"",""trial"",""time""
""fullscreenenter"",""1"",""5896""
","
","","","-1","","","22","12856","5673","h","elianto","#f73b6a7A"," ","-1","0","-10","[]","0","2","","","12856","98","6","3","lose","go","0"
"pit-trial","223","1456906","0.0-103.0","battery-v0.2","","""event"",""trial"",""time""
""fullscreenenter"",""1"",""5896""
","
","
","""event"",""trial"",""time""
""fullscreenenter"",""1"",""5896""
","
","","","-1","","","22","12856","5673","y","elianto","#f73b6a7A","-1","-1","1","-10","[3599]","1","2","","","12856","99","7","4","lose","no-go","1"
"pit-trial","224","1460374","0.0-104.0","battery-v0.2","","""event"",""trial"",""time""
""fullscreenenter"",""1"",""5896""
","
","
","""event"",""trial"",""time""
""fullscreenenter"",""1"",""5896""
","
","","","612.5","","","22","12856","5673","r","elianto","#3366ff99"," "," ","1","0","[1463.199999999255]","1","2","","","12856","100","8","1","win","go","1"
"pit-trial","225","1463875","0.0-105.0","battery-v0.2","","""event"",""trial"",""time""
""fullscreenenter"",""1"",""5896""
","
","
","""event"",""trial"",""time""
""fullscreenenter"",""1"",""5896""
","
","","","644.9000000003725","","","22","12856","5673","m","elianto","#3366ff99"," "," ","1","+10","[1495.7999999998137]","1","2","","","12856","101","9","1","win","go","0"
"pit-trial","226","1467286","0.0-106.0","battery-v0.2","","""event"",""trial"",""time""
""fullscreenenter"",""1"",""5896""
","
","
","""event"",""trial"",""time""
""fullscreenenter"",""1"",""5896""
","
","","","555.7999999998137","","","22","12856","5673","z","elianto","#3366ff99","-1"," ","0","0","[1406.0999999996275]","1","2","","","12856","102","5","2","win","no-go","0"
"pit-trial","227","1470819","0.0-107.0","battery-v0.2","","""event"",""trial"",""time""
""fullscreenenter"",""1"",""5896""
","
","
","""event"",""trial"",""time""
""fullscreenenter"",""1"",""5896""
","
","","","676","","","22","12856","5673","r","elianto","#3366ff99"," "," ","1","0","[1526.7999999998137]","1","2","","","12856","103","8","1","win","go","1"
"pit-trial","228","1475675","0.0-108.0","battery-v0.2","","""event"",""trial"",""time""
""fullscreenenter"",""1"",""5896""
","
","
","""event"",""trial"",""time""
""fullscreenenter"",""1"",""5896""
","
","","","-1","","","22","12856","5673","y","elianto","#f73b6a7A","-1","-1","1","-10","[]","0","2","","","12856","104","7","4","lose","no-go","1"
"pit-trial","229","1479171","0.0-109.0","battery-v0.2","","""event"",""trial"",""time""
""fullscreenenter"",""1"",""5896""
","
","
","""event"",""trial"",""time""
""fullscreenenter"",""1"",""5896""
","
","","","641.2000000001863","","","22","12856","5673","r","elianto","#3366ff99"," "," ","1","+10","[1492]","1","2","","","12856","105","8","1","win","go","0"
"pit-trial","230","1484027","0.0-110.0","battery-v0.2","","""event"",""trial"",""time""
""fullscreenenter"",""1"",""5896""
","
","
","""event"",""trial"",""time""
""fullscreenenter"",""1"",""5896""
","
","","","-1","","","22","12856","5673","h","elianto","#f73b6a7A"," ","-1","0","0","[3912.7000000001863]","1","2","","","12856","106","6","3","lose","go","1"
"pit-trial","231","1487514","0.0-111.0","battery-v0.2","","""event"",""trial"",""time""
""fullscreenenter"",""1"",""5896""
","
","
","""event"",""trial"",""time""
""fullscreenenter"",""1"",""5896""
","
","","","629.1999999992549","","","22","12856","5673","m","elianto","#3366ff99"," "," ","1","+10","[1480.1000000005588]","1","2","","","12856","107","9","1","win","go","0"
"pit-trial","232","1490742","0.0-112.0","battery-v0.2","","""event"",""trial"",""time""
""fullscreenenter"",""1"",""5896""
","
","
","""event"",""trial"",""time""
""fullscreenenter"",""1"",""5896""
","
","","","369.5","","","22","12856","5673","c","elianto","#3366ff99"," "," ","1","+10","[1222.4000000003725]","1","2","","","12856","108","4","1","win","go","0"
"pit-trial","233","1494257","0.0-113.0","battery-v0.2","","""event"",""trial"",""time""
""fullscreenenter"",""1"",""5896""
","
","
","""event"",""trial"",""time""
""fullscreenenter"",""1"",""5896""
","
","","","659","","","22","12856","5673","m","elianto","#3366ff99"," "," ","1","0","[1509.300000000745]","1","2","","","12856","109","9","1","win","go","1"
"pit-trial","234","1498133","0.0-114.0","battery-v0.2","","""event"",""trial"",""time""
""fullscreenenter"",""1"",""5896""
","
","
","""event"",""trial"",""time""
""fullscreenenter"",""1"",""5896""
","
","","","1022.5","","","22","12856","5673","h","elianto","#f73b6a7A"," "," ","1","0","[1873.4000000003725]","1","2","","","12856","110","6","3","lose","go","0"
"pit-trial","235","1501701","0.0-115.0","battery-v0.2","","""event"",""trial"",""time""
""fullscreenenter"",""1"",""5896""
","
","
","""event"",""trial"",""time""
""fullscreenenter"",""1"",""5896""
","
","","","713","","","22","12856","5673","z","elianto","#3366ff99","-1"," ","0","0","[1563.5]","1","2","","","12856","111","5","2","win","no-go","0"
"pit-trial","236","1505588","0.0-116.0","battery-v0.2","","""event"",""trial"",""time""
""fullscreenenter"",""1"",""5896""
","
","
","""event"",""trial"",""time""
""fullscreenenter"",""1"",""5896""
","
","","","1030.2000000001863","","","22","12856","5673","r","elianto","#3366ff99"," "," ","1","+10","[1882.2000000001863]","1","2","","","12856","112","8","1","win","go","0"
"pit-trial","237","1509195","0.0-117.0","battery-v0.2","","""event"",""trial"",""time""
""fullscreenenter"",""1"",""5896""
","
","
","""event"",""trial"",""time""
""fullscreenenter"",""1"",""5896""
","
","","","751.3999999994412","","","22","12856","5673","z","elianto","#3366ff99","-1"," ","0","0","[1602.2999999998137]","1","2","","","12856","113","5","2","win","no-go","0"
"pit-trial","238","1512689","0.0-118.0","battery-v0.2","","""event"",""trial"",""time""
""fullscreenenter"",""1"",""5896""
","
","
","""event"",""trial"",""time""
""fullscreenenter"",""1"",""5896""
","
","","","638.7000000001863","","","22","12856","5673","r","elianto","#3366ff99"," "," ","1","+10","[1488.7999999998137]","1","2","","","12856","114","8","1","win","go","0"
"pit-trial","239","1517543","0.0-119.0","battery-v0.2","","""event"",""trial"",""time""
""fullscreenenter"",""1"",""5896""
","
","
","""event"",""trial"",""time""
""fullscreenenter"",""1"",""5896""
","
","","","-1","","","22","12856","5673","h","elianto","#f73b6a7A"," ","-1","0","-10","[]","0","2","","","12856","115","6","3","lose","go","0"
"pit-trial","240","1520976","0.0-120.0","battery-v0.2","","""event"",""trial"",""time""
""fullscreenenter"",""1"",""5896""
","
","
","""event"",""trial"",""time""
""fullscreenenter"",""1"",""5896""
","
","","","576.5999999996275","","","22","12856","5673","m","elianto","#3366ff99"," "," ","1","+10","[1429.2999999998137]","1","2","","","12856","116","9","1","win","go","0"
"pit-trial","241","1524531","0.0-121.0","battery-v0.2","","""event"",""trial"",""time""
""fullscreenenter"",""1"",""5896""
","
","
","""event"",""trial"",""time""
""fullscreenenter"",""1"",""5896""
","
","","","699.0999999996275","","","22","12856","5673","z","elianto","#3366ff99","-1"," ","0","+10","[1549.300000000745]","1","2","","","12856","117","5","2","win","no-go","1"
"pit-trial","242","1528044","0.0-122.0","battery-v0.2","","""event"",""trial"",""time""
""fullscreenenter"",""1"",""5896""
","
","
","""event"",""trial"",""time""
""fullscreenenter"",""1"",""5896""
","
","","","656.8999999994412","","","22","12856","5673","r","elianto","#3366ff99"," "," ","1","+10","[1507.4000000003725]","1","2","","","12856","118","8","1","win","go","0"
"pit-trial","243","1531572","0.0-123.0","battery-v0.2","","""event"",""trial"",""time""
""fullscreenenter"",""1"",""5896""
","
","
","""event"",""trial"",""time""
""fullscreenenter"",""1"",""5896""
","
","","","673","","","22","12856","5673","m","elianto","#3366ff99"," "," ","1","+10","[1523.5]","1","2","","","12856","119","9","1","win","go","0"
"pit-trial","244","1536428","0.0-124.0","battery-v0.2","","""event"",""trial"",""time""
""fullscreenenter"",""1"",""5896""
","
","
","""event"",""trial"",""time""
""fullscreenenter"",""1"",""5896""
","
","","","-1","","","22","12856","5673","h","elianto","#f73b6a7A"," ","-1","0","-10","[]","0","2","","","12856","120","6","3","lose","go","0"
"pit-trial","245","1541284","0.0-125.0","battery-v0.2","","""event"",""trial"",""time""
""fullscreenenter"",""1"",""5896""
","
","
","""event"",""trial"",""time""
""fullscreenenter"",""1"",""5896""
","
","","","-1","","","22","12856","5673","y","elianto","#f73b6a7A","-1","-1","1","0","[]","0","2","","","12856","121","7","4","lose","no-go","0"
"pit-trial","246","1544933","0.0-126.0","battery-v0.2","","""event"",""trial"",""time""
""fullscreenenter"",""1"",""5896""
","
","
","""event"",""trial"",""time""
""fullscreenenter"",""1"",""5896""
","
","","","793.7000000001863","","","22","12856","5673","r","elianto","#3366ff99"," "," ","1","+10","[1643.7999999998137]","1","2","","","12856","122","8","1","win","go","0"
"pit-trial","247","1549789","0.0-127.0","battery-v0.2","","""event"",""trial"",""time""
""fullscreenenter"",""1"",""5896""
","
","
","""event"",""trial"",""time""
""fullscreenenter"",""1"",""5896""
","
","","","-1","","","22","12856","5673","h","elianto","#f73b6a7A"," ","-1","0","-10","[]","0","2","","","12856","123","6","3","lose","go","0"
"pit-trial","248","1553600","0.0-128.0","battery-v0.2","","""event"",""trial"",""time""
""fullscreenenter"",""1"",""5896""
","
","
","""event"",""trial"",""time""
""fullscreenenter"",""1"",""5896""
","
","","","952.6000000005588","","","22","12856","5673","m","elianto","#3366ff99"," "," ","1","+10","[1806.5]","1","2","","","12856","124","9","1","win","go","0"
"pit-trial","249","1558454","0.0-129.0","battery-v0.2","","""event"",""trial"",""time""
""fullscreenenter"",""1"",""5896""
","
","
","""event"",""trial"",""time""
""fullscreenenter"",""1"",""5896""
","
","","","-1","","","22","12856","5673","h","elianto","#f73b6a7A"," ","-1","0","0","[]","0","2","","","12856","125","6","3","lose","go","1"
"pit-trial","250","1563310","0.0-130.0","battery-v0.2","","""event"",""trial"",""time""
""fullscreenenter"",""1"",""5896""
","
","
","""event"",""trial"",""time""
""fullscreenenter"",""1"",""5896""
","
","","","-1","","","22","12856","5673","y","elianto","#f73b6a7A","-1","-1","1","0","[]","0","2","","","12856","126","7","4","lose","no-go","0"
"pit-trial","251","1566771","0.0-131.0","battery-v0.2","","""event"",""trial"",""time""
""fullscreenenter"",""1"",""5896""
","
","
","""event"",""trial"",""time""
""fullscreenenter"",""1"",""5896""
","
","","","606","","","22","12856","5673","r","elianto","#3366ff99"," "," ","1","+10","[1456.0999999996275]","1","2","","","12856","127","8","1","win","go","0"
"pit-trial","252","1570280","0.0-132.0","battery-v0.2","","""event"",""trial"",""time""
""fullscreenenter"",""1"",""5896""
","
","
","""event"",""trial"",""time""
""fullscreenenter"",""1"",""5896""
","
","","","653.8000000007451","","","22","12856","5673","m","elianto","#3366ff99"," "," ","1","+10","[1505.0999999996275]","1","2","","","12856","128","9","1","win","go","0"
"pit-trial","253","1573821","0.0-133.0","battery-v0.2","","""event"",""trial"",""time""
""fullscreenenter"",""1"",""5896""
","
","
","""event"",""trial"",""time""
""fullscreenenter"",""1"",""5896""
","
","","","685","","","22","12856","5673","r","elianto","#3366ff99"," "," ","1","+10","[1535.5999999996275]","1","2","","","12856","129","8","1","win","go","0"
"pit-trial","254","1578677","0.0-134.0","battery-v0.2","","""event"",""trial"",""time""
""fullscreenenter"",""1"",""5896""
","
","
","""event"",""trial"",""time""
""fullscreenenter"",""1"",""5896""
","
","","","-1","","","22","12856","5673","y","elianto","#f73b6a7A","-1","-1","1","0","[]","0","2","","","12856","130","7","4","lose","no-go","0"
"pit-trial","255","1582090","0.0-135.0","battery-v0.2","","""event"",""trial"",""time""
""fullscreenenter"",""1"",""5896""
","
","
","""event"",""trial"",""time""
""fullscreenenter"",""1"",""5896""
","
","","","557.5","","","22","12856","5673","m","elianto","#3366ff99"," "," ","1","+10","[1407.5]","1","2","","","12856","131","9","1","win","go","0"
"pit-trial","256","1586947","0.0-136.0","battery-v0.2","","""event"",""trial"",""time""
""fullscreenenter"",""1"",""5896""
","
","
","""event"",""trial"",""time""
""fullscreenenter"",""1"",""5896""
","
","","","-1","","","22","12856","5673","h","elianto","#f73b6a7A"," ","-1","0","-10","[]","0","2","","","12856","132","6","3","lose","go","0"
"pit-trial","257","1591802","0.0-137.0","battery-v0.2","","""event"",""trial"",""time""
""fullscreenenter"",""1"",""5896""
","
","
","""event"",""trial"",""time""
""fullscreenenter"",""1"",""5896""
","
","","","-1","","","22","12856","5673","y","elianto","#f73b6a7A","-1","-1","1","0","[]","0","2","","","12856","133","7","4","lose","no-go","0"
"pit-trial","258","1596659","0.0-138.0","battery-v0.2","","""event"",""trial"",""time""
""fullscreenenter"",""1"",""5896""
","
","
","""event"",""trial"",""time""
""fullscreenenter"",""1"",""5896""
","
","","","-1","","","22","12856","5673","h","elianto","#f73b6a7A"," ","-1","0","-10","[]","0","2","","","12856","134","6","3","lose","go","0"
"pit-trial","259","1600166","0.0-139.0","battery-v0.2","","""event"",""trial"",""time""
""fullscreenenter"",""1"",""5896""
","
","
","""event"",""trial"",""time""
""fullscreenenter"",""1"",""5896""
","
","","","650.8000000007451","","","22","12856","5673","m","elianto","#3366ff99"," "," ","1","+10","[1501.5]","1","2","","","12856","135","9","1","win","go","0"
"pit-trial","260","1605022","0.0-140.0","battery-v0.2","","""event"",""trial"",""time""
""fullscreenenter"",""1"",""5896""
","
","
","""event"",""trial"",""time""
""fullscreenenter"",""1"",""5896""
","
","","","-1","","","22","12856","5673","r","elianto","#3366ff99"," ","-1","0","0","[3309.5]","1","2","","","12856","136","8","1","win","go","0"
"pit-trial","261","1609877","0.0-141.0","battery-v0.2","","""event"",""trial"",""time""
""fullscreenenter"",""1"",""5896""
","
","
","""event"",""trial"",""time""
""fullscreenenter"",""1"",""5896""
","
","","","-1","","","22","12856","5673","h","elianto","#f73b6a7A"," ","-1","0","-10","[]","0","2","","","12856","137","6","3","lose","go","0"
"pit-trial","262","1614733","0.0-142.0","battery-v0.2","","""event"",""trial"",""time""
""fullscreenenter"",""1"",""5896""
","
","
","""event"",""trial"",""time""
""fullscreenenter"",""1"",""5896""
","
","","","-1","","","22","12856","5673","y","elianto","#f73b6a7A","-1","-1","1","0","[]","0","2","","","12856","138","7","4","lose","no-go","0"
"pit-trial","263","1618203","0.0-143.0","battery-v0.2","","""event"",""trial"",""time""
""fullscreenenter"",""1"",""5896""
","
","
","""event"",""trial"",""time""
""fullscreenenter"",""1"",""5896""
","
","","","616.3999999994412","","","22","12856","5673","r","elianto","#3366ff99"," "," ","1","+10","[1468]","1","2","","","12856","139","8","1","win","go","0"
"pit-trial","264","1622140","0.0-144.0","battery-v0.2","","""event"",""trial"",""time""
""fullscreenenter"",""1"",""5896""
","
","
","""event"",""trial"",""time""
""fullscreenenter"",""1"",""5896""
","
","","","1080.8999999994412","","","22","12856","5673","m","elianto","#3366ff99"," "," ","1","+10","[1931.1000000005588]","1","2","","","12856","140","9","1","win","go","0"
"pit-instructions","265","1638266","0.0-145.0","battery-v0.2","","""event"",""trial"",""time""
""fullscreenenter"",""1"",""5896""
","
","
","""event"",""trial"",""time""
""fullscreenenter"",""1"",""5896""
","
","","[{""page_index"":0,""viewing_time"":7590.799999999814},{""page_index"":1,""viewing_time"":8531.700000000186}]","16122.799999999814","","","","","","","","","","","","","","","","","","","","","","","",""
"pit-trial","266","1642603","0.0-146.0","battery-v0.2","","""event"",""trial"",""time""
""fullscreenenter"",""1"",""5896""
","
","
","""event"",""trial"",""time""
""fullscreenenter"",""1"",""5896""
","
","","","1478.4000000003725","","","22","12856","5673","d","elianto","#3366ff99"," "," ","1","+10","[2330]","1","3","","","12856","141","1","1","win","go","0"
"pit-trial","267","1647459","0.0-147.0","battery-v0.2","","""event"",""trial"",""time""
""fullscreenenter"",""1"",""5896""
","
","
","""event"",""trial"",""time""
""fullscreenenter"",""1"",""5896""
","
","","","-1","","","22","12856","5673","j","elianto","#f73b6a7A","-1","-1","1","0","[]","0","3","","","12856","142","0","4","lose","no-go","0"
"pit-trial","268","1652315","0.0-148.0","battery-v0.2","","""event"",""trial"",""time""
""fullscreenenter"",""1"",""5896""
","
","
","""event"",""trial"",""time""
""fullscreenenter"",""1"",""5896""
","
