"trial_type","trial_index","time_elapsed","internal_node_id","task_version","subject_id","interactions","blur_events","focus_events","fullscreenenter_events","fullscreenexit_events","success","view_history","rt","responses","num_errors","age","subject","participantId","rune","rune_set","hex","correct","choice","accuracy","outcome","keys","total_keys","block","practice","value","sub","trial","stimulus","robot","valence","action","sham"
"pavlovia","0","10","0.0-0.0","battery-v0.2","","""event"",""trial"",""time""
""fullscreenenter"",""1"",""2371""
","
","
","""event"",""trial"",""time""
""fullscreenenter"",""1"",""2371""
","
","","","","","","","","","","","","","","","","","","","","","","","","","","",""
"fullscreen","1","3351","0.0-1.0","battery-v0.2","","""event"",""trial"",""time""
""fullscreenenter"",""1"",""2371""
","
","
","""event"",""trial"",""time""
""fullscreenenter"",""1"",""2371""
","
","true","","","","","","","","","","","","","","","","","","","","","","","","","",""
"pit-instructions","2","10250","0.0-2.0-0.0","battery-v0.2","","""event"",""trial"",""time""
""fullscreenenter"",""1"",""2371""
","
","
","""event"",""trial"",""time""
""fullscreenenter"",""1"",""2371""
","
","","[{""page_index"":0,""viewing_time"":6894}]","6894.5","","","","","","","","","","","","","","","","","","","","","","","",""
"pit-comprehension","3","13665","0.0-2.0-1.0-0.0","battery-v0.2","","""event"",""trial"",""time""
""fullscreenenter"",""1"",""2371""
","
","
","""event"",""trial"",""time""
""fullscreenenter"",""1"",""2371""
","
","","","3410.8000000715256","[""shark""]","0","19","7257","3912","","","","","","","","","","","","","","","","","","",""
"pit-instructions","4","15258","0.0-2.0-1.0-1.0","battery-v0.2","","""event"",""trial"",""time""
""fullscreenenter"",""1"",""2371""
","
","
","""event"",""trial"",""time""
""fullscreenenter"",""1"",""2371""
","
","","[{""page_index"":0,""viewing_time"":1581.6000000238419}]","1581.8999999761581","","","","","","","","","","","","","","","","","","","","","","","",""
"pit-comprehension","5","17713","0.0-2.0-2.0-0.0","battery-v0.2","","""event"",""trial"",""time""
""fullscreenenter"",""1"",""2371""
","
","
","""event"",""trial"",""time""
""fullscreenenter"",""1"",""2371""
","
","","","2451.899999976158","[""tiger""]","0","19","7257","3912","","","","","","","","","","","","","","","","","","",""
"pit-instructions","6","19265","0.0-2.0-2.0-1.0","battery-v0.2","","""event"",""trial"",""time""
""fullscreenenter"",""1"",""2371""
","
","
","""event"",""trial"",""time""
""fullscreenenter"",""1"",""2371""
","
","","[{""page_index"":0,""viewing_time"":1548}]","1548.3999999761581","","","","","","","","","","","","","","","","","","","","","","","",""
"pit-instructions","7","129729","0.0-2.0-3.0","battery-v0.2","","""event"",""trial"",""time""
""fullscreenenter"",""1"",""2371""
","
","
","""event"",""trial"",""time""
""fullscreenenter"",""1"",""2371""
","
","","[{""page_index"":0,""viewing_time"":10084.699999928474},{""page_index"":1,""viewing_time"":11995.800000071526},{""page_index"":2,""viewing_time"":9557.5},{""page_index"":3,""viewing_time"":6771.899999976158},{""page_index"":4,""viewing_time"":6228.5},{""page_index"":5,""viewing_time"":6202.399999976158},{""page_index"":6,""viewing_time"":6922.700000047684},{""page_index"":7,""viewing_time"":6589},{""page_index"":8,""viewing_time"":7029.399999976158},{""page_index"":9,""viewing_time"":7741.5},{""page_index"":10,""viewing_time"":9358.100000023842},{""page_index"":11,""viewing_time"":8576.5},{""page_index"":12,""viewing_time"":6615.299999952316},{""page_index"":13,""viewing_time"":6787.700000047684}]","110461.5","","","","","","","","","","","","","","","","","","","","","","","",""
"pit-trial","8","133218","0.0-2.0-4.0-0.0","battery-v0.2","","""event"",""trial"",""time""
""fullscreenenter"",""1"",""2371""
","
","
","""event"",""trial"",""time""
""fullscreenenter"",""1"",""2371""
","
","","","619.4000000953674","","","19","7257","3912","&#9784;","elianto","#FFFFF080"," "," ","1","&#10004","[1472.7000000476837]","1","0","0","","","","","","","",""
"pit-trial","9","136632","0.0-2.0-4.1-0.1","battery-v0.2","","""event"",""trial"",""time""
""fullscreenenter"",""1"",""2371""
","
","
","""event"",""trial"",""time""
""fullscreenenter"",""1"",""2371""
","
","","","545.8999999761581","","","19","7257","3912","&#9784;","elianto","#FFFFF080"," "," ","1","&#10004","[1404.4000000953674]","1","0","0","","","","","","","",""
"pit-trial","10","139915","0.0-2.0-4.2-0.2","battery-v0.2","","""event"",""trial"",""time""
""fullscreenenter"",""1"",""2371""
","
","
","""event"",""trial"",""time""
""fullscreenenter"",""1"",""2371""
","
","","","429.2000000476837","","","19","7257","3912","&#9784;","elianto","#FFFFF080"," "," ","1","&#10004","[1279.2999999523163]","1","0","0","","","","","","","",""
"pit-trial","11","143258","0.0-2.0-4.3-0.3","battery-v0.2","","""event"",""trial"",""time""
""fullscreenenter"",""1"",""2371""
","
","
","""event"",""trial"",""time""
""fullscreenenter"",""1"",""2371""
","
","","","487","","","19","7257","3912","&#9784;","elianto","#FFFFF080"," "," ","1","&#10004","[1337.7999999523163]","1","0","0","","","","","","","",""
"pit-trial","12","146515","0.0-2.0-4.4-0.4","battery-v0.2","","""event"",""trial"",""time""
""fullscreenenter"",""1"",""2371""
","
","
","""event"",""trial"",""time""
""fullscreenenter"",""1"",""2371""
","
","","","394.10000002384186","","","19","7257","3912","&#9784;","elianto","#FFFFF080"," "," ","1","&#10004","[1247.7999999523163]","1","0","0","","","","","","","",""
"pit-instructions","13","168054","0.0-2.0-5.0","battery-v0.2","","""event"",""trial"",""time""
""fullscreenenter"",""1"",""2371""
","
","
","""event"",""trial"",""time""
""fullscreenenter"",""1"",""2371""
","
","","[{""page_index"":0,""viewing_time"":5235.799999952316},{""page_index"":1,""viewing_time"":5777},{""page_index"":2,""viewing_time"":4397.300000071526},{""page_index"":3,""viewing_time"":6126.099999904633}]","21536.600000023842","","","","","","","","","","","","","","","","","","","","","","","",""
"pit-trial","14","172925","0.0-2.0-6.0-0.0","battery-v0.2","","""event"",""trial"",""time""
""fullscreenenter"",""1"",""2371""
","
","
","""event"",""trial"",""time""
""fullscreenenter"",""1"",""2371""
","
","","","-1","","","19","7257","3912","&#9854;","elianto","#FFFFF080","-1","-1","1","&#10004","[]","0","0","1","","","","","","","",""
"pit-trial","15","177806","0.0-2.0-6.1-0.1","battery-v0.2","","""event"",""trial"",""time""
""fullscreenenter"",""1"",""2371""
","
","
","""event"",""trial"",""time""
""fullscreenenter"",""1"",""2371""
","
","","","-1","","","19","7257","3912","&#9854;","elianto","#FFFFF080","-1","-1","1","&#10004","[]","0","0","1","","","","","","","",""
"pit-trial","16","182679","0.0-2.0-6.2-0.2","battery-v0.2","","""event"",""trial"",""time""
""fullscreenenter"",""1"",""2371""
","
","
","""event"",""trial"",""time""
""fullscreenenter"",""1"",""2371""
","
","","","-1","","","19","7257","3912","&#9854;","elianto","#FFFFF080","-1","-1","1","&#10004","[]","0","0","1","","","","","","","",""
"pit-trial","17","187537","0.0-2.0-6.3-0.3","battery-v0.2","","""event"",""trial"",""time""
""fullscreenenter"",""1"",""2371""
","
","
","""event"",""trial"",""time""
""fullscreenenter"",""1"",""2371""
","
","","","-1","","","19","7257","3912","&#9854;","elianto","#FFFFF080","-1","-1","1","&#10004","[]","0","0","1","","","","","","","",""
"pit-trial","18","192395","0.0-2.0-6.4-0.4","battery-v0.2","","""event"",""trial"",""time""
""fullscreenenter"",""1"",""2371""
","
","
","""event"",""trial"",""time""
""fullscreenenter"",""1"",""2371""
","
","","","-1","","","19","7257","3912","&#9854;","elianto","#FFFFF080","-1","-1","1","&#10004","[]","0","0","1","","","","","","","",""
"pit-instructions","19","324808","0.0-2.0-7.0","battery-v0.2","","""event"",""trial"",""time""
""fullscreenenter"",""1"",""2371""
","
","
","""event"",""trial"",""time""
""fullscreenenter"",""1"",""2371""
","
","","[{""page_index"":0,""viewing_time"":6981.900000095367},{""page_index"":1,""viewing_time"":7472.5},{""page_index"":2,""viewing_time"":5983.199999928474},{""page_index"":3,""viewing_time"":6732},{""page_index"":4,""viewing_time"":5306.300000071526},{""page_index"":5,""viewing_time"":5622.399999976158},{""page_index"":6,""viewing_time"":4097.399999976158},{""page_index"":7,""viewing_time"":8106.200000047684},{""page_index"":8,""viewing_time"":6907},{""page_index"":9,""viewing_time"":5927.5},{""page_index"":10,""viewing_time"":6355.899999976158},{""page_index"":11,""viewing_time"":5984.100000023842},{""page_index"":12,""viewing_time"":6810.099999904633},{""page_index"":13,""viewing_time"":7321.800000071526},{""page_index"":14,""viewing_time"":19747},{""page_index"":15,""viewing_time"":6562.299999952316},{""page_index"":16,""viewing_time"":8103.600000023842},{""page_index"":17,""viewing_time"":8390.399999976158}]","132411.90000009537","","","","","","","","","","","","","","","","","","","","","","","",""
"pit-trial","20","328202","0.0-2.0-8.0-0.0","battery-v0.2","","""event"",""trial"",""time""
""fullscreenenter"",""1"",""2371""
","
","
","""event"",""trial"",""time""
""fullscreenenter"",""1"",""2371""
","
","","","537.1000000238419","","","19","7257","3912","&#9776;","elianto","#3366ff99"," "," ","1","+10","[1387.2999999523163]","1","0","1","","","","","","","",""
"pit-trial","21","331208","0.0-2.0-8.0-1.0","battery-v0.2","","""event"",""trial"",""time""
""fullscreenenter"",""1"",""2371""
","
","
","""event"",""trial"",""time""
""fullscreenenter"",""1"",""2371""
","
","","","145.60000002384186","","","19","7257","3912","&#9776;","elianto","#3366ff99"," "," ","1","+10","[1000]","1","0","1","","","","","","","",""
"pit-trial","22","334715","0.0-2.0-8.0-2.0","battery-v0.2","","""event"",""trial"",""time""
""fullscreenenter"",""1"",""2371""
","
","
","""event"",""trial"",""time""
""fullscreenenter"",""1"",""2371""
","
","","","652.6999999284744","","","19","7257","3912","&#9776;","elianto","#3366ff99"," "," ","1","+10","[1504.5]","1","0","1","","","","","","","",""
"pit-trial","23","337928","0.0-2.0-8.0-3.0","battery-v0.2","","""event"",""trial"",""time""
""fullscreenenter"",""1"",""2371""
","
","
","""event"",""trial"",""time""
""fullscreenenter"",""1"",""2371""
","
","","","344.39999997615814","","","19","7257","3912","&#9776;","elianto","#3366ff99"," "," ","1","0","[1208.1000000238419]","1","0","1","","","","","","","",""
"pit-trial","24","341218","0.0-2.0-8.0-4.0","battery-v0.2","","""event"",""trial"",""time""
""fullscreenenter"",""1"",""2371""
","
","
","""event"",""trial"",""time""
""fullscreenenter"",""1"",""2371""
","
","","","429.60000002384186","","","19","7257","3912","&#9776;","elianto","#3366ff99"," "," ","1","+10","[1279.7999999523163]","1","0","1","","","","","","","",""
"pit-trial","25","344502","0.0-2.0-8.1-0.1","battery-v0.2","","""event"",""trial"",""time""
""fullscreenenter"",""1"",""2371""
","
","
","""event"",""trial"",""time""
""fullscreenenter"",""1"",""2371""
","
","","","417.5","","","19","7257","3912","&#9776;","elianto","#3366ff99"," "," ","1","+10","[1271.8000000715256]","1","0","1","","","","","","","",""
"pit-trial","26","347875","0.0-2.0-8.1-1.1","battery-v0.2","","""event"",""trial"",""time""
""fullscreenenter"",""1"",""2371""
","
","
","""event"",""trial"",""time""
""fullscreenenter"",""1"",""2371""
","
","","","516.3999999761581","","","19","7257","3912","&#9776;","elianto","#3366ff99"," "," ","1","+10","[1366.8999999761581]","1","0","1","","","","","","","",""
"pit-trial","27","351140","0.0-2.0-8.1-2.1","battery-v0.2","","""event"",""trial"",""time""
""fullscreenenter"",""1"",""2371""
","
","
","""event"",""trial"",""time""
""fullscreenenter"",""1"",""2371""
","
","","","407.89999997615814","","","19","7257","3912","&#9776;","elianto","#3366ff99"," "," ","1","+10","[1258.5]","1","0","1","","","","","","","",""
"pit-trial","28","354399","0.0-2.0-8.1-3.1","battery-v0.2","","""event"",""trial"",""time""
""fullscreenenter"",""1"",""2371""
","
","
","""event"",""trial"",""time""
""fullscreenenter"",""1"",""2371""
","
","","","403.5","","","19","7257","3912","&#9776;","elianto","#3366ff99"," "," ","1","0","[1255.7000000476837]","1","0","1","","","","","","","",""
"pit-trial","29","357603","0.0-2.0-8.1-4.1","battery-v0.2","","""event"",""trial"",""time""
""fullscreenenter"",""1"",""2371""
","
","
","""event"",""trial"",""time""
""fullscreenenter"",""1"",""2371""
","
","","","350.2999999523163","","","19","7257","3912","&#9776;","elianto","#3366ff99"," "," ","1","+10","[1201.2999999523163]","1","0","1","","","","","","","",""
"pit-trial","30","360631","0.0-2.0-8.2-0.2","battery-v0.2","","""event"",""trial"",""time""
""fullscreenenter"",""1"",""2371""
","
","
","""event"",""trial"",""time""
""fullscreenenter"",""1"",""2371""
","
","","","173.60000002384186","","","19","7257","3912","&#9776;","elianto","#3366ff99"," "," ","1","+10","[1024.2000000476837]","1","0","1","","","","","","","",""
"pit-trial","31","363830","0.0-2.0-8.2-1.2","battery-v0.2","","""event"",""trial"",""time""
""fullscreenenter"",""1"",""2371""
","
","
","""event"",""trial"",""time""
""fullscreenenter"",""1"",""2371""
","
","","","344.7999999523163","","","19","7257","3912","&#9776;","elianto","#3366ff99"," "," ","1","+10","[1195.6999999284744]","1","0","1","","","","","","","",""
"pit-trial","32","366840","0.0-2.0-8.2-2.2","battery-v0.2","","""event"",""trial"",""time""
""fullscreenenter"",""1"",""2371""
","
","
","""event"",""trial"",""time""
""fullscreenenter"",""1"",""2371""
","
","","","157.89999997615814","","","19","7257","3912","&#9776;","elianto","#3366ff99"," "," ","1","+10","[1008]","1","0","1","","","","","","","",""
"pit-trial","33","371000","0.0-2.0-8.2-3.2","battery-v0.2","","""event"",""trial"",""time""
""fullscreenenter"",""1"",""2371""
","
","
","""event"",""trial"",""time""
""fullscreenenter"",""1"",""2371""
","
","","","1306.3000000715256","","","19","7257","3912","&#9776;","elianto","#3366ff99"," "," ","1","0","[2157.600000023842]","1","0","1","","","","","","","",""
"pit-trial","34","374236","0.0-2.0-8.2-4.2","battery-v0.2","","""event"",""trial"",""time""
""fullscreenenter"",""1"",""2371""
","
","
","""event"",""trial"",""time""
""fullscreenenter"",""1"",""2371""
","
","","","382.09999990463257","","","19","7257","3912","&#9776;","elianto","#3366ff99"," "," ","1","+10","[1233.5]","1","0","1","","","","","","","",""
"call-function","35","374238","0.0-2.0-9.0","battery-v0.2","","""event"",""trial"",""time""
""fullscreenenter"",""1"",""2371""
","
","
","""event"",""trial"",""time""
""fullscreenenter"",""1"",""2371""
","
","","","","","","","","","","","","","","","","","","","","","","","","","","",""
"pit-instructions","36","418390","0.0-2.0-10.0","battery-v0.2","","""event"",""trial"",""time""
""fullscreenenter"",""1"",""2371""
","
","
","""event"",""trial"",""time""
""fullscreenenter"",""1"",""2371""
","
","","[{""page_index"":0,""viewing_time"":11227},{""page_index"":1,""viewing_time"":7258.899999976158},{""page_index"":2,""viewing_time"":9308.5},{""page_index"":3,""viewing_time"":8988.300000071526},{""page_index"":4,""viewing_time"":7367.199999928474}]","44150.299999952316","","","","","","","","","","","","","","","","","","","","","","","",""
"pit-trial","37","423256","0.0-2.0-11.0-0.0","battery-v0.2","","""event"",""trial"",""time""
""fullscreenenter"",""1"",""2371""
","
","
","""event"",""trial"",""time""
""fullscreenenter"",""1"",""2371""
","
","","","-1","","","19","7257","3912","&#9761;","elianto","#3366ff99","-1","-1","1","+10","[]","0","0","2","","","","","","","",""
"pit-trial","38","428122","0.0-2.0-11.0-1.0","battery-v0.2","","""event"",""trial"",""time""
""fullscreenenter"",""1"",""2371""
","
","
","""event"",""trial"",""time""
""fullscreenenter"",""1"",""2371""
","
","","","-1","","","19","7257","3912","&#9761;","elianto","#3366ff99","-1","-1","1","+10","[]","0","0","2","","","","","","","",""
"pit-trial","39","432996","0.0-2.0-11.0-2.0","battery-v0.2","","""event"",""trial"",""time""
""fullscreenenter"",""1"",""2371""
","
","
","""event"",""trial"",""time""
""fullscreenenter"",""1"",""2371""
","
","","","-1","","","19","7257","3912","&#9761;","elianto","#3366ff99","-1","-1","1","+10","[]","0","0","2","","","","","","","",""
"pit-trial","40","437858","0.0-2.0-11.0-3.0","battery-v0.2","","""event"",""trial"",""time""
""fullscreenenter"",""1"",""2371""
","
","
","""event"",""trial"",""time""
""fullscreenenter"",""1"",""2371""
","
","","","-1","","","19","7257","3912","&#9761;","elianto","#3366ff99","-1","-1","1","0","[]","0","0","2","","","","","","","",""
"pit-trial","41","442731","0.0-2.0-11.0-4.0","battery-v0.2","","""event"",""trial"",""time""
""fullscreenenter"",""1"",""2371""
","
","
","""event"",""trial"",""time""
""fullscreenenter"",""1"",""2371""
","
","","","-1","","","19","7257","3912","&#9761;","elianto","#3366ff99","-1","-1","1","+10","[]","0","0","2","","","","","","","",""
"pit-trial","42","447603","0.0-2.0-11.1-0.1","battery-v0.2","","""event"",""trial"",""time""
""fullscreenenter"",""1"",""2371""
","
","
","""event"",""trial"",""time""
""fullscreenenter"",""1"",""2371""
","
","","","-1","","","19","7257","3912","&#9761;","elianto","#3366ff99","-1","-1","1","+10","[]","0","0","2","","","","","","","",""
"pit-trial","43","452458","0.0-2.0-11.1-1.1","battery-v0.2","","""event"",""trial"",""time""
""fullscreenenter"",""1"",""2371""
","
","
","""event"",""trial"",""time""
""fullscreenenter"",""1"",""2371""
","
","","","-1","","","19","7257","3912","&#9761;","elianto","#3366ff99","-1","-1","1","+10","[]","0","0","2","","","","","","","",""
"pit-trial","44","457312","0.0-2.0-11.1-2.1","battery-v0.2","","""event"",""trial"",""time""
""fullscreenenter"",""1"",""2371""
","
","
","""event"",""trial"",""time""
""fullscreenenter"",""1"",""2371""
","
","","","-1","","","19","7257","3912","&#9761;","elianto","#3366ff99","-1","-1","1","+10","[]","0","0","2","","","","","","","",""
"pit-trial","45","462166","0.0-2.0-11.1-3.1","battery-v0.2","","""event"",""trial"",""time""
""fullscreenenter"",""1"",""2371""
","
","
","""event"",""trial"",""time""
""fullscreenenter"",""1"",""2371""
","
","","","-1","","","19","7257","3912","&#9761;","elianto","#3366ff99","-1","-1","1","0","[]","0","0","2","","","","","","","",""
"pit-trial","46","467020","0.0-2.0-11.1-4.1","battery-v0.2","","""event"",""trial"",""time""
""fullscreenenter"",""1"",""2371""
","
","
","""event"",""trial"",""time""
""fullscreenenter"",""1"",""2371""
","
","","","-1","","","19","7257","3912","&#9761;","elianto","#3366ff99","-1","-1","1","+10","[]","0","0","2","","","","","","","",""
"pit-trial","47","471873","0.0-2.0-11.2-0.2","battery-v0.2","","""event"",""trial"",""time""
""fullscreenenter"",""1"",""2371""
","
","
","""event"",""trial"",""time""
""fullscreenenter"",""1"",""2371""
","
","","","-1","","","19","7257","3912","&#9761;","elianto","#3366ff99","-1","-1","1","+10","[]","0","0","2","","","","","","","",""
"pit-trial","48","476727","0.0-2.0-11.2-1.2","battery-v0.2","","""event"",""trial"",""time""
""fullscreenenter"",""1"",""2371""
","
","
","""event"",""trial"",""time""
""fullscreenenter"",""1"",""2371""
","
","","","-1","","","19","7257","3912","&#9761;","elianto","#3366ff99","-1","-1","1","+10","[]","0","0","2","","","","","","","",""
"pit-trial","49","481580","0.0-2.0-11.2-2.2","battery-v0.2","","""event"",""trial"",""time""
""fullscreenenter"",""1"",""2371""
","
","
","""event"",""trial"",""time""
""fullscreenenter"",""1"",""2371""
","
","","","-1","","","19","7257","3912","&#9761;","elianto","#3366ff99","-1","-1","1","+10","[]","0","0","2","","","","","","","",""
"pit-trial","50","486433","0.0-2.0-11.2-3.2","battery-v0.2","","""event"",""trial"",""time""
""fullscreenenter"",""1"",""2371""
","
","
","""event"",""trial"",""time""
""fullscreenenter"",""1"",""2371""
","
","","","-1","","","19","7257","3912","&#9761;","elianto","#3366ff99","-1","-1","1","0","[]","0","0","2","","","","","","","",""
"pit-trial","51","491288","0.0-2.0-11.2-4.2","battery-v0.2","","""event"",""trial"",""time""
""fullscreenenter"",""1"",""2371""
","
","
","""event"",""trial"",""time""
""fullscreenenter"",""1"",""2371""
","
","","","-1","","","19","7257","3912","&#9761;","elianto","#3366ff99","-1","-1","1","+10","[]","0","0","2","","","","","","","",""
"pit-trial","52","496153","0.0-2.0-11.3-0.3","battery-v0.2","","""event"",""trial"",""time""
""fullscreenenter"",""1"",""2371""
","
","
","""event"",""trial"",""time""
""fullscreenenter"",""1"",""2371""
","
","","","-1","","","19","7257","3912","&#9761;","elianto","#3366ff99","-1","-1","1","+10","[]","0","0","2","","","","","","","",""
"pit-trial","53","501007","0.0-2.0-11.3-1.3","battery-v0.2","","""event"",""trial"",""time""
""fullscreenenter"",""1"",""2371""
","
","
","""event"",""trial"",""time""
""fullscreenenter"",""1"",""2371""
","
","","","-1","","","19","7257","3912","&#9761;","elianto","#3366ff99","-1","-1","1","+10","[]","0","0","2","","","","","","","",""
"pit-trial","54","505861","0.0-2.0-11.3-2.3","battery-v0.2","","""event"",""trial"",""time""
""fullscreenenter"",""1"",""2371""
","
","
","""event"",""trial"",""time""
""fullscreenenter"",""1"",""2371""
","
","","","-1","","","19","7257","3912","&#9761;","elianto","#3366ff99","-1","-1","1","+10","[]","0","0","2","","","","","","","",""
"pit-trial","55","510713","0.0-2.0-11.3-3.3","battery-v0.2","","""event"",""trial"",""time""
""fullscreenenter"",""1"",""2371""
","
","
","""event"",""trial"",""time""
""fullscreenenter"",""1"",""2371""
","
","","","-1","","","19","7257","3912","&#9761;","elianto","#3366ff99","-1","-1","1","0","[]","0","0","2","","","","","","","",""
"pit-trial","56","515567","0.0-2.0-11.3-4.3","battery-v0.2","","""event"",""trial"",""time""
""fullscreenenter"",""1"",""2371""
","
","
","""event"",""trial"",""time""
""fullscreenenter"",""1"",""2371""
","
","","","-1","","","19","7257","3912","&#9761;","elianto","#3366ff99","-1","-1","1","+10","[]","0","0","2","","","","","","","",""
"call-function","57","515568","0.0-2.0-12.0","battery-v0.2","","""event"",""trial"",""time""
""fullscreenenter"",""1"",""2371""
","
","
","""event"",""trial"",""time""
""fullscreenenter"",""1"",""2371""
","
","","","","","","","","","","","","","","","","","","","","","","","","","","",""
"pit-instructions","58","574925","0.0-2.0-13.0","battery-v0.2","","""event"",""trial"",""time""
""fullscreenenter"",""1"",""2371""
","
","
","""event"",""trial"",""time""
""fullscreenenter"",""1"",""2371""
","
","","[{""page_index"":0,""viewing_time"":19888.699999928474},{""page_index"":1,""viewing_time"":17443.899999976158},{""page_index"":2,""viewing_time"":4496.800000071526},{""page_index"":3,""viewing_time"":12446.899999976158},{""page_index"":4,""viewing_time"":5080.600000023842}]","59357.199999928474","","","","","","","","","","","","","","","","","","","","","","","",""
"pit-trial","59","578655","0.0-2.0-14.0-0.0","battery-v0.2","","""event"",""trial"",""time""
""fullscreenenter"",""1"",""2371""
","
","
","""event"",""trial"",""time""
""fullscreenenter"",""1"",""2371""
","
","","","865.3999999761581","","","19","7257","3912","&#9826;","elianto","#f73b6a7A","-1"," ","0","-10","[1726.8999999761581]","1","0","3","","","","","","","",""
"pit-trial","60","583539","0.0-2.0-14.0-1.0","battery-v0.2","","""event"",""trial"",""time""
""fullscreenenter"",""1"",""2371""
","
","
","""event"",""trial"",""time""
""fullscreenenter"",""1"",""2371""
","
","","","-1","","","19","7257","3912","&#9826;","elianto","#f73b6a7A","-1","-1","1","0","[]","0","0","3","","","","","","","",""
"pit-trial","61","588413","0.0-2.0-14.0-2.0","battery-v0.2","","""event"",""trial"",""time""
""fullscreenenter"",""1"",""2371""
","
","
","""event"",""trial"",""time""
""fullscreenenter"",""1"",""2371""
","
","","","-1","","","19","7257","3912","&#9826;","elianto","#f73b6a7A","-1","-1","1","0","[]","0","0","3","","","","","","","",""
"pit-trial","62","593280","0.0-2.0-14.0-3.0","battery-v0.2","","""event"",""trial"",""time""
""fullscreenenter"",""1"",""2371""
","
","
","""event"",""trial"",""time""
""fullscreenenter"",""1"",""2371""
","
","","","-1","","","19","7257","3912","&#9826;","elianto","#f73b6a7A","-1","-1","1","-10","[]","0","0","3","","","","","","","",""
"pit-trial","63","598158","0.0-2.0-14.0-4.0","battery-v0.2","","""event"",""trial"",""time""
""fullscreenenter"",""1"",""2371""
","
","
","""event"",""trial"",""time""
""fullscreenenter"",""1"",""2371""
","
","","","-1","","","19","7257","3912","&#9826;","elianto","#f73b6a7A","-1","-1","1","0","[]","0","0","3","","","","","","","",""
"pit-trial","64","603024","0.0-2.0-14.1-0.1","battery-v0.2","","""event"",""trial"",""time""
""fullscreenenter"",""1"",""2371""
","
","
","""event"",""trial"",""time""
""fullscreenenter"",""1"",""2371""
","
","","","-1","","","19","7257","3912","&#9826;","elianto","#f73b6a7A","-1","-1","1","0","[]","0","0","3","","","","","","","",""
"pit-trial","65","607878","0.0-2.0-14.1-1.1","battery-v0.2","","""event"",""trial"",""time""
""fullscreenenter"",""1"",""2371""
","
","
","""event"",""trial"",""time""
""fullscreenenter"",""1"",""2371""
","
","","","-1","","","19","7257","3912","&#9826;","elianto","#f73b6a7A","-1","-1","1","0","[]","0","0","3","","","","","","","",""
"pit-trial","66","612733","0.0-2.0-14.1-2.1","battery-v0.2","","""event"",""trial"",""time""
""fullscreenenter"",""1"",""2371""
","
","
","""event"",""trial"",""time""
""fullscreenenter"",""1"",""2371""
","
","","","-1","","","19","7257","3912","&#9826;","elianto","#f73b6a7A","-1","-1","1","0","[]","0","0","3","","","","","","","",""
"pit-trial","67","617607","0.0-2.0-14.1-3.1","battery-v0.2","","""event"",""trial"",""time""
""fullscreenenter"",""1"",""2371""
","
","
","""event"",""trial"",""time""
""fullscreenenter"",""1"",""2371""
","
","","","-1","","","19","7257","3912","&#9826;","elianto","#f73b6a7A","-1","-1","1","-10","[]","0","0","3","","","","","","","",""
"pit-trial","68","622460","0.0-2.0-14.1-4.1","battery-v0.2","","""event"",""trial"",""time""
""fullscreenenter"",""1"",""2371""
","
","
","""event"",""trial"",""time""
""fullscreenenter"",""1"",""2371""
","
","","","-1","","","19","7257","3912","&#9826;","elianto","#f73b6a7A","-1","-1","1","0","[]","0","0","3","","","","","","","",""
"pit-trial","69","627314","0.0-2.0-14.2-0.2","battery-v0.2","","""event"",""trial"",""time""
""fullscreenenter"",""1"",""2371""
","
","
","""event"",""trial"",""time""
""fullscreenenter"",""1"",""2371""
","
","","","-1","","","19","7257","3912","&#9826;","elianto","#f73b6a7A","-1","-1","1","0","[]","0","0","3","","","","","","","",""
"pit-trial","70","632167","0.0-2.0-14.2-1.2","battery-v0.2","","""event"",""trial"",""time""
""fullscreenenter"",""1"",""2371""
","
","
","""event"",""trial"",""time""
""fullscreenenter"",""1"",""2371""
","
","","","-1","","","19","7257","3912","&#9826;","elianto","#f73b6a7A","-1","-1","1","0","[]","0","0","3","","","","","","","",""
"pit-trial","71","637021","0.0-2.0-14.2-2.2","battery-v0.2","","""event"",""trial"",""time""
""fullscreenenter"",""1"",""2371""
","
","
","""event"",""trial"",""time""
""fullscreenenter"",""1"",""2371""
","
","","","-1","","","19","7257","3912","&#9826;","elianto","#f73b6a7A","-1","-1","1","0","[]","0","0","3","","","","","","","",""
"pit-trial","72","641875","0.0-2.0-14.2-3.2","battery-v0.2","","""event"",""trial"",""time""
""fullscreenenter"",""1"",""2371""
","
","
","""event"",""trial"",""time""
""fullscreenenter"",""1"",""2371""
","
","","","-1","","","19","7257","3912","&#9826;","elianto","#f73b6a7A","-1","-1","1","-10","[]","0","0","3","","","","","","","",""
"pit-trial","73","646734","0.0-2.0-14.2-4.2","battery-v0.2","","""event"",""trial"",""time""
""fullscreenenter"",""1"",""2371""
","
","
","""event"",""trial"",""time""
""fullscreenenter"",""1"",""2371""
","
","","","-1","","","19","7257","3912","&#9826;","elianto","#f73b6a7A","-1","-1","1","0","[]","0","0","3","","","","","","","",""
"pit-trial","74","651587","0.0-2.0-14.3-0.3","battery-v0.2","","""event"",""trial"",""time""
""fullscreenenter"",""1"",""2371""
","
","
","""event"",""trial"",""time""
""fullscreenenter"",""1"",""2371""
","
","","","-1","","","19","7257","3912","&#9826;","elianto","#f73b6a7A","-1","-1","1","0","[]","0","0","3","","","","","","","",""
"pit-trial","75","656441","0.0-2.0-14.3-1.3","battery-v0.2","","""event"",""trial"",""time""
""fullscreenenter"",""1"",""2371""
","
","
","""event"",""trial"",""time""
""fullscreenenter"",""1"",""2371""
","
","","","-1","","","19","7257","3912","&#9826;","elianto","#f73b6a7A","-1","-1","1","0","[]","0","0","3","","","","","","","",""
"pit-trial","76","661296","0.0-2.0-14.3-2.3","battery-v0.2","","""event"",""trial"",""time""
""fullscreenenter"",""1"",""2371""
","
","
","""event"",""trial"",""time""
""fullscreenenter"",""1"",""2371""
","
","","","-1","","","19","7257","3912","&#9826;","elianto","#f73b6a7A","-1","-1","1","0","[]","0","0","3","","","","","","","",""
"pit-trial","77","666149","0.0-2.0-14.3-3.3","battery-v0.2","","""event"",""trial"",""time""
""fullscreenenter"",""1"",""2371""
","
","
","""event"",""trial"",""time""
""fullscreenenter"",""1"",""2371""
","
","","","-1","","","19","7257","3912","&#9826;","elianto","#f73b6a7A","-1","-1","1","-10","[]","0","0","3","","","","","","","",""
"pit-trial","78","671002","0.0-2.0-14.3-4.3","battery-v0.2","","""event"",""trial"",""time""
""fullscreenenter"",""1"",""2371""
","
","
","""event"",""trial"",""time""
""fullscreenenter"",""1"",""2371""
","
","","","-1","","","19","7257","3912","&#9826;","elianto","#f73b6a7A","-1","-1","1","0","[]","0","0","3","","","","","","","",""
"call-function","79","671004","0.0-2.0-15.0","battery-v0.2","","""event"",""trial"",""time""
""fullscreenenter"",""1"",""2371""
","
","
","""event"",""trial"",""time""
""fullscreenenter"",""1"",""2371""
","
","","","","","","","","","","","","","","","","","","","","","","","","","","",""
"pit-instructions","80","708201","0.0-2.0-16.0","battery-v0.2","","""event"",""trial"",""time""
""fullscreenenter"",""1"",""2371""
","
","
","""event"",""trial"",""time""
""fullscreenenter"",""1"",""2371""
","
","","[{""page_index"":0,""viewing_time"":18272.200000047684},{""page_index"":1,""viewing_time"":9060.600000023842},{""page_index"":2,""viewing_time"":4924.799999952316},{""page_index"":3,""viewing_time"":4938.899999976158}]","37196.90000009537","","","","","","","","","","","","","","","","","","","","","","","",""
"pit-trial","81","711576","0.0-2.0-17.0-0.0","battery-v0.2","","""event"",""trial"",""time""
""fullscreenenter"",""1"",""2371""
","
","
","""event"",""trial"",""time""
""fullscreenenter"",""1"",""2371""
","
","","","508.6999999284744","","","19","7257","3912","&#9789;","elianto","#f73b6a7A"," "," ","1","0","[1359]","1","0","4","","","","","","","",""
"pit-trial","82","714553","0.0-2.0-17.0-1.0","battery-v0.2","","""event"",""trial"",""time""
""fullscreenenter"",""1"",""2371""
","
","
","""event"",""trial"",""time""
""fullscreenenter"",""1"",""2371""
","
","","","103","","","19","7257","3912","&#9789;","elianto","#f73b6a7A"," "," ","1","0","[960.3999999761581]","1","0","4","","","","","","","",""
"pit-trial","83","717480","0.0-2.0-17.0-2.0","battery-v0.2","","""event"",""trial"",""time""
""fullscreenenter"",""1"",""2371""
","
","
","""event"",""trial"",""time""
""fullscreenenter"",""1"",""2371""
","
","","","58.799999952316284","","","19","7257","3912","&#9789;","elianto","#f73b6a7A"," "," ","1","0","[911.5]","1","0","4","","","","","","","",""
"pit-trial","84","720631","0.0-2.0-17.0-3.0","battery-v0.2","","""event"",""trial"",""time""
""fullscreenenter"",""1"",""2371""
","
","
","""event"",""trial"",""time""
""fullscreenenter"",""1"",""2371""
","
","","","293.8000000715256","","","19","7257","3912","&#9789;","elianto","#f73b6a7A"," "," ","1","-10","[1147]","1","0","4","","","","","","","",""
"pit-trial","85","723656","0.0-2.0-17.0-4.0","battery-v0.2","","""event"",""trial"",""time""
""fullscreenenter"",""1"",""2371""
","
","
","""event"",""trial"",""time""
""fullscreenenter"",""1"",""2371""
","
","","","163.10000002384186","","","19","7257","3912","&#9789;","elianto","#f73b6a7A"," "," ","1","0","[1015.7999999523163]","1","0","4","","","","","","","",""
"pit-trial","86","726641","0.0-2.0-17.1-0.1","battery-v0.2","","""event"",""trial"",""time""
""fullscreenenter"",""1"",""2371""
","
","
","""event"",""trial"",""time""
""fullscreenenter"",""1"",""2371""
","
","","","111.20000004768372","","","19","7257","3912","&#9789;","elianto","#f73b6a7A"," "," ","1","0","[967.8000000715256]","1","0","4","","","","","","","",""
"pit-trial","87","729882","0.0-2.0-17.1-1.1","battery-v0.2","","""event"",""trial"",""time""
""fullscreenenter"",""1"",""2371""
","
","
","""event"",""trial"",""time""
""fullscreenenter"",""1"",""2371""
","
","","","368.3000000715256","","","19","7257","3912","&#9789;","elianto","#f73b6a7A"," "," ","1","0","[1225.3000000715256]","1","0","4","","","","","","","",""
"pit-trial","88","732884","0.0-2.0-17.1-2.1","battery-v0.2","","""event"",""trial"",""time""
""fullscreenenter"",""1"",""2371""
","
","
","""event"",""trial"",""time""
""fullscreenenter"",""1"",""2371""
","
","","","148.29999995231628","","","19","7257","3912","&#9789;","elianto","#f73b6a7A"," "," ","1","0","[1000]","1","0","4","","","","","","","",""
"pit-trial","89","736028","0.0-2.0-17.1-3.1","battery-v0.2","","""event"",""trial"",""time""
""fullscreenenter"",""1"",""2371""
","
","
","""event"",""trial"",""time""
""fullscreenenter"",""1"",""2371""
","
","","","286.10000002384186","","","19","7257","3912","&#9789;","elianto","#f73b6a7A"," "," ","1","-10","[1137.5]","1","0","4","","","","","","","",""
"pit-trial","90","739113","0.0-2.0-17.1-4.1","battery-v0.2","","""event"",""trial"",""time""
""fullscreenenter"",""1"",""2371""
","
","
","""event"",""trial"",""time""
""fullscreenenter"",""1"",""2371""
","
","","","230.80000007152557","","","19","7257","3912","&#9789;","elianto","#f73b6a7A"," "," ","1","0","[1082.2000000476837]","1","0","4","","","","","","","",""
"pit-trial","91","742205","0.0-2.0-17.2-0.2","battery-v0.2","","""event"",""trial"",""time""
""fullscreenenter"",""1"",""2371""
","
","
","""event"",""trial"",""time""
""fullscreenenter"",""1"",""2371""
","
","","","235.69999992847443","","","19","7257","3912","&#9789;","elianto","#f73b6a7A"," "," ","1","0","[1088.8999999761581]","1","0","4","","","","","","","",""
"pit-trial","92","745298","0.0-2.0-17.2-1.2","battery-v0.2","","""event"",""trial"",""time""
""fullscreenenter"",""1"",""2371""
","
","
","""event"",""trial"",""time""
""fullscreenenter"",""1"",""2371""
","
","","","239.79999995231628","","","19","7257","3912","&#9789;","elianto","#f73b6a7A"," "," ","1","0","[1091.2999999523163]","1","0","4","","","","","","","",""
"pit-trial","93","748527","0.0-2.0-17.2-2.2","battery-v0.2","","""event"",""trial"",""time""
""fullscreenenter"",""1"",""2371""
","
","
","""event"",""trial"",""time""
""fullscreenenter"",""1"",""2371""
","
","","","377.39999997615814","","","19","7257","3912","&#9789;","elianto","#f73b6a7A"," "," ","1","0","[1227.5]","1","0","4","","","","","","","",""
"pit-trial","94","751733","0.0-2.0-17.2-3.2","battery-v0.2","","""event"",""trial"",""time""
""fullscreenenter"",""1"",""2371""
","
","
","""event"",""trial"",""time""
""fullscreenenter"",""1"",""2371""
","
","","","352.10000002384186","","","19","7257","3912","&#9789;","elianto","#f73b6a7A"," "," ","1","-10","[1204.1000000238419]","1","0","4","","","","","","","",""
"pit-trial","95","754800","0.0-2.0-17.2-4.2","battery-v0.2","","""event"",""trial"",""time""
""fullscreenenter"",""1"",""2371""
","
","
","""event"",""trial"",""time""
""fullscreenenter"",""1"",""2371""
","
","","","214","","","19","7257","3912","&#9789;","elianto","#f73b6a7A"," "," ","1","0","[1065.1000000238419]","1","0","4","","","","","","","",""
"pit-trial","96","758010","0.0-2.0-17.3-0.3","battery-v0.2","","""event"",""trial"",""time""
""fullscreenenter"",""1"",""2371""
","
","
","""event"",""trial"",""time""
""fullscreenenter"",""1"",""2371""
","
","","","356.7000000476837","","","19","7257","3912","&#9789;","elianto","#f73b6a7A"," "," ","1","0","[1207]","1","0","4","","","","","","","",""
"pit-trial","97","761075","0.0-2.0-17.3-1.3","battery-v0.2","","""event"",""trial"",""time""
""fullscreenenter"",""1"",""2371""
","
","
","""event"",""trial"",""time""
""fullscreenenter"",""1"",""2371""
","
","","","211.40000009536743","","","19","7257","3912","&#9789;","elianto","#f73b6a7A"," "," ","1","0","[1061.9000000953674]","1","0","4","","","","","","","",""
"pit-trial","98","764146","0.0-2.0-17.3-2.3","battery-v0.2","","""event"",""trial"",""time""
""fullscreenenter"",""1"",""2371""
","
","
","""event"",""trial"",""time""
""fullscreenenter"",""1"",""2371""
","
","","","219","","","19","7257","3912","&#9789;","elianto","#f73b6a7A"," "," ","1","0","[1069.6000000238419]","1","0","4","","","","","","","",""
"pit-trial","99","767207","0.0-2.0-17.3-3.3","battery-v0.2","","""event"",""trial"",""time""
""fullscreenenter"",""1"",""2371""
","
","
","""event"",""trial"",""time""
""fullscreenenter"",""1"",""2371""
","
","","","208.30000007152557","","","19","7257","3912","&#9789;","elianto","#f73b6a7A"," "," ","1","-10","[1059]","1","0","4","","","","","","","",""
"pit-trial","100","770341","0.0-2.0-17.3-4.3","battery-v0.2","","""event"",""trial"",""time""
""fullscreenenter"",""1"",""2371""
","
","
","""event"",""trial"",""time""
""fullscreenenter"",""1"",""2371""
","
","","","279.39999997615814","","","19","7257","3912","&#9789;","elianto","#f73b6a7A"," "," ","1","0","[1131.0999999046326]","1","0","4","","","","","","","",""
"call-function","101","770342","0.0-2.0-18.0","battery-v0.2","","""event"",""trial"",""time""
""fullscreenenter"",""1"",""2371""
","
","
","""event"",""trial"",""time""
""fullscreenenter"",""1"",""2371""
","
","","","","","","","","","","","","","","","","","","","","","","","","","","",""
"pit-instructions","102","869787","0.0-2.0-19.0","battery-v0.2","","""event"",""trial"",""time""
""fullscreenenter"",""1"",""2371""
","
","
","""event"",""trial"",""time""
""fullscreenenter"",""1"",""2371""
","
","","[{""page_index"":0,""viewing_time"":8209.199999928474},{""page_index"":1,""viewing_time"":18578.100000023842},{""page_index"":2,""viewing_time"":14383.700000047684},{""page_index"":3,""viewing_time"":8137},{""page_index"":4,""viewing_time"":8583.099999904633},{""page_index"":5,""viewing_time"":10924.700000047684},{""page_index"":6,""viewing_time"":20337},{""page_index"":7,""viewing_time"":6090.700000047684},{""page_index"":8,""viewing_time"":4199.899999976158}]","99443.79999995232","","","","","","","","","","","","","","","","","","","","","","","",""
"pit-comprehension","103","874221","0.0-2.0-20.0-0.0","battery-v0.2","","""event"",""trial"",""time""
""fullscreenenter"",""1"",""2371""
","
","
","""event"",""trial"",""time""
""fullscreenenter"",""1"",""2371""
","
","","","4430.100000023842","[""SPACE""]","0","19","7257","3912","","","","","","","","","","","","","","","","","","",""
"pit-instructions","104","877501","0.0-2.0-20.0-1.0","battery-v0.2","","""event"",""trial"",""time""
""fullscreenenter"",""1"",""2371""
","
","
","""event"",""trial"",""time""
""fullscreenenter"",""1"",""2371""
","
","","[{""page_index"":0,""viewing_time"":3245.6999999284744}]","3246","","","","","","","","","","","","","","","","","","","","","","","",""
"pit-comprehension","105","884170","0.0-2.0-21.0-0.0","battery-v0.2","","""event"",""trial"",""time""
""fullscreenenter"",""1"",""2371""
","
","
","""event"",""trial"",""time""
""fullscreenenter"",""1"",""2371""
","
","","","6666.800000071526","[""10""]","0","19","7257","3912","","","","","","","","","","","","","","","","","","",""
"pit-instructions","106","887343","0.0-2.0-21.0-1.0","battery-v0.2","","""event"",""trial"",""time""
""fullscreenenter"",""1"",""2371""
","
","
","""event"",""trial"",""time""
""fullscreenenter"",""1"",""2371""
","
","","[{""page_index"":0,""viewing_time"":3144.5}]","3144.600000023842","","","","","","","","","","","","","","","","","","","","","","","",""
"pit-comprehension","107","893750","0.0-2.0-22.0-0.0","battery-v0.2","","""event"",""trial"",""time""
""fullscreenenter"",""1"",""2371""
","
","
","""event"",""trial"",""time""
""fullscreenenter"",""1"",""2371""
","
","","","6404.599999904633","[""0""]","0","19","7257","3912","","","","","","","","","","","","","","","","","","",""
"pit-instructions","108","898487","0.0-2.0-22.0-1.0","battery-v0.2","","""event"",""trial"",""time""
""fullscreenenter"",""1"",""2371""
","
","
","""event"",""trial"",""time""
""fullscreenenter"",""1"",""2371""
","
","","[{""page_index"":0,""viewing_time"":4702.600000023842}]","4702.899999976158","","","","","","","","","","","","","","","","","","","","","","","",""
"pit-comprehension","109","908273","0.0-2.0-23.0-0.0","battery-v0.2","","""event"",""trial"",""time""
""fullscreenenter"",""1"",""2371""
","
","
","""event"",""trial"",""time""
""fullscreenenter"",""1"",""2371""
","
","","","9783.399999976158","[""True""]","0","19","7257","3912","","","","","","","","","","","","","","","","","","",""
"pit-instructions","110","910073","0.0-2.0-23.0-1.0","battery-v0.2","","""event"",""trial"",""time""
""fullscreenenter"",""1"",""2371""
","
","
","""event"",""trial"",""time""
""fullscreenenter"",""1"",""2371""
","
","","[{""page_index"":0,""viewing_time"":1765.5}]","1765.7999999523163","","","","","","","","","","","","","","","","","","","","","","","",""
"pit-comprehension","111","917533","0.0-2.0-24.0-0.0","battery-v0.2","","""event"",""trial"",""time""
""fullscreenenter"",""1"",""2371""
","
","
","""event"",""trial"",""time""
""fullscreenenter"",""1"",""2371""
","
","","","7457.5","[""True""]","0","19","7257","3912","","","","","","","","","","","","","","","","","","",""
"pit-instructions","112","922069","0.0-2.0-24.0-1.0","battery-v0.2","","""event"",""trial"",""time""
""fullscreenenter"",""1"",""2371""
","
","
","""event"",""trial"",""time""
""fullscreenenter"",""1"",""2371""
","
","","[{""page_index"":0,""viewing_time"":4504.600000023842}]","4504.899999976158","","","","","","","","","","","","","","","","","","","","","","","",""
"pit-comprehension","113","928496","0.0-2.0-25.0-0.0","battery-v0.2","","""event"",""trial"",""time""
""fullscreenenter"",""1"",""2371""
","
","
","""event"",""trial"",""time""
""fullscreenenter"",""1"",""2371""
","
","","","6424.100000023842","[""True""]","0","19","7257","3912","","","","","","","","","","","","","","","","","","",""
"pit-instructions","114","930815","0.0-2.0-25.0-1.0","battery-v0.2","","""event"",""trial"",""time""
""fullscreenenter"",""1"",""2371""
","
","
","""event"",""trial"",""time""
""fullscreenenter"",""1"",""2371""
","
","","[{""page_index"":0,""viewing_time"":2281.5}]","2281.8000000715256","","","","","","","","","","","","","","","","","","","","","","","",""
"pit-comprehension","115","935484","0.0-2.0-26.0-0.0","battery-v0.2","","""event"",""trial"",""time""
""fullscreenenter"",""1"",""2371""
","
","
","""event"",""trial"",""time""
""fullscreenenter"",""1"",""2371""
","
","","","4666.399999976158","[""False""]","0","19","7257","3912","","","","","","","","","","","","","","","","","","",""
"pit-instructions","116","936992","0.0-2.0-26.0-1.0","battery-v0.2","","""event"",""trial"",""time""
""fullscreenenter"",""1"",""2371""
","
","
","""event"",""trial"",""time""
""fullscreenenter"",""1"",""2371""
","
","","[{""page_index"":0,""viewing_time"":1475.2999999523163}]","1475.5","","","","","","","","","","","","","","","","","","","","","","","",""
"pit-instructions","117","956056","0.0-3.0","battery-v0.2","","""event"",""trial"",""time""
""fullscreenenter"",""1"",""2371""
","
","
","""event"",""trial"",""time""
""fullscreenenter"",""1"",""2371""
","
","","[{""page_index"":0,""viewing_time"":5021.299999952316},{""page_index"":1,""viewing_time"":6369.300000071526},{""page_index"":2,""viewing_time"":7671.799999952316}]","19062.600000023842","","","","","","","","","","","","","","","","","","","","","","","",""
"pit-trial","118","959655","0.0-4.0","battery-v0.2","","""event"",""trial"",""time""
""fullscreenenter"",""1"",""2371""
","
","
","""event"",""trial"",""time""
""fullscreenenter"",""1"",""2371""
","
","","","739.8999999761581","","","19","7257","3912","&#9728;","elianto","#f73b6a7A","-1"," ","0","0","[1591.5]","1","1","","","7257","1","0","4","lose","no-go","1"
"pit-trial","119","963141","0.0-5.0","battery-v0.2","","""event"",""trial"",""time""
""fullscreenenter"",""1"",""2371""
","
","
","""event"",""trial"",""time""
""fullscreenenter"",""1"",""2371""
","
","","","626.6000000238419","","","19","7257","3912","&#9730;","elianto","#3366ff99"," "," ","1","+10","[1481.3000000715256]","1","1","","","7257","2","1","1","win","go","0"
"pit-trial","120","966600","0.0-6.0","battery-v0.2","","""event"",""trial"",""time""
""fullscreenenter"",""1"",""2371""
","
","
","""event"",""trial"",""time""
""fullscreenenter"",""1"",""2371""
","
","","","602.7000000476837","","","19","7257","3912","&#9733;","elianto","#3366ff99","-1"," ","0","0","[1455.1000000238419]","1","1","","","7257","3","2","2","win","no-go","0"
"pit-trial","121","970401","0.0-7.0","battery-v0.2","","""event"",""trial"",""time""
""fullscreenenter"",""1"",""2371""
","
","
","""event"",""trial"",""time""
""fullscreenenter"",""1"",""2371""
","
","","","926.8999999761581","","","19","7257","3912","&#9752;","elianto","#f73b6a7A"," "," ","1","0","[1787]","1","1","","","7257","4","3","3","lose","go","0"
"pit-trial","122","974637","0.0-8.0","battery-v0.2","","""event"",""trial"",""time""
""fullscreenenter"",""1"",""2371""
","
","
","""event"",""trial"",""time""
""fullscreenenter"",""1"",""2371""
","
","","","1373.3999999761581","","","19","7257","3912","&#9728;","elianto","#f73b6a7A","-1"," ","0","-10","[2230.1999999284744]","1","1","","","7257","5","0","4","lose","no-go","0"
"pit-trial","123","978294","0.0-9.0","battery-v0.2","","""event"",""trial"",""time""
""fullscreenenter"",""1"",""2371""
","
","
","""event"",""trial"",""time""
""fullscreenenter"",""1"",""2371""
","
","","","799.7999999523163","","","19","7257","3912","&#9730;","elianto","#3366ff99"," "," ","1","+10","[1652.1999999284744]","1","1","","","7257","6","1","1","win","go","0"
"pit-trial","124","983164","0.0-10.0","battery-v0.2","","""event"",""trial"",""time""
""fullscreenenter"",""1"",""2371""
","
","
","""event"",""trial"",""time""
""fullscreenenter"",""1"",""2371""
","
","","","-1","","","19","7257","3912","&#9752;","elianto","#f73b6a7A"," ","-1","0","0","[]","0","1","","","7257","7","3","3","lose","go","1"
"pit-trial","125","986491","0.0-11.0","battery-v0.2","","""event"",""trial"",""time""
""fullscreenenter"",""1"",""2371""
","
","
","""event"",""trial"",""time""
""fullscreenenter"",""1"",""2371""
","
","","","468","","","19","7257","3912","&#9733;","elianto","#3366ff99","-1"," ","0","0","[1325.3000000715256]","1","1","","","7257","8","2","2","win","no-go","0"
"pit-trial","126","990098","0.0-12.0","battery-v0.2","","""event"",""trial"",""time""
""fullscreenenter"",""1"",""2371""
","
","
","""event"",""trial"",""time""
""fullscreenenter"",""1"",""2371""
","
","","","753.7999999523163","","","19","7257","3912","&#9733;","elianto","#3366ff99","-1"," ","0","0","[1604.5]","1","1","","","7257","9","2","2","win","no-go","0"
"pit-trial","127","994205","0.0-13.0","battery-v0.2","","""event"",""trial"",""time""
""fullscreenenter"",""1"",""2371""
","
","
","""event"",""trial"",""time""
""fullscreenenter"",""1"",""2371""
","
","","","1255.1000000238419","","","19","7257","3912","&#9752;","elianto","#f73b6a7A"," "," ","1","0","[2105.899999976158]","1","1","","","7257","10","3","3","lose","go","0"
"pit-trial","128","998658","0.0-14.0","battery-v0.2","","""event"",""trial"",""time""
""fullscreenenter"",""1"",""2371""
","
","
","""event"",""trial"",""time""
""fullscreenenter"",""1"",""2371""
","
","","","1593.1000000238419","","","19","7257","3912","&#9730;","elianto","#3366ff99"," "," ","1","+10","[2443.100000023842]","1","1","","","7257","11","1","1","win","go","0"
"pit-trial","129","1003513","0.0-15.0","battery-v0.2","","""event"",""trial"",""time""
""fullscreenenter"",""1"",""2371""
","
","
","""event"",""trial"",""time""
""fullscreenenter"",""1"",""2371""
","
","","","-1","","","19","7257","3912","&#9728;","elianto","#f73b6a7A","-1","-1","1","0","[]","0","1","","","7257","12","0","4","lose","no-go","0"
"pit-trial","130","1007204","0.0-16.0","battery-v0.2","","""event"",""trial"",""time""
""fullscreenenter"",""1"",""2371""
","
","
","""event"",""trial"",""time""
""fullscreenenter"",""1"",""2371""
","
","","","828","","","19","7257","3912","&#9730;","elianto","#3366ff99"," "," ","1","+10","[1687.8999999761581]","1","1","","","7257","13","1","1","win","go","0"
"pit-trial","131","1010875","0.0-17.0","battery-v0.2","","""event"",""trial"",""time""
""fullscreenenter"",""1"",""2371""
","
","
","""event"",""trial"",""time""
""fullscreenenter"",""1"",""2371""
","
","","","817.7999999523163","","","19","7257","3912","&#9728;","elianto","#f73b6a7A","-1"," ","0","-10","[1668.7000000476837]","1","1","","","7257","14","0","4","lose","no-go","0"
"pit-trial","132","1014460","0.0-18.0","battery-v0.2","","""event"",""trial"",""time""
""fullscreenenter"",""1"",""2371""
","
","
","""event"",""trial"",""time""
""fullscreenenter"",""1"",""2371""
","
","","","730.3999999761581","","","19","7257","3912","&#9733;","elianto","#3366ff99","-1"," ","0","+10","[1582.2000000476837]","1","1","","","7257","15","2","2","win","no-go","1"
"pit-trial","133","1018219","0.0-19.0","battery-v0.2","","""event"",""trial"",""time""
""fullscreenenter"",""1"",""2371""
","
","
","""event"",""trial"",""time""
""fullscreenenter"",""1"",""2371""
","
","","","905.3999999761581","","","19","7257","3912","&#9752;","elianto","#f73b6a7A"," "," ","1","0","[1755.8999999761581]","1","1","","","7257","16","3","3","lose","go","0"
"pit-trial","134","1023073","0.0-20.0","battery-v0.2","","""event"",""trial"",""time""
""fullscreenenter"",""1"",""2371""
","
","
","""event"",""trial"",""time""
""fullscreenenter"",""1"",""2371""
","
","","","-1","","","19","7257","3912","&#9728;","elianto","#f73b6a7A","-1","-1","1","0","[]","0","1","","","7257","17","0","4","lose","no-go","0"
"pit-trial","135","1026659","0.0-21.0","battery-v0.2","","""event"",""trial"",""time""
""fullscreenenter"",""1"",""2371""
","
","
","""event"",""trial"",""time""
""fullscreenenter"",""1"",""2371""
","
","","","733.5","","","19","7257","3912","&#9733;","elianto","#3366ff99","-1"," ","0","0","[1583.9000000953674]","1","1","","","7257","18","2","2","win","no-go","0"
"pit-trial","136","1030337","0.0-22.0","battery-v0.2","","""event"",""trial"",""time""
""fullscreenenter"",""1"",""2371""
","
","
","""event"",""trial"",""time""
""fullscreenenter"",""1"",""2371""
","
","","","824.3999999761581","","","19","7257","3912","&#9752;","elianto","#f73b6a7A"," "," ","1","0","[1674.5]","1","1","","","7257","19","3","3","lose","go","0"
"pit-trial","137","1034606","0.0-23.0","battery-v0.2","","""event"",""trial"",""time""
""fullscreenenter"",""1"",""2371""
","
","
","""event"",""trial"",""time""
""fullscreenenter"",""1"",""2371""
","
","","","1416.1999999284744","","","19","7257","3912","&#9730;","elianto","#3366ff99"," "," ","1","+10","[2266.7999999523163]","1","1","","","7257","20","1","1","win","go","0"
"pit-instructions","138","1048543","0.0-24.0","battery-v0.2","","""event"",""trial"",""time""
""fullscreenenter"",""1"",""2371""
","
","
","""event"",""trial"",""time""
""fullscreenenter"",""1"",""2371""
","
","","[{""page_index"":0,""viewing_time"":6819.199999928474},{""page_index"":1,""viewing_time"":7116.300000071526}]","13935.799999952316","","","","","","","","","","","","","","","","","","","","","","","",""
"pit-trial","139","1053417","0.0-25.0","battery-v0.2","","""event"",""trial"",""time""
""fullscreenenter"",""1"",""2371""
","
","
","""event"",""trial"",""time""
""fullscreenenter"",""1"",""2371""
","
","","","-1","","","19","7257","3912","j","elianto","#f73b6a7A","-1","-1","1","0","[]","0","2","","","7257","21","0","4","lose","no-go","0"
"pit-trial","140","1057298","0.0-26.0","battery-v0.2","","""event"",""trial"",""time""
""fullscreenenter"",""1"",""2371""
","
","
","""event"",""trial"",""time""
""fullscreenenter"",""1"",""2371""
","
","","","1021.1000000238419","","","19","7257","3912","w","elianto","#f73b6a7A"," "," ","1","0","[1871.8999999761581]","1","2","","","7257","22","3","3","lose","go","0"
"pit-trial","141","1060934","0.0-27.0","battery-v0.2","","""event"",""trial"",""time""
""fullscreenenter"",""1"",""2371""
","
","
","""event"",""trial"",""time""
""fullscreenenter"",""1"",""2371""
","
","","","769.1000000238419","","","19","7257","3912","e","elianto","#f73b6a7A","-1"," ","0","-10","[1628.3000000715256]","1","2","","","7257","23","2","4","lose","no-go","0"
"pit-trial","142","1064670","0.0-28.0","battery-v0.2","","""event"",""trial"",""time""
""fullscreenenter"",""1"",""2371""
","
","
","""event"",""trial"",""time""
""fullscreenenter"",""1"",""2371""
","
","","","870.1999999284744","","","19","7257","3912","d","elianto","#3366ff99"," "," ","1","0","[1725.5]","1","2","","","7257","24","1","1","win","go","1"
"pit-trial","143","1068391","0.0-29.0","battery-v0.2","","""event"",""trial"",""time""
""fullscreenenter"",""1"",""2371""
","
","
","""event"",""trial"",""time""
""fullscreenenter"",""1"",""2371""
","
","","","856.8000000715256","","","19","7257","3912","j","elianto","#f73b6a7A","-1"," ","0","-10","[1707]","1","2","","","7257","25","0","4","lose","no-go","0"
"pit-trial","144","1073263","0.0-30.0","battery-v0.2","","""event"",""trial"",""time""
""fullscreenenter"",""1"",""2371""
","
","
","""event"",""trial"",""time""
""fullscreenenter"",""1"",""2371""
","
","","","-1","","","19","7257","3912","e","elianto","#f73b6a7A","-1","-1","1","0","[]","0","2","","","7257","26","2","4","lose","no-go","0"
"pit-trial","145","1078135","0.0-31.0","battery-v0.2","","""event"",""trial"",""time""
""fullscreenenter"",""1"",""2371""
","
","
","""event"",""trial"",""time""
""fullscreenenter"",""1"",""2371""
","
","","","-1","","","19","7257","3912","d","elianto","#3366ff99"," ","-1","0","0","[]","0","2","","","7257","27","1","1","win","go","0"
"pit-trial","146","1082041","0.0-32.0","battery-v0.2","","""event"",""trial"",""time""
""fullscreenenter"",""1"",""2371""
","
","
","""event"",""trial"",""time""
""fullscreenenter"",""1"",""2371""
","
","","","1051.0999999046326","","","19","7257","3912","w","elianto","#f73b6a7A"," "," ","1","0","[1902.8000000715256]","1","2","","","7257","28","3","3","lose","go","0"
"pit-trial","147","1086083","0.0-33.0","battery-v0.2","","""event"",""trial"",""time""
""fullscreenenter"",""1"",""2371""
","
","
","""event"",""trial"",""time""
""fullscreenenter"",""1"",""2371""
","
","","","1175.7000000476837","","","19","7257","3912","d","elianto","#3366ff99"," "," ","1","+10","[2026.6000000238419]","1","2","","","7257","29","1","1","win","go","0"
"pit-trial","148","1090936","0.0-34.0","battery-v0.2","","""event"",""trial"",""time""
""fullscreenenter"",""1"",""2371""
","
","
","""event"",""trial"",""time""
""fullscreenenter"",""1"",""2371""
","
","","","-1","","","19","7257","3912","w","elianto","#f73b6a7A"," ","-1","0","-10","[3092.5]","1","2","","","7257","30","3","3","lose","go","0"
"pit-trial","149","1095798","0.0-35.0","battery-v0.2","","""event"",""trial"",""time""
""fullscreenenter"",""1"",""2371""
","
","
","""event"",""trial"",""time""
""fullscreenenter"",""1"",""2371""
","
","","","-1","","","19","7257","3912","e","elianto","#f73b6a7A","-1","-1","1","0","[]","0","2","","","7257","31","2","4","lose","no-go","0"
"pit-trial","150","1100652","0.0-36.0","battery-v0.2","","""event"",""trial"",""time""
""fullscreenenter"",""1"",""2371""
","
","
","""event"",""trial"",""time""
""fullscreenenter"",""1"",""2371""
","
","","","-1","","","19","7257","3912","j","elianto","#f73b6a7A","-1","-1","1","-10","[]","0","2","","","7257","32","0","4","lose","no-go","1"
"pit-trial","151","1105505","0.0-37.0","battery-v0.2","","""event"",""trial"",""time""
""fullscreenenter"",""1"",""2371""
","
","
","""event"",""trial"",""time""
""fullscreenenter"",""1"",""2371""
","
","","","-1","","","19","7257","3912","e","elianto","#f73b6a7A","-1","-1","1","-10","[]","0","2","","","7257","33","2","4","lose","no-go","1"
"pit-trial","152","1109335","0.0-38.0","battery-v0.2","","""event"",""trial"",""time""
""fullscreenenter"",""1"",""2371""
","
","
","""event"",""trial"",""time""
""fullscreenenter"",""1"",""2371""
","
","","","975.8999999761581","","","19","7257","3912","d","elianto","#3366ff99"," "," ","1","+10","[1826.8000000715256]","1","2","","","7257","34","1","1","win","go","0"
"pit-trial","153","1114188","0.0-39.0","battery-v0.2","","""event"",""trial"",""time""
""fullscreenenter"",""1"",""2371""
","
","
","""event"",""trial"",""time""
""fullscreenenter"",""1"",""2371""
","
","","","-1","","","19","7257","3912","j","elianto","#f73b6a7A","-1","-1","1","0","[]","0","2","","","7257","35","0","4","lose","no-go","0"
"pit-trial","154","1117824","0.0-40.0","battery-v0.2","","""event"",""trial"",""time""
""fullscreenenter"",""1"",""2371""
","
","
","""event"",""trial"",""time""
""fullscreenenter"",""1"",""2371""
","
","","","772.5","","","19","7257","3912","w","elianto","#f73b6a7A"," "," ","1","-10","[1623]","1","2","","","7257","36","3","3","lose","go","1"
"pit-trial","155","1121209","0.0-41.0","battery-v0.2","","""event"",""trial"",""time""
""fullscreenenter"",""1"",""2371""
","
","
","""event"",""trial"",""time""
""fullscreenenter"",""1"",""2371""
","
","","","532.1000000238419","","","19","7257","3912","j","elianto","#f73b6a7A","-1"," ","0","0","[1382.1000000238419]","1","2","","","7257","37","0","4","lose","no-go","1"
"pit-trial","156","1124977","0.0-42.0","battery-v0.2","","""event"",""trial"",""time""
""fullscreenenter"",""1"",""2371""
","
","
","""event"",""trial"",""time""
""fullscreenenter"",""1"",""2371""
","
","","","916","","","19","7257","3912","w","elianto","#f73b6a7A"," "," ","1","-10","[1766.1000000238419]","1","2","","","7257","38","3","3","lose","go","1"
"pit-trial","157","1128413","0.0-43.0","battery-v0.2","","""event"",""trial"",""time""
""fullscreenenter"",""1"",""2371""
","
","
","""event"",""trial"",""time""
""fullscreenenter"",""1"",""2371""
","
","","","582.2999999523163","","","19","7257","3912","d","elianto","#3366ff99"," "," ","1","+10","[1433.1999999284744]","1","2","","","7257","39","1","1","win","go","0"
"pit-trial","158","1133266","0.0-44.0","battery-v0.2","","""event"",""trial"",""time""
""fullscreenenter"",""1"",""2371""
","
","
","""event"",""trial"",""time""
""fullscreenenter"",""1"",""2371""
","
","","","-1","","","19","7257","3912","e","elianto","#f73b6a7A","-1","-1","1","0","[]","0","2","","","7257","40","2","4","lose","no-go","0"
"pit-trial","159","1137175","0.0-45.0","battery-v0.2","","""event"",""trial"",""time""
""fullscreenenter"",""1"",""2371""
","
","
","""event"",""trial"",""time""
""fullscreenenter"",""1"",""2371""
","
","","","1056.3000000715256","","","19","7257","3912","d","elianto","#3366ff99"," "," ","1","+10","[1906.7000000476837]","1","2","","","7257","41","1","1","win","go","0"
"pit-trial","160","1142029","0.0-46.0","battery-v0.2","","""event"",""trial"",""time""
""fullscreenenter"",""1"",""2371""
","
","
","""event"",""trial"",""time""
""fullscreenenter"",""1"",""2371""
","
","","","-1","","","19","7257","3912","e","elianto","#f73b6a7A","-1","-1","1","0","[]","0","2","","","7257","42","2","4","lose","no-go","0"
"pit-trial","161","1145854","0.0-47.0","battery-v0.2","","""event"",""trial"",""time""
""fullscreenenter"",""1"",""2371""
","
","
","""event"",""trial"",""time""
""fullscreenenter"",""1"",""2371""
","
","","","971.6000000238419","","","19","7257","3912","w","elianto","#f73b6a7A"," "," ","1","0","[1821.7999999523163]","1","2","","","7257","43","3","3","lose","go","0"
"pit-trial","162","1150707","0.0-48.0","battery-v0.2","","""event"",""trial"",""time""
""fullscreenenter"",""1"",""2371""
","
","
","""event"",""trial"",""time""
""fullscreenenter"",""1"",""2371""
","
","","","-1","","","19","7257","3912","j","elianto","#f73b6a7A","-1","-1","1","0","[]","0","2","","","7257","44","0","4","lose","no-go","0"
"pit-trial","163","1154239","0.0-49.0","battery-v0.2","","""event"",""trial"",""time""
""fullscreenenter"",""1"",""2371""
","
","
","""event"",""trial"",""time""
""fullscreenenter"",""1"",""2371""
","
","","","669.5","","","19","7257","3912","s","elianto","#3366ff99","-1"," ","0","0","[1521.3999999761581]","1","2","","","7257","45","4","2","win","no-go","0"
"pit-trial","164","1159093","0.0-50.0","battery-v0.2","","""event"",""trial"",""time""
""fullscreenenter"",""1"",""2371""
","
","
","""event"",""trial"",""time""
""fullscreenenter"",""1"",""2371""
","
","","","-1","","","19","7257","3912","w","elianto","#f73b6a7A"," ","-1","0","-10","[]","0","2","","","7257","46","3","3","lose","go","0"
"pit-trial","165","1163953","0.0-51.0","battery-v0.2","","""event"",""trial"",""time""
""fullscreenenter"",""1"",""2371""
","
","
","""event"",""trial"",""time""
""fullscreenenter"",""1"",""2371""
","
","","","-1","","","19","7257","3912","j","elianto","#f73b6a7A","-1","-1","1","-10","[3655,3904.1999999284744]","2","2","","","7257","47","0","4","lose","no-go","1"
"pit-trial","166","1167497","0.0-52.0","battery-v0.2","","""event"",""trial"",""time""
""fullscreenenter"",""1"",""2371""
","
","
","""event"",""trial"",""time""
""fullscreenenter"",""1"",""2371""
","
","","","689.6000000238419","","","19","7257","3912","e","elianto","#f73b6a7A","-1"," ","0","-10","[1540.8999999761581]","1","2","","","7257","48","2","4","lose","no-go","0"
"pit-trial","167","1172352","0.0-53.0","battery-v0.2","","""event"",""trial"",""time""
""fullscreenenter"",""1"",""2371""
","
","
","""event"",""trial"",""time""
""fullscreenenter"",""1"",""2371""
","
","","","-1","","","19","7257","3912","j","elianto","#f73b6a7A","-1","-1","1","0","[]","0","2","","","7257","49","0","4","lose","no-go","0"
"pit-trial","168","1176189","0.0-54.0","battery-v0.2","","""event"",""trial"",""time""
""fullscreenenter"",""1"",""2371""
","
","
","""event"",""trial"",""time""
""fullscreenenter"",""1"",""2371""
","
","","","984.3999999761581","","","19","7257","3912","w","elianto","#f73b6a7A"," "," ","1","0","[1834.6000000238419]","1","2","","","7257","50","3","3","lose","go","0"
"pit-trial","169","1179810","0.0-55.0","battery-v0.2","","""event"",""trial"",""time""
""fullscreenenter"",""1"",""2371""
","
","
","""event"",""trial"",""time""
""fullscreenenter"",""1"",""2371""
","
","","","767.1000000238419","","","19","7257","3912","d","elianto","#3366ff99"," "," ","1","+10","[1618.1000000238419]","1","2","","","7257","51","1","1","win","go","0"
"pit-trial","170","1183533","0.0-56.0","battery-v0.2","","""event"",""trial"",""time""
""fullscreenenter"",""1"",""2371""
","
","
","""event"",""trial"",""time""
""fullscreenenter"",""1"",""2371""
","
","","","868.7999999523163","","","19","7257","3912","s","elianto","#3366ff99","-1"," ","0","0","[1719.8999999761581]","1","2","","","7257","52","4","2","win","no-go","0"
"pit-trial","171","1188387","0.0-57.0","battery-v0.2","","""event"",""trial"",""time""
""fullscreenenter"",""1"",""2371""
","
","
","""event"",""trial"",""time""
""fullscreenenter"",""1"",""2371""
","
","","","-1","","","19","7257","3912","s","elianto","#3366ff99","-1","-1","1","+10","[]","0","2","","","7257","53","4","2","win","no-go","0"
"pit-trial","172","1193240","0.0-58.0","battery-v0.2","","""event"",""trial"",""time""
""fullscreenenter"",""1"",""2371""
","
","
","""event"",""trial"",""time""
""fullscreenenter"",""1"",""2371""
","
","","","-1","","","19","7257","3912","j","elianto","#f73b6a7A","-1","-1","1","-10","[]","0","2","","","7257","54","0","4","lose","no-go","1"
"pit-trial","173","1196720","0.0-59.0","battery-v0.2","","""event"",""trial"",""time""
""fullscreenenter"",""1"",""2371""
","
","
","""event"",""trial"",""time""
""fullscreenenter"",""1"",""2371""
","
","","","626.8999999761581","","","19","7257","3912","d","elianto","#3366ff99"," "," ","1","+10","[1478]","1","2","","","7257","55","1","1","win","go","0"
"pit-trial","174","1201578","0.0-60.0","battery-v0.2","","""event"",""trial"",""time""
""fullscreenenter"",""1"",""2371""
","
","
","""event"",""trial"",""time""
""fullscreenenter"",""1"",""2371""
","
","","","-1","","","19","7257","3912","e","elianto","#f73b6a7A","-1","-1","1","0","[]","0","2","","","7257","56","2","4","lose","no-go","0"
"pit-trial","175","1205067","0.0-61.0","battery-v0.2","","""event"",""trial"",""time""
""fullscreenenter"",""1"",""2371""
","
","
","""event"",""trial"",""time""
""fullscreenenter"",""1"",""2371""
","
","","","637","","","19","7257","3912","d","elianto","#3366ff99"," "," ","1","+10","[1487.3000000715256]","1","2","","","7257","57","1","1","win","go","0"
"pit-trial","176","1209930","0.0-62.0","battery-v0.2","","""event"",""trial"",""time""
""fullscreenenter"",""1"",""2371""
","
","
","""event"",""trial"",""time""
""fullscreenenter"",""1"",""2371""
","
","","","-1","","","19","7257","3912","j","elianto","#f73b6a7A","-1","-1","1","0","[]","0","2","","","7257","58","0","4","lose","no-go","0"
"pit-trial","177","1213534","0.0-63.0","battery-v0.2","","""event"",""trial"",""time""
""fullscreenenter"",""1"",""2371""
","
","
","""event"",""trial"",""time""
""fullscreenenter"",""1"",""2371""
","
","","","749.8999999761581","","","19","7257","3912","w","elianto","#f73b6a7A"," "," ","1","0","[1601.7000000476837]","1","2","","","7257","59","3","3","lose","go","0"
"pit-trial","178","1216974","0.0-64.0","battery-v0.2","","""event"",""trial"",""time""
""fullscreenenter"",""1"",""2371""
","
","
","""event"",""trial"",""time""
""fullscreenenter"",""1"",""2371""
","
","","","587.6999999284744","","","19","7257","3912","s","elianto","#3366ff99","-1"," ","0","+10","[1438.2999999523163]","1","2","","","7257","60","4","2","win","no-go","1"
"pit-trial","179","1221684","0.0-65.0","battery-v0.2","","""event"",""trial"",""time""
""fullscreenenter"",""1"",""2371""
","
","
","""event"",""trial"",""time""
""fullscreenenter"",""1"",""2371""
","
","","","1854.5999999046326","","","19","7257","3912","s","elianto","#3366ff99","-1"," ","0","0","[2706.5]","1","2","","","7257","61","4","2","win","no-go","0"
"pit-trial","180","1225526","0.0-66.0","battery-v0.2","","""event"",""trial"",""time""
""fullscreenenter"",""1"",""2371""
","
","
","""event"",""trial"",""time""
""fullscreenenter"",""1"",""2371""
","
","","","989.2999999523163","","","19","7257","3912","d","elianto","#3366ff99"," "," ","1","+10","[1840.2999999523163]","1","2","","","7257","62","1","1","win","go","0"
"pit-trial","181","1229676","0.0-67.0","battery-v0.2","","""event"",""trial"",""time""
""fullscreenenter"",""1"",""2371""
","
","
","""event"",""trial"",""time""
""fullscreenenter"",""1"",""2371""
","
","","","1296.1999999284744","","","19","7257","3912","w","elianto","#f73b6a7A"," "," ","1","0","[2146.8000000715256]","1","2","","","7257","63","3","3","lose","go","0"
"pit-trial","182","1234529","0.0-68.0","battery-v0.2","","""event"",""trial"",""time""
""fullscreenenter"",""1"",""2371""
","
","
","""event"",""trial"",""time""
""fullscreenenter"",""1"",""2371""
","
","","","-1","","","19","7257","3912","e","elianto","#f73b6a7A","-1","-1","1","0","[]","0","2","","","7257","64","2","4","lose","no-go","0"
"pit-trial","183","1238638","0.0-69.0","battery-v0.2","","""event"",""trial"",""time""
""fullscreenenter"",""1"",""2371""
","
","
","""event"",""trial"",""time""
""fullscreenenter"",""1"",""2371""
","
","","","1256.3999999761581","","","19","7257","3912","w","elianto","#f73b6a7A"," "," ","1","0","[2106.600000023842]","1","2","","","7257","65","3","3","lose","go","0"
"pit-trial","184","1242234","0.0-70.0","battery-v0.2","","""event"",""trial"",""time""
""fullscreenenter"",""1"",""2371""
","
","
","""event"",""trial"",""time""
""fullscreenenter"",""1"",""2371""
","
","","","743.8999999761581","","","19","7257","3912","d","elianto","#3366ff99"," "," ","1","+10","[1594.2000000476837]","1","2","","","7257","66","1","1","win","go","0"
"pit-trial","185","1245962","0.0-71.0","battery-v0.2","","""event"",""trial"",""time""
""fullscreenenter"",""1"",""2371""
","
","
","""event"",""trial"",""time""
""fullscreenenter"",""1"",""2371""
","
","","","874.3999999761581","","","19","7257","3912","s","elianto","#3366ff99","-1"," ","0","0","[1725.5]","1","2","","","7257","67","4","2","win","no-go","0"
"pit-trial","186","1250814","0.0-72.0","battery-v0.2","","""event"",""trial"",""time""
""fullscreenenter"",""1"",""2371""
","
","
","""event"",""trial"",""time""
""fullscreenenter"",""1"",""2371""
","
","","","-1","","","19","7257","3912","e","elianto","#f73b6a7A","-1","-1","1","0","[]","0","2","","","7257","68","2","4","lose","no-go","0"
"pit-trial","187","1254662","0.0-73.0","battery-v0.2","","""event"",""trial"",""time""
""fullscreenenter"",""1"",""2371""
","
","
","""event"",""trial"",""time""
""fullscreenenter"",""1"",""2371""
","
","","","994.3999999761581","","","19","7257","3912","w","elianto","#f73b6a7A"," "," ","1","-10","[1844.8000000715256]","1","2","","","7257","69","3","3","lose","go","1"
"pit-trial","188","1258323","0.0-74.0","battery-v0.2","","""event"",""trial"",""time""
""fullscreenenter"",""1"",""2371""
","
","
","""event"",""trial"",""time""
""fullscreenenter"",""1"",""2371""
","
","","","807.5","","","19","7257","3912","p","elianto","#3366ff99"," "," ","1","+10","[1658.5]","1","2","","","7257","70","5","1","win","go","0"
"pit-trial","189","1262584","0.0-75.0","battery-v0.2","","""event"",""trial"",""time""
""fullscreenenter"",""1"",""2371""
","
","
","""event"",""trial"",""time""
""fullscreenenter"",""1"",""2371""
","
","","","1407.7000000476837","","","19","7257","3912","s","elianto","#3366ff99","-1"," ","0","0","[2258.5]","1","2","","","7257","71","4","2","win","no-go","0"
"pit-trial","190","1266175","0.0-76.0","battery-v0.2","","""event"",""trial"",""time""
""fullscreenenter"",""1"",""2371""
","
","
","""event"",""trial"",""time""
""fullscreenenter"",""1"",""2371""
","
","","","737.3000000715256","","","19","7257","3912","d","elianto","#3366ff99"," "," ","1","+10","[1588.6000000238419]","1","2","","","7257","72","1","1","win","go","0"
"pit-trial","191","1271028","0.0-77.0","battery-v0.2","","""event"",""trial"",""time""
""fullscreenenter"",""1"",""2371""
","
","
","""event"",""trial"",""time""
""fullscreenenter"",""1"",""2371""
","
","","","-1","","","19","7257","3912","s","elianto","#3366ff99","-1","-1","1","+10","[]","0","2","","","7257","73","4","2","win","no-go","0"
"pit-trial","192","1274601","0.0-78.0","battery-v0.2","","""event"",""trial"",""time""
""fullscreenenter"",""1"",""2371""
","
","
","""event"",""trial"",""time""
""fullscreenenter"",""1"",""2371""
","
","","","720.1000000238419","","","19","7257","3912","d","elianto","#3366ff99"," "," ","1","+10","[1571.5]","1","2","","","7257","74","1","1","win","go","0"
"pit-trial","193","1279455","0.0-79.0","battery-v0.2","","""event"",""trial"",""time""
""fullscreenenter"",""1"",""2371""
","
","
","""event"",""trial"",""time""
""fullscreenenter"",""1"",""2371""
","
","","","-1","","","19","7257","3912","w","elianto","#f73b6a7A"," ","-1","0","-10","[]","0","2","","","7257","75","3","3","lose","go","0"
"pit-trial","194","1282975","0.0-80.0","battery-v0.2","","""event"",""trial"",""time""
""fullscreenenter"",""1"",""2371""
","
","
","""event"",""trial"",""time""
""fullscreenenter"",""1"",""2371""
","
","","","666.2999999523163","","","19","7257","3912","p","elianto","#3366ff99"," "," ","1","+10","[1516.7999999523163]","1","2","","","7257","76","5","1","win","go","0"
"pit-trial","195","1287753","0.0-81.0","battery-v0.2","","""event"",""trial"",""time""
""fullscreenenter"",""1"",""2371""
","
","
","""event"",""trial"",""time""
""fullscreenenter"",""1"",""2371""
","
","","","1924.7000000476837","","","19","7257","3912","p","elianto","#3366ff99"," "," ","1","+10","[2776]","1","2","","","7257","77","5","1","win","go","0"
"pit-trial","196","1292606","0.0-82.0","battery-v0.2","","""event"",""trial"",""time""
""fullscreenenter"",""1"",""2371""
","
","
","""event"",""trial"",""time""
""fullscreenenter"",""1"",""2371""
","
","","","-1","","","19","7257","3912","w","elianto","#f73b6a7A"," ","-1","0","-10","[4573.399999976158]","1","2","","","7257","78","3","3","lose","go","0"
"pit-trial","197","1296052","0.0-83.0","battery-v0.2","","""event"",""trial"",""time""
""fullscreenenter"",""1"",""2371""
","
","
","""event"",""trial"",""time""
""fullscreenenter"",""1"",""2371""
","
","","","592.5","","","19","7257","3912","g","elianto","#f73b6a7A","-1"," ","0","-10","[1443.6000000238419]","1","2","","","7257","79","6","4","lose","no-go","0"
"pit-trial","198","1299825","0.0-84.0","battery-v0.2","","""event"",""trial"",""time""
""fullscreenenter"",""1"",""2371""
","
","
","""event"",""trial"",""time""
""fullscreenenter"",""1"",""2371""
","
","","","918.9000000953674","","","19","7257","3912","s","elianto","#3366ff99","-1"," ","0","0","[1769.2000000476837,2234.7999999523163]","2","2","","","7257","80","4","2","win","no-go","0"
"pit-trial","199","1303411","0.0-85.0","battery-v0.2","","""event"",""trial"",""time""
""fullscreenenter"",""1"",""2371""
","
","
","""event"",""trial"",""time""
""fullscreenenter"",""1"",""2371""
","
","","","732","","","19","7257","3912","a","elianto","#f73b6a7A"," "," ","1","0","[1583.6000000238419]","1","2","","","7257","81","7","3","lose","go","0"
"pit-trial","200","1306738","0.0-86.0","battery-v0.2","","""event"",""trial"",""time""
""fullscreenenter"",""1"",""2371""
","
","
","""event"",""trial"",""time""
""fullscreenenter"",""1"",""2371""
","
","","","473.10000002384186","","","19","7257","3912","g","elianto","#f73b6a7A","-1"," ","0","-10","[1323.7000000476837]","1","2","","","7257","82","6","4","lose","no-go","0"
"pit-trial","201","1310481","0.0-87.0","battery-v0.2","","""event"",""trial"",""time""
""fullscreenenter"",""1"",""2371""
","
","
","""event"",""trial"",""time""
""fullscreenenter"",""1"",""2371""
","
","","","889.6000000238419","","","19","7257","3912","p","elianto","#3366ff99"," "," ","1","+10","[1741.2000000476837]","1","2","","","7257","83","5","1","win","go","0"
"pit-trial","202","1313820","0.0-88.0","battery-v0.2","","""event"",""trial"",""time""
""fullscreenenter"",""1"",""2371""
","
","
","""event"",""trial"",""time""
""fullscreenenter"",""1"",""2371""
","
","","","486.10000002384186","","","19","7257","3912","s","elianto","#3366ff99","-1"," ","0","0","[1336.3999999761581]","1","2","","","7257","84","4","2","win","no-go","0"
"pit-trial","203","1318673","0.0-89.0","battery-v0.2","","""event"",""trial"",""time""
""fullscreenenter"",""1"",""2371""
","
","
","""event"",""trial"",""time""
""fullscreenenter"",""1"",""2371""
","
","","","-1","","","19","7257","3912","s","elianto","#3366ff99","-1","-1","1","+10","[]","0","2","","","7257","85","4","2","win","no-go","0"
"pit-trial","204","1322558","0.0-90.0","battery-v0.2","","""event"",""trial"",""time""
""fullscreenenter"",""1"",""2371""
","
","
","""event"",""trial"",""time""
""fullscreenenter"",""1"",""2371""
","
","","","1031.1000000238419","","","19","7257","3912","p","elianto","#3366ff99"," "," ","1","0","[1881.8000000715256]","1","2","","","7257","86","5","1","win","go","1"
"pit-trial","205","1327411","0.0-91.0","battery-v0.2","","""event"",""trial"",""time""
""fullscreenenter"",""1"",""2371""
","
","
","""event"",""trial"",""time""
""fullscreenenter"",""1"",""2371""
","
","","","-1","","","19","7257","3912","a","elianto","#f73b6a7A"," ","-1","0","-10","[]","0","2","","","7257","87","7","3","lose","go","0"
"pit-trial","206","1332265","0.0-92.0","battery-v0.2","","""event"",""trial"",""time""
""fullscreenenter"",""1"",""2371""
","
","
","""event"",""trial"",""time""
""fullscreenenter"",""1"",""2371""
","
","","","-1","","","19","7257","3912","g","elianto","#f73b6a7A","-1","-1","1","-10","[]","0","2","","","7257","88","6","4","lose","no-go","1"
"pit-trial","207","1335627","0.0-93.0","battery-v0.2","","""event"",""trial"",""time""
""fullscreenenter"",""1"",""2371""
","
","
","""event"",""trial"",""time""
""fullscreenenter"",""1"",""2371""
","
","","","508.1999999284744","","","19","7257","3912","p","elianto","#3366ff99"," "," ","1","+10","[1359.1000000238419]","1","2","","","7257","89","5","1","win","go","0"
"pit-trial","208","1340480","0.0-94.0","battery-v0.2","","""event"",""trial"",""time""
""fullscreenenter"",""1"",""2371""
","
","
","""event"",""trial"",""time""
""fullscreenenter"",""1"",""2371""
","
","","","-1","","","19","7257","3912","g","elianto","#f73b6a7A","-1","-1","1","0","[]","0","2","","","7257","90","6","4","lose","no-go","0"
"pit-trial","209","1344061","0.0-95.0","battery-v0.2","","""event"",""trial"",""time""
""fullscreenenter"",""1"",""2371""
","
","
","""event"",""trial"",""time""
""fullscreenenter"",""1"",""2371""
","
","","","727.6000000238419","","","19","7257","3912","s","elianto","#3366ff99","-1"," ","0","0","[1578.8999999761581]","1","2","","","7257","91","4","2","win","no-go","0"
"pit-trial","210","1348206","0.0-96.0","battery-v0.2","","""event"",""trial"",""time""
""fullscreenenter"",""1"",""2371""
","
","
","""event"",""trial"",""time""
""fullscreenenter"",""1"",""2371""
","
","","","1287.2999999523163","","","19","7257","3912","a","elianto","#f73b6a7A"," "," ","1","0","[2143.1999999284744]","1","2","","","7257","92","7","3","lose","go","0"
"pit-trial","211","1353059","0.0-97.0","battery-v0.2","","""event"",""trial"",""time""
""fullscreenenter"",""1"",""2371""
","
","
","""event"",""trial"",""time""
""fullscreenenter"",""1"",""2371""
","
","","","-1","","","19","7257","3912","g","elianto","#f73b6a7A","-1","-1","1","0","[]","0","2","","","7257","93","6","4","lose","no-go","0"
"pit-trial","212","1356543","0.0-98.0","battery-v0.2","","""event"",""trial"",""time""
""fullscreenenter"",""1"",""2371""
","
","
","""event"",""trial"",""time""
""fullscreenenter"",""1"",""2371""
","
","","","631.1000000238419","","","19","7257","3912","p","elianto","#3366ff99"," "," ","1","+10","[1481.7000000476837]","1","2","","","7257","94","5","1","win","go","0"
"pit-trial","213","1360528","0.0-99.0","battery-v0.2","","""event"",""trial"",""time""
""fullscreenenter"",""1"",""2371""
","
","
","""event"",""trial"",""time""
""fullscreenenter"",""1"",""2371""
","
","","","1130.5","","","19","7257","3912","l","elianto","#3366ff99","-1"," ","0","0","[1981.7000000476837]","1","2","","","7257","95","8","2","win","no-go","0"
"pit-trial","214","1365140","0.0-100.0","battery-v0.2","","""event"",""trial"",""time""
""fullscreenenter"",""1"",""2371""
","
","
","""event"",""trial"",""time""
""fullscreenenter"",""1"",""2371""
","
","","","1758.1000000238419","","","19","7257","3912","a","elianto","#f73b6a7A"," "," ","1","0","[2608.8000000715256]","1","2","","","7257","96","7","3","lose","go","0"
"pit-trial","215","1369065","0.0-101.0","battery-v0.2","","""event"",""trial"",""time""
""fullscreenenter"",""1"",""2371""
","
","
","""event"",""trial"",""time""
""fullscreenenter"",""1"",""2371""
","
","","","1073.4000000953674","","","19","7257","3912","p","elianto","#3366ff99"," "," ","1","+10","[1923.6000000238419]","1","2","","","7257","97","5","1","win","go","0"
"pit-trial","216","1373827","0.0-102.0","battery-v0.2","","""event"",""trial"",""time""
""fullscreenenter"",""1"",""2371""
","
","
","""event"",""trial"",""time""
""fullscreenenter"",""1"",""2371""
","
","","","1909.3999999761581","","","19","7257","3912","l","elianto","#3366ff99","-1"," ","0","0","[2759.2999999523163]","1","2","","","7257","98","8","2","win","no-go","0"
"pit-trial","217","1378148","0.0-103.0","battery-v0.2","","""event"",""trial"",""time""
""fullscreenenter"",""1"",""2371""
","
","
","""event"",""trial"",""time""
""fullscreenenter"",""1"",""2371""
","
","","","1468.2999999523163","","","19","7257","3912","a","elianto","#f73b6a7A"," "," ","1","0","[2318.899999976158]","1","2","","","7257","99","7","3","lose","go","0"
"pit-trial","218","1383001","0.0-104.0","battery-v0.2","","""event"",""trial"",""time""
""fullscreenenter"",""1"",""2371""
","
","
","""event"",""trial"",""time""
""fullscreenenter"",""1"",""2371""
","
","","","-1","","","19","7257","3912","g","elianto","#f73b6a7A","-1","-1","1","0","[]","0","2","","","7257","100","6","4","lose","no-go","0"
"pit-trial","219","1386531","0.0-105.0","battery-v0.2","","""event"",""trial"",""time""
""fullscreenenter"",""1"",""2371""
","
","
","""event"",""trial"",""time""
""fullscreenenter"",""1"",""2371""
","
","","","677.7000000476837","","","19","7257","3912","p","elianto","#3366ff99"," "," ","1","+10","[1528.1000000238419]","1","2","","","7257","101","5","1","win","go","0"
"pit-trial","220","1391327","0.0-106.0","battery-v0.2","","""event"",""trial"",""time""
""fullscreenenter"",""1"",""2371""
","
","
","""event"",""trial"",""time""
""fullscreenenter"",""1"",""2371""
","
","","","1942.8999999761581","","","19","7257","3912","l","elianto","#3366ff99","-1"," ","0","0","[2793.7000000476837]","1","2","","","7257","102","8","2","win","no-go","0"
"pit-trial","221","1395384","0.0-107.0","battery-v0.2","","""event"",""trial"",""time""
""fullscreenenter"",""1"",""2371""
","
","
","""event"",""trial"",""time""
""fullscreenenter"",""1"",""2371""
","
","","","1204.1000000238419","","","19","7257","3912","u","elianto","#3366ff99","-1"," ","0","0","[2054.7999999523163]","1","2","","","7257","103","9","2","win","no-go","0"
"pit-trial","222","1400236","0.0-108.0","battery-v0.2","","""event"",""trial"",""time""
""fullscreenenter"",""1"",""2371""
","
","
","""event"",""trial"",""time""
""fullscreenenter"",""1"",""2371""
","
","","","-1","","","19","7257","3912","g","elianto","#f73b6a7A","-1","-1","1","0","[]","0","2","","","7257","104","6","4","lose","no-go","0"
"pit-trial","223","1405091","0.0-109.0","battery-v0.2","","""event"",""trial"",""time""
""fullscreenenter"",""1"",""2371""
","
","
","""event"",""trial"",""time""
""fullscreenenter"",""1"",""2371""
","
","","","-1","","","19","7257","3912","l","elianto","#3366ff99","-1","-1","1","+10","[]","0","2","","","7257","105","8","2","win","no-go","0"
"pit-trial","224","1409944","0.0-110.0","battery-v0.2","","""event"",""trial"",""time""
""fullscreenenter"",""1"",""2371""
","
","
","""event"",""trial"",""time""
""fullscreenenter"",""1"",""2371""
","
","","","-1","","","19","7257","3912","g","elianto","#f73b6a7A","-1","-1","1","0","[]","0","2","","","7257","106","6","4","lose","no-go","0"
"pit-trial","225","1414326","0.0-111.0","battery-v0.2","","""event"",""trial"",""time""
""fullscreenenter"",""1"",""2371""
","
","
","""event"",""trial"",""time""
""fullscreenenter"",""1"",""2371""
","
","","","1524","","","19","7257","3912","u","elianto","#3366ff99","-1"," ","0","0","[2374.7999999523163]","1","2","","","7257","107","9","2","win","no-go","0"
"pit-trial","226","1418172","0.0-112.0","battery-v0.2","","""event"",""trial"",""time""
""fullscreenenter"",""1"",""2371""
","
","
","""event"",""trial"",""time""
""fullscreenenter"",""1"",""2371""
","
","","","991.3999999761581","","","19","7257","3912","p","elianto","#3366ff99"," "," ","1","+10","[1842.9000000953674]","1","2","","","7257","108","5","1","win","go","0"
"pit-trial","227","1421687","0.0-113.0","battery-v0.2","","""event"",""trial"",""time""
""fullscreenenter"",""1"",""2371""
","
","
","""event"",""trial"",""time""
""fullscreenenter"",""1"",""2371""
","
","","","661.5","","","19","7257","3912","p","elianto","#3366ff99"," "," ","1","+10","[1512.2000000476837]","1","2","","","7257","109","5","1","win","go","0"
"pit-trial","228","1426540","0.0-114.0","battery-v0.2","","""event"",""trial"",""time""
""fullscreenenter"",""1"",""2371""
","
","
","""event"",""trial"",""time""
""fullscreenenter"",""1"",""2371""
","
","","","-1","","","19","7257","3912","g","elianto","#f73b6a7A","-1","-1","1","-10","[]","0","2","","","7257","110","6","4","lose","no-go","1"
"pit-trial","229","1430245","0.0-115.0","battery-v0.2","","""event"",""trial"",""time""
""fullscreenenter"",""1"",""2371""
","
","
","""event"",""trial"",""time""
""fullscreenenter"",""1"",""2371""
","
","","","852","","","19","7257","3912","u","elianto","#3366ff99","-1"," ","0","+10","[1703.3999999761581]","1","2","","","7257","111","9","2","win","no-go","1"
"pit-trial","230","1435100","0.0-116.0","battery-v0.2","","""event"",""trial"",""time""
""fullscreenenter"",""1"",""2371""
","
","
","""event"",""trial"",""time""
""fullscreenenter"",""1"",""2371""
","
","","","-1","","","19","7257","3912","l","elianto","#3366ff99","-1","-1","1","+10","[]","0","2","","","7257","112","8","2","win","no-go","0"
"pit-trial","231","1439953","0.0-117.0","battery-v0.2","","""event"",""trial"",""time""
""fullscreenenter"",""1"",""2371""
","
","
","""event"",""trial"",""time""
""fullscreenenter"",""1"",""2371""
","
","","","-1","","","19","7257","3912","u","elianto","#3366ff99","-1","-1","1","+10","[]","0","2","","","7257","113","9","2","win","no-go","0"
"pit-trial","232","1443883","0.0-118.0","battery-v0.2","","""event"",""trial"",""time""
""fullscreenenter"",""1"",""2371""
","
","
","""event"",""trial"",""time""
""fullscreenenter"",""1"",""2371""
","
","","","1075.5","","","19","7257","3912","p","elianto","#3366ff99"," "," ","1","+10","[1926]","1","2","","","7257","114","5","1","win","go","0"
"pit-trial","233","1448053","0.0-119.0","battery-v0.2","","""event"",""trial"",""time""
""fullscreenenter"",""1"",""2371""
","
","
","""event"",""trial"",""time""
""fullscreenenter"",""1"",""2371""
","
","","","1318","","","19","7257","3912","a","elianto","#f73b6a7A"," "," ","1","0","[2168.2999999523163]","1","2","","","7257","115","7","3","lose","go","0"
"pit-trial","234","1452913","0.0-120.0","battery-v0.2","","""event"",""trial"",""time""
""fullscreenenter"",""1"",""2371""
","
","
","""event"",""trial"",""time""
""fullscreenenter"",""1"",""2371""
","
","","","-1","","","19","7257","3912","l","elianto","#3366ff99","-1","-1","1","+10","[]","0","2","","","7257","116","8","2","win","no-go","0"
"pit-trial","235","1456526","0.0-121.0","battery-v0.2","","""event"",""trial"",""time""
""fullscreenenter"",""1"",""2371""
","
","
","""event"",""trial"",""time""
""fullscreenenter"",""1"",""2371""
","
","","","759.8999999761581","","","19","7257","3912","p","elianto","#3366ff99"," "," ","1","0","[1610.2999999523163]","1","2","","","7257","117","5","1","win","go","1"
"pit-trial","236","1460382","0.0-122.0","battery-v0.2","","""event"",""trial"",""time""
""fullscreenenter"",""1"",""2371""
","
","
","""event"",""trial"",""time""
""fullscreenenter"",""1"",""2371""
","
","","","1001.2000000476837","","","19","7257","3912","u","elianto","#3366ff99","-1"," ","0","0","[1853.1000000238419]","1","2","","","7257","118","9","2","win","no-go","0"
"pit-trial","237","1465236","0.0-123.0","battery-v0.2","","""event"",""trial"",""time""
""fullscreenenter"",""1"",""2371""
","
","
","""event"",""trial"",""time""
""fullscreenenter"",""1"",""2371""
","
","","","-1","","","19","7257","3912","l","elianto","#3366ff99","-1","-1","1","+10","[]","0","2","","","7257","119","8","2","win","no-go","0"
"pit-trial","238","1470090","0.0-124.0","battery-v0.2","","""event"",""trial"",""time""
""fullscreenenter"",""1"",""2371""
","
","
","""event"",""trial"",""time""
""fullscreenenter"",""1"",""2371""
","
","","","-1","","","19","7257","3912","g","elianto","#f73b6a7A","-1","-1","1","0","[]","0","2","","","7257","120","6","4","lose","no-go","0"
"pit-trial","239","1474943","0.0-125.0","battery-v0.2","","""event"",""trial"",""time""
""fullscreenenter"",""1"",""2371""
","
","
","""event"",""trial"",""time""
""fullscreenenter"",""1"",""2371""
","
","","","-1","","","19","7257","3912","l","elianto","#3366ff99","-1","-1","1","+10","[]","0","2","","","7257","121","8","2","win","no-go","0"
"pit-trial","240","1478826","0.0-126.0","battery-v0.2","","""event"",""trial"",""time""
""fullscreenenter"",""1"",""2371""
","
","
","""event"",""trial"",""time""
""fullscreenenter"",""1"",""2371""
","
","","","1028.5","","","19","7257","3912","a","elianto","#f73b6a7A"," "," ","1","0","[1880.0999999046326]","1","2","","","7257","122","7","3","lose","go","0"
"pit-trial","241","1482825","0.0-127.0","battery-v0.2","","""event"",""trial"",""time""
""fullscreenenter"",""1"",""2371""
","
","
","""event"",""trial"",""time""
""fullscreenenter"",""1"",""2371""
","
","","","1146.1999999284744","","","19","7257","3912","p","elianto","#3366ff99"," "," ","1","+10","[1996.5]","1","2","","","7257","123","5","1","win","go","0"
"pit-trial","242","1487690","0.0-128.0","battery-v0.2","","""event"",""trial"",""time""
""fullscreenenter"",""1"",""2371""
","
","
","""event"",""trial"",""time""
""fullscreenenter"",""1"",""2371""
","
","","","-1","","","19","7257","3912","u","elianto","#3366ff99","-1","-1","1","+10","[]","0","2","","","7257","124","9","2","win","no-go","0"
"pit-trial","243","1492543","0.0-129.0","battery-v0.2","","""event"",""trial"",""time""
""fullscreenenter"",""1"",""2371""
","
","
","""event"",""trial"",""time""
""fullscreenenter"",""1"",""2371""
","
","","","-1","","","19","7257","3912","g","elianto","#f73b6a7A","-1","-1","1","0","[]","0","2","","","7257","125","6","4","lose","no-go","0"
"pit-trial","244","1496538","0.0-130.0","battery-v0.2","","""event"",""trial"",""time""
""fullscreenenter"",""1"",""2371""
","
","
","""event"",""trial"",""time""
""fullscreenenter"",""1"",""2371""
","
","","","1141.2999999523163","","","19","7257","3912","a","elianto","#f73b6a7A"," "," ","1","-10","[1991.6999999284744]","1","2","","","7257","126","7","3","lose","go","1"
"pit-trial","245","1501391","0.0-131.0","battery-v0.2","","""event"",""trial"",""time""
""fullscreenenter"",""1"",""2371""
","
","
","""event"",""trial"",""time""
""fullscreenenter"",""1"",""2371""
","
","","","-1","","","19","7257","3912","u","elianto","#3366ff99","-1","-1","1","+10","[]","0","2","","","7257","127","9","2","win","no-go","0"
"pit-trial","246","1506244","0.0-132.0","battery-v0.2","","""event"",""trial"",""time""
""fullscreenenter"",""1"",""2371""
","
","
","""event"",""trial"",""time""
""fullscreenenter"",""1"",""2371""
","
","","","-1","","","19","7257","3912","l","elianto","#3366ff99","-1","-1","1","0","[]","0","2","","","7257","128","8","2","win","no-go","1"
"pit-trial","247","1509808","0.0-133.0","battery-v0.2","","""event"",""trial"",""time""
""fullscreenenter"",""1"",""2371""
","
","
","""event"",""trial"",""time""
""fullscreenenter"",""1"",""2371""
","
","","","697","","","19","7257","3912","u","elianto","#3366ff99","-1"," ","0","0","[1547.5]","1","2","","","7257","129","9","2","win","no-go","0"
"pit-trial","248","1514661","0.0-134.0","battery-v0.2","","""event"",""trial"",""time""
""fullscreenenter"",""1"",""2371""
","
","
","""event"",""trial"",""time""
""fullscreenenter"",""1"",""2371""
","
","","","-1","","","19","7257","3912","g","elianto","#f73b6a7A","-1","-1","1","0","[]","0","2","","","7257","130","6","4","lose","no-go","0"
"pit-trial","249","1519515","0.0-135.0","battery-v0.2","","""event"",""trial"",""time""
""fullscreenenter"",""1"",""2371""
","
","
","""event"",""trial"",""time""
""fullscreenenter"",""1"",""2371""
","
","","","-1","","","19","7257","3912","l","elianto","#3366ff99","-1","-1","1","+10","[]","0","2","","","7257","131","8","2","win","no-go","0"
"pit-trial","250","1523207","0.0-136.0","battery-v0.2","","""event"",""trial"",""time""
""fullscreenenter"",""1"",""2371""
","
","
","""event"",""trial"",""time""
""fullscreenenter"",""1"",""2371""
","
","","","839.8999999761581","","","19","7257","3912","a","elianto","#f73b6a7A"," "," ","1","0","[1690.5]","1","2","","","7257","132","7","3","lose","go","0"
"pit-trial","251","1528074","0.0-137.0","battery-v0.2","","""event"",""trial"",""time""
""fullscreenenter"",""1"",""2371""
","
","
","""event"",""trial"",""time""
""fullscreenenter"",""1"",""2371""
","
","","","-1","","","19","7257","3912","u","elianto","#3366ff99","-1","-1","1","+10","[]","0","2","","","7257","133","9","2","win","no-go","0"
"pit-trial","252","1532928","0.0-138.0","battery-v0.2","","""event"",""trial"",""time""
""fullscreenenter"",""1"",""2371""
","
","
","""event"",""trial"",""time""
""fullscreenenter"",""1"",""2371""
","
","","","-1","","","19","7257","3912","l","elianto","#3366ff99","-1","-1","1","+10","[]","0","2","","","7257","134","8","2","win","no-go","0"
"pit-trial","253","1536651","0.0-139.0","battery-v0.2","","""event"",""trial"",""time""
""fullscreenenter"",""1"",""2371""
","
","
","""event"",""trial"",""time""
""fullscreenenter"",""1"",""2371""
","
","","","868.1000000238419","","","19","7257","3912","a","elianto","#f73b6a7A"," "," ","1","-10","[1720.1000000238419]","1","2","","","7257","135","7","3","lose","go","1"
"pit-trial","254","1541505","0.0-140.0","battery-v0.2","","""event"",""trial"",""time""
""fullscreenenter"",""1"",""2371""
","
","
","""event"",""trial"",""time""
""fullscreenenter"",""1"",""2371""
","
","","","-1","","","19","7257","3912","g","elianto","#f73b6a7A","-1","-1","1","0","[]","0","2","","","7257","136","6","4","lose","no-go","0"
"pit-trial","255","1545388","0.0-141.0","battery-v0.2","","""event"",""trial"",""time""
""fullscreenenter"",""1"",""2371""
","
","
","""event"",""trial"",""time""
""fullscreenenter"",""1"",""2371""
","
","","","1029.2000000476837","","","19","7257","3912","a","elianto","#f73b6a7A"," "," ","1","0","[1880.2999999523163]","1","2","","","7257","137","7","3","lose","go","0"
"pit-trial","256","1550253","0.0-142.0","battery-v0.2","","""event"",""trial"",""time""
""fullscreenenter"",""1"",""2371""
","
","
","""event"",""trial"",""time""
""fullscreenenter"",""1"",""2371""
","
","","","-1","","","19","7257","3912","l","elianto","#3366ff99","-1","-1","1","+10","[]","0","2","","","7257","138","8","2","win","no-go","0"
"pit-trial","257","1554197","0.0-143.0","battery-v0.2","","""event"",""trial"",""time""
""fullscreenenter"",""1"",""2371""
","
","
","""event"",""trial"",""time""
""fullscreenenter"",""1"",""2371""
","
","","","1088.1999999284744","","","19","7257","3912","g","elianto","#f73b6a7A","-1"," ","0","0","[1940,2524.7000000476837]","2","2","","","7257","139","6","4","lose","no-go","1"
"pit-trial","258","1559050","0.0-144.0","battery-v0.2","","""event"",""trial"",""time""
""fullscreenenter"",""1"",""2371""
","
","
","""event"",""trial"",""time""
""fullscreenenter"",""1"",""2371""
","
","","","-1","","","19","7257","3912","u","elianto","#3366ff99","-1","-1","1","+10","[]","0","2","","","7257","140","9","2","win","no-go","0"
"pit-instructions","259","1649602","0.0-145.0","battery-v0.2","","""event"",""trial"",""time""
""fullscreenenter"",""1"",""2371""
","
","
","""event"",""trial"",""time""
""fullscreenenter"",""1"",""2371""
","
","","[{""page_index"":0,""viewing_time"":33418.10000002384},{""page_index"":1,""viewing_time"":57133.299999952316}]","90551.60000002384","","","","","","","","","","","","","","","","","","","","","","","",""
"pit-trial","260","1652898","0.0-146.0","battery-v0.2","","""event"",""trial"",""time""
""fullscreenenter"",""1"",""2371""
","
","
","""event"",""trial"",""time""
""fullscreenenter"",""1"",""2371""
","
","","","441.10000002384186","","","19","7257","3912","y","elianto","#f73b6a7A"," "," ","1","0","[1291.3999999761581]","1","3","","","7257","141","2","3","lose","go","0"
"pit-trial","261","1656469","0.0-147.0","battery-v0.2","","""event"",""trial"",""time""
""fullscreenenter"",""1"",""2371""
","
","
","""event"",""trial"",""time""
""fullscreenenter"",""1"",""2371""
","
","","","717","","","19","7257","3912","h","elianto","#f73b6a7A","-1"," ","0","-10","[1567.9000000953674]","1","3","","","7257","142","3","4","lose","no-go","0"
"pit-trial","262","1660356","0.0-148.0","battery-v0.2","","""event"",""trial"",""time""
""fullscreenenter"",""1"",""2371""
","
","
","""event"",""trial"",""time""
""fullscreenenter"",""1"",""2371""
","
","","","1034.1000000238419","","","19","7257","3912","m","elianto","#f73b6a7A"," "," ","1","0","[1885]","1","3","","","7257","143","0","3","lose","go","0"
"pit-trial","263","1663931","0.0-149.0","battery-v0.2","","""event"",""trial"",""time""
""fullscreenenter"",""1"",""2371""
","
","
","""event"",""trial"",""time""
""fullscreenenter"",""1"",""2371""
","
","","","720.4000000953674","","","19","7257","3912","r","elianto","#3366ff99","-1"," ","0","0","[1571.8000000715256]","1","3","","","7257","144","1","2","win","no-go","0"
"pit-trial","264","1667341","0.0-150.0","battery-v0.2","","""event"",""trial"",""time""
""fullscreenenter"",""1"",""2371""
","
","
","""event"",""trial"",""time""
""fullscreenenter"",""1"",""2371""
","
","","","555.9000000953674","","","19","7257","3912","m","elianto","#f73b6a7A"," "," ","1","-10","[1408]","1","3","","","7257","145","0","3","lose","go","1"
"pit-trial","265","1671026","0.0-151.0","battery-v0.2","","""event"",""trial"",""time""
""fullscreenenter"",""1"",""2371""
","
","
","""event"",""trial"",""time""
""fullscreenenter"",""1"",""2371""
","
","","","830.6000000238419","","","19","7257","3912","y","elianto","#f73b6a7A"," "," ","1","0","[1681.8000000715256]","1","3","","","7257","146","2","3","lose","go","0"
"pit-trial","266","1675880","0.0-152.0","battery-v0.2","","""event"",""trial"",""time""
""fullscreenenter"",""1"",""2371""
","
","
","""event"",""trial"",""time""
""fullscreenenter"",""1"",""2371""
","
","","","-1","","","19","7257","3912","h","elianto","#f73b6a7A","-1","-1","1","-10","[]","0","3","","","7257","147","3","4","lose","no-go","1"
"pit-trial","267","1679468","0.0-153.0","battery-v0.2","","""event"",""trial"",""time""
""fullscreenenter"",""1"",""2371""
","
","
","""event"",""trial"",""time""
