"trial_type","trial_index","time_elapsed","internal_node_id","task_version","subject_id","interactions","blur_events","focus_events","fullscreenenter_events","fullscreenexit_events","success","view_history","rt","responses","num_errors","age","subject","participantId","rune","rune_set","hex","correct","choice","accuracy","outcome","keys","total_keys","block","practice","value","sub","trial","stimulus","robot","valence","action","sham"
"pavlovia","0","12","0.0-0.0","battery-v0.2","","""event"",""trial"",""time""
""fullscreenenter"",""1"",""6567""
","
","
","""event"",""trial"",""time""
""fullscreenenter"",""1"",""6567""
","
","","","","","","","","","","","","","","","","","","","","","","","","","","",""
"fullscreen","1","7549","0.0-1.0","battery-v0.2","","""event"",""trial"",""time""
""fullscreenenter"",""1"",""6567""
","
","
","""event"",""trial"",""time""
""fullscreenenter"",""1"",""6567""
","
","true","","","","","","","","","","","","","","","","","","","","","","","","","",""
"pit-instructions","2","16964","0.0-2.0-0.0","battery-v0.2","","""event"",""trial"",""time""
""fullscreenenter"",""1"",""6567""
","
","
","""event"",""trial"",""time""
""fullscreenenter"",""1"",""6567""
","
","","[{""page_index"":0,""viewing_time"":9410.200000047684}]","9412.599999904633","","","","","","","","","","","","","","","","","","","","","","","",""
"pit-comprehension","3","21715","0.0-2.0-1.0-0.0","battery-v0.2","","""event"",""trial"",""time""
""fullscreenenter"",""1"",""6567""
","
","
","""event"",""trial"",""time""
""fullscreenenter"",""1"",""6567""
","
","","","4744.799999952316","[""shark""]","0","11","4244","2135","","","","","","","","","","","","","","","","","","",""
"pit-instructions","4","24812","0.0-2.0-1.0-1.0","battery-v0.2","","""event"",""trial"",""time""
""fullscreenenter"",""1"",""6567""
","
","
","""event"",""trial"",""time""
""fullscreenenter"",""1"",""6567""
","
","","[{""page_index"":0,""viewing_time"":3085.9000000953674}]","3086.5","","","","","","","","","","","","","","","","","","","","","","","",""
"pit-comprehension","5","27820","0.0-2.0-2.0-0.0","battery-v0.2","","""event"",""trial"",""time""
""fullscreenenter"",""1"",""6567""
","
","
","""event"",""trial"",""time""
""fullscreenenter"",""1"",""6567""
","
","","","3000.7000000476837","[""tiger""]","0","11","4244","2135","","","","","","","","","","","","","","","","","","",""
"pit-instructions","6","30715","0.0-2.0-2.0-1.0","battery-v0.2","","""event"",""trial"",""time""
""fullscreenenter"",""1"",""6567""
","
","
","""event"",""trial"",""time""
""fullscreenenter"",""1"",""6567""
","
","","[{""page_index"":0,""viewing_time"":2887.2000000476837}]","2887.2999999523163","","","","","","","","","","","","","","","","","","","","","","","",""
"pit-instructions","7","146714","0.0-2.0-3.0","battery-v0.2","","""event"",""trial"",""time""
""fullscreenenter"",""1"",""6567""
","
","
","""event"",""trial"",""time""
""fullscreenenter"",""1"",""6567""
","
","","[{""page_index"":0,""viewing_time"":10576.800000190735},{""page_index"":1,""viewing_time"":8616.699999809265},{""page_index"":2,""viewing_time"":8871.200000047684},{""page_index"":3,""viewing_time"":8493.5},{""page_index"":4,""viewing_time"":8032.600000143051},{""page_index"":5,""viewing_time"":6451.199999809265},{""page_index"":6,""viewing_time"":7497.700000047684},{""page_index"":7,""viewing_time"":8738.400000095367},{""page_index"":8,""viewing_time"":8522.700000047684},{""page_index"":9,""viewing_time"":10440.899999856949},{""page_index"":10,""viewing_time"":7580.700000047684},{""page_index"":11,""viewing_time"":7950.700000047684},{""page_index"":12,""viewing_time"":7531.700000047684},{""page_index"":13,""viewing_time"":6684.099999904633}]","115989.5","","","","","","","","","","","","","","","","","","","","","","","",""
"pit-trial","8","150438","0.0-2.0-4.0-0.0","battery-v0.2","","""event"",""trial"",""time""
""fullscreenenter"",""1"",""6567""
","
","
","""event"",""trial"",""time""
""fullscreenenter"",""1"",""6567""
","
","","","855.2999999523163","","","11","4244","2135","&#9784;","elianto","#FFFFF080"," "," ","1","&#10004","[1710.2000000476837]","1","0","0","","","","","","","",""
"pit-trial","9","154150","0.0-2.0-4.1-0.1","battery-v0.2","","""event"",""trial"",""time""
""fullscreenenter"",""1"",""6567""
","
","
","""event"",""trial"",""time""
""fullscreenenter"",""1"",""6567""
","
","","","851.1000001430511","","","11","4244","2135","&#9784;","elianto","#FFFFF080"," "," ","1","&#10004","[1703.5999999046326]","1","0","0","","","","","","","",""
"pit-trial","10","159014","0.0-2.0-4.2-0.2","battery-v0.2","","""event"",""trial"",""time""
""fullscreenenter"",""1"",""6567""
","
","
","""event"",""trial"",""time""
""fullscreenenter"",""1"",""6567""
","
","","","-1","","","11","4244","2135","&#9784;","elianto","#FFFFF080"," ","-1","0","&#10060","[2953.7999999523163]","1","0","0","","","","","","","",""
"pit-trial","11","163877","0.0-2.0-4.3-0.3","battery-v0.2","","""event"",""trial"",""time""
""fullscreenenter"",""1"",""6567""
","
","
","""event"",""trial"",""time""
""fullscreenenter"",""1"",""6567""
","
","","","-1","","","11","4244","2135","&#9784;","elianto","#FFFFF080"," ","-1","0","&#10060","[]","0","0","0","","","","","","","",""
"pit-trial","12","167324","0.0-2.0-4.4-0.4","battery-v0.2","","""event"",""trial"",""time""
""fullscreenenter"",""1"",""6567""
","
","
","""event"",""trial"",""time""
""fullscreenenter"",""1"",""6567""
","
","","","584.6000001430511","","","11","4244","2135","&#9784;","elianto","#FFFFF080"," "," ","1","&#10004","[1435.7999999523163]","1","0","0","","","","","","","",""
"pit-trial","13","170838","0.0-2.0-4.5-0.5","battery-v0.2","","""event"",""trial"",""time""
""fullscreenenter"",""1"",""6567""
","
","
","""event"",""trial"",""time""
""fullscreenenter"",""1"",""6567""
","
","","","649.3999998569489","","","11","4244","2135","&#9784;","elianto","#FFFFF080"," "," ","1","&#10004","[1505.5]","1","0","0","","","","","","","",""
"pit-trial","14","175714","0.0-2.0-4.6-0.6","battery-v0.2","","""event"",""trial"",""time""
""fullscreenenter"",""1"",""6567""
","
","
","""event"",""trial"",""time""
""fullscreenenter"",""1"",""6567""
","
","","","-1","","","11","4244","2135","&#9784;","elianto","#FFFFF080"," ","-1","0","&#10060","[]","0","0","0","","","","","","","",""
"pit-instructions","15","193016","0.0-2.0-4.6-1.6-0.6","battery-v0.2","","""event"",""trial"",""time""
""fullscreenenter"",""1"",""6567""
","
","
","""event"",""trial"",""time""
""fullscreenenter"",""1"",""6567""
","
","","[{""page_index"":0,""viewing_time"":8647.799999952316},{""page_index"":1,""viewing_time"":8650.700000047684}]","17299.400000095367","","","","","","","","","","","","","","","","","","","","","","","",""
"pit-trial","16","196703","0.0-2.0-4.7-0.7","battery-v0.2","","""event"",""trial"",""time""
""fullscreenenter"",""1"",""6567""
","
","
","""event"",""trial"",""time""
""fullscreenenter"",""1"",""6567""
","
","","","816.1000001430511","","","11","4244","2135","&#9784;","elianto","#FFFFF080"," "," ","1","&#10004","[1672.7000000476837]","1","0","0","","","","","","","",""
"pit-trial","17","200406","0.0-2.0-4.8-0.8","battery-v0.2","","""event"",""trial"",""time""
""fullscreenenter"",""1"",""6567""
","
","
","""event"",""trial"",""time""
""fullscreenenter"",""1"",""6567""
","
","","","832.5","","","11","4244","2135","&#9784;","elianto","#FFFFF080"," "," ","1","&#10004","[1691.5]","1","0","0","","","","","","","",""
"pit-trial","18","204014","0.0-2.0-4.9-0.9","battery-v0.2","","""event"",""trial"",""time""
""fullscreenenter"",""1"",""6567""
","
","
","""event"",""trial"",""time""
""fullscreenenter"",""1"",""6567""
","
","","","736","","","11","4244","2135","&#9784;","elianto","#FFFFF080"," "," ","1","&#10004","[1594]","1","0","0","","","","","","","",""
"pit-instructions","19","232156","0.0-2.0-5.0","battery-v0.2","","""event"",""trial"",""time""
""fullscreenenter"",""1"",""6567""
","
","
","""event"",""trial"",""time""
""fullscreenenter"",""1"",""6567""
","
","","[{""page_index"":0,""viewing_time"":8161.5},{""page_index"":1,""viewing_time"":6368.700000047684},{""page_index"":2,""viewing_time"":5739.199999809265},{""page_index"":3,""viewing_time"":7868.300000190735}]","28138","","","","","","","","","","","","","","","","","","","","","","","",""
"pit-trial","20","237021","0.0-2.0-6.0-0.0","battery-v0.2","","""event"",""trial"",""time""
""fullscreenenter"",""1"",""6567""
","
","
","""event"",""trial"",""time""
""fullscreenenter"",""1"",""6567""
","
","","","-1","","","11","4244","2135","&#9854;","elianto","#FFFFF080","-1","-1","1","&#10004","[]","0","0","1","","","","","","","",""
"pit-trial","21","241894","0.0-2.0-6.1-0.1","battery-v0.2","","""event"",""trial"",""time""
""fullscreenenter"",""1"",""6567""
","
","
","""event"",""trial"",""time""
""fullscreenenter"",""1"",""6567""
","
","","","-1","","","11","4244","2135","&#9854;","elianto","#FFFFF080","-1","-1","1","&#10004","[]","0","0","1","","","","","","","",""
"pit-trial","22","246756","0.0-2.0-6.2-0.2","battery-v0.2","","""event"",""trial"",""time""
""fullscreenenter"",""1"",""6567""
","
","
","""event"",""trial"",""time""
""fullscreenenter"",""1"",""6567""
","
","","","-1","","","11","4244","2135","&#9854;","elianto","#FFFFF080","-1","-1","1","&#10004","[]","0","0","1","","","","","","","",""
"pit-trial","23","251621","0.0-2.0-6.3-0.3","battery-v0.2","","""event"",""trial"",""time""
""fullscreenenter"",""1"",""6567""
","
","
","""event"",""trial"",""time""
""fullscreenenter"",""1"",""6567""
","
","","","-1","","","11","4244","2135","&#9854;","elianto","#FFFFF080","-1","-1","1","&#10004","[]","0","0","1","","","","","","","",""
"pit-trial","24","256486","0.0-2.0-6.4-0.4","battery-v0.2","","""event"",""trial"",""time""
""fullscreenenter"",""1"",""6567""
","
","
","""event"",""trial"",""time""
""fullscreenenter"",""1"",""6567""
","
","","","-1","","","11","4244","2135","&#9854;","elianto","#FFFFF080","-1","-1","1","&#10004","[]","0","0","1","","","","","","","",""
"pit-instructions","25","398525","0.0-2.0-7.0","battery-v0.2","","""event"",""trial"",""time""
""fullscreenenter"",""1"",""6567""
","
","
","""event"",""trial"",""time""
""fullscreenenter"",""1"",""6567""
","
","","[{""page_index"":0,""viewing_time"":6526.400000095367},{""page_index"":1,""viewing_time"":7804.099999904633},{""page_index"":2,""viewing_time"":7051.100000143051},{""page_index"":3,""viewing_time"":6705.299999952316},{""page_index"":4,""viewing_time"":8647.200000047684},{""page_index"":5,""viewing_time"":6531.899999856949},{""page_index"":6,""viewing_time"":4884.700000047684},{""page_index"":7,""viewing_time"":12100.599999904633},{""page_index"":8,""viewing_time"":9911.800000190735},{""page_index"":9,""viewing_time"":7134.699999809265},{""page_index"":10,""viewing_time"":8254},{""page_index"":11,""viewing_time"":5541.600000143051},{""page_index"":12,""viewing_time"":10029.599999904633},{""page_index"":13,""viewing_time"":8817.200000047684},{""page_index"":14,""viewing_time"":8124.799999952316},{""page_index"":15,""viewing_time"":7398.5},{""page_index"":16,""viewing_time"":8775.100000143051},{""page_index"":17,""viewing_time"":7796.399999856949}]","142036","","","","","","","","","","","","","","","","","","","","","","","",""
"pit-trial","26","402396","0.0-2.0-8.0-0.0","battery-v0.2","","""event"",""trial"",""time""
""fullscreenenter"",""1"",""6567""
","
","
","""event"",""trial"",""time""
""fullscreenenter"",""1"",""6567""
","
","","","1012.0999999046326","","","11","4244","2135","&#9776;","elianto","#3366ff99"," "," ","1","+10","[1862.4000000953674]","1","0","1","","","","","","","",""
"pit-trial","27","406792","0.0-2.0-8.0-1.0","battery-v0.2","","""event"",""trial"",""time""
""fullscreenenter"",""1"",""6567""
","
","
","""event"",""trial"",""time""
""fullscreenenter"",""1"",""6567""
","
","","","1537.2000000476837","","","11","4244","2135","&#9776;","elianto","#3366ff99"," "," ","1","+10","[74,2387.2999999523163]","2","0","1","","","","","","","",""
"pit-trial","28","410197","0.0-2.0-8.0-2.0","battery-v0.2","","""event"",""trial"",""time""
""fullscreenenter"",""1"",""6567""
","
","
","""event"",""trial"",""time""
""fullscreenenter"",""1"",""6567""
","
","","","544.7000000476837","","","11","4244","2135","&#9776;","elianto","#3366ff99"," "," ","1","+10","[1395.5999999046326]","1","0","1","","","","","","","",""
"pit-trial","29","414140","0.0-2.0-8.0-3.0","battery-v0.2","","""event"",""trial"",""time""
""fullscreenenter"",""1"",""6567""
","
","
","""event"",""trial"",""time""
""fullscreenenter"",""1"",""6567""
","
","","","1079.7999999523163","","","11","4244","2135","&#9776;","elianto","#3366ff99"," "," ","1","0","[1933.6000001430511]","1","0","1","","","","","","","",""
"pit-trial","30","417470","0.0-2.0-8.0-4.0","battery-v0.2","","""event"",""trial"",""time""
""fullscreenenter"",""1"",""6567""
","
","
","""event"",""trial"",""time""
""fullscreenenter"",""1"",""6567""
","
","","","467.39999985694885","","","11","4244","2135","&#9776;","elianto","#3366ff99"," "," ","1","+10","[1317.7000000476837]","1","0","1","","","","","","","",""
"pit-trial","31","421260","0.0-2.0-8.1-0.1","battery-v0.2","","""event"",""trial"",""time""
""fullscreenenter"",""1"",""6567""
","
","
","""event"",""trial"",""time""
""fullscreenenter"",""1"",""6567""
","
","","","923.8999998569489","","","11","4244","2135","&#9776;","elianto","#3366ff99"," "," ","1","+10","[1783.2000000476837]","1","0","1","","","","","","","",""
"pit-trial","32","425228","0.0-2.0-8.1-1.1","battery-v0.2","","""event"",""trial"",""time""
""fullscreenenter"",""1"",""6567""
","
","
","""event"",""trial"",""time""
""fullscreenenter"",""1"",""6567""
","
","","","1106.2000000476837","","","11","4244","2135","&#9776;","elianto","#3366ff99"," "," ","1","+10","[1957.0999999046326]","1","0","1","","","","","","","",""
"pit-trial","33","428697","0.0-2.0-8.1-2.1","battery-v0.2","","""event"",""trial"",""time""
""fullscreenenter"",""1"",""6567""
","
","
","""event"",""trial"",""time""
""fullscreenenter"",""1"",""6567""
","
","","","599.5","","","11","4244","2135","&#9776;","elianto","#3366ff99"," "," ","1","+10","[1452.4000000953674]","1","0","1","","","","","","","",""
"pit-trial","34","432400","0.0-2.0-8.1-3.1","battery-v0.2","","""event"",""trial"",""time""
""fullscreenenter"",""1"",""6567""
","
","
","""event"",""trial"",""time""
""fullscreenenter"",""1"",""6567""
","
","","","830.8999998569489","","","11","4244","2135","&#9776;","elianto","#3366ff99"," "," ","1","0","[1690.6000001430511]","1","0","1","","","","","","","",""
"pit-trial","35","435589","0.0-2.0-8.1-4.1","battery-v0.2","","""event"",""trial"",""time""
""fullscreenenter"",""1"",""6567""
","
","
","""event"",""trial"",""time""
""fullscreenenter"",""1"",""6567""
","
","","","310.89999985694885","","","11","4244","2135","&#9776;","elianto","#3366ff99"," "," ","1","+10","[1173.6000001430511]","1","0","1","","","","","","","",""
"pit-trial","36","439030","0.0-2.0-8.2-0.2","battery-v0.2","","""event"",""trial"",""time""
""fullscreenenter"",""1"",""6567""
","
","
","""event"",""trial"",""time""
""fullscreenenter"",""1"",""6567""
","
","","","587.2999999523163","","","11","4244","2135","&#9776;","elianto","#3366ff99"," "," ","1","+10","[1437.5]","1","0","1","","","","","","","",""
"pit-trial","37","442538","0.0-2.0-8.2-1.2","battery-v0.2","","""event"",""trial"",""time""
""fullscreenenter"",""1"",""6567""
","
","
","""event"",""trial"",""time""
""fullscreenenter"",""1"",""6567""
","
","","","637","","","11","4244","2135","&#9776;","elianto","#3366ff99"," "," ","1","+10","[1487]","1","0","1","","","","","","","",""
"pit-trial","38","446613","0.0-2.0-8.2-2.2","battery-v0.2","","""event"",""trial"",""time""
""fullscreenenter"",""1"",""6567""
","
","
","""event"",""trial"",""time""
""fullscreenenter"",""1"",""6567""
","
","","","1212.2999999523163","","","11","4244","2135","&#9776;","elianto","#3366ff99"," "," ","1","+10","[2072.899999856949]","1","0","1","","","","","","","",""
"pit-trial","39","449951","0.0-2.0-8.2-3.2","battery-v0.2","","""event"",""trial"",""time""
""fullscreenenter"",""1"",""6567""
","
","
","""event"",""trial"",""time""
""fullscreenenter"",""1"",""6567""
","
","","","475.39999985694885","","","11","4244","2135","&#9776;","elianto","#3366ff99"," "," ","1","0","[1327.2999999523163]","1","0","1","","","","","","","",""
"pit-trial","40","453433","0.0-2.0-8.2-4.2","battery-v0.2","","""event"",""trial"",""time""
""fullscreenenter"",""1"",""6567""
","
","
","""event"",""trial"",""time""
""fullscreenenter"",""1"",""6567""
","
","","","609.8000001907349","","","11","4244","2135","&#9776;","elianto","#3366ff99"," "," ","1","+10","[1468.2999999523163]","1","0","1","","","","","","","",""
"call-function","41","453434","0.0-2.0-9.0","battery-v0.2","","""event"",""trial"",""time""
""fullscreenenter"",""1"",""6567""
","
","
","""event"",""trial"",""time""
""fullscreenenter"",""1"",""6567""
","
","","","","","","","","","","","","","","","","","","","","","","","","","","",""
"pit-instructions","42","517870","0.0-2.0-10.0","battery-v0.2","","""event"",""trial"",""time""
""fullscreenenter"",""1"",""6567""
","
","
","""event"",""trial"",""time""
""fullscreenenter"",""1"",""6567""
","
","","[{""page_index"":0,""viewing_time"":17512.299999952316},{""page_index"":1,""viewing_time"":11497.900000095367},{""page_index"":2,""viewing_time"":12916.299999952316},{""page_index"":3,""viewing_time"":13894.799999952316},{""page_index"":4,""viewing_time"":8615.300000190735}]","64437","","","","","","","","","","","","","","","","","","","","","","","",""
"pit-trial","43","522731","0.0-2.0-11.0-0.0","battery-v0.2","","""event"",""trial"",""time""
""fullscreenenter"",""1"",""6567""
","
","
","""event"",""trial"",""time""
""fullscreenenter"",""1"",""6567""
","
","","","-1","","","11","4244","2135","&#9761;","elianto","#3366ff99","-1","-1","1","+10","[]","0","0","2","","","","","","","",""
"pit-trial","44","527595","0.0-2.0-11.0-1.0","battery-v0.2","","""event"",""trial"",""time""
""fullscreenenter"",""1"",""6567""
","
","
","""event"",""trial"",""time""
""fullscreenenter"",""1"",""6567""
","
","","","-1","","","11","4244","2135","&#9761;","elianto","#3366ff99","-1","-1","1","+10","[]","0","0","2","","","","","","","",""
"pit-trial","45","532458","0.0-2.0-11.0-2.0","battery-v0.2","","""event"",""trial"",""time""
""fullscreenenter"",""1"",""6567""
","
","
","""event"",""trial"",""time""
""fullscreenenter"",""1"",""6567""
","
","","","-1","","","11","4244","2135","&#9761;","elianto","#3366ff99","-1","-1","1","+10","[]","0","0","2","","","","","","","",""
"pit-trial","46","537324","0.0-2.0-11.0-3.0","battery-v0.2","","""event"",""trial"",""time""
""fullscreenenter"",""1"",""6567""
","
","
","""event"",""trial"",""time""
""fullscreenenter"",""1"",""6567""
","
","","","-1","","","11","4244","2135","&#9761;","elianto","#3366ff99","-1","-1","1","0","[]","0","0","2","","","","","","","",""
"pit-trial","47","542188","0.0-2.0-11.0-4.0","battery-v0.2","","""event"",""trial"",""time""
""fullscreenenter"",""1"",""6567""
","
","
","""event"",""trial"",""time""
""fullscreenenter"",""1"",""6567""
","
","","","-1","","","11","4244","2135","&#9761;","elianto","#3366ff99","-1","-1","1","+10","[]","0","0","2","","","","","","","",""
"pit-trial","48","547052","0.0-2.0-11.1-0.1","battery-v0.2","","""event"",""trial"",""time""
""fullscreenenter"",""1"",""6567""
","
","
","""event"",""trial"",""time""
""fullscreenenter"",""1"",""6567""
","
","","","-1","","","11","4244","2135","&#9761;","elianto","#3366ff99","-1","-1","1","+10","[]","0","0","2","","","","","","","",""
"pit-trial","49","551924","0.0-2.0-11.1-1.1","battery-v0.2","","""event"",""trial"",""time""
""fullscreenenter"",""1"",""6567""
","
","
","""event"",""trial"",""time""
""fullscreenenter"",""1"",""6567""
","
","","","-1","","","11","4244","2135","&#9761;","elianto","#3366ff99","-1","-1","1","+10","[]","0","0","2","","","","","","","",""
"pit-trial","50","556803","0.0-2.0-11.1-2.1","battery-v0.2","","""event"",""trial"",""time""
""fullscreenenter"",""1"",""6567""
","
","
","""event"",""trial"",""time""
""fullscreenenter"",""1"",""6567""
","
","","","-1","","","11","4244","2135","&#9761;","elianto","#3366ff99","-1","-1","1","+10","[]","0","0","2","","","","","","","",""
"pit-trial","51","561687","0.0-2.0-11.1-3.1","battery-v0.2","","""event"",""trial"",""time""
""fullscreenenter"",""1"",""6567""
","
","
","""event"",""trial"",""time""
""fullscreenenter"",""1"",""6567""
","
","","","-1","","","11","4244","2135","&#9761;","elianto","#3366ff99","-1","-1","1","0","[]","0","0","2","","","","","","","",""
"pit-trial","52","566557","0.0-2.0-11.1-4.1","battery-v0.2","","""event"",""trial"",""time""
""fullscreenenter"",""1"",""6567""
","
","
","""event"",""trial"",""time""
""fullscreenenter"",""1"",""6567""
","
","","","-1","","","11","4244","2135","&#9761;","elianto","#3366ff99","-1","-1","1","+10","[]","0","0","2","","","","","","","",""
"pit-trial","53","571441","0.0-2.0-11.2-0.2","battery-v0.2","","""event"",""trial"",""time""
""fullscreenenter"",""1"",""6567""
","
","
","""event"",""trial"",""time""
""fullscreenenter"",""1"",""6567""
","
","","","-1","","","11","4244","2135","&#9761;","elianto","#3366ff99","-1","-1","1","+10","[]","0","0","2","","","","","","","",""
"pit-trial","54","576311","0.0-2.0-11.2-1.2","battery-v0.2","","""event"",""trial"",""time""
""fullscreenenter"",""1"",""6567""
","
","
","""event"",""trial"",""time""
""fullscreenenter"",""1"",""6567""
","
","","","-1","","","11","4244","2135","&#9761;","elianto","#3366ff99","-1","-1","1","+10","[]","0","0","2","","","","","","","",""
"pit-trial","55","581179","0.0-2.0-11.2-2.2","battery-v0.2","","""event"",""trial"",""time""
""fullscreenenter"",""1"",""6567""
","
","
","""event"",""trial"",""time""
""fullscreenenter"",""1"",""6567""
","
","","","-1","","","11","4244","2135","&#9761;","elianto","#3366ff99","-1","-1","1","+10","[]","0","0","2","","","","","","","",""
"pit-trial","56","586047","0.0-2.0-11.2-3.2","battery-v0.2","","""event"",""trial"",""time""
""fullscreenenter"",""1"",""6567""
","
","
","""event"",""trial"",""time""
""fullscreenenter"",""1"",""6567""
","
","","","-1","","","11","4244","2135","&#9761;","elianto","#3366ff99","-1","-1","1","0","[]","0","0","2","","","","","","","",""
"pit-trial","57","590920","0.0-2.0-11.2-4.2","battery-v0.2","","""event"",""trial"",""time""
""fullscreenenter"",""1"",""6567""
","
","
","""event"",""trial"",""time""
""fullscreenenter"",""1"",""6567""
","
","","","-1","","","11","4244","2135","&#9761;","elianto","#3366ff99","-1","-1","1","+10","[]","0","0","2","","","","","","","",""
"pit-trial","58","595795","0.0-2.0-11.3-0.3","battery-v0.2","","""event"",""trial"",""time""
""fullscreenenter"",""1"",""6567""
","
","
","""event"",""trial"",""time""
""fullscreenenter"",""1"",""6567""
","
","","","-1","","","11","4244","2135","&#9761;","elianto","#3366ff99","-1","-1","1","+10","[]","0","0","2","","","","","","","",""
"pit-trial","59","600669","0.0-2.0-11.3-1.3","battery-v0.2","","""event"",""trial"",""time""
""fullscreenenter"",""1"",""6567""
","
","
","""event"",""trial"",""time""
""fullscreenenter"",""1"",""6567""
","
","","","-1","","","11","4244","2135","&#9761;","elianto","#3366ff99","-1","-1","1","+10","[]","0","0","2","","","","","","","",""
"pit-trial","60","605533","0.0-2.0-11.3-2.3","battery-v0.2","","""event"",""trial"",""time""
""fullscreenenter"",""1"",""6567""
","
","
","""event"",""trial"",""time""
""fullscreenenter"",""1"",""6567""
","
","","","-1","","","11","4244","2135","&#9761;","elianto","#3366ff99","-1","-1","1","+10","[]","0","0","2","","","","","","","",""
"pit-trial","61","610399","0.0-2.0-11.3-3.3","battery-v0.2","","""event"",""trial"",""time""
""fullscreenenter"",""1"",""6567""
","
","
","""event"",""trial"",""time""
""fullscreenenter"",""1"",""6567""
","
","","","-1","","","11","4244","2135","&#9761;","elianto","#3366ff99","-1","-1","1","0","[]","0","0","2","","","","","","","",""
"pit-trial","62","615261","0.0-2.0-11.3-4.3","battery-v0.2","","""event"",""trial"",""time""
""fullscreenenter"",""1"",""6567""
","
","
","""event"",""trial"",""time""
""fullscreenenter"",""1"",""6567""
","
","","","-1","","","11","4244","2135","&#9761;","elianto","#3366ff99","-1","-1","1","+10","[]","0","0","2","","","","","","","",""
"call-function","63","615264","0.0-2.0-12.0","battery-v0.2","","""event"",""trial"",""time""
""fullscreenenter"",""1"",""6567""
","
","
","""event"",""trial"",""time""
""fullscreenenter"",""1"",""6567""
","
","","","","","","","","","","","","","","","","","","","","","","","","","","",""
"pit-instructions","64","676784","0.0-2.0-13.0","battery-v0.2","","""event"",""trial"",""time""
""fullscreenenter"",""1"",""6567""
","
","
","""event"",""trial"",""time""
""fullscreenenter"",""1"",""6567""
","
","","[{""page_index"":0,""viewing_time"":13279.100000143051},{""page_index"":1,""viewing_time"":15204.199999809265},{""page_index"":2,""viewing_time"":5740},{""page_index"":3,""viewing_time"":20626.60000014305},{""page_index"":4,""viewing_time"":6667.700000047684}]","61518.10000014305","","","","","","","","","","","","","","","","","","","","","","","",""
"pit-trial","65","680382","0.0-2.0-14.0-0.0","battery-v0.2","","""event"",""trial"",""time""
""fullscreenenter"",""1"",""6567""
","
","
","""event"",""trial"",""time""
""fullscreenenter"",""1"",""6567""
","
","","","739.5","","","11","4244","2135","&#9826;","elianto","#f73b6a7A","-1"," ","0","-10","[1590.4000000953674]","1","0","3","","","","","","","",""
"pit-trial","66","683797","0.0-2.0-14.0-1.0","battery-v0.2","","""event"",""trial"",""time""
""fullscreenenter"",""1"",""6567""
","
","
","""event"",""trial"",""time""
""fullscreenenter"",""1"",""6567""
","
","","","556.8999998569489","","","11","4244","2135","&#9826;","elianto","#f73b6a7A","-1"," ","0","-10","[1409.5]","1","0","3","","","","","","","",""
"pit-trial","67","688662","0.0-2.0-14.0-2.0","battery-v0.2","","""event"",""trial"",""time""
""fullscreenenter"",""1"",""6567""
","
","
","""event"",""trial"",""time""
""fullscreenenter"",""1"",""6567""
","
","","","-1","","","11","4244","2135","&#9826;","elianto","#f73b6a7A","-1","-1","1","0","[]","0","0","3","","","","","","","",""
"pit-trial","68","693527","0.0-2.0-14.0-3.0","battery-v0.2","","""event"",""trial"",""time""
""fullscreenenter"",""1"",""6567""
","
","
","""event"",""trial"",""time""
""fullscreenenter"",""1"",""6567""
","
","","","-1","","","11","4244","2135","&#9826;","elianto","#f73b6a7A","-1","-1","1","-10","[]","0","0","3","","","","","","","",""
"pit-trial","69","698396","0.0-2.0-14.0-4.0","battery-v0.2","","""event"",""trial"",""time""
""fullscreenenter"",""1"",""6567""
","
","
","""event"",""trial"",""time""
""fullscreenenter"",""1"",""6567""
","
","","","-1","","","11","4244","2135","&#9826;","elianto","#f73b6a7A","-1","-1","1","0","[]","0","0","3","","","","","","","",""
"pit-trial","70","703263","0.0-2.0-14.1-0.1","battery-v0.2","","""event"",""trial"",""time""
""fullscreenenter"",""1"",""6567""
","
","
","""event"",""trial"",""time""
""fullscreenenter"",""1"",""6567""
","
","","","-1","","","11","4244","2135","&#9826;","elianto","#f73b6a7A","-1","-1","1","0","[]","0","0","3","","","","","","","",""
"pit-trial","71","708143","0.0-2.0-14.1-1.1","battery-v0.2","","""event"",""trial"",""time""
""fullscreenenter"",""1"",""6567""
","
","
","""event"",""trial"",""time""
""fullscreenenter"",""1"",""6567""
","
","","","-1","","","11","4244","2135","&#9826;","elianto","#f73b6a7A","-1","-1","1","0","[]","0","0","3","","","","","","","",""
"pit-trial","72","713010","0.0-2.0-14.1-2.1","battery-v0.2","","""event"",""trial"",""time""
""fullscreenenter"",""1"",""6567""
","
","
","""event"",""trial"",""time""
""fullscreenenter"",""1"",""6567""
","
","","","-1","","","11","4244","2135","&#9826;","elianto","#f73b6a7A","-1","-1","1","0","[]","0","0","3","","","","","","","",""
"pit-trial","73","717880","0.0-2.0-14.1-3.1","battery-v0.2","","""event"",""trial"",""time""
""fullscreenenter"",""1"",""6567""
","
","
","""event"",""trial"",""time""
""fullscreenenter"",""1"",""6567""
","
","","","-1","","","11","4244","2135","&#9826;","elianto","#f73b6a7A","-1","-1","1","-10","[]","0","0","3","","","","","","","",""
"pit-trial","74","722756","0.0-2.0-14.1-4.1","battery-v0.2","","""event"",""trial"",""time""
""fullscreenenter"",""1"",""6567""
","
","
","""event"",""trial"",""time""
""fullscreenenter"",""1"",""6567""
","
","","","-1","","","11","4244","2135","&#9826;","elianto","#f73b6a7A","-1","-1","1","0","[]","0","0","3","","","","","","","",""
"pit-trial","75","727622","0.0-2.0-14.2-0.2","battery-v0.2","","""event"",""trial"",""time""
""fullscreenenter"",""1"",""6567""
","
","
","""event"",""trial"",""time""
""fullscreenenter"",""1"",""6567""
","
","","","-1","","","11","4244","2135","&#9826;","elianto","#f73b6a7A","-1","-1","1","0","[]","0","0","3","","","","","","","",""
"pit-trial","76","732495","0.0-2.0-14.2-1.2","battery-v0.2","","""event"",""trial"",""time""
""fullscreenenter"",""1"",""6567""
","
","
","""event"",""trial"",""time""
""fullscreenenter"",""1"",""6567""
","
","","","-1","","","11","4244","2135","&#9826;","elianto","#f73b6a7A","-1","-1","1","0","[]","0","0","3","","","","","","","",""
"pit-trial","77","737358","0.0-2.0-14.2-2.2","battery-v0.2","","""event"",""trial"",""time""
""fullscreenenter"",""1"",""6567""
","
","
","""event"",""trial"",""time""
""fullscreenenter"",""1"",""6567""
","
","","","-1","","","11","4244","2135","&#9826;","elianto","#f73b6a7A","-1","-1","1","0","[]","0","0","3","","","","","","","",""
"pit-trial","78","742226","0.0-2.0-14.2-3.2","battery-v0.2","","""event"",""trial"",""time""
""fullscreenenter"",""1"",""6567""
","
","
","""event"",""trial"",""time""
""fullscreenenter"",""1"",""6567""
","
","","","-1","","","11","4244","2135","&#9826;","elianto","#f73b6a7A","-1","-1","1","-10","[]","0","0","3","","","","","","","",""
"pit-trial","79","747100","0.0-2.0-14.2-4.2","battery-v0.2","","""event"",""trial"",""time""
""fullscreenenter"",""1"",""6567""
","
","
","""event"",""trial"",""time""
""fullscreenenter"",""1"",""6567""
","
","","","-1","","","11","4244","2135","&#9826;","elianto","#f73b6a7A","-1","-1","1","0","[]","0","0","3","","","","","","","",""
"pit-trial","80","751971","0.0-2.0-14.3-0.3","battery-v0.2","","""event"",""trial"",""time""
""fullscreenenter"",""1"",""6567""
","
","
","""event"",""trial"",""time""
""fullscreenenter"",""1"",""6567""
","
","","","-1","","","11","4244","2135","&#9826;","elianto","#f73b6a7A","-1","-1","1","0","[]","0","0","3","","","","","","","",""
"pit-trial","81","756845","0.0-2.0-14.3-1.3","battery-v0.2","","""event"",""trial"",""time""
""fullscreenenter"",""1"",""6567""
","
","
","""event"",""trial"",""time""
""fullscreenenter"",""1"",""6567""
","
","","","-1","","","11","4244","2135","&#9826;","elianto","#f73b6a7A","-1","-1","1","0","[]","0","0","3","","","","","","","",""
"pit-trial","82","761714","0.0-2.0-14.3-2.3","battery-v0.2","","""event"",""trial"",""time""
""fullscreenenter"",""1"",""6567""
","
","
","""event"",""trial"",""time""
""fullscreenenter"",""1"",""6567""
","
","","","-1","","","11","4244","2135","&#9826;","elianto","#f73b6a7A","-1","-1","1","0","[]","0","0","3","","","","","","","",""
"pit-trial","83","766587","0.0-2.0-14.3-3.3","battery-v0.2","","""event"",""trial"",""time""
""fullscreenenter"",""1"",""6567""
","
","
","""event"",""trial"",""time""
""fullscreenenter"",""1"",""6567""
","
","","","-1","","","11","4244","2135","&#9826;","elianto","#f73b6a7A","-1","-1","1","-10","[]","0","0","3","","","","","","","",""
"pit-trial","84","771468","0.0-2.0-14.3-4.3","battery-v0.2","","""event"",""trial"",""time""
""fullscreenenter"",""1"",""6567""
","
","
","""event"",""trial"",""time""
""fullscreenenter"",""1"",""6567""
","
","","","-1","","","11","4244","2135","&#9826;","elianto","#f73b6a7A","-1","-1","1","0","[]","0","0","3","","","","","","","",""
"call-function","85","771471","0.0-2.0-15.0","battery-v0.2","","""event"",""trial"",""time""
""fullscreenenter"",""1"",""6567""
","
","
","""event"",""trial"",""time""
""fullscreenenter"",""1"",""6567""
","
","","","","","","","","","","","","","","","","","","","","","","","","","","",""
"pit-instructions","86","810387","0.0-2.0-16.0","battery-v0.2","","""event"",""trial"",""time""
""fullscreenenter"",""1"",""6567""
","
","
","""event"",""trial"",""time""
""fullscreenenter"",""1"",""6567""
","
","","[{""page_index"":0,""viewing_time"":11837.799999952316},{""page_index"":1,""viewing_time"":13593.700000047684},{""page_index"":2,""viewing_time"":6601.599999904633},{""page_index"":3,""viewing_time"":6882.099999904633}]","38915.89999985695","","","","","","","","","","","","","","","","","","","","","","","",""
"pit-trial","87","813663","0.0-2.0-17.0-0.0","battery-v0.2","","""event"",""trial"",""time""
""fullscreenenter"",""1"",""6567""
","
","
","""event"",""trial"",""time""
""fullscreenenter"",""1"",""6567""
","
","","","407.2000000476837","","","11","4244","2135","&#9789;","elianto","#f73b6a7A"," "," ","1","0","[1261.7000000476837]","1","0","4","","","","","","","",""
"pit-trial","88","816948","0.0-2.0-17.0-1.0","battery-v0.2","","""event"",""trial"",""time""
""fullscreenenter"",""1"",""6567""
","
","
","""event"",""trial"",""time""
""fullscreenenter"",""1"",""6567""
","
","","","429.09999990463257","","","11","4244","2135","&#9789;","elianto","#f73b6a7A"," "," ","1","0","[1282.2000000476837]","1","0","4","","","","","","","",""
"pit-trial","89","820620","0.0-2.0-17.0-2.0","battery-v0.2","","""event"",""trial"",""time""
""fullscreenenter"",""1"",""6567""
","
","
","""event"",""trial"",""time""
""fullscreenenter"",""1"",""6567""
","
","","","807.7000000476837","","","11","4244","2135","&#9789;","elianto","#f73b6a7A"," "," ","1","0","[1661.0999999046326]","1","0","4","","","","","","","",""
"pit-trial","90","824141","0.0-2.0-17.0-3.0","battery-v0.2","","""event"",""trial"",""time""
""fullscreenenter"",""1"",""6567""
","
","
","""event"",""trial"",""time""
""fullscreenenter"",""1"",""6567""
","
","","","657.7000000476837","","","11","4244","2135","&#9789;","elianto","#f73b6a7A"," "," ","1","-10","[1510.7999999523163]","1","0","4","","","","","","","",""
"pit-trial","91","827204","0.0-2.0-17.0-4.0","battery-v0.2","","""event"",""trial"",""time""
""fullscreenenter"",""1"",""6567""
","
","
","""event"",""trial"",""time""
""fullscreenenter"",""1"",""6567""
","
","","","201.40000009536743","","","11","4244","2135","&#9789;","elianto","#f73b6a7A"," "," ","1","0","[1052.6999998092651]","1","0","4","","","","","","","",""
"pit-trial","92","830293","0.0-2.0-17.1-0.1","battery-v0.2","","""event"",""trial"",""time""
""fullscreenenter"",""1"",""6567""
","
","
","""event"",""trial"",""time""
""fullscreenenter"",""1"",""6567""
","
","","","224.10000014305115","","","11","4244","2135","&#9789;","elianto","#f73b6a7A"," "," ","1","0","[1077.2999999523163]","1","0","4","","","","","","","",""
"pit-trial","93","833605","0.0-2.0-17.1-1.1","battery-v0.2","","""event"",""trial"",""time""
""fullscreenenter"",""1"",""6567""
","
","
","""event"",""trial"",""time""
""fullscreenenter"",""1"",""6567""
","
","","","451.40000009536743","","","11","4244","2135","&#9789;","elianto","#f73b6a7A"," "," ","1","0","[529.6000001430511,1306.6000001430511]","2","0","4","","","","","","","",""
"pit-trial","94","836701","0.0-2.0-17.1-2.1","battery-v0.2","","""event"",""trial"",""time""
""fullscreenenter"",""1"",""6567""
","
","
","""event"",""trial"",""time""
""fullscreenenter"",""1"",""6567""
","
","","","232.40000009536743","","","11","4244","2135","&#9789;","elianto","#f73b6a7A"," "," ","1","0","[1086.5]","1","0","4","","","","","","","",""
"pit-trial","95","839850","0.0-2.0-17.1-3.1","battery-v0.2","","""event"",""trial"",""time""
""fullscreenenter"",""1"",""6567""
","
","
","""event"",""trial"",""time""
""fullscreenenter"",""1"",""6567""
","
","","","280.59999990463257","","","11","4244","2135","&#9789;","elianto","#f73b6a7A"," "," ","1","-10","[1134.6999998092651]","1","0","4","","","","","","","",""
"pit-trial","96","843188","0.0-2.0-17.1-4.1","battery-v0.2","","""event"",""trial"",""time""
""fullscreenenter"",""1"",""6567""
","
","
","""event"",""trial"",""time""
""fullscreenenter"",""1"",""6567""
","
","","","471","","","11","4244","2135","&#9789;","elianto","#f73b6a7A"," "," ","1","0","[1329.6999998092651]","1","0","4","","","","","","","",""
"pit-trial","97","846509","0.0-2.0-17.2-0.2","battery-v0.2","","""event"",""trial"",""time""
""fullscreenenter"",""1"",""6567""
","
","
","""event"",""trial"",""time""
""fullscreenenter"",""1"",""6567""
","
","","","453","","","11","4244","2135","&#9789;","elianto","#f73b6a7A"," "," ","1","0","[1312.0999999046326]","1","0","4","","","","","","","",""
"pit-trial","98","849548","0.0-2.0-17.2-1.2","battery-v0.2","","""event"",""trial"",""time""
""fullscreenenter"",""1"",""6567""
","
","
","""event"",""trial"",""time""
""fullscreenenter"",""1"",""6567""
","
","","","173.30000019073486","","","11","4244","2135","&#9789;","elianto","#f73b6a7A"," "," ","1","0","[1027.9000000953674]","1","0","4","","","","","","","",""
"pit-trial","99","852748","0.0-2.0-17.2-2.2","battery-v0.2","","""event"",""trial"",""time""
""fullscreenenter"",""1"",""6567""
","
","
","""event"",""trial"",""time""
""fullscreenenter"",""1"",""6567""
","
","","","338.30000019073486","","","11","4244","2135","&#9789;","elianto","#f73b6a7A"," "," ","1","0","[1189.7999999523163]","1","0","4","","","","","","","",""
"pit-trial","100","855967","0.0-2.0-17.2-3.2","battery-v0.2","","""event"",""trial"",""time""
""fullscreenenter"",""1"",""6567""
","
","
","""event"",""trial"",""time""
""fullscreenenter"",""1"",""6567""
","
","","","351.09999990463257","","","11","4244","2135","&#9789;","elianto","#f73b6a7A"," "," ","1","-10","[1210.2000000476837]","1","0","4","","","","","","","",""
"pit-trial","101","859150","0.0-2.0-17.2-4.2","battery-v0.2","","""event"",""trial"",""time""
""fullscreenenter"",""1"",""6567""
","
","
","""event"",""trial"",""time""
""fullscreenenter"",""1"",""6567""
","
","","","322","","","11","4244","2135","&#9789;","elianto","#f73b6a7A"," "," ","1","0","[1178]","1","0","4","","","","","","","",""
"pit-trial","102","863206","0.0-2.0-17.3-0.3","battery-v0.2","","""event"",""trial"",""time""
""fullscreenenter"",""1"",""6567""
","
","
","""event"",""trial"",""time""
""fullscreenenter"",""1"",""6567""
","
","","","1190.7999999523163","","","11","4244","2135","&#9789;","elianto","#f73b6a7A"," "," ","1","0","[2049.4000000953674]","1","0","4","","","","","","","",""
"pit-trial","103","867855","0.0-2.0-17.3-1.3","battery-v0.2","","""event"",""trial"",""time""
""fullscreenenter"",""1"",""6567""
","
","
","""event"",""trial"",""time""
""fullscreenenter"",""1"",""6567""
","
","","","1777.7999999523163","","","11","4244","2135","&#9789;","elianto","#f73b6a7A"," "," ","1","0","[2636.9000000953674]","1","0","4","","","","","","","",""
"pit-trial","104","871027","0.0-2.0-17.3-2.3","battery-v0.2","","""event"",""trial"",""time""
""fullscreenenter"",""1"",""6567""
","
","
","""event"",""trial"",""time""
""fullscreenenter"",""1"",""6567""
","
","","","307.5","","","11","4244","2135","&#9789;","elianto","#f73b6a7A"," "," ","1","0","[1160.8999998569489]","1","0","4","","","","","","","",""
"pit-trial","105","874476","0.0-2.0-17.3-3.3","battery-v0.2","","""event"",""trial"",""time""
""fullscreenenter"",""1"",""6567""
","
","
","""event"",""trial"",""time""
""fullscreenenter"",""1"",""6567""
","
","","","575.3999998569489","","","11","4244","2135","&#9789;","elianto","#f73b6a7A"," "," ","1","-10","[1433.5]","1","0","4","","","","","","","",""
"pit-trial","106","877782","0.0-2.0-17.3-4.3","battery-v0.2","","""event"",""trial"",""time""
""fullscreenenter"",""1"",""6567""
","
","
","""event"",""trial"",""time""
""fullscreenenter"",""1"",""6567""
","
","","","426","","","11","4244","2135","&#9789;","elianto","#f73b6a7A"," "," ","1","0","[1286.5999999046326]","1","0","4","","","","","","","",""
"call-function","107","877785","0.0-2.0-18.0","battery-v0.2","","""event"",""trial"",""time""
""fullscreenenter"",""1"",""6567""
","
","
","""event"",""trial"",""time""
""fullscreenenter"",""1"",""6567""
","
","","","","","","","","","","","","","","","","","","","","","","","","","","",""
"pit-instructions","108","971410","0.0-2.0-19.0","battery-v0.2","","""event"",""trial"",""time""
""fullscreenenter"",""1"",""6567""
","
","
","""event"",""trial"",""time""
""fullscreenenter"",""1"",""6567""
","
","","[{""page_index"":0,""viewing_time"":7763.200000047684},{""page_index"":1,""viewing_time"":4857.900000095367},{""page_index"":2,""viewing_time"":18620.700000047684},{""page_index"":3,""viewing_time"":16821.699999809265},{""page_index"":4,""viewing_time"":11728.800000190735},{""page_index"":5,""viewing_time"":8009.5},{""page_index"":6,""viewing_time"":12158.599999904633},{""page_index"":7,""viewing_time"":9520.400000095367},{""page_index"":8,""viewing_time"":4141.899999856949}]","93623.80000019073","","","","","","","","","","","","","","","","","","","","","","","",""
"pit-comprehension","109","977880","0.0-2.0-20.0-0.0","battery-v0.2","","""event"",""trial"",""time""
""fullscreenenter"",""1"",""6567""
","
","
","""event"",""trial"",""time""
""fullscreenenter"",""1"",""6567""
","
","","","6459.899999856949","[""SPACE""]","0","11","4244","2135","","","","","","","","","","","","","","","","","","",""
"pit-instructions","110","981314","0.0-2.0-20.0-1.0","battery-v0.2","","""event"",""trial"",""time""
""fullscreenenter"",""1"",""6567""
","
","
","""event"",""trial"",""time""
""fullscreenenter"",""1"",""6567""
","
","","[{""page_index"":0,""viewing_time"":3394.100000143051}]","3395.100000143051","","","","","","","","","","","","","","","","","","","","","","","",""
"pit-comprehension","111","992278","0.0-2.0-21.0-0.0","battery-v0.2","","""event"",""trial"",""time""
""fullscreenenter"",""1"",""6567""
","
","
","""event"",""trial"",""time""
""fullscreenenter"",""1"",""6567""
","
","","","10958.299999952316","[""10""]","0","11","4244","2135","","","","","","","","","","","","","","","","","","",""
"pit-instructions","112","996643","0.0-2.0-21.0-1.0","battery-v0.2","","""event"",""trial"",""time""
""fullscreenenter"",""1"",""6567""
","
","
","""event"",""trial"",""time""
""fullscreenenter"",""1"",""6567""
","
","","[{""page_index"":0,""viewing_time"":4326.5}]","4327.299999952316","","","","","","","","","","","","","","","","","","","","","","","",""
"pit-comprehension","113","1004118","0.0-2.0-22.0-0.0","battery-v0.2","","""event"",""trial"",""time""
""fullscreenenter"",""1"",""6567""
","
","
","""event"",""trial"",""time""
""fullscreenenter"",""1"",""6567""
","
","","","7466.400000095367","[""0""]","0","11","4244","2135","","","","","","","","","","","","","","","","","","",""
"pit-instructions","114","1010761","0.0-2.0-22.0-1.0","battery-v0.2","","""event"",""trial"",""time""
""fullscreenenter"",""1"",""6567""
","
","
","""event"",""trial"",""time""
""fullscreenenter"",""1"",""6567""
","
","","[{""page_index"":0,""viewing_time"":6583.700000047684}]","6584.299999952316","","","","","","","","","","","","","","","","","","","","","","","",""
"pit-comprehension","115","1025920","0.0-2.0-23.0-0.0","battery-v0.2","","""event"",""trial"",""time""
""fullscreenenter"",""1"",""6567""
","
","
","""event"",""trial"",""time""
""fullscreenenter"",""1"",""6567""
","
","","","15152.799999952316","[""True""]","0","11","4244","2135","","","","","","","","","","","","","","","","","","",""
"pit-instructions","116","1029157","0.0-2.0-23.0-1.0","battery-v0.2","","""event"",""trial"",""time""
""fullscreenenter"",""1"",""6567""
","
","
","""event"",""trial"",""time""
""fullscreenenter"",""1"",""6567""
","
","","[{""page_index"":0,""viewing_time"":3186.0999999046326}]","3187.0999999046326","","","","","","","","","","","","","","","","","","","","","","","",""
"pit-comprehension","117","1039873","0.0-2.0-24.0-0.0","battery-v0.2","","""event"",""trial"",""time""
""fullscreenenter"",""1"",""6567""
","
","
","""event"",""trial"",""time""
""fullscreenenter"",""1"",""6567""
","
","","","10710.100000143051","[""True""]","0","11","4244","2135","","","","","","","","","","","","","","","","","","",""
"pit-instructions","118","1045190","0.0-2.0-24.0-1.0","battery-v0.2","","""event"",""trial"",""time""
""fullscreenenter"",""1"",""6567""
","
","
","""event"",""trial"",""time""
""fullscreenenter"",""1"",""6567""
","
","","[{""page_index"":0,""viewing_time"":5263.700000047684}]","5264.400000095367","","","","","","","","","","","","","","","","","","","","","","","",""
"pit-comprehension","119","1056238","0.0-2.0-25.0-0.0","battery-v0.2","","""event"",""trial"",""time""
""fullscreenenter"",""1"",""6567""
","
","
","""event"",""trial"",""time""
""fullscreenenter"",""1"",""6567""
","
","","","11043.299999952316","[""True""]","0","11","4244","2135","","","","","","","","","","","","","","","","","","",""
"pit-instructions","120","1061673","0.0-2.0-25.0-1.0","battery-v0.2","","""event"",""trial"",""time""
""fullscreenenter"",""1"",""6567""
","
","
","""event"",""trial"",""time""
""fullscreenenter"",""1"",""6567""
","
","","[{""page_index"":0,""viewing_time"":5392.600000143051}]","5393.100000143051","","","","","","","","","","","","","","","","","","","","","","","",""
"pit-comprehension","121","1070416","0.0-2.0-26.0-0.0","battery-v0.2","","""event"",""trial"",""time""
""fullscreenenter"",""1"",""6567""
","
","
","""event"",""trial"",""time""
""fullscreenenter"",""1"",""6567""
","
","","","8739","[""False""]","0","11","4244","2135","","","","","","","","","","","","","","","","","","",""
"pit-instructions","122","1075154","0.0-2.0-26.0-1.0","battery-v0.2","","""event"",""trial"",""time""
""fullscreenenter"",""1"",""6567""
","
","
","""event"",""trial"",""time""
""fullscreenenter"",""1"",""6567""
","
","","[{""page_index"":0,""viewing_time"":4696.399999856949}]","4696.599999904633","","","","","","","","","","","","","","","","","","","","","","","",""
"pit-instructions","123","1093602","0.0-3.0","battery-v0.2","","""event"",""trial"",""time""
""fullscreenenter"",""1"",""6567""
","
","
","""event"",""trial"",""time""
""fullscreenenter"",""1"",""6567""
","
","","[{""page_index"":0,""viewing_time"":4680},{""page_index"":1,""viewing_time"":5673.900000095367},{""page_index"":2,""viewing_time"":8091.399999856949}]","18445.799999952316","","","","","","","","","","","","","","","","","","","","","","","",""
"pit-trial","124","1098477","0.0-4.0","battery-v0.2","","""event"",""trial"",""time""
""fullscreenenter"",""1"",""6567""
","
","
","""event"",""trial"",""time""
""fullscreenenter"",""1"",""6567""
","
","","","-1","","","11","4244","2135","&#9730;","elianto","#3366ff99"," ","-1","0","0","[3565.4000000953674]","1","1","","","4244","1","1","1","win","go","0"
"pit-trial","125","1103341","0.0-5.0","battery-v0.2","","""event"",""trial"",""time""
""fullscreenenter"",""1"",""6567""
","
","
","""event"",""trial"",""time""
""fullscreenenter"",""1"",""6567""
","
","","","-1","","","11","4244","2135","&#9728;","elianto","#f73b6a7A","-1","-1","1","0","[]","0","1","","","4244","2","0","4","lose","no-go","0"
"pit-trial","126","1106453","0.0-6.0","battery-v0.2","","""event"",""trial"",""time""
""fullscreenenter"",""1"",""6567""
","
","
","""event"",""trial"",""time""
""fullscreenenter"",""1"",""6567""
","
","","","253","","","11","4244","2135","&#9752;","elianto","#f73b6a7A"," "," ","1","0","[1105.2999999523163]","1","1","","","4244","3","3","3","lose","go","0"
"pit-trial","127","1110117","0.0-7.0","battery-v0.2","","""event"",""trial"",""time""
""fullscreenenter"",""1"",""6567""
","
","
","""event"",""trial"",""time""
""fullscreenenter"",""1"",""6567""
","
","","","806","","","11","4244","2135","&#9733;","elianto","#3366ff99","-1"," ","0","0","[1656]","1","1","","","4244","4","2","2","win","no-go","0"
"pit-trial","128","1113669","0.0-8.0","battery-v0.2","","""event"",""trial"",""time""
""fullscreenenter"",""1"",""6567""
","
","
","""event"",""trial"",""time""
""fullscreenenter"",""1"",""6567""
","
","","","691.1000001430511","","","11","4244","2135","&#9733;","elianto","#3366ff99","-1"," ","0","0","[1544.2000000476837]","1","1","","","4244","5","2","2","win","no-go","0"
"pit-trial","129","1118532","0.0-9.0","battery-v0.2","","""event"",""trial"",""time""
""fullscreenenter"",""1"",""6567""
","
","
","""event"",""trial"",""time""
""fullscreenenter"",""1"",""6567""
","
","","","-1","","","11","4244","2135","&#9730;","elianto","#3366ff99"," ","-1","0","0","[]","0","1","","","4244","6","1","1","win","go","0"
"pit-trial","130","1122244","0.0-10.0","battery-v0.2","","""event"",""trial"",""time""
""fullscreenenter"",""1"",""6567""
","
","
","""event"",""trial"",""time""
""fullscreenenter"",""1"",""6567""
","
","","","855.2999999523163","","","11","4244","2135","&#9728;","elianto","#f73b6a7A","-1"," ","0","-10","[1706.2000000476837]","1","1","","","4244","7","0","4","lose","no-go","0"
"pit-trial","131","1127122","0.0-11.0","battery-v0.2","","""event"",""trial"",""time""
""fullscreenenter"",""1"",""6567""
","
","
","""event"",""trial"",""time""
""fullscreenenter"",""1"",""6567""
","
","","","-1","","","11","4244","2135","&#9752;","elianto","#f73b6a7A"," ","-1","0","0","[]","0","1","","","4244","8","3","3","lose","go","1"
"pit-trial","132","1131994","0.0-12.0","battery-v0.2","","""event"",""trial"",""time""
""fullscreenenter"",""1"",""6567""
","
","
","""event"",""trial"",""time""
""fullscreenenter"",""1"",""6567""
","
","","","-1","","","11","4244","2135","&#9728;","elianto","#f73b6a7A","-1","-1","1","0","[]","0","1","","","4244","9","0","4","lose","no-go","0"
"pit-trial","133","1135670","0.0-13.0","battery-v0.2","","""event"",""trial"",""time""
""fullscreenenter"",""1"",""6567""
","
","
","""event"",""trial"",""time""
""fullscreenenter"",""1"",""6567""
","
","","","805.1000001430511","","","11","4244","2135","&#9730;","elianto","#3366ff99"," "," ","1","+10","[1666.7999999523163]","1","1","","","4244","10","1","1","win","go","0"
"pit-trial","134","1140545","0.0-14.0","battery-v0.2","","""event"",""trial"",""time""
""fullscreenenter"",""1"",""6567""
","
","
","""event"",""trial"",""time""
""fullscreenenter"",""1"",""6567""
","
","","","-1","","","11","4244","2135","&#9733;","elianto","#3366ff99","-1","-1","1","+10","[]","0","1","","","4244","11","2","2","win","no-go","0"
"pit-trial","135","1145419","0.0-15.0","battery-v0.2","","""event"",""trial"",""time""
""fullscreenenter"",""1"",""6567""
","
","
","""event"",""trial"",""time""
""fullscreenenter"",""1"",""6567""
","
","","","-1","","","11","4244","2135","&#9752;","elianto","#f73b6a7A"," ","-1","0","-10","[]","0","1","","","4244","12","3","3","lose","go","0"
"pit-trial","136","1148832","0.0-16.0","battery-v0.2","","""event"",""trial"",""time""
""fullscreenenter"",""1"",""6567""
","
","
","""event"",""trial"",""time""
""fullscreenenter"",""1"",""6567""
","
","","","549.9000000953674","","","11","4244","2135","&#9728;","elianto","#f73b6a7A","-1"," ","0","-10","[1403.7999999523163]","1","1","","","4244","13","0","4","lose","no-go","0"
"pit-trial","137","1153700","0.0-17.0","battery-v0.2","","""event"",""trial"",""time""
""fullscreenenter"",""1"",""6567""
","
","
","""event"",""trial"",""time""
""fullscreenenter"",""1"",""6567""
","
","","","-1","","","11","4244","2135","&#9730;","elianto","#3366ff99"," ","-1","0","0","[]","0","1","","","4244","14","1","1","win","go","0"
"pit-trial","138","1157571","0.0-18.0","battery-v0.2","","""event"",""trial"",""time""
""fullscreenenter"",""1"",""6567""
","
","
","""event"",""trial"",""time""
""fullscreenenter"",""1"",""6567""
","
","","","1004.7000000476837","","","11","4244","2135","&#9733;","elianto","#3366ff99","-1"," ","0","0","[1859.1000001430511]","1","1","","","4244","15","2","2","win","no-go","0"
"pit-trial","139","1162437","0.0-19.0","battery-v0.2","","""event"",""trial"",""time""
""fullscreenenter"",""1"",""6567""
","
","
","""event"",""trial"",""time""
""fullscreenenter"",""1"",""6567""
","
","","","-1","","","11","4244","2135","&#9752;","elianto","#f73b6a7A"," ","-1","0","-10","[]","0","1","","","4244","16","3","3","lose","go","0"
"pit-trial","140","1165800","0.0-20.0","battery-v0.2","","""event"",""trial"",""time""
""fullscreenenter"",""1"",""6567""
","
","
","""event"",""trial"",""time""
""fullscreenenter"",""1"",""6567""
","
","","","504.59999990463257","","","11","4244","2135","&#9728;","elianto","#f73b6a7A","-1"," ","0","-10","[1354.7000000476837]","1","1","","","4244","17","0","4","lose","no-go","0"
"pit-trial","141","1170663","0.0-21.0","battery-v0.2","","""event"",""trial"",""time""
""fullscreenenter"",""1"",""6567""
","
","
","""event"",""trial"",""time""
""fullscreenenter"",""1"",""6567""
","
","","","-1","","","11","4244","2135","&#9733;","elianto","#3366ff99","-1","-1","1","+10","[]","0","1","","","4244","18","2","2","win","no-go","0"
"pit-trial","142","1174208","0.0-22.0","battery-v0.2","","""event"",""trial"",""time""
""fullscreenenter"",""1"",""6567""
","
","
","""event"",""trial"",""time""
""fullscreenenter"",""1"",""6567""
","
","","","681.3999998569489","","","11","4244","2135","&#9730;","elianto","#3366ff99"," "," ","1","0","[1534.6999998092651]","1","1","","","4244","19","1","1","win","go","1"
"pit-trial","143","1179075","0.0-23.0","battery-v0.2","","""event"",""trial"",""time""
""fullscreenenter"",""1"",""6567""
","
","
","""event"",""trial"",""time""
""fullscreenenter"",""1"",""6567""
","
","","","-1","","","11","4244","2135","&#9752;","elianto","#f73b6a7A"," ","-1","0","-10","[4781.099999904633]","1","1","","","4244","20","3","3","lose","go","0"
"pit-instructions","144","1191823","0.0-24.0","battery-v0.2","","""event"",""trial"",""time""
""fullscreenenter"",""1"",""6567""
","
","
","""event"",""trial"",""time""
""fullscreenenter"",""1"",""6567""
","
","","[{""page_index"":0,""viewing_time"":6058.599999904633},{""page_index"":1,""viewing_time"":6687.5}]","12746.5","","","","","","","","","","","","","","","","","","","","","","","",""
"pit-trial","145","1196006","0.0-25.0","battery-v0.2","","""event"",""trial"",""time""
""fullscreenenter"",""1"",""6567""
","
","
","""event"",""trial"",""time""
""fullscreenenter"",""1"",""6567""
","
","","","1320.2000000476837","","","11","4244","2135","w","elianto","#f73b6a7A","-1"," ","0","-10","[2171.0999999046326]","1","2","","","4244","21","3","4","lose","no-go","0"
"pit-trial","146","1199854","0.0-26.0","battery-v0.2","","""event"",""trial"",""time""
""fullscreenenter"",""1"",""6567""
","
","
","""event"",""trial"",""time""
""fullscreenenter"",""1"",""6567""
","
","","","988.7999999523163","","","11","4244","2135","d","elianto","#3366ff99","-1"," ","0","0","[1841.7999999523163]","1","2","","","4244","22","1","2","win","no-go","0"
"pit-trial","147","1203957","0.0-27.0","battery-v0.2","","""event"",""trial"",""time""
""fullscreenenter"",""1"",""6567""
","
","
","""event"",""trial"",""time""
""fullscreenenter"",""1"",""6567""
","
","","","1247.2999999523163","","","11","4244","2135","e","elianto","#f73b6a7A"," "," ","1","0","[2097.399999856949]","1","2","","","4244","23","2","3","lose","go","0"
"pit-trial","148","1208407","0.0-28.0","battery-v0.2","","""event"",""trial"",""time""
""fullscreenenter"",""1"",""6567""
","
","
","""event"",""trial"",""time""
""fullscreenenter"",""1"",""6567""
","
","","","1583.5999999046326","","","11","4244","2135","j","elianto","#f73b6a7A"," "," ","1","0","[2437.5]","1","2","","","4244","24","0","3","lose","go","0"
"pit-trial","149","1212982","0.0-29.0","battery-v0.2","","""event"",""trial"",""time""
""fullscreenenter"",""1"",""6567""
","
","
","""event"",""trial"",""time""
""fullscreenenter"",""1"",""6567""
","
","","","1713.8000001907349","","","11","4244","2135","w","elianto","#f73b6a7A","-1"," ","0","0","[2566.7000000476837]","1","2","","","4244","25","3","4","lose","no-go","1"
"pit-trial","150","1217342","0.0-30.0","battery-v0.2","","""event"",""trial"",""time""
""fullscreenenter"",""1"",""6567""
","
","
","""event"",""trial"",""time""
""fullscreenenter"",""1"",""6567""
","
","","","1496.7000000476837","","","11","4244","2135","d","elianto","#3366ff99","-1"," ","0","+10","[2350]","1","2","","","4244","26","1","2","win","no-go","1"
"pit-trial","151","1222208","0.0-31.0","battery-v0.2","","""event"",""trial"",""time""
""fullscreenenter"",""1"",""6567""
","
","
","""event"",""trial"",""time""
""fullscreenenter"",""1"",""6567""
","
","","","-1","","","11","4244","2135","e","elianto","#f73b6a7A"," ","-1","0","-10","[]","0","2","","","4244","27","2","3","lose","go","0"
"pit-trial","152","1226316","0.0-32.0","battery-v0.2","","""event"",""trial"",""time""
""fullscreenenter"",""1"",""6567""
","
","
","""event"",""trial"",""time""
""fullscreenenter"",""1"",""6567""
","
","","","1235.4000000953674","","","11","4244","2135","j","elianto","#f73b6a7A"," "," ","1","0","[2093.0999999046326]","1","2","","","4244","28","0","3","lose","go","0"
"pit-trial","153","1230143","0.0-33.0","battery-v0.2","","""event"",""trial"",""time""
""fullscreenenter"",""1"",""6567""
","
","
","""event"",""trial"",""time""
""fullscreenenter"",""1"",""6567""
","
","","","965.2999999523163","","","11","4244","2135","j","elianto","#f73b6a7A"," "," ","1","0","[1817.2000000476837]","1","2","","","4244","29","0","3","lose","go","0"
"pit-trial","154","1235020","0.0-34.0","battery-v0.2","","""event"",""trial"",""time""
""fullscreenenter"",""1"",""6567""
","
","
","""event"",""trial"",""time""
""fullscreenenter"",""1"",""6567""
","
","","","-1","","","11","4244","2135","e","elianto","#f73b6a7A"," ","-1","0","-10","[]","0","2","","","4244","30","2","3","lose","go","0"
"pit-trial","155","1239046","0.0-35.0","battery-v0.2","","""event"",""trial"",""time""
""fullscreenenter"",""1"",""6567""
","
","
","""event"",""trial"",""time""
""fullscreenenter"",""1"",""6567""
","
","","","1165.5","","","11","4244","2135","w","elianto","#f73b6a7A","-1"," ","0","-10","[2020.2000000476837]","1","2","","","4244","31","3","4","lose","no-go","0"
"pit-trial","156","1243590","0.0-36.0","battery-v0.2","","""event"",""trial"",""time""
""fullscreenenter"",""1"",""6567""
","
","
","""event"",""trial"",""time""
""fullscreenenter"",""1"",""6567""
","
","","","1671.1999998092651","","","11","4244","2135","d","elianto","#3366ff99","-1"," ","0","0","[2532.4000000953674]","1","2","","","4244","32","1","2","win","no-go","0"
"pit-trial","157","1247924","0.0-37.0","battery-v0.2","","""event"",""trial"",""time""
""fullscreenenter"",""1"",""6567""
","
","
","""event"",""trial"",""time""
""fullscreenenter"",""1"",""6567""
","
","","","1470.7000000476837","","","11","4244","2135","w","elianto","#f73b6a7A","-1"," ","0","0","[2327.399999856949]","1","2","","","4244","33","3","4","lose","no-go","1"
"pit-trial","158","1252433","0.0-38.0","battery-v0.2","","""event"",""trial"",""time""
""fullscreenenter"",""1"",""6567""
","
","
","""event"",""trial"",""time""
""fullscreenenter"",""1"",""6567""
","
","","","1627.7999999523163","","","11","4244","2135","j","elianto","#f73b6a7A"," "," ","1","0","[2493.2000000476837]","1","2","","","4244","34","0","3","lose","go","0"
"pit-trial","159","1257301","0.0-39.0","battery-v0.2","","""event"",""trial"",""time""
""fullscreenenter"",""1"",""6567""
","
","
","""event"",""trial"",""time""
""fullscreenenter"",""1"",""6567""
","
","","","-1","","","11","4244","2135","e","elianto","#f73b6a7A"," ","-1","0","-10","[]","0","2","","","4244","35","2","3","lose","go","0"
"pit-trial","160","1261009","0.0-40.0","battery-v0.2","","""event"",""trial"",""time""
""fullscreenenter"",""1"",""6567""
","
","
","""event"",""trial"",""time""
""fullscreenenter"",""1"",""6567""
","
","","","837.2999999523163","","","11","4244","2135","d","elianto","#3366ff99","-1"," ","0","0","[1696.2000000476837]","1","2","","","4244","36","1","2","win","no-go","0"
"pit-trial","161","1265352","0.0-41.0","battery-v0.2","","""event"",""trial"",""time""
""fullscreenenter"",""1"",""6567""
","
","
","""event"",""trial"",""time""
""fullscreenenter"",""1"",""6567""
","
","","","1480.1999998092651","","","11","4244","2135","e","elianto","#f73b6a7A"," "," ","1","0","[2330.899999856949]","1","2","","","4244","37","2","3","lose","go","0"
"pit-trial","162","1270229","0.0-42.0","battery-v0.2","","""event"",""trial"",""time""
""fullscreenenter"",""1"",""6567""
","
","
","""event"",""trial"",""time""
""fullscreenenter"",""1"",""6567""
","
","","","-1","","","11","4244","2135","w","elianto","#f73b6a7A","-1","-1","1","-10","[3110.2000000476837]","1","2","","","4244","38","3","4","lose","no-go","1"
"pit-trial","163","1275094","0.0-43.0","battery-v0.2","","""event"",""trial"",""time""
""fullscreenenter"",""1"",""6567""
","
","
","""event"",""trial"",""time""
""fullscreenenter"",""1"",""6567""
","
","","","-1","","","11","4244","2135","d","elianto","#3366ff99","-1","-1","1","+10","[]","0","2","","","4244","39","1","2","win","no-go","0"
"pit-trial","164","1278491","0.0-44.0","battery-v0.2","","""event"",""trial"",""time""
""fullscreenenter"",""1"",""6567""
","
","
","""event"",""trial"",""time""
""fullscreenenter"",""1"",""6567""
","
","","","540.5999999046326","","","11","4244","2135","j","elianto","#f73b6a7A"," "," ","1","-10","[1393.7999999523163]","1","2","","","4244","40","0","3","lose","go","1"
"pit-trial","165","1283366","0.0-45.0","battery-v0.2","","""event"",""trial"",""time""
""fullscreenenter"",""1"",""6567""
","
","
","""event"",""trial"",""time""
""fullscreenenter"",""1"",""6567""
","
","","","-1","","","11","4244","2135","j","elianto","#f73b6a7A"," ","-1","0","-10","[]","0","2","","","4244","41","0","3","lose","go","0"
"pit-trial","166","1286848","0.0-46.0","battery-v0.2","","""event"",""trial"",""time""
""fullscreenenter"",""1"",""6567""
","
","
","""event"",""trial"",""time""
""fullscreenenter"",""1"",""6567""
","
","","","613.2999999523163","","","11","4244","2135","e","elianto","#f73b6a7A"," "," ","1","0","[844.7999999523163,1469.5]","2","2","","","4244","42","2","3","lose","go","0"
"pit-trial","167","1291595","0.0-47.0","battery-v0.2","","""event"",""trial"",""time""
""fullscreenenter"",""1"",""6567""
","
","
","""event"",""trial"",""time""
""fullscreenenter"",""1"",""6567""
","
","","","1877.4000000953674","","","11","4244","2135","w","elianto","#f73b6a7A","-1"," ","0","-10","[2735.7999999523163]","1","2","","","4244","43","3","4","lose","no-go","0"
"pit-trial","168","1295632","0.0-48.0","battery-v0.2","","""event"",""trial"",""time""
""fullscreenenter"",""1"",""6567""
","
","
","""event"",""trial"",""time""
""fullscreenenter"",""1"",""6567""
","
","","","1163","","","11","4244","2135","d","elianto","#3366ff99","-1"," ","0","0","[2017.0999999046326]","1","2","","","4244","44","1","2","win","no-go","0"
"pit-trial","169","1300510","0.0-49.0","battery-v0.2","","""event"",""trial"",""time""
""fullscreenenter"",""1"",""6567""
","
","
","""event"",""trial"",""time""
""fullscreenenter"",""1"",""6567""
","
","","","-1","","","11","4244","2135","d","elianto","#3366ff99","-1","-1","1","+10","[]","0","2","","","4244","45","1","2","win","no-go","0"
"pit-trial","170","1305387","0.0-50.0","battery-v0.2","","""event"",""trial"",""time""
""fullscreenenter"",""1"",""6567""
","
","
","""event"",""trial"",""time""
""fullscreenenter"",""1"",""6567""
","
","","","-1","","","11","4244","2135","j","elianto","#f73b6a7A"," ","-1","0","-10","[2960.2000000476837]","1","2","","","4244","46","0","3","lose","go","0"
"pit-trial","171","1309357","0.0-51.0","battery-v0.2","","""event"",""trial"",""time""
""fullscreenenter"",""1"",""6567""
","
","
","""event"",""trial"",""time""
""fullscreenenter"",""1"",""6567""
","
","","","1097.2000000476837","","","11","4244","2135","w","elianto","#f73b6a7A","-1"," ","0","-10","[1952.2000000476837]","1","2","","","4244","47","3","4","lose","no-go","0"
"pit-trial","172","1313020","0.0-52.0","battery-v0.2","","""event"",""trial"",""time""
""fullscreenenter"",""1"",""6567""
","
","
","""event"",""trial"",""time""
""fullscreenenter"",""1"",""6567""
","
","","","788","","","11","4244","2135","e","elianto","#f73b6a7A"," "," ","1","0","[1647.8999998569489]","1","2","","","4244","48","2","3","lose","go","0"
"pit-trial","173","1316677","0.0-53.0","battery-v0.2","","""event"",""trial"",""time""
""fullscreenenter"",""1"",""6567""
","
","
","""event"",""trial"",""time""
""fullscreenenter"",""1"",""6567""
","
","","","785.0999999046326","","","11","4244","2135","e","elianto","#f73b6a7A"," "," ","1","0","[1637]","1","2","","","4244","49","2","3","lose","go","0"
"pit-trial","174","1320767","0.0-54.0","battery-v0.2","","""event"",""trial"",""time""
""fullscreenenter"",""1"",""6567""
","
","
","""event"",""trial"",""time""
""fullscreenenter"",""1"",""6567""
","
","","","1222.5","","","11","4244","2135","d","elianto","#3366ff99","-1"," ","0","0","[2079.7000000476837]","1","2","","","4244","50","1","2","win","no-go","0"
"pit-trial","175","1325642","0.0-55.0","battery-v0.2","","""event"",""trial"",""time""
""fullscreenenter"",""1"",""6567""
","
","
","""event"",""trial"",""time""
""fullscreenenter"",""1"",""6567""
","
","","","-1","","","11","4244","2135","j","elianto","#f73b6a7A"," ","-1","0","-10","[4053.7999999523163]","1","2","","","4244","51","0","3","lose","go","0"
"pit-trial","176","1329773","0.0-56.0","battery-v0.2","","""event"",""trial"",""time""
""fullscreenenter"",""1"",""6567""
","
","
","""event"",""trial"",""time""
""fullscreenenter"",""1"",""6567""
","
","","","1262.4000000953674","","","11","4244","2135","w","elianto","#f73b6a7A","-1"," ","0","-10","[2117.300000190735]","1","2","","","4244","52","3","4","lose","no-go","0"
"pit-trial","177","1333646","0.0-57.0","battery-v0.2","","""event"",""trial"",""time""
""fullscreenenter"",""1"",""6567""
","
","
","""event"",""trial"",""time""
""fullscreenenter"",""1"",""6567""
","
","","","1009.4000000953674","","","11","4244","2135","d","elianto","#3366ff99","-1"," ","0","0","[1861.2999999523163]","1","2","","","4244","53","1","2","win","no-go","0"
"pit-trial","178","1338514","0.0-58.0","battery-v0.2","","""event"",""trial"",""time""
""fullscreenenter"",""1"",""6567""
","
","
","""event"",""trial"",""time""
""fullscreenenter"",""1"",""6567""
","
","","","-1","","","11","4244","2135","j","elianto","#f73b6a7A"," ","-1","0","-10","[]","0","2","","","4244","54","0","3","lose","go","0"
"pit-trial","179","1343077","0.0-59.0","battery-v0.2","","""event"",""trial"",""time""
""fullscreenenter"",""1"",""6567""
","
","
","""event"",""trial"",""time""
""fullscreenenter"",""1"",""6567""
","
","","","1699.7000000476837","","","11","4244","2135","e","elianto","#f73b6a7A"," "," ","1","0","[2552.199999809265]","1","2","","","4244","55","2","3","lose","go","0"
"pit-trial","180","1346871","0.0-60.0","battery-v0.2","","""event"",""trial"",""time""
""fullscreenenter"",""1"",""6567""
","
","
","""event"",""trial"",""time""
""fullscreenenter"",""1"",""6567""
","
","","","930.5","","","11","4244","2135","w","elianto","#f73b6a7A","-1"," ","0","-10","[1784.2000000476837]","1","2","","","4244","56","3","4","lose","no-go","0"
"pit-trial","181","1350873","0.0-61.0","battery-v0.2","","""event"",""trial"",""time""
""fullscreenenter"",""1"",""6567""
","
","
","""event"",""trial"",""time""
""fullscreenenter"",""1"",""6567""
","
","","","1137.2000000476837","","","11","4244","2135","e","elianto","#f73b6a7A"," "," ","1","0","[1988]","1","2","","","4244","57","2","3","lose","go","0"
"pit-trial","182","1355031","0.0-62.0","battery-v0.2","","""event"",""trial"",""time""
""fullscreenenter"",""1"",""6567""
","
","
","""event"",""trial"",""time""
""fullscreenenter"",""1"",""6567""
","
","","","1293.2999999523163","","","11","4244","2135","w","elianto","#f73b6a7A","-1"," ","0","-10","[2145.899999856949]","1","2","","","4244","58","3","4","lose","no-go","0"
"pit-trial","183","1358781","0.0-63.0","battery-v0.2","","""event"",""trial"",""time""
""fullscreenenter"",""1"",""6567""
","
","
","""event"",""trial"",""time""
""fullscreenenter"",""1"",""6567""
","
","","","875.5","","","11","4244","2135","s","elianto","#3366ff99"," "," ","1","0","[1737.1999998092651]","1","2","","","4244","59","4","1","win","go","1"
"pit-trial","184","1363644","0.0-64.0","battery-v0.2","","""event"",""trial"",""time""
""fullscreenenter"",""1"",""6567""
","
","
","""event"",""trial"",""time""
""fullscreenenter"",""1"",""6567""
","
","","","-1","","","11","4244","2135","j","elianto","#f73b6a7A"," ","-1","0","-10","[]","0","2","","","4244","60","0","3","lose","go","0"
"pit-trial","185","1366916","0.0-65.0","battery-v0.2","","""event"",""trial"",""time""
""fullscreenenter"",""1"",""6567""
","
","
","""event"",""trial"",""time""
""fullscreenenter"",""1"",""6567""
","
","","","404.7000000476837","","","11","4244","2135","s","elianto","#3366ff99"," "," ","1","+10","[1263.7999999523163]","1","2","","","4244","61","4","1","win","go","0"
"pit-trial","186","1371792","0.0-66.0","battery-v0.2","","""event"",""trial"",""time""
""fullscreenenter"",""1"",""6567""
","
","
","""event"",""trial"",""time""
""fullscreenenter"",""1"",""6567""
","
","","","-1","","","11","4244","2135","e","elianto","#f73b6a7A"," ","-1","0","-10","[3100.5]","1","2","","","4244","62","2","3","lose","go","0"
"pit-trial","187","1375483","0.0-67.0","battery-v0.2","","""event"",""trial"",""time""
""fullscreenenter"",""1"",""6567""
","
","
","""event"",""trial"",""time""
""fullscreenenter"",""1"",""6567""
","
","","","825.8999998569489","","","11","4244","2135","d","elianto","#3366ff99","-1"," ","0","0","[1684.3000001907349]","1","2","","","4244","63","1","2","win","no-go","0"
"pit-trial","188","1379642","0.0-68.0","battery-v0.2","","""event"",""trial"",""time""
""fullscreenenter"",""1"",""6567""
","
","
","""event"",""trial"",""time""
""fullscreenenter"",""1"",""6567""
","
","","","1292.5999999046326","","","11","4244","2135","w","elianto","#f73b6a7A","-1"," ","0","-10","[2146.399999856949]","1","2","","","4244","64","3","4","lose","no-go","0"
"pit-trial","189","1383901","0.0-69.0","battery-v0.2","","""event"",""trial"",""time""
""fullscreenenter"",""1"",""6567""
","
","
","""event"",""trial"",""time""
""fullscreenenter"",""1"",""6567""
","
","","","1386","","","11","4244","2135","p","elianto","#3366ff99","-1"," ","0","0","[2246.100000143051]","1","2","","","4244","65","5","2","win","no-go","0"
"pit-trial","190","1388774","0.0-70.0","battery-v0.2","","""event"",""trial"",""time""
""fullscreenenter"",""1"",""6567""
","
","
","""event"",""trial"",""time""
""fullscreenenter"",""1"",""6567""
","
","","","-1","","","11","4244","2135","s","elianto","#3366ff99"," ","-1","0","0","[3617.399999856949]","1","2","","","4244","66","4","1","win","go","0"
"pit-trial","191","1393136","0.0-71.0","battery-v0.2","","""event"",""trial"",""time""
""fullscreenenter"",""1"",""6567""
","
","
","""event"",""trial"",""time""
""fullscreenenter"",""1"",""6567""
","
","","","1492.6999998092651","","","11","4244","2135","d","elianto","#3366ff99","-1"," ","0","0","[2350.699999809265]","1","2","","","4244","67","1","2","win","no-go","0"
"pit-trial","192","1397054","0.0-72.0","battery-v0.2","","""event"",""trial"",""time""
""fullscreenenter"",""1"",""6567""
","
","
","""event"",""trial"",""time""
""fullscreenenter"",""1"",""6567""
","
","","","1056.8999998569489","","","11","4244","2135","w","elianto","#f73b6a7A","-1"," ","0","-10","[1908]","1","2","","","4244","68","3","4","lose","no-go","0"
"pit-trial","193","1401520","0.0-73.0","battery-v0.2","","""event"",""trial"",""time""
""fullscreenenter"",""1"",""6567""
","
","
","""event"",""trial"",""time""
""fullscreenenter"",""1"",""6567""
","
","","","1603.7999999523163","","","11","4244","2135","e","elianto","#f73b6a7A"," "," ","1","-10","[2456.4000000953674]","1","2","","","4244","69","2","3","lose","go","1"
"pit-trial","194","1406391","0.0-74.0","battery-v0.2","","""event"",""trial"",""time""
""fullscreenenter"",""1"",""6567""
","
","
","""event"",""trial"",""time""
""fullscreenenter"",""1"",""6567""
","
","","","-1","","","11","4244","2135","s","elianto","#3366ff99"," ","-1","0","0","[4801]","1","2","","","4244","70","4","1","win","go","0"
"pit-trial","195","1411261","0.0-75.0","battery-v0.2","","""event"",""trial"",""time""
""fullscreenenter"",""1"",""6567""
","
","
","""event"",""trial"",""time""
""fullscreenenter"",""1"",""6567""
","
","","","-1","","","11","4244","2135","p","elianto","#3366ff99","-1","-1","1","+10","[]","0","2","","","4244","71","5","2","win","no-go","0"
"pit-trial","196","1415006","0.0-76.0","battery-v0.2","","""event"",""trial"",""time""
""fullscreenenter"",""1"",""6567""
","
","
","""event"",""trial"",""time""
""fullscreenenter"",""1"",""6567""
","
","","","880.5","","","11","4244","2135","d","elianto","#3366ff99","-1"," ","0","0","[1733.2999999523163]","1","2","","","4244","72","1","2","win","no-go","0"
"pit-trial","197","1419891","0.0-77.0","battery-v0.2","","""event"",""trial"",""time""
""fullscreenenter"",""1"",""6567""
","
","
","""event"",""trial"",""time""
""fullscreenenter"",""1"",""6567""
","
","","","-1","","","11","4244","2135","d","elianto","#3366ff99","-1","-1","1","+10","[]","0","2","","","4244","73","1","2","win","no-go","0"
"pit-trial","198","1423805","0.0-78.0","battery-v0.2","","""event"",""trial"",""time""
""fullscreenenter"",""1"",""6567""
","
","
","""event"",""trial"",""time""
""fullscreenenter"",""1"",""6567""
","
","","","1055.5","","","11","4244","2135","w","elianto","#f73b6a7A","-1"," ","0","-10","[1908.1000001430511]","1","2","","","4244","74","3","4","lose","no-go","0"
"pit-trial","199","1428690","0.0-79.0","battery-v0.2","","""event"",""trial"",""time""
""fullscreenenter"",""1"",""6567""
","
","
","""event"",""trial"",""time""
""fullscreenenter"",""1"",""6567""
","
","","","-1","","","11","4244","2135","s","elianto","#3366ff99"," ","-1","0","+10","[]","0","2","","","4244","75","4","1","win","go","1"
"pit-trial","200","1433235","0.0-80.0","battery-v0.2","","""event"",""trial"",""time""
""fullscreenenter"",""1"",""6567""
","
","
","""event"",""trial"",""time""
""fullscreenenter"",""1"",""6567""
","
","","","1678.5","","","11","4244","2135","p","elianto","#3366ff99","-1"," ","0","0","[2537.0999999046326]","1","2","","","4244","76","5","2","win","no-go","0"
"pit-trial","201","1438101","0.0-81.0","battery-v0.2","","""event"",""trial"",""time""
""fullscreenenter"",""1"",""6567""
","
","
","""event"",""trial"",""time""
""fullscreenenter"",""1"",""6567""
","
","","","-1","","","11","4244","2135","w","elianto","#f73b6a7A","-1","-1","1","0","[]","0","2","","","4244","77","3","4","lose","no-go","0"
"pit-trial","202","1442143","0.0-82.0","battery-v0.2","","""event"",""trial"",""time""
""fullscreenenter"",""1"",""6567""
","
","
","""event"",""trial"",""time""
""fullscreenenter"",""1"",""6567""
","
","","","1185.5","","","11","4244","2135","p","elianto","#3366ff99","-1"," ","0","0","[2037.0999999046326]","1","2","","","4244","78","5","2","win","no-go","0"
"pit-trial","203","1446840","0.0-83.0","battery-v0.2","","""event"",""trial"",""time""
""fullscreenenter"",""1"",""6567""
","
","
","""event"",""trial"",""time""
""fullscreenenter"",""1"",""6567""
","
","","","1829.3999998569489","","","11","4244","2135","s","elianto","#3366ff99"," "," ","1","+10","[2683.7999999523163]","1","2","","","4244","79","4","1","win","go","0"
"pit-trial","204","1450419","0.0-84.0","battery-v0.2","","""event"",""trial"",""time""
""fullscreenenter"",""1"",""6567""
","
","
","""event"",""trial"",""time""
""fullscreenenter"",""1"",""6567""
","
","","","719.9000000953674","","","11","4244","2135","s","elianto","#3366ff99"," "," ","1","+10","[1573.9000000953674]","1","2","","","4244","80","4","1","win","go","0"
"pit-trial","205","1455284","0.0-85.0","battery-v0.2","","""event"",""trial"",""time""
""fullscreenenter"",""1"",""6567""
","
","
","""event"",""trial"",""time""
""fullscreenenter"",""1"",""6567""
","
","","","-1","","","11","4244","2135","w","elianto","#f73b6a7A","-1","-1","1","-10","[]","0","2","","","4244","81","3","4","lose","no-go","1"
"pit-trial","206","1459553","0.0-86.0","battery-v0.2","","""event"",""trial"",""time""
""fullscreenenter"",""1"",""6567""
","
","
","""event"",""trial"",""time""
""fullscreenenter"",""1"",""6567""
","
","","","1399.8999998569489","","","11","4244","2135","a","elianto","#f73b6a7A","-1"," ","0","-10","[2258.5]","1","2","","","4244","82","7","4","lose","no-go","0"
"pit-trial","207","1463219","0.0-87.0","battery-v0.2","","""event"",""trial"",""time""
""fullscreenenter"",""1"",""6567""
","
","
","""event"",""trial"",""time""
""fullscreenenter"",""1"",""6567""
","
","","","797.8999998569489","","","11","4244","2135","s","elianto","#3366ff99"," "," ","1","+10","[1657.5]","1","2","","","4244","83","4","1","win","go","0"
"pit-trial","208","1468086","0.0-88.0","battery-v0.2","","""event"",""trial"",""time""
""fullscreenenter"",""1"",""6567""
","
","
","""event"",""trial"",""time""
""fullscreenenter"",""1"",""6567""
","
","","","-1","","","11","4244","2135","p","elianto","#3366ff99","-1","-1","1","0","[]","0","2","","","4244","84","5","2","win","no-go","1"
"pit-trial","209","1472449","0.0-89.0","battery-v0.2","","""event"",""trial"",""time""
""fullscreenenter"",""1"",""6567""
","
","
","""event"",""trial"",""time""
""fullscreenenter"",""1"",""6567""
","
","","","1497.7000000476837","","","11","4244","2135","p","elianto","#3366ff99","-1"," ","0","0","[2348.2000000476837]","1","2","","","4244","85","5","2","win","no-go","0"
"pit-trial","210","1477326","0.0-90.0","battery-v0.2","","""event"",""trial"",""time""
""fullscreenenter"",""1"",""6567""
","
","
","""event"",""trial"",""time""
""fullscreenenter"",""1"",""6567""
","
","","","-1","","","11","4244","2135","a","elianto","#f73b6a7A","-1","-1","1","-10","[]","0","2","","","4244","86","7","4","lose","no-go","1"
"pit-trial","211","1481170","0.0-91.0","battery-v0.2","","""event"",""trial"",""time""
""fullscreenenter"",""1"",""6567""
","
","
","""event"",""trial"",""time""
""fullscreenenter"",""1"",""6567""
","
","","","985","","","11","4244","2135","s","elianto","#3366ff99"," "," ","1","+10","[1839.6000001430511]","1","2","","","4244","87","4","1","win","go","0"
"pit-trial","212","1485951","0.0-92.0","battery-v0.2","","""event"",""trial"",""time""
""fullscreenenter"",""1"",""6567""
","
","
","""event"",""trial"",""time""
""fullscreenenter"",""1"",""6567""
","
","","","1910","","","11","4244","2135","g","elianto","#f73b6a7A"," "," ","1","0","[2768.399999856949]","1","2","","","4244","88","6","3","lose","go","0"
"pit-trial","213","1490446","0.0-93.0","battery-v0.2","","""event"",""trial"",""time""
""fullscreenenter"",""1"",""6567""
","
","
","""event"",""trial"",""time""
""fullscreenenter"",""1"",""6567""
","
","","","1624.6999998092651","","","11","4244","2135","a","elianto","#f73b6a7A","-1"," ","0","-10","[2482.0999999046326]","1","2","","","4244","89","7","4","lose","no-go","0"
"pit-trial","214","1495310","0.0-94.0","battery-v0.2","","""event"",""trial"",""time""
""fullscreenenter"",""1"",""6567""
","
","
","""event"",""trial"",""time""
""fullscreenenter"",""1"",""6567""
","
","","","-1","","","11","4244","2135","s","elianto","#3366ff99"," ","-1","0","0","[]","0","2","","","4244","90","4","1","win","go","0"
"pit-trial","215","1498881","0.0-95.0","battery-v0.2","","""event"",""trial"",""time""
""fullscreenenter"",""1"",""6567""
","
","
","""event"",""trial"",""time""
""fullscreenenter"",""1"",""6567""
","
","","","695.2999999523163","","","11","4244","2135","g","elianto","#f73b6a7A"," "," ","1","0","[422.90000009536743,1556.7000000476837]","2","2","","","4244","91","6","3","lose","go","0"
"pit-trial","216","1502783","0.0-96.0","battery-v0.2","","""event"",""trial"",""time""
""fullscreenenter"",""1"",""6567""
","
","
","""event"",""trial"",""time""
""fullscreenenter"",""1"",""6567""
","
","","","1030.7000000476837","","","11","4244","2135","p","elianto","#3366ff99","-1"," ","0","+10","[1890.2000000476837]","1","2","","","4244","92","5","2","win","no-go","1"
"pit-trial","217","1507654","0.0-97.0","battery-v0.2","","""event"",""trial"",""time""
""fullscreenenter"",""1"",""6567""
","
","
","""event"",""trial"",""time""
""fullscreenenter"",""1"",""6567""
","
","","","-1","","","11","4244","2135","g","elianto","#f73b6a7A"," ","-1","0","-10","[]","0","2","","","4244","93","6","3","lose","go","0"
"pit-trial","218","1512525","0.0-98.0","battery-v0.2","","""event"",""trial"",""time""
""fullscreenenter"",""1"",""6567""
","
","
","""event"",""trial"",""time""
""fullscreenenter"",""1"",""6567""
","
","","","-1","","","11","4244","2135","p","elianto","#3366ff99","-1","-1","1","+10","[]","0","2","","","4244","94","5","2","win","no-go","0"
"pit-trial","219","1515856","0.0-99.0","battery-v0.2","","""event"",""trial"",""time""
""fullscreenenter"",""1"",""6567""
","
","
","""event"",""trial"",""time""
""fullscreenenter"",""1"",""6567""
","
","","","463.7000000476837","","","11","4244","2135","a","elianto","#f73b6a7A","-1"," ","0","-10","[1318.2999999523163]","1","2","","","4244","95","7","4","lose","no-go","0"
"pit-trial","220","1520583","0.0-100.0","battery-v0.2","","""event"",""trial"",""time""
""fullscreenenter"",""1"",""6567""
","
","
","""event"",""trial"",""time""
""fullscreenenter"",""1"",""6567""
","
","","","1859.8999998569489","","","11","4244","2135","l","elianto","#3366ff99"," "," ","1","+10","[2716.0999999046326]","1","2","","","4244","96","8","1","win","go","0"
"pit-trial","221","1525450","0.0-101.0","battery-v0.2","","""event"",""trial"",""time""
""fullscreenenter"",""1"",""6567""
","
","
","""event"",""trial"",""time""
""fullscreenenter"",""1"",""6567""
","
","","","-1","","","11","4244","2135","l","elianto","#3366ff99"," ","-1","0","+10","[2931]","1","2","","","4244","97","8","1","win","go","1"
"pit-trial","222","1530316","0.0-102.0","battery-v0.2","","""event"",""trial"",""time""
""fullscreenenter"",""1"",""6567""
","
","
","""event"",""trial"",""time""
""fullscreenenter"",""1"",""6567""
","
","","","-1","","","11","4244","2135","a","elianto","#f73b6a7A","-1","-1","1","-10","[]","0","2","","","4244","98","7","4","lose","no-go","1"
"pit-trial","223","1534411","0.0-103.0","battery-v0.2","","""event"",""trial"",""time""
""fullscreenenter"",""1"",""6567""
","
","
","""event"",""trial"",""time""
""fullscreenenter"",""1"",""6567""
","
","","","1227.4000000953674","","","11","4244","2135","g","elianto","#f73b6a7A"," "," ","1","-10","[2079.7999999523163]","1","2","","","4244","99","6","3","lose","go","1"
"pit-trial","224","1539286","0.0-104.0","battery-v0.2","","""event"",""trial"",""time""
""fullscreenenter"",""1"",""6567""
","
","
","""event"",""trial"",""time""
""fullscreenenter"",""1"",""6567""
","
","","","-1","","","11","4244","2135","p","elianto","#3366ff99","-1","-1","1","+10","[]","0","2","","","4244","100","5","2","win","no-go","0"
"pit-trial","225","1543379","0.0-105.0","battery-v0.2","","""event"",""trial"",""time""
""fullscreenenter"",""1"",""6567""
","
","
","""event"",""trial"",""time""
""fullscreenenter"",""1"",""6567""
","
","","","1224.9000000953674","","","11","4244","2135","p","elianto","#3366ff99","-1"," ","0","0","[2079.7000000476837]","1","2","","","4244","101","5","2","win","no-go","0"
"pit-trial","226","1548247","0.0-106.0","battery-v0.2","","""event"",""trial"",""time""
""fullscreenenter"",""1"",""6567""
","
","
","""event"",""trial"",""time""
""fullscreenenter"",""1"",""6567""
","
","","","-1","","","11","4244","2135","a","elianto","#f73b6a7A","-1","-1","1","0","[]","0","2","","","4244","102","7","4","lose","no-go","0"
"pit-trial","227","1552108","0.0-107.0","battery-v0.2","","""event"",""trial"",""time""
""fullscreenenter"",""1"",""6567""
","
","
","""event"",""trial"",""time""
""fullscreenenter"",""1"",""6567""
","
","","","997","","","11","4244","2135","l","elianto","#3366ff99"," "," ","1","+10","[1847.6000001430511]","1","2","","","4244","103","8","1","win","go","0"
"pit-trial","228","1555180","0.0-108.0","battery-v0.2","","""event"",""trial"",""time""
""fullscreenenter"",""1"",""6567""
","
","
","""event"",""trial"",""time""
""fullscreenenter"",""1"",""6567""
","
","","","206.89999985694885","","","11","4244","2135","u","elianto","#3366ff99"," "," ","1","+10","[1060.2999999523163]","1","2","","","4244","104","9","1","win","go","0"
"pit-trial","229","1560046","0.0-109.0","battery-v0.2","","""event"",""trial"",""time""
""fullscreenenter"",""1"",""6567""
","
","
","""event"",""trial"",""time""
""fullscreenenter"",""1"",""6567""
","
","","","-1","","","11","4244","2135","s","elianto","#3366ff99"," ","-1","0","0","[]","0","2","","","4244","105","4","1","win","go","0"
"pit-trial","230","1564914","0.0-110.0","battery-v0.2","","""event"",""trial"",""time""
""fullscreenenter"",""1"",""6567""
","
","
","""event"",""trial"",""time""
""fullscreenenter"",""1"",""6567""
","
","","","-1","","","11","4244","2135","g","elianto","#f73b6a7A"," ","-1","0","-10","[]","0","2","","","4244","106","6","3","lose","go","0"
"pit-trial","231","1568434","0.0-111.0","battery-v0.2","","""event"",""trial"",""time""
""fullscreenenter"",""1"",""6567""
","
","
","""event"",""trial"",""time""
""fullscreenenter"",""1"",""6567""
","
","","","641","","","11","4244","2135","u","elianto","#3366ff99"," "," ","1","+10","[1501.6000001430511]","1","2","","","4244","107","9","1","win","go","0"
"pit-trial","232","1571832","0.0-112.0","battery-v0.2","","""event"",""trial"",""time""
""fullscreenenter"",""1"",""6567""
","
","
","""event"",""trial"",""time""
""fullscreenenter"",""1"",""6567""
","
","","","532.6000001430511","","","11","4244","2135","l","elianto","#3366ff99"," "," ","1","+10","[1389.5]","1","2","","","4244","108","8","1","win","go","0"
"pit-trial","233","1576717","0.0-113.0","battery-v0.2","","""event"",""trial"",""time""
""fullscreenenter"",""1"",""6567""
","
","
","""event"",""trial"",""time""
""fullscreenenter"",""1"",""6567""
","
","","","-1","","","11","4244","2135","u","elianto","#3366ff99"," ","-1","0","0","[]","0","2","","","4244","109","9","1","win","go","0"
"pit-trial","234","1581594","0.0-114.0","battery-v0.2","","""event"",""trial"",""time""
""fullscreenenter"",""1"",""6567""
","
","
","""event"",""trial"",""time""
""fullscreenenter"",""1"",""6567""
","
","","","-1","","","11","4244","2135","l","elianto","#3366ff99"," ","-1","0","+10","[]","0","2","","","4244","110","8","1","win","go","1"
"pit-trial","235","1584729","0.0-115.0","battery-v0.2","","""event"",""trial"",""time""
""fullscreenenter"",""1"",""6567""
","
","
","""event"",""trial"",""time""
""fullscreenenter"",""1"",""6567""
","
","","","262.7999999523163","","","11","4244","2135","g","elianto","#f73b6a7A"," "," ","1","0","[1122.3999998569489]","1","2","","","4244","111","6","3","lose","go","0"
"pit-trial","236","1588112","0.0-116.0","battery-v0.2","","""event"",""trial"",""time""
""fullscreenenter"",""1"",""6567""
","
","
","""event"",""trial"",""time""
""fullscreenenter"",""1"",""6567""
","
","","","524.2999999523163","","","11","4244","2135","p","elianto","#3366ff99","-1"," ","0","0","[1379.7000000476837]","1","2","","","4244","112","5","2","win","no-go","0"
"pit-trial","237","1592989","0.0-117.0","battery-v0.2","","""event"",""trial"",""time""
""fullscreenenter"",""1"",""6567""
","
","
","""event"",""trial"",""time""
""fullscreenenter"",""1"",""6567""
","
","","","-1","","","11","4244","2135","l","elianto","#3366ff99"," ","-1","0","0","[]","0","2","","","4244","113","8","1","win","go","0"
"pit-trial","238","1597863","0.0-118.0","battery-v0.2","","""event"",""trial"",""time""
""fullscreenenter"",""1"",""6567""
","
","
","""event"",""trial"",""time""
""fullscreenenter"",""1"",""6567""
","
","","","-1","","","11","4244","2135","g","elianto","#f73b6a7A"," ","-1","0","-10","[]","0","2","","","4244","114","6","3","lose","go","0"
"pit-trial","239","1601102","0.0-119.0","battery-v0.2","","""event"",""trial"",""time""
""fullscreenenter"",""1"",""6567""
","
","
","""event"",""trial"",""time""
""fullscreenenter"",""1"",""6567""
","
","","","376.39999985694885","","","11","4244","2135","u","elianto","#3366ff99"," "," ","1","+10","[1226.8999998569489]","1","2","","","4244","115","9","1","win","go","0"
"pit-trial","240","1604286","0.0-120.0","battery-v0.2","","""event"",""trial"",""time""
""fullscreenenter"",""1"",""6567""
","
","
","""event"",""trial"",""time""
""fullscreenenter"",""1"",""6567""
","
","","","305.69999980926514","","","11","4244","2135","p","elianto","#3366ff99","-1"," ","0","0","[1166.2999999523163]","1","2","","","4244","116","5","2","win","no-go","0"
"pit-trial","241","1609158","0.0-121.0","battery-v0.2","","""event"",""trial"",""time""
""fullscreenenter"",""1"",""6567""
","
","
","""event"",""trial"",""time""
""fullscreenenter"",""1"",""6567""
","
","","","-1","","","11","4244","2135","u","elianto","#3366ff99"," ","-1","0","0","[]","0","2","","","4244","117","9","1","win","go","0"
"pit-trial","242","1612922","0.0-122.0","battery-v0.2","","""event"",""trial"",""time""
""fullscreenenter"",""1"",""6567""
","
","
","""event"",""trial"",""time""
""fullscreenenter"",""1"",""6567""
","
","","","902.7999999523163","","","11","4244","2135","g","elianto","#f73b6a7A"," "," ","1","0","[1755.5999999046326]","1","2","","","4244","118","6","3","lose","go","0"
"pit-trial","243","1616243","0.0-123.0","battery-v0.2","","""event"",""trial"",""time""
""fullscreenenter"",""1"",""6567""
","
","
","""event"",""trial"",""time""
""fullscreenenter"",""1"",""6567""
","
","","","450.09999990463257","","","11","4244","2135","p","elianto","#3366ff99","-1"," ","0","0","[1308.0999999046326]","1","2","","","4244","119","5","2","win","no-go","0"
"pit-trial","244","1621110","0.0-124.0","battery-v0.2","","""event"",""trial"",""time""
""fullscreenenter"",""1"",""6567""
","
","
","""event"",""trial"",""time""
""fullscreenenter"",""1"",""6567""
","
","","","-1","","","11","4244","2135","l","elianto","#3366ff99"," ","-1","0","0","[]","0","2","","","4244","120","8","1","win","go","0"
"pit-trial","245","1625579","0.0-125.0","battery-v0.2","","""event"",""trial"",""time""
""fullscreenenter"",""1"",""6567""
","
","
","""event"",""trial"",""time""
""fullscreenenter"",""1"",""6567""
","
","","","1602.3000001907349","","","11","4244","2135","u","elianto","#3366ff99"," "," ","1","+10","[2459.5]","1","2","","","4244","121","9","1","win","go","0"
"pit-trial","246","1630001","0.0-126.0","battery-v0.2","","""event"",""trial"",""time""
""fullscreenenter"",""1"",""6567""
","
","
","""event"",""trial"",""time""
""fullscreenenter"",""1"",""6567""
","
","","","1554.7999999523163","","","11","4244","2135","g","elianto","#f73b6a7A"," "," ","1","0","[2412.2999999523163]","1","2","","","4244","122","6","3","lose","go","0"
"pit-trial","247","1633894","0.0-127.0","battery-v0.2","","""event"",""trial"",""time""
""fullscreenenter"",""1"",""6567""
","
","
","""event"",""trial"",""time""
""fullscreenenter"",""1"",""6567""
","
","","","1024.2999999523163","","","11","4244","2135","l","elianto","#3366ff99"," "," ","1","+10","[1877.0999999046326]","1","2","","","4244","123","8","1","win","go","0"
"pit-trial","248","1638763","0.0-128.0","battery-v0.2","","""event"",""trial"",""time""
""fullscreenenter"",""1"",""6567""
","
","
","""event"",""trial"",""time""
""fullscreenenter"",""1"",""6567""
","
","","","-1","","","11","4244","2135","a","elianto","#f73b6a7A","-1","-1","1","0","[]","0","2","","","4244","124","7","4","lose","no-go","0"
"pit-trial","249","1643633","0.0-129.0","battery-v0.2","","""event"",""trial"",""time""
""fullscreenenter"",""1"",""6567""
","
","
","""event"",""trial"",""time""
""fullscreenenter"",""1"",""6567""
","
","","","-1","","","11","4244","2135","g","elianto","#f73b6a7A"," ","-1","0","-10","[]","0","2","","","4244","125","6","3","lose","go","0"
"pit-trial","250","1647154","0.0-130.0","battery-v0.2","","""event"",""trial"",""time""
""fullscreenenter"",""1"",""6567""
","
","
","""event"",""trial"",""time""
""fullscreenenter"",""1"",""6567""
","
","","","649.3999998569489","","","11","4244","2135","a","elianto","#f73b6a7A","-1"," ","0","-10","[1500.0999999046326]","1","2","","","4244","126","7","4","lose","no-go","0"
"pit-trial","251","1650555","0.0-131.0","battery-v0.2","","""event"",""trial"",""time""
""fullscreenenter"",""1"",""6567""
","
","
","""event"",""trial"",""time""
""fullscreenenter"",""1"",""6567""
","
","","","526.0999999046326","","","11","4244","2135","u","elianto","#3366ff99"," "," ","1","+10","[1388.2000000476837]","1","2","","","4244","127","9","1","win","go","0"
"pit-trial","252","1654603","0.0-132.0","battery-v0.2","","""event"",""trial"",""time""
""fullscreenenter"",""1"",""6567""
","
","
","""event"",""trial"",""time""
""fullscreenenter"",""1"",""6567""
","
","","","1179.2999999523163","","","11","4244","2135","l","elianto","#3366ff99"," "," ","1","+10","[2037.1999998092651]","1","2","","","4244","128","8","1","win","go","0"
"pit-trial","253","1659472","0.0-133.0","battery-v0.2","","""event"",""trial"",""time""
""fullscreenenter"",""1"",""6567""
","
","
","""event"",""trial"",""time""
""fullscreenenter"",""1"",""6567""
","
","","","-1","","","11","4244","2135","g","elianto","#f73b6a7A"," ","-1","0","0","[]","0","2","","","4244","129","6","3","lose","go","1"
"pit-trial","254","1662913","0.0-134.0","battery-v0.2","","""event"",""trial"",""time""
""fullscreenenter"",""1"",""6567""
","
","
","""event"",""trial"",""time""
""fullscreenenter"",""1"",""6567""
","
","","","569.8999998569489","","","11","4244","2135","u","elianto","#3366ff99"," "," ","1","+10","[1430.7000000476837]","1","2","","","4244","130","9","1","win","go","0"
"pit-trial","255","1666569","0.0-135.0","battery-v0.2","","""event"",""trial"",""time""
""fullscreenenter"",""1"",""6567""
","
","
","""event"",""trial"",""time""
""fullscreenenter"",""1"",""6567""
","
","","","783.7999999523163","","","11","4244","2135","l","elianto","#3366ff99"," "," ","1","+10","[1642.5999999046326]","1","2","","","4244","131","8","1","win","go","0"
"pit-trial","256","1671437","0.0-136.0","battery-v0.2","","""event"",""trial"",""time""
""fullscreenenter"",""1"",""6567""
","
","
","""event"",""trial"",""time""
""fullscreenenter"",""1"",""6567""
","
","","","-1","","","11","4244","2135","a","elianto","#f73b6a7A","-1","-1","1","0","[]","0","2","","","4244","132","7","4","lose","no-go","0"
"pit-trial","257","1676309","0.0-137.0","battery-v0.2","","""event"",""trial"",""time""
""fullscreenenter"",""1"",""6567""
","
","
","""event"",""trial"",""time""
""fullscreenenter"",""1"",""6567""
","
","","","-1","","","11","4244","2135","a","elianto","#f73b6a7A","-1","-1","1","0","[]","0","2","","","4244","133","7","4","lose","no-go","0"
"pit-trial","258","1681087","0.0-138.0","battery-v0.2","","""event"",""trial"",""time""
""fullscreenenter"",""1"",""6567""
","
","
","""event"",""trial"",""time""
""fullscreenenter"",""1"",""6567""
","
","","","1913.3999998569489","","","11","4244","2135","g","elianto","#f73b6a7A"," "," ","1","0","[2765.5999999046326]","1","2","","","4244","134","6","3","lose","go","0"
"pit-trial","259","1684448","0.0-139.0","battery-v0.2","","""event"",""trial"",""time""
""fullscreenenter"",""1"",""6567""
","
","
","""event"",""trial"",""time""
""fullscreenenter"",""1"",""6567""
","
","","","499.40000009536743","","","11","4244","2135","u","elianto","#3366ff99"," "," ","1","+10","[1350.7000000476837]","1","2","","","4244","135","9","1","win","go","0"
"pit-trial","260","1689332","0.0-140.0","battery-v0.2","","""event"",""trial"",""time""
""fullscreenenter"",""1"",""6567""
","
","
","""event"",""trial"",""time""
""fullscreenenter"",""1"",""6567""
","
","","","-1","","","11","4244","2135","l","elianto","#3366ff99"," ","-1","0","0","[3099.4000000953674]","1","2","","","4244","136","8","1","win","go","0"
"pit-trial","261","1694197","0.0-141.0","battery-v0.2","","""event"",""trial"",""time""
""fullscreenenter"",""1"",""6567""
","
","
","""event"",""trial"",""time""
""fullscreenenter"",""1"",""6567""
","
","","","-1","","","11","4244","2135","l","elianto","#3366ff99"," ","-1","0","0","[]","0","2","","","4244","137","8","1","win","go","0"
"pit-trial","262","1697262","0.0-142.0","battery-v0.2","","""event"",""trial"",""time""
""fullscreenenter"",""1"",""6567""
","
","
","""event"",""trial"",""time""
""fullscreenenter"",""1"",""6567""
","
","","","199.30000019073486","","","11","4244","2135","a","elianto","#f73b6a7A","-1"," ","0","-10","[1059]","1","2","","","4244","138","7","4","lose","no-go","0"
"pit-trial","263","1700945","0.0-143.0","battery-v0.2","","""event"",""trial"",""time""
""fullscreenenter"",""1"",""6567""
","
","
","""event"",""trial"",""time""
""fullscreenenter"",""1"",""6567""
","
","","","812.3999998569489","","","11","4244","2135","u","elianto","#3366ff99"," "," ","1","+10","[1671.2999999523163]","1","2","","","4244","139","9","1","win","go","0"
"pit-trial","264","1705816","0.0-144.0","battery-v0.2","","""event"",""trial"",""time""
""fullscreenenter"",""1"",""6567""
","
","
","""event"",""trial"",""time""
""fullscreenenter"",""1"",""6567""
","
","","","-1","","","11","4244","2135","g","elianto","#f73b6a7A"," ","-1","0","0","[]","0","2","","","4244","140","6","3","lose","go","1"
"pit-instructions","265","1728176","0.0-145.0","battery-v0.2","","""event"",""trial"",""time""
""fullscreenenter"",""1"",""6567""
","
","
","""event"",""trial"",""time""
""fullscreenenter"",""1"",""6567""
","
","","[{""page_index"":0,""viewing_time"":11430.5},{""page_index"":1,""viewing_time"":10926.200000047684}]","22357.10000014305","","","","","","","","","","","","","","","","","","","","","","","",""
"pit-trial","266","1733045","0.0-146.0","battery-v0.2","","""event"",""trial"",""time""
""fullscreenenter"",""1"",""6567""
","
","
","""event"",""trial"",""time""
""fullscreenenter"",""1"",""6567""
","
