"trial_type","trial_index","time_elapsed","internal_node_id","task_version","subject_id","interactions","blur_events","focus_events","fullscreenenter_events","fullscreenexit_events","success","view_history","rt","responses","num_errors","age","subject","participantId","rune","rune_set","hex","correct","choice","accuracy","outcome","keys","total_keys","block","practice","value","sub","trial","stimulus","robot","valence","action","sham"
"pavlovia","0","14","0.0-0.0","battery-v0.2","","""event"",""trial"",""time""
""fullscreenenter"",""1"",""2313""
","
","
","""event"",""trial"",""time""
""fullscreenenter"",""1"",""2313""
","
","","","","","","","","","","","","","","","","","","","","","","","","","","",""
"fullscreen","1","3309","0.0-1.0","battery-v0.2","","""event"",""trial"",""time""
""fullscreenenter"",""1"",""2313""
","
","
","""event"",""trial"",""time""
""fullscreenenter"",""1"",""2313""
","
","true","","","","","","","","","","","","","","","","","","","","","","","","","",""
"pit-instructions","2","6720","0.0-2.0-0.0","battery-v0.2","","""event"",""trial"",""time""
""fullscreenenter"",""1"",""2313""
","
","
","""event"",""trial"",""time""
""fullscreenenter"",""1"",""2313""
","
","","[{""page_index"":0,""viewing_time"":3403.600000023842}]","3404.800000011921","","","","","","","","","","","","","","","","","","","","","","","",""
"pit-comprehension","3","9769","0.0-2.0-1.0-0.0","battery-v0.2","","""event"",""trial"",""time""
""fullscreenenter"",""1"",""2313""
","
","
","""event"",""trial"",""time""
""fullscreenenter"",""1"",""2313""
","
","","","3042.599999964237","[""shark""]","0","18","3363","2915","","","","","","","","","","","","","","","","","","",""
"pit-instructions","4","12760","0.0-2.0-1.0-1.0","battery-v0.2","","""event"",""trial"",""time""
""fullscreenenter"",""1"",""2313""
","
","
","""event"",""trial"",""time""
""fullscreenenter"",""1"",""2313""
","
","","[{""page_index"":0,""viewing_time"":2967.599999964237}]","2968.099999964237","","","","","","","","","","","","","","","","","","","","","","","",""
"pit-comprehension","5","17226","0.0-2.0-2.0-0.0","battery-v0.2","","""event"",""trial"",""time""
""fullscreenenter"",""1"",""2313""
","
","
","""event"",""trial"",""time""
""fullscreenenter"",""1"",""2313""
","
","","","4460.699999988079","[""tiger""]","0","18","3363","2915","","","","","","","","","","","","","","","","","","",""
"pit-instructions","6","17866","0.0-2.0-2.0-1.0","battery-v0.2","","""event"",""trial"",""time""
""fullscreenenter"",""1"",""2313""
","
","
","""event"",""trial"",""time""
""fullscreenenter"",""1"",""2313""
","
","","[{""page_index"":0,""viewing_time"":633.9000000357628}]","634.8000000119209","","","","","","","","","","","","","","","","","","","","","","","",""
"pit-instructions","7","115297","0.0-2.0-3.0","battery-v0.2","","""event"",""trial"",""time""
""fullscreenenter"",""1"",""2313""
","
","
","""event"",""trial"",""time""
""fullscreenenter"",""1"",""2313""
","
","","[{""page_index"":0,""viewing_time"":7882.800000011921},{""page_index"":1,""viewing_time"":6122.699999988079},{""page_index"":2,""viewing_time"":6996.900000035763},{""page_index"":3,""viewing_time"":5493.099999964237},{""page_index"":4,""viewing_time"":6853},{""page_index"":5,""viewing_time"":5851.300000011921},{""page_index"":6,""viewing_time"":7576.5},{""page_index"":7,""viewing_time"":6909.900000035763},{""page_index"":8,""viewing_time"":6743.699999988079},{""page_index"":9,""viewing_time"":9100.399999976158},{""page_index"":10,""viewing_time"":8763.100000023842},{""page_index"":11,""viewing_time"":7292},{""page_index"":12,""viewing_time"":6246.099999964237},{""page_index"":13,""viewing_time"":5596.700000047684}]","97429.40000003576","","","","","","","","","","","","","","","","","","","","","","","",""
"pit-trial","8","118784","0.0-2.0-4.0-0.0","battery-v0.2","","""event"",""trial"",""time""
""fullscreenenter"",""1"",""2313""
","
","
","""event"",""trial"",""time""
""fullscreenenter"",""1"",""2313""
","
","","","628.4000000357628","","","18","3363","2915","&#9784;","elianto","#FFFFF080"," "," ","1","&#10004","[1481.300000011921]","1","0","0","","","","","","","",""
"pit-trial","9","122129","0.0-2.0-4.1-0.1","battery-v0.2","","""event"",""trial"",""time""
""fullscreenenter"",""1"",""2313""
","
","
","""event"",""trial"",""time""
""fullscreenenter"",""1"",""2313""
","
","","","481.60000002384186","","","18","3363","2915","&#9784;","elianto","#FFFFF080"," "," ","1","&#10004","[1337]","1","0","0","","","","","","","",""
"pit-trial","10","125504","0.0-2.0-4.2-0.2","battery-v0.2","","""event"",""trial"",""time""
""fullscreenenter"",""1"",""2313""
","
","
","""event"",""trial"",""time""
""fullscreenenter"",""1"",""2313""
","
","","","515.8000000119209","","","18","3363","2915","&#9784;","elianto","#FFFFF080"," "," ","1","&#10004","[1369.2999999523163]","1","0","0","","","","","","","",""
"pit-trial","11","128962","0.0-2.0-4.3-0.3","battery-v0.2","","""event"",""trial"",""time""
""fullscreenenter"",""1"",""2313""
","
","
","""event"",""trial"",""time""
""fullscreenenter"",""1"",""2313""
","
","","","594.1000000238419","","","18","3363","2915","&#9784;","elianto","#FFFFF080"," "," ","1","&#10004","[1448.199999988079]","1","0","0","","","","","","","",""
"pit-trial","12","132274","0.0-2.0-4.4-0.4","battery-v0.2","","""event"",""trial"",""time""
""fullscreenenter"",""1"",""2313""
","
","
","""event"",""trial"",""time""
""fullscreenenter"",""1"",""2313""
","
","","","451.69999998807907","","","18","3363","2915","&#9784;","elianto","#FFFFF080"," "," ","1","&#10004","[1301.5]","1","0","0","","","","","","","",""
"pit-instructions","13","154532","0.0-2.0-5.0","battery-v0.2","","""event"",""trial"",""time""
""fullscreenenter"",""1"",""2313""
","
","
","""event"",""trial"",""time""
""fullscreenenter"",""1"",""2313""
","
","","[{""page_index"":0,""viewing_time"":6176.600000023842},{""page_index"":1,""viewing_time"":5699.300000011921},{""page_index"":2,""viewing_time"":5114.800000011921},{""page_index"":3,""viewing_time"":5262.699999988079}]","22254.30000001192","","","","","","","","","","","","","","","","","","","","","","","",""
"pit-trial","14","159396","0.0-2.0-6.0-0.0","battery-v0.2","","""event"",""trial"",""time""
""fullscreenenter"",""1"",""2313""
","
","
","""event"",""trial"",""time""
""fullscreenenter"",""1"",""2313""
","
","","","-1","","","18","3363","2915","&#9854;","elianto","#FFFFF080","-1","-1","1","&#10004","[]","0","0","1","","","","","","","",""
"pit-trial","15","164253","0.0-2.0-6.1-0.1","battery-v0.2","","""event"",""trial"",""time""
""fullscreenenter"",""1"",""2313""
","
","
","""event"",""trial"",""time""
""fullscreenenter"",""1"",""2313""
","
","","","-1","","","18","3363","2915","&#9854;","elianto","#FFFFF080","-1","-1","1","&#10004","[]","0","0","1","","","","","","","",""
"pit-trial","16","169118","0.0-2.0-6.2-0.2","battery-v0.2","","""event"",""trial"",""time""
""fullscreenenter"",""1"",""2313""
","
","
","""event"",""trial"",""time""
""fullscreenenter"",""1"",""2313""
","
","","","-1","","","18","3363","2915","&#9854;","elianto","#FFFFF080","-1","-1","1","&#10004","[]","0","0","1","","","","","","","",""
"pit-trial","17","173977","0.0-2.0-6.3-0.3","battery-v0.2","","""event"",""trial"",""time""
""fullscreenenter"",""1"",""2313""
","
","
","""event"",""trial"",""time""
""fullscreenenter"",""1"",""2313""
","
","","","-1","","","18","3363","2915","&#9854;","elianto","#FFFFF080","-1","-1","1","&#10004","[]","0","0","1","","","","","","","",""
"pit-trial","18","178841","0.0-2.0-6.4-0.4","battery-v0.2","","""event"",""trial"",""time""
""fullscreenenter"",""1"",""2313""
","
","
","""event"",""trial"",""time""
""fullscreenenter"",""1"",""2313""
","
","","","-1","","","18","3363","2915","&#9854;","elianto","#FFFFF080","-1","-1","1","&#10004","[]","0","0","1","","","","","","","",""
"pit-instructions","19","307913","0.0-2.0-7.0","battery-v0.2","","""event"",""trial"",""time""
""fullscreenenter"",""1"",""2313""
","
","
","""event"",""trial"",""time""
""fullscreenenter"",""1"",""2313""
","
","","[{""page_index"":0,""viewing_time"":5769.800000011921},{""page_index"":1,""viewing_time"":6783.100000023842},{""page_index"":2,""viewing_time"":9272.399999976158},{""page_index"":3,""viewing_time"":11249.899999976158},{""page_index"":4,""viewing_time"":6029.900000035763},{""page_index"":5,""viewing_time"":5669.399999976158},{""page_index"":6,""viewing_time"":4866.600000023842},{""page_index"":7,""viewing_time"":7736.5},{""page_index"":8,""viewing_time"":7400.199999988079},{""page_index"":9,""viewing_time"":6213.300000011921},{""page_index"":10,""viewing_time"":6775.5},{""page_index"":11,""viewing_time"":4743.899999976158},{""page_index"":12,""viewing_time"":6832.400000035763},{""page_index"":13,""viewing_time"":6721.199999988079},{""page_index"":14,""viewing_time"":6884.399999976158},{""page_index"":15,""viewing_time"":11875.600000023842},{""page_index"":16,""viewing_time"":6924.699999988079},{""page_index"":17,""viewing_time"":7323.100000023842}]","129072.69999998808","","","","","","","","","","","","","","","","","","","","","","","",""
"pit-trial","20","311716","0.0-2.0-8.0-0.0","battery-v0.2","","""event"",""trial"",""time""
""fullscreenenter"",""1"",""2313""
","
","
","""event"",""trial"",""time""
""fullscreenenter"",""1"",""2313""
","
","","","944.0999999642372","","","18","3363","2915","&#9776;","elianto","#3366ff99"," "," ","1","+10","[1798.7999999523163]","1","0","1","","","","","","","",""
"pit-trial","21","315044","0.0-2.0-8.0-1.0","battery-v0.2","","""event"",""trial"",""time""
""fullscreenenter"",""1"",""2313""
","
","
","""event"",""trial"",""time""
""fullscreenenter"",""1"",""2313""
","
","","","464","","","18","3363","2915","&#9776;","elianto","#3366ff99"," "," ","1","+10","[1318.300000011921]","1","0","1","","","","","","","",""
"pit-trial","22","318328","0.0-2.0-8.0-2.0","battery-v0.2","","""event"",""trial"",""time""
""fullscreenenter"",""1"",""2313""
","
","
","""event"",""trial"",""time""
""fullscreenenter"",""1"",""2313""
","
","","","421.39999997615814","","","18","3363","2915","&#9776;","elianto","#3366ff99"," "," ","1","+10","[1276.199999988079]","1","0","1","","","","","","","",""
"pit-trial","23","321604","0.0-2.0-8.0-3.0","battery-v0.2","","""event"",""trial"",""time""
""fullscreenenter"",""1"",""2313""
","
","
","""event"",""trial"",""time""
""fullscreenenter"",""1"",""2313""
","
","","","415.69999998807907","","","18","3363","2915","&#9776;","elianto","#3366ff99"," "," ","1","0","[1269.5999999642372]","1","0","1","","","","","","","",""
"pit-trial","24","324920","0.0-2.0-8.0-4.0","battery-v0.2","","""event"",""trial"",""time""
""fullscreenenter"",""1"",""2313""
","
","
","""event"",""trial"",""time""
""fullscreenenter"",""1"",""2313""
","
","","","454.2000000476837","","","18","3363","2915","&#9776;","elianto","#3366ff99"," "," ","1","+10","[1306.699999988079]","1","0","1","","","","","","","",""
"call-function","25","324924","0.0-2.0-9.0","battery-v0.2","","""event"",""trial"",""time""
""fullscreenenter"",""1"",""2313""
","
","
","""event"",""trial"",""time""
""fullscreenenter"",""1"",""2313""
","
","","","","","","","","","","","","","","","","","","","","","","","","","","",""
"pit-instructions","26","364361","0.0-2.0-10.0","battery-v0.2","","""event"",""trial"",""time""
""fullscreenenter"",""1"",""2313""
","
","
","""event"",""trial"",""time""
""fullscreenenter"",""1"",""2313""
","
","","[{""page_index"":0,""viewing_time"":6042.200000047684},{""page_index"":1,""viewing_time"":7123.5},{""page_index"":2,""viewing_time"":9288.599999964237},{""page_index"":3,""viewing_time"":9374.100000023842},{""page_index"":4,""viewing_time"":7608.199999988079}]","39437.90000003576","","","","","","","","","","","","","","","","","","","","","","","",""
"pit-trial","27","369225","0.0-2.0-11.0-0.0","battery-v0.2","","""event"",""trial"",""time""
""fullscreenenter"",""1"",""2313""
","
","
","""event"",""trial"",""time""
""fullscreenenter"",""1"",""2313""
","
","","","-1","","","18","3363","2915","&#9761;","elianto","#3366ff99","-1","-1","1","+10","[]","0","0","2","","","","","","","",""
"pit-trial","28","374086","0.0-2.0-11.0-1.0","battery-v0.2","","""event"",""trial"",""time""
""fullscreenenter"",""1"",""2313""
","
","
","""event"",""trial"",""time""
""fullscreenenter"",""1"",""2313""
","
","","","-1","","","18","3363","2915","&#9761;","elianto","#3366ff99","-1","-1","1","+10","[]","0","0","2","","","","","","","",""
"pit-trial","29","378944","0.0-2.0-11.0-2.0","battery-v0.2","","""event"",""trial"",""time""
""fullscreenenter"",""1"",""2313""
","
","
","""event"",""trial"",""time""
""fullscreenenter"",""1"",""2313""
","
","","","-1","","","18","3363","2915","&#9761;","elianto","#3366ff99","-1","-1","1","+10","[]","0","0","2","","","","","","","",""
"pit-trial","30","383807","0.0-2.0-11.0-3.0","battery-v0.2","","""event"",""trial"",""time""
""fullscreenenter"",""1"",""2313""
","
","
","""event"",""trial"",""time""
""fullscreenenter"",""1"",""2313""
","
","","","-1","","","18","3363","2915","&#9761;","elianto","#3366ff99","-1","-1","1","0","[]","0","0","2","","","","","","","",""
"pit-trial","31","388667","0.0-2.0-11.0-4.0","battery-v0.2","","""event"",""trial"",""time""
""fullscreenenter"",""1"",""2313""
","
","
","""event"",""trial"",""time""
""fullscreenenter"",""1"",""2313""
","
","","","-1","","","18","3363","2915","&#9761;","elianto","#3366ff99","-1","-1","1","+10","[]","0","0","2","","","","","","","",""
"call-function","32","388671","0.0-2.0-12.0","battery-v0.2","","""event"",""trial"",""time""
""fullscreenenter"",""1"",""2313""
","
","
","""event"",""trial"",""time""
""fullscreenenter"",""1"",""2313""
","
","","","","","","","","","","","","","","","","","","","","","","","","","","",""
"pit-instructions","33","429955","0.0-2.0-13.0","battery-v0.2","","""event"",""trial"",""time""
""fullscreenenter"",""1"",""2313""
","
","
","""event"",""trial"",""time""
""fullscreenenter"",""1"",""2313""
","
","","[{""page_index"":0,""viewing_time"":7781.699999988079},{""page_index"":1,""viewing_time"":8525.699999988079},{""page_index"":2,""viewing_time"":5082.100000023842},{""page_index"":3,""viewing_time"":11821.799999952316},{""page_index"":4,""viewing_time"":8072.200000047684}]","41284.5","","","","","","","","","","","","","","","","","","","","","","","",""
"pit-trial","34","433240","0.0-2.0-14.0-0.0","battery-v0.2","","""event"",""trial"",""time""
""fullscreenenter"",""1"",""2313""
","
","
","""event"",""trial"",""time""
""fullscreenenter"",""1"",""2313""
","
","","","428.60000002384186","","","18","3363","2915","&#9826;","elianto","#f73b6a7A","-1"," ","0","-10","[1280.199999988079]","1","0","3","","","","","","","",""
"pit-trial","35","438100","0.0-2.0-14.0-1.0","battery-v0.2","","""event"",""trial"",""time""
""fullscreenenter"",""1"",""2313""
","
","
","""event"",""trial"",""time""
""fullscreenenter"",""1"",""2313""
","
","","","-1","","","18","3363","2915","&#9826;","elianto","#f73b6a7A","-1","-1","1","0","[]","0","0","3","","","","","","","",""
"pit-trial","36","442961","0.0-2.0-14.0-2.0","battery-v0.2","","""event"",""trial"",""time""
""fullscreenenter"",""1"",""2313""
","
","
","""event"",""trial"",""time""
""fullscreenenter"",""1"",""2313""
","
","","","-1","","","18","3363","2915","&#9826;","elianto","#f73b6a7A","-1","-1","1","0","[]","0","0","3","","","","","","","",""
"pit-trial","37","447822","0.0-2.0-14.0-3.0","battery-v0.2","","""event"",""trial"",""time""
""fullscreenenter"",""1"",""2313""
","
","
","""event"",""trial"",""time""
""fullscreenenter"",""1"",""2313""
","
","","","-1","","","18","3363","2915","&#9826;","elianto","#f73b6a7A","-1","-1","1","-10","[]","0","0","3","","","","","","","",""
"pit-trial","38","452682","0.0-2.0-14.0-4.0","battery-v0.2","","""event"",""trial"",""time""
""fullscreenenter"",""1"",""2313""
","
","
","""event"",""trial"",""time""
""fullscreenenter"",""1"",""2313""
","
","","","-1","","","18","3363","2915","&#9826;","elianto","#f73b6a7A","-1","-1","1","0","[]","0","0","3","","","","","","","",""
"call-function","39","452685","0.0-2.0-15.0","battery-v0.2","","""event"",""trial"",""time""
""fullscreenenter"",""1"",""2313""
","
","
","""event"",""trial"",""time""
""fullscreenenter"",""1"",""2313""
","
","","","","","","","","","","","","","","","","","","","","","","","","","","",""
"pit-instructions","40","484063","0.0-2.0-16.0","battery-v0.2","","""event"",""trial"",""time""
""fullscreenenter"",""1"",""2313""
","
","
","""event"",""trial"",""time""
""fullscreenenter"",""1"",""2313""
","
","","[{""page_index"":0,""viewing_time"":8289.199999988079},{""page_index"":1,""viewing_time"":10197.600000023842},{""page_index"":2,""viewing_time"":5681.299999952316},{""page_index"":3,""viewing_time"":7208.5}]","31378.30000001192","","","","","","","","","","","","","","","","","","","","","","","",""
"pit-trial","41","487638","0.0-2.0-17.0-0.0","battery-v0.2","","""event"",""trial"",""time""
""fullscreenenter"",""1"",""2313""
","
","
","""event"",""trial"",""time""
""fullscreenenter"",""1"",""2313""
","
","","","717.1000000238419","","","18","3363","2915","&#9789;","elianto","#f73b6a7A"," "," ","1","0","[1568]","1","0","4","","","","","","","",""
"pit-trial","42","491034","0.0-2.0-17.0-1.0","battery-v0.2","","""event"",""trial"",""time""
""fullscreenenter"",""1"",""2313""
","
","
","""event"",""trial"",""time""
""fullscreenenter"",""1"",""2313""
","
","","","539.5999999642372","","","18","3363","2915","&#9789;","elianto","#f73b6a7A"," "," ","1","0","[1390.800000011921]","1","0","4","","","","","","","",""
"pit-trial","43","494408","0.0-2.0-17.0-2.0","battery-v0.2","","""event"",""trial"",""time""
""fullscreenenter"",""1"",""2313""
","
","
","""event"",""trial"",""time""
""fullscreenenter"",""1"",""2313""
","
","","","513.6999999880791","","","18","3363","2915","&#9789;","elianto","#f73b6a7A"," "," ","1","0","[1368.199999988079]","1","0","4","","","","","","","",""
"pit-trial","44","497678","0.0-2.0-17.0-3.0","battery-v0.2","","""event"",""trial"",""time""
""fullscreenenter"",""1"",""2313""
","
","
","""event"",""trial"",""time""
""fullscreenenter"",""1"",""2313""
","
","","","410","","","18","3363","2915","&#9789;","elianto","#f73b6a7A"," "," ","1","-10","[1264.8999999761581]","1","0","4","","","","","","","",""
"pit-trial","45","500892","0.0-2.0-17.0-4.0","battery-v0.2","","""event"",""trial"",""time""
""fullscreenenter"",""1"",""2313""
","
","
","""event"",""trial"",""time""
""fullscreenenter"",""1"",""2313""
","
","","","357.7000000476837","","","18","3363","2915","&#9789;","elianto","#f73b6a7A"," "," ","1","0","[1209.300000011921]","1","0","4","","","","","","","",""
"call-function","46","500896","0.0-2.0-18.0","battery-v0.2","","""event"",""trial"",""time""
""fullscreenenter"",""1"",""2313""
","
","
","""event"",""trial"",""time""
""fullscreenenter"",""1"",""2313""
","
","","","","","","","","","","","","","","","","","","","","","","","","","","",""
"pit-instructions","47","584230","0.0-2.0-19.0","battery-v0.2","","""event"",""trial"",""time""
""fullscreenenter"",""1"",""2313""
","
","
","""event"",""trial"",""time""
""fullscreenenter"",""1"",""2313""
","
","","[{""page_index"":0,""viewing_time"":6847.600000023842},{""page_index"":1,""viewing_time"":7711.899999976158},{""page_index"":2,""viewing_time"":17127.80000001192},{""page_index"":3,""viewing_time"":10132.099999964237},{""page_index"":4,""viewing_time"":8981.5},{""page_index"":5,""viewing_time"":10897.300000011921},{""page_index"":6,""viewing_time"":10062.900000035763},{""page_index"":7,""viewing_time"":7487.799999952316},{""page_index"":8,""viewing_time"":4087}]","83337.19999998808","","","","","","","","","","","","","","","","","","","","","","","",""
"pit-comprehension","48","588779","0.0-2.0-20.0-0.0","battery-v0.2","","""event"",""trial"",""time""
""fullscreenenter"",""1"",""2313""
","
","
","""event"",""trial"",""time""
""fullscreenenter"",""1"",""2313""
","
","","","4543.100000023842","[""SPACE""]","0","18","3363","2915","","","","","","","","","","","","","","","","","","",""
"pit-instructions","49","592833","0.0-2.0-20.0-1.0","battery-v0.2","","""event"",""trial"",""time""
""fullscreenenter"",""1"",""2313""
","
","
","""event"",""trial"",""time""
""fullscreenenter"",""1"",""2313""
","
","","[{""page_index"":0,""viewing_time"":4038.199999988079}]","4039.099999964237","","","","","","","","","","","","","","","","","","","","","","","",""
"pit-comprehension","50","597390","0.0-2.0-21.0-0.0","battery-v0.2","","""event"",""trial"",""time""
""fullscreenenter"",""1"",""2313""
","
","
","""event"",""trial"",""time""
""fullscreenenter"",""1"",""2313""
","
","","","4550.900000035763","[""10""]","0","18","3363","2915","","","","","","","","","","","","","","","","","","",""
"pit-instructions","51","599083","0.0-2.0-21.0-1.0","battery-v0.2","","""event"",""trial"",""time""
""fullscreenenter"",""1"",""2313""
","
","
","""event"",""trial"",""time""
""fullscreenenter"",""1"",""2313""
","
","","[{""page_index"":0,""viewing_time"":1675.9000000357628}]","1676.7000000476837","","","","","","","","","","","","","","","","","","","","","","","",""
"pit-comprehension","52","605135","0.0-2.0-22.0-0.0","battery-v0.2","","""event"",""trial"",""time""
""fullscreenenter"",""1"",""2313""
","
","
","""event"",""trial"",""time""
""fullscreenenter"",""1"",""2313""
","
","","","6046.399999976158","[""0""]","0","18","3363","2915","","","","","","","","","","","","","","","","","","",""
"pit-instructions","53","606690","0.0-2.0-22.0-1.0","battery-v0.2","","""event"",""trial"",""time""
""fullscreenenter"",""1"",""2313""
","
","
","""event"",""trial"",""time""
""fullscreenenter"",""1"",""2313""
","
","","[{""page_index"":0,""viewing_time"":1540}]","1541","","","","","","","","","","","","","","","","","","","","","","","",""
"pit-comprehension","54","615625","0.0-2.0-23.0-0.0","battery-v0.2","","""event"",""trial"",""time""
""fullscreenenter"",""1"",""2313""
","
","
","""event"",""trial"",""time""
""fullscreenenter"",""1"",""2313""
","
","","","8930.800000011921","[""True""]","0","18","3363","2915","","","","","","","","","","","","","","","","","","",""
"pit-instructions","55","617457","0.0-2.0-23.0-1.0","battery-v0.2","","""event"",""trial"",""time""
""fullscreenenter"",""1"",""2313""
","
","
","""event"",""trial"",""time""
""fullscreenenter"",""1"",""2313""
","
","","[{""page_index"":0,""viewing_time"":1813.699999988079}]","1814.699999988079","","","","","","","","","","","","","","","","","","","","","","","",""
"pit-comprehension","56","624901","0.0-2.0-24.0-0.0","battery-v0.2","","""event"",""trial"",""time""
""fullscreenenter"",""1"",""2313""
","
","
","""event"",""trial"",""time""
""fullscreenenter"",""1"",""2313""
","
","","","7438","[""True""]","0","18","3363","2915","","","","","","","","","","","","","","","","","","",""
"pit-instructions","57","628241","0.0-2.0-24.0-1.0","battery-v0.2","","""event"",""trial"",""time""
""fullscreenenter"",""1"",""2313""
","
","
","""event"",""trial"",""time""
""fullscreenenter"",""1"",""2313""
","
","","[{""page_index"":0,""viewing_time"":3324.2999999523163}]","3325","","","","","","","","","","","","","","","","","","","","","","","",""
"pit-comprehension","58","634615","0.0-2.0-25.0-0.0","battery-v0.2","","""event"",""trial"",""time""
""fullscreenenter"",""1"",""2313""
","
","
","""event"",""trial"",""time""
""fullscreenenter"",""1"",""2313""
","
","","","6370.400000035763","[""True""]","0","18","3363","2915","","","","","","","","","","","","","","","","","","",""
"pit-instructions","59","636760","0.0-2.0-25.0-1.0","battery-v0.2","","""event"",""trial"",""time""
""fullscreenenter"",""1"",""2313""
","
","
","""event"",""trial"",""time""
""fullscreenenter"",""1"",""2313""
","
","","[{""page_index"":0,""viewing_time"":2127.300000011921}]","2127.400000035763","","","","","","","","","","","","","","","","","","","","","","","",""
"pit-comprehension","60","641252","0.0-2.0-26.0-0.0","battery-v0.2","","""event"",""trial"",""time""
""fullscreenenter"",""1"",""2313""
","
","
","""event"",""trial"",""time""
""fullscreenenter"",""1"",""2313""
","
","","","4489.800000011921","[""False""]","0","18","3363","2915","","","","","","","","","","","","","","","","","","",""
"pit-instructions","61","642823","0.0-2.0-26.0-1.0","battery-v0.2","","""event"",""trial"",""time""
""fullscreenenter"",""1"",""2313""
","
","
","""event"",""trial"",""time""
""fullscreenenter"",""1"",""2313""
","
","","[{""page_index"":0,""viewing_time"":1554.8999999761581}]","1555.699999988079","","","","","","","","","","","","","","","","","","","","","","","",""
"pit-instructions","62","657415","0.0-3.0","battery-v0.2","","""event"",""trial"",""time""
""fullscreenenter"",""1"",""2313""
","
","
","""event"",""trial"",""time""
""fullscreenenter"",""1"",""2313""
","
","","[{""page_index"":0,""viewing_time"":3483.5},{""page_index"":1,""viewing_time"":5011.799999952316},{""page_index"":2,""viewing_time"":6093.900000035763}]","14590.099999964237","","","","","","","","","","","","","","","","","","","","","","","",""
"pit-trial","63","661135","0.0-4.0","battery-v0.2","","""event"",""trial"",""time""
""fullscreenenter"",""1"",""2313""
","
","
","""event"",""trial"",""time""
""fullscreenenter"",""1"",""2313""
","
","","","855.6999999880791","","","18","3363","2915","&#9728;","elianto","#f73b6a7A","-1"," ","0","0","[1709.300000011921]","1","1","","","3363","1","0","4","lose","no-go","1"
"pit-trial","64","664897","0.0-5.0","battery-v0.2","","""event"",""trial"",""time""
""fullscreenenter"",""1"",""2313""
","
","
","""event"",""trial"",""time""
""fullscreenenter"",""1"",""2313""
","
","","","901.1000000238419","","","18","3363","2915","&#9730;","elianto","#3366ff99"," "," ","1","+10","[1752.800000011921]","1","1","","","3363","2","1","1","win","go","0"
"pit-trial","65","668485","0.0-6.0","battery-v0.2","","""event"",""trial"",""time""
""fullscreenenter"",""1"",""2313""
","
","
","""event"",""trial"",""time""
""fullscreenenter"",""1"",""2313""
","
","","","724.8000000119209","","","18","3363","2915","&#9733;","elianto","#3366ff99","-1"," ","0","0","[1580.199999988079]","1","1","","","3363","3","2","2","win","no-go","0"
"pit-trial","66","672140","0.0-7.0","battery-v0.2","","""event"",""trial"",""time""
""fullscreenenter"",""1"",""2313""
","
","
","""event"",""trial"",""time""
""fullscreenenter"",""1"",""2313""
","
","","","793.0999999642372","","","18","3363","2915","&#9752;","elianto","#f73b6a7A"," "," ","1","0","[1645.6000000238419]","1","1","","","3363","4","3","3","lose","go","0"
"pit-trial","67","677004","0.0-8.0","battery-v0.2","","""event"",""trial"",""time""
""fullscreenenter"",""1"",""2313""
","
","
","""event"",""trial"",""time""
""fullscreenenter"",""1"",""2313""
","
","","","-1","","","18","3363","2915","&#9733;","elianto","#3366ff99","-1","-1","1","+10","[]","0","1","","","3363","5","2","2","win","no-go","0"
"pit-trial","68","680690","0.0-9.0","battery-v0.2","","""event"",""trial"",""time""
""fullscreenenter"",""1"",""2313""
","
","
","""event"",""trial"",""time""
""fullscreenenter"",""1"",""2313""
","
","","","829.9000000357628","","","18","3363","2915","&#9728;","elianto","#f73b6a7A","-1"," ","0","-10","[1682.2000000476837]","1","1","","","3363","6","0","4","lose","no-go","0"
"pit-trial","69","684820","0.0-10.0","battery-v0.2","","""event"",""trial"",""time""
""fullscreenenter"",""1"",""2313""
","
","
","""event"",""trial"",""time""
""fullscreenenter"",""1"",""2313""
","
","","","1269.300000011921","","","18","3363","2915","&#9730;","elianto","#3366ff99"," "," ","1","+10","[2123.300000011921]","1","1","","","3363","7","1","1","win","go","0"
"pit-trial","70","689218","0.0-11.0","battery-v0.2","","""event"",""trial"",""time""
""fullscreenenter"",""1"",""2313""
","
","
","""event"",""trial"",""time""
""fullscreenenter"",""1"",""2313""
","
","","","1538.699999988079","","","18","3363","2915","&#9752;","elianto","#f73b6a7A"," "," ","1","0","[2390.300000011921]","1","1","","","3363","8","3","3","lose","go","0"
"pit-trial","71","694081","0.0-12.0","battery-v0.2","","""event"",""trial"",""time""
""fullscreenenter"",""1"",""2313""
","
","
","""event"",""trial"",""time""
""fullscreenenter"",""1"",""2313""
","
","","","-1","","","18","3363","2915","&#9733;","elianto","#3366ff99","-1","-1","1","+10","[]","0","1","","","3363","9","2","2","win","no-go","0"
"pit-trial","72","697798","0.0-13.0","battery-v0.2","","""event"",""trial"",""time""
""fullscreenenter"",""1"",""2313""
","
","
","""event"",""trial"",""time""
""fullscreenenter"",""1"",""2313""
","
","","","852.8000000119209","","","18","3363","2915","&#9728;","elianto","#f73b6a7A","-1"," ","0","-10","[1708.1000000238419]","1","1","","","3363","10","0","4","lose","no-go","0"
"pit-trial","73","701313","0.0-14.0","battery-v0.2","","""event"",""trial"",""time""
""fullscreenenter"",""1"",""2313""
","
","
","""event"",""trial"",""time""
""fullscreenenter"",""1"",""2313""
","
","","","654.6000000238419","","","18","3363","2915","&#9730;","elianto","#3366ff99"," "," ","1","+10","[1508.5]","1","1","","","3363","11","1","1","win","go","0"
"pit-trial","74","705014","0.0-15.0","battery-v0.2","","""event"",""trial"",""time""
""fullscreenenter"",""1"",""2313""
","
","
","""event"",""trial"",""time""
""fullscreenenter"",""1"",""2313""
","
","","","838","","","18","3363","2915","&#9752;","elianto","#f73b6a7A"," "," ","1","0","[1693]","1","1","","","3363","12","3","3","lose","go","0"
"pit-trial","75","709878","0.0-16.0","battery-v0.2","","""event"",""trial"",""time""
""fullscreenenter"",""1"",""2313""
","
","
","""event"",""trial"",""time""
""fullscreenenter"",""1"",""2313""
","
","","","-1","","","18","3363","2915","&#9733;","elianto","#3366ff99","-1","-1","1","+10","[]","0","1","","","3363","13","2","2","win","no-go","0"
"pit-trial","76","713398","0.0-17.0","battery-v0.2","","""event"",""trial"",""time""
""fullscreenenter"",""1"",""2313""
","
","
","""event"",""trial"",""time""
""fullscreenenter"",""1"",""2313""
","
","","","658","","","18","3363","2915","&#9752;","elianto","#f73b6a7A"," "," ","1","0","[1513.0999999642372]","1","1","","","3363","14","3","3","lose","go","0"
"pit-trial","77","718257","0.0-18.0","battery-v0.2","","""event"",""trial"",""time""
""fullscreenenter"",""1"",""2313""
","
","
","""event"",""trial"",""time""
""fullscreenenter"",""1"",""2313""
","
","","","-1","","","18","3363","2915","&#9728;","elianto","#f73b6a7A","-1","-1","1","-10","[]","0","1","","","3363","15","0","4","lose","no-go","1"
"pit-trial","78","721755","0.0-19.0","battery-v0.2","","""event"",""trial"",""time""
""fullscreenenter"",""1"",""2313""
","
","
","""event"",""trial"",""time""
""fullscreenenter"",""1"",""2313""
","
","","","642.5999999642372","","","18","3363","2915","&#9730;","elianto","#3366ff99"," "," ","1","+10","[1493.1000000238419]","1","1","","","3363","16","1","1","win","go","0"
"pit-trial","79","726619","0.0-20.0","battery-v0.2","","""event"",""trial"",""time""
""fullscreenenter"",""1"",""2313""
","
","
","""event"",""trial"",""time""
""fullscreenenter"",""1"",""2313""
","
","","","-1","","","18","3363","2915","&#9733;","elianto","#3366ff99","-1","-1","1","+10","[]","0","1","","","3363","17","2","2","win","no-go","0"
"pit-trial","80","730202","0.0-21.0","battery-v0.2","","""event"",""trial"",""time""
""fullscreenenter"",""1"",""2313""
","
","
","""event"",""trial"",""time""
""fullscreenenter"",""1"",""2313""
","
","","","723.0999999642372","","","18","3363","2915","&#9752;","elianto","#f73b6a7A"," "," ","1","-10","[1574.0999999642372]","1","1","","","3363","18","3","3","lose","go","1"
"pit-trial","81","735062","0.0-22.0","battery-v0.2","","""event"",""trial"",""time""
""fullscreenenter"",""1"",""2313""
","
","
","""event"",""trial"",""time""
""fullscreenenter"",""1"",""2313""
","
","","","-1","","","18","3363","2915","&#9730;","elianto","#3366ff99"," ","-1","0","0","[2875.199999988079]","1","1","","","3363","19","1","1","win","go","0"
"pit-trial","82","739056","0.0-23.0","battery-v0.2","","""event"",""trial"",""time""
""fullscreenenter"",""1"",""2313""
","
","
","""event"",""trial"",""time""
""fullscreenenter"",""1"",""2313""
","
","","","1134","","","18","3363","2915","&#9728;","elianto","#f73b6a7A","-1"," ","0","0","[1988.199999988079]","1","1","","","3363","20","0","4","lose","no-go","1"
"pit-instructions","83","752284","0.0-24.0","battery-v0.2","","""event"",""trial"",""time""
""fullscreenenter"",""1"",""2313""
","
","
","""event"",""trial"",""time""
""fullscreenenter"",""1"",""2313""
","
","","[{""page_index"":0,""viewing_time"":6397.800000011921},{""page_index"":1,""viewing_time"":6826.399999976158}]","13225","","","","","","","","","","","","","","","","","","","","","","","",""
"pit-trial","84","756017","0.0-25.0","battery-v0.2","","""event"",""trial"",""time""
""fullscreenenter"",""1"",""2313""
","
","
","""event"",""trial"",""time""
""fullscreenenter"",""1"",""2313""
","
","","","875.3999999761581","","","18","3363","2915","d","elianto","#3366ff99","-1"," ","0","0","[1725.9000000357628]","1","2","","","3363","21","1","2","win","no-go","0"
"pit-trial","85","759641","0.0-26.0","battery-v0.2","","""event"",""trial"",""time""
""fullscreenenter"",""1"",""2313""
","
","
","""event"",""trial"",""time""
""fullscreenenter"",""1"",""2313""
","
","","","762.8999999761581","","","18","3363","2915","j","elianto","#f73b6a7A"," "," ","1","0","[1615.699999988079]","1","2","","","3363","22","0","3","lose","go","0"
"pit-trial","86","763373","0.0-27.0","battery-v0.2","","""event"",""trial"",""time""
""fullscreenenter"",""1"",""2313""
","
","
","""event"",""trial"",""time""
""fullscreenenter"",""1"",""2313""
","
","","","873.5999999642372","","","18","3363","2915","e","elianto","#f73b6a7A"," "," ","1","0","[1726.5999999642372]","1","2","","","3363","23","2","3","lose","go","0"
"pit-trial","87","767003","0.0-28.0","battery-v0.2","","""event"",""trial"",""time""
""fullscreenenter"",""1"",""2313""
","
","
","""event"",""trial"",""time""
""fullscreenenter"",""1"",""2313""
","
","","","766.3999999761581","","","18","3363","2915","w","elianto","#f73b6a7A","-1"," ","0","-10","[1620.7000000476837]","1","2","","","3363","24","3","4","lose","no-go","0"
"pit-trial","88","770996","0.0-29.0","battery-v0.2","","""event"",""trial"",""time""
""fullscreenenter"",""1"",""2313""
","
","
","""event"",""trial"",""time""
""fullscreenenter"",""1"",""2313""
","
","","","1133.800000011921","","","18","3363","2915","e","elianto","#f73b6a7A"," "," ","1","-10","[1984]","1","2","","","3363","25","2","3","lose","go","1"
"pit-trial","89","775714","0.0-30.0","battery-v0.2","","""event"",""trial"",""time""
""fullscreenenter"",""1"",""2313""
","
","
","""event"",""trial"",""time""
""fullscreenenter"",""1"",""2313""
","
","","","1860.5999999642372","","","18","3363","2915","w","elianto","#f73b6a7A","-1"," ","0","-10","[2713.400000035763]","1","2","","","3363","26","3","4","lose","no-go","0"
"pit-trial","90","780579","0.0-31.0","battery-v0.2","","""event"",""trial"",""time""
""fullscreenenter"",""1"",""2313""
","
","
","""event"",""trial"",""time""
""fullscreenenter"",""1"",""2313""
","
","","","-1","","","18","3363","2915","d","elianto","#3366ff99","-1","-1","1","+10","[]","0","2","","","3363","27","1","2","win","no-go","0"
"pit-trial","91","784734","0.0-32.0","battery-v0.2","","""event"",""trial"",""time""
""fullscreenenter"",""1"",""2313""
","
","
","""event"",""trial"",""time""
""fullscreenenter"",""1"",""2313""
","
","","","1296","","","18","3363","2915","j","elianto","#f73b6a7A"," "," ","1","-10","[2146.399999976158]","1","2","","","3363","28","0","3","lose","go","1"
"pit-trial","92","788750","0.0-33.0","battery-v0.2","","""event"",""trial"",""time""
""fullscreenenter"",""1"",""2313""
","
","
","""event"",""trial"",""time""
""fullscreenenter"",""1"",""2313""
","
","","","1153.5","","","18","3363","2915","j","elianto","#f73b6a7A"," "," ","1","0","[2007]","1","2","","","3363","29","0","3","lose","go","0"
"pit-trial","93","793614","0.0-34.0","battery-v0.2","","""event"",""trial"",""time""
""fullscreenenter"",""1"",""2313""
","
","
","""event"",""trial"",""time""
""fullscreenenter"",""1"",""2313""
","
","","","-1","","","18","3363","2915","d","elianto","#3366ff99","-1","-1","1","+10","[]","0","2","","","3363","30","1","2","win","no-go","0"
"pit-trial","94","797709","0.0-35.0","battery-v0.2","","""event"",""trial"",""time""
""fullscreenenter"",""1"",""2313""
","
","
","""event"",""trial"",""time""
""fullscreenenter"",""1"",""2313""
","
","","","1233.9000000357628","","","18","3363","2915","e","elianto","#f73b6a7A"," "," ","1","-10","[2089]","1","2","","","3363","31","2","3","lose","go","1"
"pit-trial","95","802573","0.0-36.0","battery-v0.2","","""event"",""trial"",""time""
""fullscreenenter"",""1"",""2313""
","
","
","""event"",""trial"",""time""
""fullscreenenter"",""1"",""2313""
","
","","","-1","","","18","3363","2915","w","elianto","#f73b6a7A","-1","-1","1","0","[]","0","2","","","3363","32","3","4","lose","no-go","0"
"pit-trial","96","807437","0.0-37.0","battery-v0.2","","""event"",""trial"",""time""
""fullscreenenter"",""1"",""2313""
","
","
","""event"",""trial"",""time""
""fullscreenenter"",""1"",""2313""
","
","","","-1","","","18","3363","2915","e","elianto","#f73b6a7A"," ","-1","0","-10","[]","0","2","","","3363","33","2","3","lose","go","0"
"pit-trial","97","812300","0.0-38.0","battery-v0.2","","""event"",""trial"",""time""
""fullscreenenter"",""1"",""2313""
","
","
","""event"",""trial"",""time""
""fullscreenenter"",""1"",""2313""
","
","","","-1","","","18","3363","2915","d","elianto","#3366ff99","-1","-1","1","0","[]","0","2","","","3363","34","1","2","win","no-go","1"
"pit-trial","98","816503","0.0-39.0","battery-v0.2","","""event"",""trial"",""time""
""fullscreenenter"",""1"",""2313""
","
","
","""event"",""trial"",""time""
""fullscreenenter"",""1"",""2313""
","
","","","1346.3999999761581","","","18","3363","2915","j","elianto","#f73b6a7A"," "," ","1","0","[2198.600000023842]","1","2","","","3363","35","0","3","lose","go","0"
"pit-trial","99","821367","0.0-40.0","battery-v0.2","","""event"",""trial"",""time""
""fullscreenenter"",""1"",""2313""
","
","
","""event"",""trial"",""time""
""fullscreenenter"",""1"",""2313""
","
","","","-1","","","18","3363","2915","w","elianto","#f73b6a7A","-1","-1","1","-10","[]","0","2","","","3363","36","3","4","lose","no-go","1"
"pit-trial","100","826231","0.0-41.0","battery-v0.2","","""event"",""trial"",""time""
""fullscreenenter"",""1"",""2313""
","
","
","""event"",""trial"",""time""
""fullscreenenter"",""1"",""2313""
","
","","","-1","","","18","3363","2915","w","elianto","#f73b6a7A","-1","-1","1","0","[]","0","2","","","3363","37","3","4","lose","no-go","0"
"pit-trial","101","831095","0.0-42.0","battery-v0.2","","""event"",""trial"",""time""
""fullscreenenter"",""1"",""2313""
","
","
","""event"",""trial"",""time""
""fullscreenenter"",""1"",""2313""
","
","","","-1","","","18","3363","2915","e","elianto","#f73b6a7A"," ","-1","0","-10","[]","0","2","","","3363","38","2","3","lose","go","0"
"pit-trial","102","835958","0.0-43.0","battery-v0.2","","""event"",""trial"",""time""
""fullscreenenter"",""1"",""2313""
","
","
","""event"",""trial"",""time""
""fullscreenenter"",""1"",""2313""
","
","","","-1","","","18","3363","2915","d","elianto","#3366ff99","-1","-1","1","0","[]","0","2","","","3363","39","1","2","win","no-go","1"
"pit-trial","103","840300","0.0-44.0","battery-v0.2","","""event"",""trial"",""time""
""fullscreenenter"",""1"",""2313""
","
","
","""event"",""trial"",""time""
""fullscreenenter"",""1"",""2313""
","
","","","1479.6000000238419","","","18","3363","2915","j","elianto","#f73b6a7A"," "," ","1","0","[2334.5]","1","2","","","3363","40","0","3","lose","go","0"
"pit-trial","104","845163","0.0-45.0","battery-v0.2","","""event"",""trial"",""time""
""fullscreenenter"",""1"",""2313""
","
","
","""event"",""trial"",""time""
""fullscreenenter"",""1"",""2313""
","
","","","-1","","","18","3363","2915","w","elianto","#f73b6a7A","-1","-1","1","0","[]","0","2","","","3363","41","3","4","lose","no-go","0"
"pit-trial","105","850027","0.0-46.0","battery-v0.2","","""event"",""trial"",""time""
""fullscreenenter"",""1"",""2313""
","
","
","""event"",""trial"",""time""
""fullscreenenter"",""1"",""2313""
","
","","","-1","","","18","3363","2915","d","elianto","#3366ff99","-1","-1","1","+10","[]","0","2","","","3363","42","1","2","win","no-go","0"
"pit-trial","106","854891","0.0-47.0","battery-v0.2","","""event"",""trial"",""time""
""fullscreenenter"",""1"",""2313""
","
","
","""event"",""trial"",""time""
""fullscreenenter"",""1"",""2313""
","
","","","-1","","","18","3363","2915","e","elianto","#f73b6a7A"," ","-1","0","-10","[3085.099999964237]","1","2","","","3363","43","2","3","lose","go","0"
"pit-trial","107","859754","0.0-48.0","battery-v0.2","","""event"",""trial"",""time""
""fullscreenenter"",""1"",""2313""
","
","
","""event"",""trial"",""time""
""fullscreenenter"",""1"",""2313""
","
","","","-1","","","18","3363","2915","j","elianto","#f73b6a7A"," ","-1","0","-10","[2992.599999964237]","1","2","","","3363","44","0","3","lose","go","0"
"pit-trial","108","864613","0.0-49.0","battery-v0.2","","""event"",""trial"",""time""
""fullscreenenter"",""1"",""2313""
","
","
","""event"",""trial"",""time""
""fullscreenenter"",""1"",""2313""
","
","","","-1","","","18","3363","2915","e","elianto","#f73b6a7A"," ","-1","0","0","[]","0","2","","","3363","45","2","3","lose","go","1"
"pit-trial","109","869477","0.0-50.0","battery-v0.2","","""event"",""trial"",""time""
""fullscreenenter"",""1"",""2313""
","
","
","""event"",""trial"",""time""
""fullscreenenter"",""1"",""2313""
","
","","","-1","","","18","3363","2915","w","elianto","#f73b6a7A","-1","-1","1","0","[]","0","2","","","3363","46","3","4","lose","no-go","0"
"pit-trial","110","874341","0.0-51.0","battery-v0.2","","""event"",""trial"",""time""
""fullscreenenter"",""1"",""2313""
","
","
","""event"",""trial"",""time""
""fullscreenenter"",""1"",""2313""
","
","","","-1","","","18","3363","2915","d","elianto","#3366ff99","-1","-1","1","+10","[]","0","2","","","3363","47","1","2","win","no-go","0"
"pit-trial","111","878708","0.0-52.0","battery-v0.2","","""event"",""trial"",""time""
""fullscreenenter"",""1"",""2313""
","
","
","""event"",""trial"",""time""
""fullscreenenter"",""1"",""2313""
","
","","","1505.800000011921","","","18","3363","2915","j","elianto","#f73b6a7A"," "," ","1","0","[2359.599999964237]","1","2","","","3363","48","0","3","lose","go","0"
"pit-trial","112","883572","0.0-53.0","battery-v0.2","","""event"",""trial"",""time""
""fullscreenenter"",""1"",""2313""
","
","
","""event"",""trial"",""time""
""fullscreenenter"",""1"",""2313""
","
","","","-1","","","18","3363","2915","d","elianto","#3366ff99","-1","-1","1","+10","[]","0","2","","","3363","49","1","2","win","no-go","0"
"pit-trial","113","887348","0.0-54.0","battery-v0.2","","""event"",""trial"",""time""
""fullscreenenter"",""1"",""2313""
","
","
","""event"",""trial"",""time""
""fullscreenenter"",""1"",""2313""
","
","","","921.3000000119209","","","18","3363","2915","e","elianto","#f73b6a7A"," "," ","1","0","[1771.300000011921]","1","2","","","3363","50","2","3","lose","go","0"
"pit-trial","114","892207","0.0-55.0","battery-v0.2","","""event"",""trial"",""time""
""fullscreenenter"",""1"",""2313""
","
","
","""event"",""trial"",""time""
""fullscreenenter"",""1"",""2313""
","
","","","-1","","","18","3363","2915","w","elianto","#f73b6a7A","-1","-1","1","0","[]","0","2","","","3363","51","3","4","lose","no-go","0"
"pit-trial","115","895919","0.0-56.0","battery-v0.2","","""event"",""trial"",""time""
""fullscreenenter"",""1"",""2313""
","
","
","""event"",""trial"",""time""
""fullscreenenter"",""1"",""2313""
","
","","","853","","","18","3363","2915","j","elianto","#f73b6a7A"," "," ","1","0","[1705.699999988079]","1","2","","","3363","52","0","3","lose","go","0"
"pit-trial","116","900190","0.0-57.0","battery-v0.2","","""event"",""trial"",""time""
""fullscreenenter"",""1"",""2313""
","
","
","""event"",""trial"",""time""
""fullscreenenter"",""1"",""2313""
","
","","","1413.8999999761581","","","18","3363","2915","w","elianto","#f73b6a7A","-1"," ","0","-10","[2264.699999988079]","1","2","","","3363","53","3","4","lose","no-go","0"
"pit-trial","117","903860","0.0-58.0","battery-v0.2","","""event"",""trial"",""time""
""fullscreenenter"",""1"",""2313""
","
","
","""event"",""trial"",""time""
""fullscreenenter"",""1"",""2313""
","
","","","808.5","","","18","3363","2915","j","elianto","#f73b6a7A"," "," ","1","-10","[1661.3999999761581]","1","2","","","3363","54","0","3","lose","go","1"
"pit-trial","118","908723","0.0-59.0","battery-v0.2","","""event"",""trial"",""time""
""fullscreenenter"",""1"",""2313""
","
","
","""event"",""trial"",""time""
""fullscreenenter"",""1"",""2313""
","
","","","-1","","","18","3363","2915","d","elianto","#3366ff99","-1","-1","1","+10","[]","0","2","","","3363","55","1","2","win","no-go","0"
"pit-trial","119","912647","0.0-60.0","battery-v0.2","","""event"",""trial"",""time""
""fullscreenenter"",""1"",""2313""
","
","
","""event"",""trial"",""time""
""fullscreenenter"",""1"",""2313""
","
","","","1060.199999988079","","","18","3363","2915","e","elianto","#f73b6a7A"," "," ","1","0","[1915.199999988079]","1","2","","","3363","56","2","3","lose","go","0"
"pit-trial","120","917507","0.0-61.0","battery-v0.2","","""event"",""trial"",""time""
""fullscreenenter"",""1"",""2313""
","
","
","""event"",""trial"",""time""
""fullscreenenter"",""1"",""2313""
","
","","","-1","","","18","3363","2915","w","elianto","#f73b6a7A","-1","-1","1","0","[]","0","2","","","3363","57","3","4","lose","no-go","0"
"pit-trial","121","921251","0.0-62.0","battery-v0.2","","""event"",""trial"",""time""
""fullscreenenter"",""1"",""2313""
","
","
","""event"",""trial"",""time""
""fullscreenenter"",""1"",""2313""
","
","","","879.8999999761581","","","18","3363","2915","e","elianto","#f73b6a7A"," "," ","1","0","[1734.800000011921]","1","2","","","3363","58","2","3","lose","go","0"
"pit-trial","122","925667","0.0-63.0","battery-v0.2","","""event"",""trial"",""time""
""fullscreenenter"",""1"",""2313""
","
","
","""event"",""trial"",""time""
""fullscreenenter"",""1"",""2313""
","
","","","1555","","","18","3363","2915","j","elianto","#f73b6a7A"," "," ","1","0","[2406.800000011921]","1","2","","","3363","59","0","3","lose","go","0"
"pit-trial","123","929784","0.0-64.0","battery-v0.2","","""event"",""trial"",""time""
""fullscreenenter"",""1"",""2313""
","
","
","""event"",""trial"",""time""
""fullscreenenter"",""1"",""2313""
","
","","","1259.6000000238419","","","18","3363","2915","s","elianto","#3366ff99"," "," ","1","+10","[2111.600000023842]","1","2","","","3363","60","4","1","win","go","0"
"pit-trial","124","934648","0.0-65.0","battery-v0.2","","""event"",""trial"",""time""
""fullscreenenter"",""1"",""2313""
","
","
","""event"",""trial"",""time""
""fullscreenenter"",""1"",""2313""
","
","","","-1","","","18","3363","2915","w","elianto","#f73b6a7A","-1","-1","1","0","[]","0","2","","","3363","61","3","4","lose","no-go","0"
"pit-trial","125","938802","0.0-66.0","battery-v0.2","","""event"",""trial"",""time""
""fullscreenenter"",""1"",""2313""
","
","
","""event"",""trial"",""time""
""fullscreenenter"",""1"",""2313""
","
","","","1294.199999988079","","","18","3363","2915","s","elianto","#3366ff99"," "," ","1","0","[2148.5]","1","2","","","3363","62","4","1","win","go","1"
"pit-trial","126","943666","0.0-67.0","battery-v0.2","","""event"",""trial"",""time""
""fullscreenenter"",""1"",""2313""
","
","
","""event"",""trial"",""time""
""fullscreenenter"",""1"",""2313""
","
","","","-1","","","18","3363","2915","d","elianto","#3366ff99","-1","-1","1","+10","[]","0","2","","","3363","63","1","2","win","no-go","0"
"pit-trial","127","948007","0.0-68.0","battery-v0.2","","""event"",""trial"",""time""
""fullscreenenter"",""1"",""2313""
","
","
","""event"",""trial"",""time""
""fullscreenenter"",""1"",""2313""
","
","","","1479.300000011921","","","18","3363","2915","e","elianto","#f73b6a7A"," "," ","1","0","[2332.599999964237]","1","2","","","3363","64","2","3","lose","go","0"
"pit-trial","128","951948","0.0-69.0","battery-v0.2","","""event"",""trial"",""time""
""fullscreenenter"",""1"",""2313""
","
","
","""event"",""trial"",""time""
""fullscreenenter"",""1"",""2313""
","
","","","1080.8999999761581","","","18","3363","2915","p","elianto","#3366ff99","-1"," ","0","+10","[1935.800000011921]","1","2","","","3363","65","5","2","win","no-go","1"
"pit-trial","129","956812","0.0-70.0","battery-v0.2","","""event"",""trial"",""time""
""fullscreenenter"",""1"",""2313""
","
","
","""event"",""trial"",""time""
""fullscreenenter"",""1"",""2313""
","
","","","-1","","","18","3363","2915","w","elianto","#f73b6a7A","-1","-1","1","0","[]","0","2","","","3363","66","3","4","lose","no-go","0"
"pit-trial","130","961676","0.0-71.0","battery-v0.2","","""event"",""trial"",""time""
""fullscreenenter"",""1"",""2313""
","
","
","""event"",""trial"",""time""
""fullscreenenter"",""1"",""2313""
","
","","","-1","","","18","3363","2915","s","elianto","#3366ff99"," ","-1","0","+10","[]","0","2","","","3363","67","4","1","win","go","1"
"pit-trial","131","966540","0.0-72.0","battery-v0.2","","""event"",""trial"",""time""
""fullscreenenter"",""1"",""2313""
","
","
","""event"",""trial"",""time""
""fullscreenenter"",""1"",""2313""
","
","","","-1","","","18","3363","2915","d","elianto","#3366ff99","-1","-1","1","+10","[]","0","2","","","3363","68","1","2","win","no-go","0"
"pit-trial","132","970544","0.0-73.0","battery-v0.2","","""event"",""trial"",""time""
""fullscreenenter"",""1"",""2313""
","
","
","""event"",""trial"",""time""
""fullscreenenter"",""1"",""2313""
","
","","","1143.9000000357628","","","18","3363","2915","p","elianto","#3366ff99","-1"," ","0","0","[1998.800000011921]","1","2","","","3363","69","5","2","win","no-go","0"
"pit-trial","133","975403","0.0-74.0","battery-v0.2","","""event"",""trial"",""time""
""fullscreenenter"",""1"",""2313""
","
","
","""event"",""trial"",""time""
""fullscreenenter"",""1"",""2313""
","
","","","-1","","","18","3363","2915","d","elianto","#3366ff99","-1","-1","1","+10","[]","0","2","","","3363","70","1","2","win","no-go","0"
"pit-trial","134","980267","0.0-75.0","battery-v0.2","","""event"",""trial"",""time""
""fullscreenenter"",""1"",""2313""
","
","
","""event"",""trial"",""time""
""fullscreenenter"",""1"",""2313""
","
","","","-1","","","18","3363","2915","s","elianto","#3366ff99"," ","-1","0","+10","[]","0","2","","","3363","71","4","1","win","go","1"
"pit-trial","135","984134","0.0-76.0","battery-v0.2","","""event"",""trial"",""time""
""fullscreenenter"",""1"",""2313""
","
","
","""event"",""trial"",""time""
""fullscreenenter"",""1"",""2313""
","
","","","1009.8999999761581","","","18","3363","2915","e","elianto","#f73b6a7A"," "," ","1","0","[1860.699999988079]","1","2","","","3363","72","2","3","lose","go","0"
"pit-trial","136","988998","0.0-77.0","battery-v0.2","","""event"",""trial"",""time""
""fullscreenenter"",""1"",""2313""
","
","
","""event"",""trial"",""time""
""fullscreenenter"",""1"",""2313""
","
","","","-1","","","18","3363","2915","d","elianto","#3366ff99","-1","-1","1","+10","[]","0","2","","","3363","73","1","2","win","no-go","0"
"pit-trial","137","993862","0.0-78.0","battery-v0.2","","""event"",""trial"",""time""
""fullscreenenter"",""1"",""2313""
","
","
","""event"",""trial"",""time""
""fullscreenenter"",""1"",""2313""
","
","","","-1","","","18","3363","2915","w","elianto","#f73b6a7A","-1","-1","1","0","[]","0","2","","","3363","74","3","4","lose","no-go","0"
"pit-trial","138","998725","0.0-79.0","battery-v0.2","","""event"",""trial"",""time""
""fullscreenenter"",""1"",""2313""
","
","
","""event"",""trial"",""time""
""fullscreenenter"",""1"",""2313""
","
","","","-1","","","18","3363","2915","s","elianto","#3366ff99"," ","-1","0","0","[]","0","2","","","3363","75","4","1","win","go","0"
"pit-trial","139","1003589","0.0-80.0","battery-v0.2","","""event"",""trial"",""time""
""fullscreenenter"",""1"",""2313""
","
","
","""event"",""trial"",""time""
""fullscreenenter"",""1"",""2313""
","
","","","-1","","","18","3363","2915","p","elianto","#3366ff99","-1","-1","1","+10","[]","0","2","","","3363","76","5","2","win","no-go","0"
"pit-trial","140","1008453","0.0-81.0","battery-v0.2","","""event"",""trial"",""time""
""fullscreenenter"",""1"",""2313""
","
","
","""event"",""trial"",""time""
""fullscreenenter"",""1"",""2313""
","
","","","-1","","","18","3363","2915","w","elianto","#f73b6a7A","-1","-1","1","0","[]","0","2","","","3363","77","3","4","lose","no-go","0"
"pit-trial","141","1013311","0.0-82.0","battery-v0.2","","""event"",""trial"",""time""
""fullscreenenter"",""1"",""2313""
","
","
","""event"",""trial"",""time""
""fullscreenenter"",""1"",""2313""
","
","","","-1","","","18","3363","2915","s","elianto","#3366ff99"," ","-1","0","+10","[]","0","2","","","3363","78","4","1","win","go","1"
"pit-trial","142","1017887","0.0-83.0","battery-v0.2","","""event"",""trial"",""time""
""fullscreenenter"",""1"",""2313""
","
","
","""event"",""trial"",""time""
""fullscreenenter"",""1"",""2313""
","
","","","1711.699999988079","","","18","3363","2915","p","elianto","#3366ff99","-1"," ","0","0","[2566.600000023842]","1","2","","","3363","79","5","2","win","no-go","0"
"pit-trial","143","1022745","0.0-84.0","battery-v0.2","","""event"",""trial"",""time""
""fullscreenenter"",""1"",""2313""
","
","
","""event"",""trial"",""time""
""fullscreenenter"",""1"",""2313""
","
","","","-1","","","18","3363","2915","s","elianto","#3366ff99"," ","-1","0","0","[]","0","2","","","3363","80","4","1","win","go","0"
"pit-trial","144","1027604","0.0-85.0","battery-v0.2","","""event"",""trial"",""time""
""fullscreenenter"",""1"",""2313""
","
","
","""event"",""trial"",""time""
""fullscreenenter"",""1"",""2313""
","
","","","-1","","","18","3363","2915","s","elianto","#3366ff99"," ","-1","0","0","[]","0","2","","","3363","81","4","1","win","go","0"
"pit-trial","145","1032468","0.0-86.0","battery-v0.2","","""event"",""trial"",""time""
""fullscreenenter"",""1"",""2313""
","
","
","""event"",""trial"",""time""
""fullscreenenter"",""1"",""2313""
","
","","","-1","","","18","3363","2915","w","elianto","#f73b6a7A","-1","-1","1","0","[]","0","2","","","3363","82","3","4","lose","no-go","0"
"pit-trial","146","1037332","0.0-87.0","battery-v0.2","","""event"",""trial"",""time""
""fullscreenenter"",""1"",""2313""
","
","
","""event"",""trial"",""time""
""fullscreenenter"",""1"",""2313""
","
","","","-1","","","18","3363","2915","p","elianto","#3366ff99","-1","-1","1","0","[]","0","2","","","3363","83","5","2","win","no-go","1"
"pit-trial","147","1042105","0.0-88.0","battery-v0.2","","""event"",""trial"",""time""
""fullscreenenter"",""1"",""2313""
","
","
","""event"",""trial"",""time""
""fullscreenenter"",""1"",""2313""
","
","","","1913.5","","","18","3363","2915","a","elianto","#f73b6a7A","-1"," ","0","0","[2766.400000035763]","1","2","","","3363","84","7","4","lose","no-go","1"
"pit-trial","148","1045977","0.0-89.0","battery-v0.2","","""event"",""trial"",""time""
""fullscreenenter"",""1"",""2313""
","
","
","""event"",""trial"",""time""
""fullscreenenter"",""1"",""2313""
","
","","","1010.6000000238419","","","18","3363","2915","s","elianto","#3366ff99"," "," ","1","+10","[1865]","1","2","","","3363","85","4","1","win","go","0"
"pit-trial","149","1050318","0.0-90.0","battery-v0.2","","""event"",""trial"",""time""
""fullscreenenter"",""1"",""2313""
","
","
","""event"",""trial"",""time""
""fullscreenenter"",""1"",""2313""
","
","","","1476.800000011921","","","18","3363","2915","g","elianto","#f73b6a7A"," "," ","1","0","[2331.400000035763]","1","2","","","3363","86","6","3","lose","go","0"
"pit-trial","150","1054318","0.0-91.0","battery-v0.2","","""event"",""trial"",""time""
""fullscreenenter"",""1"",""2313""
","
","
","""event"",""trial"",""time""
""fullscreenenter"",""1"",""2313""
","
","","","1141.9000000357628","","","18","3363","2915","a","elianto","#f73b6a7A","-1"," ","0","-10","[1992.300000011921]","1","2","","","3363","87","7","4","lose","no-go","0"
"pit-trial","151","1058259","0.0-92.0","battery-v0.2","","""event"",""trial"",""time""
""fullscreenenter"",""1"",""2313""
","
","
","""event"",""trial"",""time""
""fullscreenenter"",""1"",""2313""
","
","","","1084.6000000238419","","","18","3363","2915","p","elianto","#3366ff99","-1"," ","0","+10","[1935.1000000238419]","1","2","","","3363","88","5","2","win","no-go","1"
"pit-trial","152","1062803","0.0-93.0","battery-v0.2","","""event"",""trial"",""time""
""fullscreenenter"",""1"",""2313""
","
","
","""event"",""trial"",""time""
""fullscreenenter"",""1"",""2313""
","
","","","1680","","","18","3363","2915","s","elianto","#3366ff99"," "," ","1","+10","[2534.5]","1","2","","","3363","89","4","1","win","go","0"
"pit-trial","153","1066648","0.0-94.0","battery-v0.2","","""event"",""trial"",""time""
""fullscreenenter"",""1"",""2313""
","
","
","""event"",""trial"",""time""
""fullscreenenter"",""1"",""2313""
","
","","","983","","","18","3363","2915","g","elianto","#f73b6a7A"," "," ","1","0","[1837.8999999761581]","1","2","","","3363","90","6","3","lose","go","0"
"pit-trial","154","1070567","0.0-95.0","battery-v0.2","","""event"",""trial"",""time""
""fullscreenenter"",""1"",""2313""
","
","
","""event"",""trial"",""time""
""fullscreenenter"",""1"",""2313""
","
","","","1063.300000011921","","","18","3363","2915","p","elianto","#3366ff99","-1"," ","0","0","[1915.699999988079]","1","2","","","3363","91","5","2","win","no-go","0"
"pit-trial","155","1075431","0.0-96.0","battery-v0.2","","""event"",""trial"",""time""
""fullscreenenter"",""1"",""2313""
","
","
","""event"",""trial"",""time""
""fullscreenenter"",""1"",""2313""
","
","","","-1","","","18","3363","2915","a","elianto","#f73b6a7A","-1","-1","1","0","[]","0","2","","","3363","92","7","4","lose","no-go","0"
"pit-trial","156","1079215","0.0-97.0","battery-v0.2","","""event"",""trial"",""time""
""fullscreenenter"",""1"",""2313""
","
","
","""event"",""trial"",""time""
""fullscreenenter"",""1"",""2313""
","
","","","922.6000000238419","","","18","3363","2915","l","elianto","#3366ff99"," "," ","1","+10","[1774.800000011921]","1","2","","","3363","93","8","1","win","go","0"
"pit-trial","157","1084076","0.0-98.0","battery-v0.2","","""event"",""trial"",""time""
""fullscreenenter"",""1"",""2313""
","
","
","""event"",""trial"",""time""
""fullscreenenter"",""1"",""2313""
","
","","","-1","","","18","3363","2915","a","elianto","#f73b6a7A","-1","-1","1","0","[]","0","2","","","3363","94","7","4","lose","no-go","0"
"pit-trial","158","1088252","0.0-99.0","battery-v0.2","","""event"",""trial"",""time""
""fullscreenenter"",""1"",""2313""
","
","
","""event"",""trial"",""time""
""fullscreenenter"",""1"",""2313""
","
","","","1312.1000000238419","","","18","3363","2915","p","elianto","#3366ff99","-1"," ","0","0","[2167.099999964237]","1","2","","","3363","95","5","2","win","no-go","0"
"pit-trial","159","1092001","0.0-100.0","battery-v0.2","","""event"",""trial"",""time""
""fullscreenenter"",""1"",""2313""
","
","
","""event"",""trial"",""time""
""fullscreenenter"",""1"",""2313""
","
","","","891.5","","","18","3363","2915","g","elianto","#f73b6a7A"," "," ","1","0","[1742.1000000238419]","1","2","","","3363","96","6","3","lose","go","0"
"pit-trial","160","1095793","0.0-101.0","battery-v0.2","","""event"",""trial"",""time""
""fullscreenenter"",""1"",""2313""
","
","
","""event"",""trial"",""time""
""fullscreenenter"",""1"",""2313""
","
","","","935.1000000238419","","","18","3363","2915","l","elianto","#3366ff99"," "," ","1","+10","[1785.1000000238419]","1","2","","","3363","97","8","1","win","go","0"
"pit-trial","161","1100657","0.0-102.0","battery-v0.2","","""event"",""trial"",""time""
""fullscreenenter"",""1"",""2313""
","
","
","""event"",""trial"",""time""
""fullscreenenter"",""1"",""2313""
","
","","","-1","","","18","3363","2915","p","elianto","#3366ff99","-1","-1","1","0","[]","0","2","","","3363","98","5","2","win","no-go","1"
"pit-trial","162","1105366","0.0-103.0","battery-v0.2","","""event"",""trial"",""time""
""fullscreenenter"",""1"",""2313""
","
","
","""event"",""trial"",""time""
""fullscreenenter"",""1"",""2313""
","
","","","1848.5","","","18","3363","2915","a","elianto","#f73b6a7A","-1"," ","0","-10","[2703.399999976158]","1","2","","","3363","99","7","4","lose","no-go","0"
"pit-trial","163","1109115","0.0-104.0","battery-v0.2","","""event"",""trial"",""time""
""fullscreenenter"",""1"",""2313""
","
","
","""event"",""trial"",""time""
""fullscreenenter"",""1"",""2313""
","
","","","889","","","18","3363","2915","g","elianto","#f73b6a7A"," "," ","1","0","[1739.9000000357628]","1","2","","","3363","100","6","3","lose","go","0"
"pit-trial","164","1113979","0.0-105.0","battery-v0.2","","""event"",""trial"",""time""
""fullscreenenter"",""1"",""2313""
","
","
","""event"",""trial"",""time""
""fullscreenenter"",""1"",""2313""
","
","","","-1","","","18","3363","2915","a","elianto","#f73b6a7A","-1","-1","1","0","[]","0","2","","","3363","101","7","4","lose","no-go","0"
"pit-trial","165","1117654","0.0-106.0","battery-v0.2","","""event"",""trial"",""time""
""fullscreenenter"",""1"",""2313""
","
","
","""event"",""trial"",""time""
""fullscreenenter"",""1"",""2313""
","
","","","810.6999999880791","","","18","3363","2915","u","elianto","#3366ff99"," "," ","1","+10","[1665.3999999761581]","1","2","","","3363","102","9","1","win","go","0"
"pit-trial","166","1121659","0.0-107.0","battery-v0.2","","""event"",""trial"",""time""
""fullscreenenter"",""1"",""2313""
","
","
","""event"",""trial"",""time""
""fullscreenenter"",""1"",""2313""
","
","","","1141.800000011921","","","18","3363","2915","l","elianto","#3366ff99"," "," ","1","+10","[1996.5]","1","2","","","3363","103","8","1","win","go","0"
"pit-trial","167","1125654","0.0-108.0","battery-v0.2","","""event"",""trial"",""time""
""fullscreenenter"",""1"",""2313""
","
","
","""event"",""trial"",""time""
""fullscreenenter"",""1"",""2313""
","
","","","1135.0999999642372","","","18","3363","2915","p","elianto","#3366ff99","-1"," ","0","0","[1989.699999988079]","1","2","","","3363","104","5","2","win","no-go","0"
"pit-trial","168","1129600","0.0-109.0","battery-v0.2","","""event"",""trial"",""time""
""fullscreenenter"",""1"",""2313""
","
","
","""event"",""trial"",""time""
""fullscreenenter"",""1"",""2313""
","
","","","1086.9000000357628","","","18","3363","2915","s","elianto","#3366ff99"," "," ","1","+10","[1941.5]","1","2","","","3363","105","4","1","win","go","0"
"pit-trial","169","1133189","0.0-110.0","battery-v0.2","","""event"",""trial"",""time""
""fullscreenenter"",""1"",""2313""
","
","
","""event"",""trial"",""time""
""fullscreenenter"",""1"",""2313""
","
","","","733.6999999880791","","","18","3363","2915","u","elianto","#3366ff99"," "," ","1","0","[1584.3999999761581]","1","2","","","3363","106","9","1","win","go","1"
"pit-trial","170","1136789","0.0-111.0","battery-v0.2","","""event"",""trial"",""time""
""fullscreenenter"",""1"",""2313""
","
","
","""event"",""trial"",""time""
""fullscreenenter"",""1"",""2313""
","
","","","743.8000000119209","","","18","3363","2915","l","elianto","#3366ff99"," "," ","1","+10","[1595.5]","1","2","","","3363","107","8","1","win","go","0"
"pit-trial","171","1140719","0.0-112.0","battery-v0.2","","""event"",""trial"",""time""
""fullscreenenter"",""1"",""2313""
","
","
","""event"",""trial"",""time""
""fullscreenenter"",""1"",""2313""
","
","","","1067.1000000238419","","","18","3363","2915","g","elianto","#f73b6a7A"," "," ","1","0","[1922.1000000238419]","1","2","","","3363","108","6","3","lose","go","0"
"pit-trial","172","1144676","0.0-113.0","battery-v0.2","","""event"",""trial"",""time""
""fullscreenenter"",""1"",""2313""
","
","
","""event"",""trial"",""time""
""fullscreenenter"",""1"",""2313""
","
","","","1094.6000000238419","","","18","3363","2915","p","elianto","#3366ff99","-1"," ","0","+10","[1949.1000000238419]","1","2","","","3363","109","5","2","win","no-go","1"
"pit-trial","173","1148324","0.0-114.0","battery-v0.2","","""event"",""trial"",""time""
""fullscreenenter"",""1"",""2313""
","
","
","""event"",""trial"",""time""
""fullscreenenter"",""1"",""2313""
","
","","","783.7000000476837","","","18","3363","2915","g","elianto","#f73b6a7A"," "," ","1","-10","[1638.699999988079]","1","2","","","3363","110","6","3","lose","go","1"
"pit-trial","174","1153183","0.0-115.0","battery-v0.2","","""event"",""trial"",""time""
""fullscreenenter"",""1"",""2313""
","
","
","""event"",""trial"",""time""
""fullscreenenter"",""1"",""2313""
","
","","","-1","","","18","3363","2915","u","elianto","#3366ff99"," ","-1","0","+10","[]","0","2","","","3363","111","9","1","win","go","1"
"pit-trial","175","1156890","0.0-116.0","battery-v0.2","","""event"",""trial"",""time""
""fullscreenenter"",""1"",""2313""
","
","
","""event"",""trial"",""time""
""fullscreenenter"",""1"",""2313""
","
","","","845.6999999880791","","","18","3363","2915","l","elianto","#3366ff99"," "," ","1","+10","[1697.5999999642372]","1","2","","","3363","112","8","1","win","go","0"
"pit-trial","176","1160487","0.0-117.0","battery-v0.2","","""event"",""trial"",""time""
""fullscreenenter"",""1"",""2313""
","
","
","""event"",""trial"",""time""
""fullscreenenter"",""1"",""2313""
","
","","","734.8000000119209","","","18","3363","2915","g","elianto","#f73b6a7A"," "," ","1","0","[1589.6000000238419]","1","2","","","3363","113","6","3","lose","go","0"
"pit-trial","177","1164105","0.0-118.0","battery-v0.2","","""event"",""trial"",""time""
""fullscreenenter"",""1"",""2313""
","
","
","""event"",""trial"",""time""
""fullscreenenter"",""1"",""2313""
","
","","","758.7000000476837","","","18","3363","2915","l","elianto","#3366ff99"," "," ","1","+10","[1612.4000000357628]","1","2","","","3363","114","8","1","win","go","0"
"pit-trial","178","1168131","0.0-119.0","battery-v0.2","","""event"",""trial"",""time""
""fullscreenenter"",""1"",""2313""
","
","
","""event"",""trial"",""time""
""fullscreenenter"",""1"",""2313""
","
","","","1165","","","18","3363","2915","p","elianto","#3366ff99","-1"," ","0","0","[2019.800000011921]","1","2","","","3363","115","5","2","win","no-go","0"
"pit-trial","179","1172990","0.0-120.0","battery-v0.2","","""event"",""trial"",""time""
""fullscreenenter"",""1"",""2313""
","
","
","""event"",""trial"",""time""
""fullscreenenter"",""1"",""2313""
","
","","","-1","","","18","3363","2915","u","elianto","#3366ff99"," ","-1","0","+10","[]","0","2","","","3363","116","9","1","win","go","1"
"pit-trial","180","1176628","0.0-121.0","battery-v0.2","","""event"",""trial"",""time""
""fullscreenenter"",""1"",""2313""
","
","
","""event"",""trial"",""time""
""fullscreenenter"",""1"",""2313""
","
","","","775.5","","","18","3363","2915","l","elianto","#3366ff99"," "," ","1","+10","[1630.300000011921]","1","2","","","3363","117","8","1","win","go","0"
"pit-trial","181","1180115","0.0-122.0","battery-v0.2","","""event"",""trial"",""time""
""fullscreenenter"",""1"",""2313""
","
","
","""event"",""trial"",""time""
""fullscreenenter"",""1"",""2313""
","
","","","626","","","18","3363","2915","g","elianto","#f73b6a7A"," "," ","1","0","[1480.699999988079]","1","2","","","3363","118","6","3","lose","go","0"
"pit-trial","182","1184979","0.0-123.0","battery-v0.2","","""event"",""trial"",""time""
""fullscreenenter"",""1"",""2313""
","
","
","""event"",""trial"",""time""
""fullscreenenter"",""1"",""2313""
","
","","","-1","","","18","3363","2915","u","elianto","#3366ff99"," ","-1","0","0","[]","0","2","","","3363","119","9","1","win","go","0"
"pit-trial","183","1189495","0.0-124.0","battery-v0.2","","""event"",""trial"",""time""
""fullscreenenter"",""1"",""2313""
","
","
","""event"",""trial"",""time""
""fullscreenenter"",""1"",""2313""
","
","","","1656.800000011921","","","18","3363","2915","p","elianto","#3366ff99","-1"," ","0","+10","[2511.699999988079]","1","2","","","3363","120","5","2","win","no-go","1"
"pit-trial","184","1194354","0.0-125.0","battery-v0.2","","""event"",""trial"",""time""
""fullscreenenter"",""1"",""2313""
","
","
","""event"",""trial"",""time""
""fullscreenenter"",""1"",""2313""
","
","","","-1","","","18","3363","2915","a","elianto","#f73b6a7A","-1","-1","1","0","[]","0","2","","","3363","121","7","4","lose","no-go","0"
"pit-trial","185","1197970","0.0-126.0","battery-v0.2","","""event"",""trial"",""time""
""fullscreenenter"",""1"",""2313""
","
","
","""event"",""trial"",""time""
""fullscreenenter"",""1"",""2313""
","
","","","754.7999999523163","","","18","3363","2915","l","elianto","#3366ff99"," "," ","1","+10","[1607.0999999642372]","1","2","","","3363","122","8","1","win","go","0"
"pit-trial","186","1201709","0.0-127.0","battery-v0.2","","""event"",""trial"",""time""
""fullscreenenter"",""1"",""2313""
","
","
","""event"",""trial"",""time""
""fullscreenenter"",""1"",""2313""
","
","","","878.4000000357628","","","18","3363","2915","g","elianto","#f73b6a7A"," "," ","1","0","[1731.5]","1","2","","","3363","123","6","3","lose","go","0"
"pit-trial","187","1206572","0.0-128.0","battery-v0.2","","""event"",""trial"",""time""
""fullscreenenter"",""1"",""2313""
","
","
","""event"",""trial"",""time""
""fullscreenenter"",""1"",""2313""
","
","","","-1","","","18","3363","2915","u","elianto","#3366ff99"," ","-1","0","0","[]","0","2","","","3363","124","9","1","win","go","0"
"pit-trial","188","1211431","0.0-129.0","battery-v0.2","","""event"",""trial"",""time""
""fullscreenenter"",""1"",""2313""
","
","
","""event"",""trial"",""time""
""fullscreenenter"",""1"",""2313""
","
","","","-1","","","18","3363","2915","a","elianto","#f73b6a7A","-1","-1","1","0","[]","0","2","","","3363","125","7","4","lose","no-go","0"
"pit-trial","189","1215218","0.0-130.0","battery-v0.2","","""event"",""trial"",""time""
""fullscreenenter"",""1"",""2313""
","
","
","""event"",""trial"",""time""
""fullscreenenter"",""1"",""2313""
","
","","","927.0999999642372","","","18","3363","2915","g","elianto","#f73b6a7A"," "," ","1","0","[1779.5999999642372]","1","2","","","3363","126","6","3","lose","go","0"
"pit-trial","190","1218786","0.0-131.0","battery-v0.2","","""event"",""trial"",""time""
""fullscreenenter"",""1"",""2313""
","
","
","""event"",""trial"",""time""
""fullscreenenter"",""1"",""2313""
","
","","","704.1000000238419","","","18","3363","2915","l","elianto","#3366ff99"," "," ","1","+10","[1558.8999999761581]","1","2","","","3363","127","8","1","win","go","0"
"pit-trial","191","1222848","0.0-132.0","battery-v0.2","","""event"",""trial"",""time""
""fullscreenenter"",""1"",""2313""
","
","
","""event"",""trial"",""time""
""fullscreenenter"",""1"",""2313""
","
","","","1199.6000000238419","","","18","3363","2915","u","elianto","#3366ff99"," "," ","1","+10","[2054.2999999523163]","1","2","","","3363","128","9","1","win","go","0"
"pit-trial","192","1226401","0.0-133.0","battery-v0.2","","""event"",""trial"",""time""
""fullscreenenter"",""1"",""2313""
","
","
","""event"",""trial"",""time""
""fullscreenenter"",""1"",""2313""
","
","","","693.8999999761581","","","18","3363","2915","g","elianto","#f73b6a7A"," "," ","1","0","[1544.800000011921]","1","2","","","3363","129","6","3","lose","go","0"
"pit-trial","193","1231265","0.0-134.0","battery-v0.2","","""event"",""trial"",""time""
""fullscreenenter"",""1"",""2313""
","
","
","""event"",""trial"",""time""
""fullscreenenter"",""1"",""2313""
","
","","","-1","","","18","3363","2915","a","elianto","#f73b6a7A","-1","-1","1","0","[]","0","2","","","3363","130","7","4","lose","no-go","0"
"pit-trial","194","1235276","0.0-135.0","battery-v0.2","","""event"",""trial"",""time""
""fullscreenenter"",""1"",""2313""
","
","
","""event"",""trial"",""time""
""fullscreenenter"",""1"",""2313""
","
","","","1151","","","18","3363","2915","u","elianto","#3366ff99"," "," ","1","+10","[2001.8999999761581]","1","2","","","3363","131","9","1","win","go","0"
"pit-trial","195","1239430","0.0-136.0","battery-v0.2","","""event"",""trial"",""time""
""fullscreenenter"",""1"",""2313""
","
","
","""event"",""trial"",""time""
""fullscreenenter"",""1"",""2313""
","
","","","1292.699999988079","","","18","3363","2915","l","elianto","#3366ff99"," "," ","1","+10","[2146.800000011921]","1","2","","","3363","132","8","1","win","go","0"
"pit-trial","196","1244294","0.0-137.0","battery-v0.2","","""event"",""trial"",""time""
""fullscreenenter"",""1"",""2313""
","
","
","""event"",""trial"",""time""
""fullscreenenter"",""1"",""2313""
","
","","","-1","","","18","3363","2915","a","elianto","#f73b6a7A","-1","-1","1","-10","[]","0","2","","","3363","133","7","4","lose","no-go","1"
"pit-trial","197","1248304","0.0-138.0","battery-v0.2","","""event"",""trial"",""time""
""fullscreenenter"",""1"",""2313""
","
","
","""event"",""trial"",""time""
""fullscreenenter"",""1"",""2313""
","
","","","1151.5","","","18","3363","2915","u","elianto","#3366ff99"," "," ","1","+10","[2005.5999999642372]","1","2","","","3363","134","9","1","win","go","0"
"pit-trial","198","1252016","0.0-139.0","battery-v0.2","","""event"",""trial"",""time""
""fullscreenenter"",""1"",""2313""
","
","
","""event"",""trial"",""time""
""fullscreenenter"",""1"",""2313""
","
","","","848.6999999880791","","","18","3363","2915","l","elianto","#3366ff99"," "," ","1","+10","[1703.5999999642372]","1","2","","","3363","135","8","1","win","go","0"
"pit-trial","199","1256000","0.0-140.0","battery-v0.2","","""event"",""trial"",""time""
""fullscreenenter"",""1"",""2313""
","
","
","""event"",""trial"",""time""
""fullscreenenter"",""1"",""2313""
","
","","","1127.9000000357628","","","18","3363","2915","g","elianto","#f73b6a7A"," "," ","1","-10","[1978.8999999761581]","1","2","","","3363","136","6","3","lose","go","1"
"pit-trial","200","1259533","0.0-141.0","battery-v0.2","","""event"",""trial"",""time""
""fullscreenenter"",""1"",""2313""
","
","
","""event"",""trial"",""time""
""fullscreenenter"",""1"",""2313""
","
","","","674.8000000119209","","","18","3363","2915","g","elianto","#f73b6a7A"," "," ","1","0","[1525.9000000357628]","1","2","","","3363","137","6","3","lose","go","0"
"pit-trial","201","1263381","0.0-142.0","battery-v0.2","","""event"",""trial"",""time""
""fullscreenenter"",""1"",""2313""
","
","
","""event"",""trial"",""time""
""fullscreenenter"",""1"",""2313""
","
","","","989.3000000119209","","","18","3363","2915","u","elianto","#3366ff99"," "," ","1","+10","[1839.6000000238419]","1","2","","","3363","138","9","1","win","go","0"
"pit-trial","202","1268240","0.0-143.0","battery-v0.2","","""event"",""trial"",""time""
""fullscreenenter"",""1"",""2313""
","
","
","""event"",""trial"",""time""
""fullscreenenter"",""1"",""2313""
","
","","","-1","","","18","3363","2915","a","elianto","#f73b6a7A","-1","-1","1","0","[]","0","2","","","3363","139","7","4","lose","no-go","0"
"pit-trial","203","1271711","0.0-144.0","battery-v0.2","","""event"",""trial"",""time""
""fullscreenenter"",""1"",""2313""
","
","
","""event"",""trial"",""time""
""fullscreenenter"",""1"",""2313""
","
","","","608.1999999880791","","","18","3363","2915","l","elianto","#3366ff99"," "," ","1","0","[1462.9000000357628]","1","2","","","3363","140","8","1","win","go","1"
"pit-instructions","204","1285805","0.0-145.0","battery-v0.2","","""event"",""trial"",""time""
""fullscreenenter"",""1"",""2313""
","
","
","""event"",""trial"",""time""
""fullscreenenter"",""1"",""2313""
","
","","[{""page_index"":0,""viewing_time"":5819.600000023842},{""page_index"":1,""viewing_time"":8270.699999988079}]","14091.300000011921","","","","","","","","","","","","","","","","","","","","","","","",""
"pit-trial","205","1290216","0.0-146.0","battery-v0.2","","""event"",""trial"",""time""
""fullscreenenter"",""1"",""2313""
","
","
","""event"",""trial"",""time""
""fullscreenenter"",""1"",""2313""
","
","","","1544.6000000238419","","","18","3363","2915","t","elianto","#f73b6a7A","-1"," ","0","0","[2399.7000000476837]","1","3","","","3363","141","2","4","lose","no-go","1"
"pit-trial","206","1294271","0.0-147.0","battery-v0.2","","""event"",""trial"",""time""
""fullscreenenter"",""1"",""2313""
","
","
","""event"",""trial"",""time""
""fullscreenenter"",""1"",""2313""
","
","","","1195.699999988079","","","18","3363","2915","f","elianto","#3366ff99"," "," ","1","+10","[2046.199999988079]","1","3","","","3363","142","1","1","win","go","0"
"pit-trial","207","1297719","0.0-148.0","battery-v0.2","","""event"",""trial"",""time""
""fullscreenenter"",""1"",""2313""
","
","
","""event"",""trial"",""time""
""fullscreenenter"",""1"",""2313""
","
","","","590.3000000119209","","","18","3363","2915","b","elianto","#f73b6a7A"," "," ","1","-10","[1441.1000000238419]","1","3","","","3363","143","3","3","lose","go","1"
"pit-trial","208","1302051","0.0-149.0","battery-v0.2","","""event"",""trial"",""time""
""fullscreenenter"",""1"",""2313""
","
","
","""event"",""trial"",""time""
""fullscreenenter"",""1"",""2313""
","
","","","1469.3999999761581","","","18","3363","2915","n","elianto","#f73b6a7A","-1"," ","0","0","[2323]","1","3","","","3363","144","0","4","lose","no-go","1"
"pit-trial","209","1305878","0.0-150.0","battery-v0.2","","""event"",""trial"",""time""
""fullscreenenter"",""1"",""2313""
","
","
","""event"",""trial"",""time""
""fullscreenenter"",""1"",""2313""
","
","","","970.5","","","18","3363","2915","n","elianto","#f73b6a7A","-1"," ","0","-10","[1821]","1","3","","","3363","145","0","4","lose","no-go","0"
"pit-trial","210","1309703","0.0-151.0","battery-v0.2","","""event"",""trial"",""time""
""fullscreenenter"",""1"",""2313""
","
","
","""event"",""trial"",""time""
""fullscreenenter"",""1"",""2313""
","
","","","962.6999999880791","","","18","3363","2915","t","elianto","#f73b6a7A","-1"," ","0","-10","[1816.3999999761581]","1","3","","","3363","146","2","4","lose","no-go","0"
"pit-trial","211","1314562","0.0-152.0","battery-v0.2","","""event"",""trial"",""time""
""fullscreenenter"",""1"",""2313""
","
","
","""event"",""trial"",""time""
""fullscreenenter"",""1"",""2313""
","
","","","-1","","","18","3363","2915","b","elianto","#f73b6a7A"," ","-1","0","-10","[]","0","3","","","3363","147","3","3","lose","go","0"
"pit-trial","212","1319059","0.0-153.0","battery-v0.2","","""event"",""trial"",""time""
""fullscreenenter"",""1"",""2313""
","
","
","""event"",""trial"",""time""
""fullscreenenter"",""1"",""2313""
","
","","","1638.6000000238419","","","18","3363","2915","f","elianto","#3366ff99"," "," ","1","+10","[2490.699999988079]","1","3","","","3363","148","1","1","win","go","0"
"pit-trial","213","1323226","0.0-154.0","battery-v0.2","","""event"",""trial"",""time""
""fullscreenenter"",""1"",""2313""
","
","
","""event"",""trial"",""time""
""fullscreenenter"",""1"",""2313""
","
","","","1306.5","","","18","3363","2915","t","elianto","#f73b6a7A","-1"," ","0","-10","[2161.199999988079]","1","3","","","3363","149","2","4","lose","no-go","0"
"pit-trial","214","1328088","0.0-155.0","battery-v0.2","","""event"",""trial"",""time""
""fullscreenenter"",""1"",""2313""
","
","
","""event"",""trial"",""time""
""fullscreenenter"",""1"",""2313""
","
","","","-1","","","18","3363","2915","b","elianto","#f73b6a7A"," ","-1","0","0","[]","0","3","","","3363","150","3","3","lose","go","1"
"pit-trial","215","1332952","0.0-156.0","battery-v0.2","","""event"",""trial"",""time""
""fullscreenenter"",""1"",""2313""
","
","
","""event"",""trial"",""time""
""fullscreenenter"",""1"",""2313""
","
","","","-1","","","18","3363","2915","n","elianto","#f73b6a7A","-1","-1","1","0","[]","0","3","","","3363","151","0","4","lose","no-go","0"
"pit-trial","216","1336621","0.0-157.0","battery-v0.2","","""event"",""trial"",""time""
""fullscreenenter"",""1"",""2313""
","
","
","""event"",""trial"",""time""
""fullscreenenter"",""1"",""2313""
","
","","","805","","","18","3363","2915","f","elianto","#3366ff99"," "," ","1","0","[1660.199999988079]","1","3","","","3363","152","1","1","win","go","1"
"pit-trial","217","1341485","0.0-158.0","battery-v0.2","","""event"",""trial"",""time""
""fullscreenenter"",""1"",""2313""
","
","
","""event"",""trial"",""time""
""fullscreenenter"",""1"",""2313""
","
","","","-1","","","18","3363","2915","t","elianto","#f73b6a7A","-1","-1","1","0","[]","0","3","","","3363","153","2","4","lose","no-go","0"
"pit-trial","218","1346349","0.0-159.0","battery-v0.2","","""event"",""trial"",""time""
""fullscreenenter"",""1"",""2313""
","
","
","""event"",""trial"",""time""
""fullscreenenter"",""1"",""2313""
","
","","","-1","","","18","3363","2915","f","elianto","#3366ff99"," ","-1","0","0","[]","0","3","","","3363","154","1","1","win","go","0"
"pit-trial","219","1351213","0.0-160.0","battery-v0.2","","""event"",""trial"",""time""
""fullscreenenter"",""1"",""2313""
","
","
","""event"",""trial"",""time""
""fullscreenenter"",""1"",""2313""
","
","","","-1","","","18","3363","2915","b","elianto","#f73b6a7A"," ","-1","0","-10","[]","0","3","","","3363","155","3","3","lose","go","0"
"pit-trial","220","1356077","0.0-161.0","battery-v0.2","","""event"",""trial"",""time""
""fullscreenenter"",""1"",""2313""
","
","
","""event"",""trial"",""time""
""fullscreenenter"",""1"",""2313""
","
","","","-1","","","18","3363","2915","n","elianto","#f73b6a7A","-1","-1","1","0","[]","0","3","","","3363","156","0","4","lose","no-go","0"
"pit-trial","221","1360941","0.0-162.0","battery-v0.2","","""event"",""trial"",""time""
""fullscreenenter"",""1"",""2313""
","
","
","""event"",""trial"",""time""
""fullscreenenter"",""1"",""2313""
","
","","","-1","","","18","3363","2915","b","elianto","#f73b6a7A"," ","-1","0","-10","[]","0","3","","","3363","157","3","3","lose","go","0"
"pit-trial","222","1364594","0.0-163.0","battery-v0.2","","""event"",""trial"",""time""
""fullscreenenter"",""1"",""2313""
","
","
","""event"",""trial"",""time""
""fullscreenenter"",""1"",""2313""
","
","","","791.5","","","18","3363","2915","f","elianto","#3366ff99"," "," ","1","0","[1646.199999988079]","1","3","","","3363","158","1","1","win","go","1"
"pit-trial","223","1369458","0.0-164.0","battery-v0.2","","""event"",""trial"",""time""
""fullscreenenter"",""1"",""2313""
","
","
","""event"",""trial"",""time""
""fullscreenenter"",""1"",""2313""
","
","","","-1","","","18","3363","2915","n","elianto","#f73b6a7A","-1","-1","1","0","[]","0","3","","","3363","159","0","4","lose","no-go","0"
"pit-trial","224","1374321","0.0-165.0","battery-v0.2","","""event"",""trial"",""time""
""fullscreenenter"",""1"",""2313""
","
","
","""event"",""trial"",""time""
""fullscreenenter"",""1"",""2313""
","
","","","-1","","","18","3363","2915","t","elianto","#f73b6a7A","-1","-1","1","-10","[]","0","3","","","3363","160","2","4","lose","no-go","1"
"pit-trial","225","1379185","0.0-166.0","battery-v0.2","","""event"",""trial"",""time""
""fullscreenenter"",""1"",""2313""
","
","
","""event"",""trial"",""time""
""fullscreenenter"",""1"",""2313""
","
","","","-1","","","18","3363","2915","n","elianto","#f73b6a7A","-1","-1","1","0","[]","0","3","","","3363","161","0","4","lose","no-go","0"
"pit-trial","226","1384049","0.0-167.0","battery-v0.2","","""event"",""trial"",""time""
""fullscreenenter"",""1"",""2313""
","
","
","""event"",""trial"",""time""
""fullscreenenter"",""1"",""2313""
","
","","","-1","","","18","3363","2915","t","elianto","#f73b6a7A","-1","-1","1","0","[]","0","3","","","3363","162","2","4","lose","no-go","0"
"pit-trial","227","1388912","0.0-168.0","battery-v0.2","","""event"",""trial"",""time""
""fullscreenenter"",""1"",""2313""
","
","
","""event"",""trial"",""time""
""fullscreenenter"",""1"",""2313""
","
","","","-1","","","18","3363","2915","b","elianto","#f73b6a7A"," ","-1","0","0","[3064.5]","1","3","","","3363","163","3","3","lose","go","1"
"pit-trial","228","1393776","0.0-169.0","battery-v0.2","","""event"",""trial"",""time""
""fullscreenenter"",""1"",""2313""
","
","
","""event"",""trial"",""time""
""fullscreenenter"",""1"",""2313""
","
","","","-1","","","18","3363","2915","f","elianto","#3366ff99"," ","-1","0","+10","[]","0","3","","","3363","164","1","1","win","go","1"
"pit-trial","229","1397800","0.0-170.0","battery-v0.2","","""event"",""trial"",""time""
""fullscreenenter"",""1"",""2313""
","
","
","""event"",""trial"",""time""
""fullscreenenter"",""1"",""2313""
","
","","","1163.4000000357628","","","18","3363","2915","c","elianto","#3366ff99","-1"," ","0","0","[2018.6000000238419]","1","3","","","3363","165","4","2","win","no-go","0"
"pit-trial","230","1402661","0.0-171.0","battery-v0.2","","""event"",""trial"",""time""
""fullscreenenter"",""1"",""2313""
","
","
","""event"",""trial"",""time""
""fullscreenenter"",""1"",""2313""
","
","","","-1","","","18","3363","2915","t","elianto","#f73b6a7A","-1","-1","1","0","[]","0","3","","","3363","166","2","4","lose","no-go","0"
"pit-trial","231","1407525","0.0-172.0","battery-v0.2","","""event"",""trial"",""time""
""fullscreenenter"",""1"",""2313""
","
","
","""event"",""trial"",""time""
""fullscreenenter"",""1"",""2313""
","
","","","-1","","","18","3363","2915","b","elianto","#f73b6a7A"," ","-1","0","-10","[]","0","3","","","3363","167","3","3","lose","go","0"
"pit-trial","232","1412389","0.0-173.0","battery-v0.2","","""event"",""trial"",""time""
""fullscreenenter"",""1"",""2313""
","
","
","""event"",""trial"",""time""
""fullscreenenter"",""1"",""2313""
","
","","","-1","","","18","3363","2915","n","elianto","#f73b6a7A","-1","-1","1","0","[]","0","3","","","3363","168","0","4","lose","no-go","0"
"pit-trial","233","1415952","0.0-174.0","battery-v0.2","","""event"",""trial"",""time""
""fullscreenenter"",""1"",""2313""
","
","
","""event"",""trial"",""time""
""fullscreenenter"",""1"",""2313""
","
","","","698.3999999761581","","","18","3363","2915","b","elianto","#f73b6a7A"," "," ","1","0","[1553.5]","1","3","","","3363","169","3","3","lose","go","0"
"pit-trial","234","1419642","0.0-175.0","battery-v0.2","","""event"",""trial"",""time""
""fullscreenenter"",""1"",""2313""
","
","
","""event"",""trial"",""time""
""fullscreenenter"",""1"",""2313""
","
","","","828.3000000119209","","","18","3363","2915","c","elianto","#3366ff99","-1"," ","0","+10","[1682.8999999761581]","1","3","","","3363","170","4","2","win","no-go","1"
"pit-trial","235","1424506","0.0-176.0","battery-v0.2","","""event"",""trial"",""time""
""fullscreenenter"",""1"",""2313""
","
","
","""event"",""trial"",""time""
""fullscreenenter"",""1"",""2313""
","
","","","-1","","","18","3363","2915","f","elianto","#3366ff99"," ","-1","0","+10","[]","0","3","","","3363","171","1","1","win","go","1"
"pit-trial","236","1429370","0.0-177.0","battery-v0.2","","""event"",""trial"",""time""
""fullscreenenter"",""1"",""2313""
","
","
","""event"",""trial"",""time""
""fullscreenenter"",""1"",""2313""
","
","","","-1","","","18","3363","2915","n","elianto","#f73b6a7A","-1","-1","1","0","[]","0","3","","","3363","172","0","4","lose","no-go","0"
"pit-trial","237","1434234","0.0-178.0","battery-v0.2","","""event"",""trial"",""time""
""fullscreenenter"",""1"",""2313""
","
","
","""event"",""trial"",""time""
""fullscreenenter"",""1"",""2313""
","
","","","-1","","","18","3363","2915","t","elianto","#f73b6a7A","-1","-1","1","0","[]","0","3","","","3363","173","2","4","lose","no-go","0"
"pit-trial","238","1438334","0.0-179.0","battery-v0.2","","""event"",""trial"",""time""
""fullscreenenter"",""1"",""2313""
","
","
","""event"",""trial"",""time""
""fullscreenenter"",""1"",""2313""
","
","","","1239.199999988079","","","18","3363","2915","c","elianto","#3366ff99","-1"," ","0","0","[2093.100000023842]","1","3","","","3363","174","4","2","win","no-go","0"
"pit-trial","239","1443198","0.0-180.0","battery-v0.2","","""event"",""trial"",""time""
""fullscreenenter"",""1"",""2313""
","
","
","""event"",""trial"",""time""
""fullscreenenter"",""1"",""2313""
","
","","","-1","","","18","3363","2915","n","elianto","#f73b6a7A","-1","-1","1","0","[]","0","3","","","3363","175","0","4","lose","no-go","0"
"pit-trial","240","1448057","0.0-181.0","battery-v0.2","","""event"",""trial"",""time""
""fullscreenenter"",""1"",""2313""
","
","
","""event"",""trial"",""time""
""fullscreenenter"",""1"",""2313""
","
","","","-1","","","18","3363","2915","f","elianto","#3366ff99"," ","-1","0","0","[]","0","3","","","3363","176","1","1","win","go","0"
"pit-trial","241","1452920","0.0-182.0","battery-v0.2","","""event"",""trial"",""time""
""fullscreenenter"",""1"",""2313""
","
","
","""event"",""trial"",""time""
""fullscreenenter"",""1"",""2313""
","
","","","-1","","","18","3363","2915","n","elianto","#f73b6a7A","-1","-1","1","0","[]","0","3","","","3363","177","0","4","lose","no-go","0"
"pit-trial","242","1456595","0.0-183.0","battery-v0.2","","""event"",""trial"",""time""
""fullscreenenter"",""1"",""2313""
","
","
","""event"",""trial"",""time""
""fullscreenenter"",""1"",""2313""
","
","","","816.5999999642372","","","18","3363","2915","c","elianto","#3366ff99","-1"," ","0","0","[1667.0999999642372]","1","3","","","3363","178","4","2","win","no-go","0"
"pit-trial","243","1460435","0.0-184.0","battery-v0.2","","""event"",""trial"",""time""
""fullscreenenter"",""1"",""2313""
","
","
","""event"",""trial"",""time""
""fullscreenenter"",""1"",""2313""
","
","","","980.3000000119209","","","18","3363","2915","f","elianto","#3366ff99"," "," ","1","+10","[1832]","1","3","","","3363","179","1","1","win","go","0"
"pit-trial","244","1464488","0.0-185.0","battery-v0.2","","""event"",""trial"",""time""
""fullscreenenter"",""1"",""2313""
","
","
","""event"",""trial"",""time""
""fullscreenenter"",""1"",""2313""
","
","","","1189.9000000357628","","","18","3363","2915","b","elianto","#f73b6a7A"," "," ","1","-10","[2045]","1","3","","","3363","180","3","3","lose","go","1"
"pit-trial","245","1468680","0.0-186.0","battery-v0.2","","""event"",""trial"",""time""
""fullscreenenter"",""1"",""2313""
","
","
","""event"",""trial"",""time""
""fullscreenenter"",""1"",""2313""
","
","","","1327.3999999761581","","","18","3363","2915","b","elianto","#f73b6a7A"," "," ","1","0","[2182.300000011921]","1","3","","","3363","181","3","3","lose","go","0"
"pit-trial","246","1473544","0.0-187.0","battery-v0.2","","""event"",""trial"",""time""
""fullscreenenter"",""1"",""2313""
","
","
","""event"",""trial"",""time""
""fullscreenenter"",""1"",""2313""
","
","","","-1","","","18","3363","2915","f","elianto","#3366ff99"," ","-1","0","0","[]","0","3","","","3363","182","1","1","win","go","0"
"pit-trial","247","1478408","0.0-188.0","battery-v0.2","","""event"",""trial"",""time""
""fullscreenenter"",""1"",""2313""
","
","
","""event"",""trial"",""time""
""fullscreenenter"",""1"",""2313""
","
","","","-1","","","18","3363","2915","t","elianto","#f73b6a7A","-1","-1","1","0","[]","0","3","","","3363","183","2","4","lose","no-go","0"
"pit-trial","248","1481970","0.0-189.0","battery-v0.2","","""event"",""trial"",""time""
""fullscreenenter"",""1"",""2313""
","
","
","""event"",""trial"",""time""
""fullscreenenter"",""1"",""2313""
","
","","","698","","","18","3363","2915","c","elianto","#3366ff99","-1"," ","0","0","[1552.699999988079]","1","3","","","3363","184","4","2","win","no-go","0"
"pit-trial","249","1486013","0.0-190.0","battery-v0.2","","""event"",""trial"",""time""
""fullscreenenter"",""1"",""2313""
","
","
","""event"",""trial"",""time""
""fullscreenenter"",""1"",""2313""
","
","","","1182.699999988079","","","18","3363","2915","b","elianto","#f73b6a7A"," "," ","1","0","[2037.699999988079]","1","3","","","3363","185","3","3","lose","go","0"
"pit-trial","250","1489714","0.0-191.0","battery-v0.2","","""event"",""trial"",""time""
""fullscreenenter"",""1"",""2313""
","
","
","""event"",""trial"",""time""
""fullscreenenter"",""1"",""2313""
","
","","","844.8999999761581","","","18","3363","2915","f","elianto","#3366ff99"," "," ","1","+10","[1695.5999999642372]","1","3","","","3363","186","1","1","win","go","0"
"pit-trial","251","1494578","0.0-192.0","battery-v0.2","","""event"",""trial"",""time""
""fullscreenenter"",""1"",""2313""
","
","
","""event"",""trial"",""time""
""fullscreenenter"",""1"",""2313""
","
","","","-1","","","18","3363","2915","c","elianto","#3366ff99","-1","-1","1","+10","[]","0","3","","","3363","187","4","2","win","no-go","0"
"pit-trial","252","1499441","0.0-193.0","battery-v0.2","","""event"",""trial"",""time""
""fullscreenenter"",""1"",""2313""
","
","
","""event"",""trial"",""time""
""fullscreenenter"",""1"",""2313""
","
","","","-1","","","18","3363","2915","t","elianto","#f73b6a7A","-1","-1","1","0","[]","0","3","","","3363","188","2","4","lose","no-go","0"
"pit-trial","253","1504305","0.0-194.0","battery-v0.2","","""event"",""trial"",""time""
""fullscreenenter"",""1"",""2313""
","
","
","""event"",""trial"",""time""
""fullscreenenter"",""1"",""2313""
","
","","","-1","","","18","3363","2915","c","elianto","#3366ff99","-1","-1","1","+10","[]","0","3","","","3363","189","4","2","win","no-go","0"
"pit-trial","254","1508396","0.0-195.0","battery-v0.2","","""event"",""trial"",""time""
""fullscreenenter"",""1"",""2313""
","
","
","""event"",""trial"",""time""
""fullscreenenter"",""1"",""2313""
","
","","","1230.699999988079","","","18","3363","2915","b","elianto","#f73b6a7A"," "," ","1","0","[2085.800000011921]","1","3","","","3363","190","3","3","lose","go","0"
"pit-trial","255","1512406","0.0-196.0","battery-v0.2","","""event"",""trial"",""time""
""fullscreenenter"",""1"",""2313""
","
","
","""event"",""trial"",""time""
""fullscreenenter"",""1"",""2313""
","
","","","1150.5","","","18","3363","2915","f","elianto","#3366ff99"," "," ","1","0","[2002]","1","3","","","3363","191","1","1","win","go","1"
"pit-trial","256","1516065","0.0-197.0","battery-v0.2","","""event"",""trial"",""time""
""fullscreenenter"",""1"",""2313""
","
","
","""event"",""trial"",""time""
""fullscreenenter"",""1"",""2313""
","
","","","795.6999999880791","","","18","3363","2915","z","elianto","#3366ff99"," "," ","1","+10","[1651]","1","3","","","3363","192","5","1","win","go","0"
"pit-trial","257","1520072","0.0-198.0","battery-v0.2","","""event"",""trial"",""time""
""fullscreenenter"",""1"",""2313""
","
","
","""event"",""trial"",""time""
""fullscreenenter"",""1"",""2313""
","
","","","1149.8999999761581","","","18","3363","2915","b","elianto","#f73b6a7A"," "," ","1","0","[2000.2999999523163]","1","3","","","3363","193","3","3","lose","go","0"
"pit-trial","258","1523643","0.0-199.0","battery-v0.2","","""event"",""trial"",""time""
""fullscreenenter"",""1"",""2313""
","
","
","""event"",""trial"",""time""
""fullscreenenter"",""1"",""2313""
","
","","","709.7000000476837","","","18","3363","2915","z","elianto","#3366ff99"," "," ","1","0","[1562.300000011921]","1","3","","","3363","194","5","1","win","go","1"
"pit-trial","259","1528507","0.0-200.0","battery-v0.2","","""event"",""trial"",""time""
""fullscreenenter"",""1"",""2313""
","
","
","""event"",""trial"",""time""
""fullscreenenter"",""1"",""2313""
","
","","","-1","","","18","3363","2915","c","elianto","#3366ff99","-1","-1","1","+10","[]","0","3","","","3363","195","4","2","win","no-go","0"
"pit-trial","260","1532432","0.0-201.0","battery-v0.2","","""event"",""trial"",""time""
""fullscreenenter"",""1"",""2313""
","
","
","""event"",""trial"",""time""
""fullscreenenter"",""1"",""2313""
","
","","","1061.3999999761581","","","18","3363","2915","f","elianto","#3366ff99"," "," ","1","+10","[1916.1000000238419]","1","3","","","3363","196","1","1","win","go","0"
"pit-trial","261","1537296","0.0-202.0","battery-v0.2","","""event"",""trial"",""time""
""fullscreenenter"",""1"",""2313""
","
","
","""event"",""trial"",""time""
""fullscreenenter"",""1"",""2313""
","
","","","-1","","","18","3363","2915","c","elianto","#3366ff99","-1","-1","1","+10","[]","0","3","","","3363","197","4","2","win","no-go","0"
"pit-trial","262","1541056","0.0-203.0","battery-v0.2","","""event"",""trial"",""time""
""fullscreenenter"",""1"",""2313""
","
","
","""event"",""trial"",""time""
""fullscreenenter"",""1"",""2313""
","
","","","901.3000000119209","","","18","3363","2915","b","elianto","#f73b6a7A"," "," ","1","0","[1752.699999988079]","1","3","","","3363","198","3","3","lose","go","0"
"pit-trial","263","1544645","0.0-204.0","battery-v0.2","","""event"",""trial"",""time""
""fullscreenenter"",""1"",""2313""
","
","
","""event"",""trial"",""time""
""fullscreenenter"",""1"",""2313""
","
","","","726.6999999880791","","","18","3363","2915","z","elianto","#3366ff99"," "," ","1","0","[1581.5]","1","3","","","3363","199","5","1","win","go","1"
"pit-trial","264","1548834","0.0-205.0","battery-v0.2","","""event"",""trial"",""time""
""fullscreenenter"",""1"",""2313""
","
","
","""event"",""trial"",""time""
""fullscreenenter"",""1"",""2313""
","
","","","1330.0999999642372","","","18","3363","2915","h","elianto","#f73b6a7A","-1"," ","0","-10","[2180.399999976158]","1","3","","","3363","200","6","4","lose","no-go","0"
"pit-trial","265","1553695","0.0-206.0","battery-v0.2","","""event"",""trial"",""time""
""fullscreenenter"",""1"",""2313""
","
","
","""event"",""trial"",""time""
""fullscreenenter"",""1"",""2313""
","
","","","-1","","","18","3363","2915","z","elianto","#3366ff99"," ","-1","0","0","[]","0","3","","","3363","201","5","1","win","go","0"
"pit-trial","266","1558559","0.0-207.0","battery-v0.2","","""event"",""trial"",""time""
""fullscreenenter"",""1"",""2313""
","
","
","""event"",""trial"",""time""
""fullscreenenter"",""1"",""2313""
","
","","","-1","","","18","3363","2915","h","elianto","#f73b6a7A","-1","-1","1","-10","[]","0","3","","","3363","202","6","4","lose","no-go","1"
"pit-trial","267","1562500","0.0-208.0","battery-v0.2","","""event"",""trial"",""time""
