"trial_type","trial_index","time_elapsed","internal_node_id","task_version","subject_id","interactions","blur_events","focus_events","fullscreenenter_events","fullscreenexit_events","success","view_history","rt","responses","num_errors","age","subject","participantId","rune","rune_set","hex","correct","choice","accuracy","outcome","keys","total_keys","block","practice","value","sub","trial","stimulus","robot","valence","action","sham"
"pavlovia","0","27","0.0-0.0","battery-v0.2","","""event"",""trial"",""time""
""fullscreenenter"",""1"",""3029""
","
","
","""event"",""trial"",""time""
""fullscreenenter"",""1"",""3029""
","
","","","","","","","","","","","","","","","","","","","","","","","","","","",""
"fullscreen","1","3995","0.0-1.0","battery-v0.2","","""event"",""trial"",""time""
""fullscreenenter"",""1"",""3029""
","
","
","""event"",""trial"",""time""
""fullscreenenter"",""1"",""3029""
","
","true","","","","","","","","","","","","","","","","","","","","","","","","","",""
"pit-instructions","2","9867","0.0-2.0-0.0","battery-v0.2","","""event"",""trial"",""time""
""fullscreenenter"",""1"",""3029""
","
","
","""event"",""trial"",""time""
""fullscreenenter"",""1"",""3029""
","
","","[{""page_index"":0,""viewing_time"":5868.3000000000175}]","5868.700000000012","","","","","","","","","","","","","","","","","","","","","","","",""
"pit-comprehension","3","14576","0.0-2.0-1.0-0.0","battery-v0.2","","""event"",""trial"",""time""
""fullscreenenter"",""1"",""3029""
","
","
","""event"",""trial"",""time""
""fullscreenenter"",""1"",""3029""
","
","","","4703.899999999994","[""shark""]","0","17","12323","5530","","","","","","","","","","","","","","","","","","",""
"pit-instructions","4","15601","0.0-2.0-1.0-1.0","battery-v0.2","","""event"",""trial"",""time""
""fullscreenenter"",""1"",""3029""
","
","
","""event"",""trial"",""time""
""fullscreenenter"",""1"",""3029""
","
","","[{""page_index"":0,""viewing_time"":1016.4000000000233}]","1016.8000000000175","","","","","","","","","","","","","","","","","","","","","","","",""
"pit-comprehension","5","18084","0.0-2.0-2.0-0.0","battery-v0.2","","""event"",""trial"",""time""
""fullscreenenter"",""1"",""3029""
","
","
","""event"",""trial"",""time""
""fullscreenenter"",""1"",""3029""
","
","","","2478.600000000006","[""tiger""]","0","17","12323","5530","","","","","","","","","","","","","","","","","","",""
"pit-instructions","6","19259","0.0-2.0-2.0-1.0","battery-v0.2","","""event"",""trial"",""time""
""fullscreenenter"",""1"",""3029""
","
","
","""event"",""trial"",""time""
""fullscreenenter"",""1"",""3029""
","
","","[{""page_index"":0,""viewing_time"":1171.2000000000116}]","1171.5","","","","","","","","","","","","","","","","","","","","","","","",""
"pit-instructions","7","119286","0.0-2.0-3.0","battery-v0.2","","""event"",""trial"",""time""
""fullscreenenter"",""1"",""3029""
","
","
","""event"",""trial"",""time""
""fullscreenenter"",""1"",""3029""
","
","","[{""page_index"":0,""viewing_time"":8003.3000000000175},{""page_index"":1,""viewing_time"":5445},{""page_index"":2,""viewing_time"":6817.699999999953},{""page_index"":3,""viewing_time"":5414.700000000012},{""page_index"":4,""viewing_time"":5987.100000000035},{""page_index"":5,""viewing_time"":5637.399999999965},{""page_index"":6,""viewing_time"":6498},{""page_index"":7,""viewing_time"":8737.700000000012},{""page_index"":8,""viewing_time"":6164.900000000023},{""page_index"":9,""viewing_time"":8640},{""page_index"":10,""viewing_time"":8081},{""page_index"":11,""viewing_time"":10459},{""page_index"":12,""viewing_time"":10101.799999999988},{""page_index"":13,""viewing_time"":4036}]","100023.9","","","","","","","","","","","","","","","","","","","","","","","",""
"pit-trial","8","122818","0.0-2.0-4.0-0.0","battery-v0.2","","""event"",""trial"",""time""
""fullscreenenter"",""1"",""3029""
","
","
","""event"",""trial"",""time""
""fullscreenenter"",""1"",""3029""
","
","","","677.0999999999767","","","17","12323","5530","&#9784;","elianto","#FFFFF080"," "," ","1","&#10004","[1527.5]","1","0","0","","","","","","","",""
"pit-trial","9","126185","0.0-2.0-4.1-0.1","battery-v0.2","","""event"",""trial"",""time""
""fullscreenenter"",""1"",""3029""
","
","
","""event"",""trial"",""time""
""fullscreenenter"",""1"",""3029""
","
","","","512","","","17","12323","5530","&#9784;","elianto","#FFFFF080"," "," ","1","&#10004","[1362.4000000000233]","1","0","0","","","","","","","",""
"pit-trial","10","129639","0.0-2.0-4.2-0.2","battery-v0.2","","""event"",""trial"",""time""
""fullscreenenter"",""1"",""3029""
","
","
","""event"",""trial"",""time""
""fullscreenenter"",""1"",""3029""
","
","","","599.2000000000116","","","17","12323","5530","&#9784;","elianto","#FFFFF080"," "," ","1","&#10004","[1449.899999999965]","1","0","0","","","","","","","",""
"pit-trial","11","133048","0.0-2.0-4.3-0.3","battery-v0.2","","""event"",""trial"",""time""
""fullscreenenter"",""1"",""3029""
","
","
","""event"",""trial"",""time""
""fullscreenenter"",""1"",""3029""
","
","","","554.2000000000116","","","17","12323","5530","&#9784;","elianto","#FFFFF080"," "," ","1","&#10004","[1405]","1","0","0","","","","","","","",""
"pit-trial","12","136414","0.0-2.0-4.4-0.4","battery-v0.2","","""event"",""trial"",""time""
""fullscreenenter"",""1"",""3029""
","
","
","""event"",""trial"",""time""
""fullscreenenter"",""1"",""3029""
","
","","","512.5999999999767","","","17","12323","5530","&#9784;","elianto","#FFFFF080"," "," ","1","&#10004","[1363]","1","0","0","","","","","","","",""
"pit-instructions","13","156441","0.0-2.0-5.0","battery-v0.2","","""event"",""trial"",""time""
""fullscreenenter"",""1"",""3029""
","
","
","""event"",""trial"",""time""
""fullscreenenter"",""1"",""3029""
","
","","[{""page_index"":0,""viewing_time"":4385.700000000012},{""page_index"":1,""viewing_time"":5181.399999999965},{""page_index"":2,""viewing_time"":4483.600000000035},{""page_index"":3,""viewing_time"":5973.199999999953}]","20024.20000000001","","","","","","","","","","","","","","","","","","","","","","","",""
"pit-trial","14","161297","0.0-2.0-6.0-0.0","battery-v0.2","","""event"",""trial"",""time""
""fullscreenenter"",""1"",""3029""
","
","
","""event"",""trial"",""time""
""fullscreenenter"",""1"",""3029""
","
","","","-1","","","17","12323","5530","&#9854;","elianto","#FFFFF080","-1","-1","1","&#10004","[]","0","0","1","","","","","","","",""
"pit-trial","15","166152","0.0-2.0-6.1-0.1","battery-v0.2","","""event"",""trial"",""time""
""fullscreenenter"",""1"",""3029""
","
","
","""event"",""trial"",""time""
""fullscreenenter"",""1"",""3029""
","
","","","-1","","","17","12323","5530","&#9854;","elianto","#FFFFF080","-1","-1","1","&#10004","[]","0","0","1","","","","","","","",""
"pit-trial","16","171008","0.0-2.0-6.2-0.2","battery-v0.2","","""event"",""trial"",""time""
""fullscreenenter"",""1"",""3029""
","
","
","""event"",""trial"",""time""
""fullscreenenter"",""1"",""3029""
","
","","","-1","","","17","12323","5530","&#9854;","elianto","#FFFFF080","-1","-1","1","&#10004","[]","0","0","1","","","","","","","",""
"pit-trial","17","175863","0.0-2.0-6.3-0.3","battery-v0.2","","""event"",""trial"",""time""
""fullscreenenter"",""1"",""3029""
","
","
","""event"",""trial"",""time""
""fullscreenenter"",""1"",""3029""
","
","","","-1","","","17","12323","5530","&#9854;","elianto","#FFFFF080","-1","-1","1","&#10004","[]","0","0","1","","","","","","","",""
"pit-trial","18","180718","0.0-2.0-6.4-0.4","battery-v0.2","","""event"",""trial"",""time""
""fullscreenenter"",""1"",""3029""
","
","
","""event"",""trial"",""time""
""fullscreenenter"",""1"",""3029""
","
","","","-1","","","17","12323","5530","&#9854;","elianto","#FFFFF080","-1","-1","1","&#10004","[]","0","0","1","","","","","","","",""
"pit-instructions","19","295715","0.0-2.0-7.0","battery-v0.2","","""event"",""trial"",""time""
""fullscreenenter"",""1"",""3029""
","
","
","""event"",""trial"",""time""
""fullscreenenter"",""1"",""3029""
","
","","[{""page_index"":0,""viewing_time"":5981.899999999965},{""page_index"":1,""viewing_time"":6105.700000000012},{""page_index"":2,""viewing_time"":5688.200000000012},{""page_index"":3,""viewing_time"":6009.5},{""page_index"":4,""viewing_time"":5384.200000000012},{""page_index"":5,""viewing_time"":5293.5},{""page_index"":6,""viewing_time"":6881},{""page_index"":7,""viewing_time"":8514.699999999953},{""page_index"":8,""viewing_time"":6031.100000000035},{""page_index"":9,""viewing_time"":6760},{""page_index"":10,""viewing_time"":6456.299999999988},{""page_index"":11,""viewing_time"":4459.099999999977},{""page_index"":12,""viewing_time"":7180.500000000029},{""page_index"":13,""viewing_time"":7480},{""page_index"":14,""viewing_time"":6927.699999999953},{""page_index"":15,""viewing_time"":6392.5},{""page_index"":16,""viewing_time"":6319.800000000047},{""page_index"":17,""viewing_time"":7127.900000000023}]","114994.00000000003","","","","","","","","","","","","","","","","","","","","","","","",""
"pit-trial","20","299759","0.0-2.0-8.0-0.0","battery-v0.2","","""event"",""trial"",""time""
""fullscreenenter"",""1"",""3029""
","
","
","""event"",""trial"",""time""
""fullscreenenter"",""1"",""3029""
","
","","","1189.5","","","17","12323","5530","&#9776;","elianto","#3366ff99"," "," ","1","+10","[2040.2000000000698]","1","0","1","","","","","","","",""
"pit-trial","21","303108","0.0-2.0-8.0-1.0","battery-v0.2","","""event"",""trial"",""time""
""fullscreenenter"",""1"",""3029""
","
","
","""event"",""trial"",""time""
""fullscreenenter"",""1"",""3029""
","
","","","495.29999999993015","","","17","12323","5530","&#9776;","elianto","#3366ff99"," "," ","1","+10","[1346.5]","1","0","1","","","","","","","",""
"pit-trial","22","306423","0.0-2.0-8.0-2.0","battery-v0.2","","""event"",""trial"",""time""
""fullscreenenter"",""1"",""3029""
","
","
","""event"",""trial"",""time""
""fullscreenenter"",""1"",""3029""
","
","","","461","","","17","12323","5530","&#9776;","elianto","#3366ff99"," "," ","1","+10","[1311.3000000000466]","1","0","1","","","","","","","",""
"pit-trial","23","309772","0.0-2.0-8.0-3.0","battery-v0.2","","""event"",""trial"",""time""
""fullscreenenter"",""1"",""3029""
","
","
","""event"",""trial"",""time""
""fullscreenenter"",""1"",""3029""
","
","","","495.4000000000233","","","17","12323","5530","&#9776;","elianto","#3366ff99"," "," ","1","0","[1346.4000000000233]","1","0","1","","","","","","","",""
"pit-trial","24","313030","0.0-2.0-8.0-4.0","battery-v0.2","","""event"",""trial"",""time""
""fullscreenenter"",""1"",""3029""
","
","
","""event"",""trial"",""time""
""fullscreenenter"",""1"",""3029""
","
","","","404.9000000000233","","","17","12323","5530","&#9776;","elianto","#3366ff99"," "," ","1","+10","[1255.3000000000466]","1","0","1","","","","","","","",""
"pit-trial","25","316293","0.0-2.0-8.1-0.1","battery-v0.2","","""event"",""trial"",""time""
""fullscreenenter"",""1"",""3029""
","
","
","""event"",""trial"",""time""
""fullscreenenter"",""1"",""3029""
","
","","","407.9000000000233","","","17","12323","5530","&#9776;","elianto","#3366ff99"," "," ","1","+10","[1258.4000000000233]","1","0","1","","","","","","","",""
"pit-trial","26","319640","0.0-2.0-8.1-1.1","battery-v0.2","","""event"",""trial"",""time""
""fullscreenenter"",""1"",""3029""
","
","
","""event"",""trial"",""time""
""fullscreenenter"",""1"",""3029""
","
","","","492.30000000004657","","","17","12323","5530","&#9776;","elianto","#3366ff99"," "," ","1","+10","[1343.8000000000466]","1","0","1","","","","","","","",""
"pit-trial","27","322973","0.0-2.0-8.1-2.1","battery-v0.2","","""event"",""trial"",""time""
""fullscreenenter"",""1"",""3029""
","
","
","""event"",""trial"",""time""
""fullscreenenter"",""1"",""3029""
","
","","","477.5999999999767","","","17","12323","5530","&#9776;","elianto","#3366ff99"," "," ","1","+10","[1330]","1","0","1","","","","","","","",""
"pit-trial","28","326215","0.0-2.0-8.1-3.1","battery-v0.2","","""event"",""trial"",""time""
""fullscreenenter"",""1"",""3029""
","
","
","""event"",""trial"",""time""
""fullscreenenter"",""1"",""3029""
","
","","","387.80000000004657","","","17","12323","5530","&#9776;","elianto","#3366ff99"," "," ","1","0","[1239.2000000000698]","1","0","1","","","","","","","",""
"pit-trial","29","329716","0.0-2.0-8.1-4.1","battery-v0.2","","""event"",""trial"",""time""
""fullscreenenter"",""1"",""3029""
","
","
","""event"",""trial"",""time""
""fullscreenenter"",""1"",""3029""
","
","","","647.0999999999767","","","17","12323","5530","&#9776;","elianto","#3366ff99"," "," ","1","+10","[1498.3000000000466]","1","0","1","","","","","","","",""
"pit-trial","30","332887","0.0-2.0-8.2-0.2","battery-v0.2","","""event"",""trial"",""time""
""fullscreenenter"",""1"",""3029""
","
","
","""event"",""trial"",""time""
""fullscreenenter"",""1"",""3029""
","
","","","316.39999999990687","","","17","12323","5530","&#9776;","elianto","#3366ff99"," "," ","1","+10","[1167.7999999999302]","1","0","1","","","","","","","",""
"pit-trial","31","336277","0.0-2.0-8.2-1.2","battery-v0.2","","""event"",""trial"",""time""
""fullscreenenter"",""1"",""3029""
","
","
","""event"",""trial"",""time""
""fullscreenenter"",""1"",""3029""
","
","","","535.3000000000466","","","17","12323","5530","&#9776;","elianto","#3366ff99"," "," ","1","+10","[1386.3000000000466]","1","0","1","","","","","","","",""
"pit-trial","32","339500","0.0-2.0-8.2-2.2","battery-v0.2","","""event"",""trial"",""time""
""fullscreenenter"",""1"",""3029""
","
","
","""event"",""trial"",""time""
""fullscreenenter"",""1"",""3029""
","
","","","368.19999999995343","","","17","12323","5530","&#9776;","elianto","#3366ff99"," "," ","1","+10","[1219.4000000000233]","1","0","1","","","","","","","",""
"pit-trial","33","343121","0.0-2.0-8.2-3.2","battery-v0.2","","""event"",""trial"",""time""
""fullscreenenter"",""1"",""3029""
","
","
","""event"",""trial"",""time""
""fullscreenenter"",""1"",""3029""
","
","","","766","","","17","12323","5530","&#9776;","elianto","#3366ff99"," "," ","1","0","[1617.1999999999534]","1","0","1","","","","","","","",""
"pit-trial","34","346422","0.0-2.0-8.2-4.2","battery-v0.2","","""event"",""trial"",""time""
""fullscreenenter"",""1"",""3029""
","
","
","""event"",""trial"",""time""
""fullscreenenter"",""1"",""3029""
","
","","","446.4000000000233","","","17","12323","5530","&#9776;","elianto","#3366ff99"," "," ","1","+10","[1297.1000000000931]","1","0","1","","","","","","","",""
"call-function","35","346424","0.0-2.0-9.0","battery-v0.2","","""event"",""trial"",""time""
""fullscreenenter"",""1"",""3029""
","
","
","""event"",""trial"",""time""
""fullscreenenter"",""1"",""3029""
","
","","","","","","","","","","","","","","","","","","","","","","","","","","",""
"pit-instructions","36","387997","0.0-2.0-10.0","battery-v0.2","","""event"",""trial"",""time""
""fullscreenenter"",""1"",""3029""
","
","
","""event"",""trial"",""time""
""fullscreenenter"",""1"",""3029""
","
","","[{""page_index"":0,""viewing_time"":8952.20000000007},{""page_index"":1,""viewing_time"":7290.099999999977},{""page_index"":2,""viewing_time"":9368.599999999977},{""page_index"":3,""viewing_time"":8902.900000000023},{""page_index"":4,""viewing_time"":7058.699999999953}]","41572.90000000002","","","","","","","","","","","","","","","","","","","","","","","",""
"pit-trial","37","392852","0.0-2.0-11.0-0.0","battery-v0.2","","""event"",""trial"",""time""
""fullscreenenter"",""1"",""3029""
","
","
","""event"",""trial"",""time""
""fullscreenenter"",""1"",""3029""
","
","","","-1","","","17","12323","5530","&#9761;","elianto","#3366ff99","-1","-1","1","+10","[]","0","0","2","","","","","","","",""
"pit-trial","38","397708","0.0-2.0-11.0-1.0","battery-v0.2","","""event"",""trial"",""time""
""fullscreenenter"",""1"",""3029""
","
","
","""event"",""trial"",""time""
""fullscreenenter"",""1"",""3029""
","
","","","-1","","","17","12323","5530","&#9761;","elianto","#3366ff99","-1","-1","1","+10","[]","0","0","2","","","","","","","",""
"pit-trial","39","402563","0.0-2.0-11.0-2.0","battery-v0.2","","""event"",""trial"",""time""
""fullscreenenter"",""1"",""3029""
","
","
","""event"",""trial"",""time""
""fullscreenenter"",""1"",""3029""
","
","","","-1","","","17","12323","5530","&#9761;","elianto","#3366ff99","-1","-1","1","+10","[]","0","0","2","","","","","","","",""
"pit-trial","40","407417","0.0-2.0-11.0-3.0","battery-v0.2","","""event"",""trial"",""time""
""fullscreenenter"",""1"",""3029""
","
","
","""event"",""trial"",""time""
""fullscreenenter"",""1"",""3029""
","
","","","-1","","","17","12323","5530","&#9761;","elianto","#3366ff99","-1","-1","1","0","[]","0","0","2","","","","","","","",""
"pit-trial","41","412272","0.0-2.0-11.0-4.0","battery-v0.2","","""event"",""trial"",""time""
""fullscreenenter"",""1"",""3029""
","
","
","""event"",""trial"",""time""
""fullscreenenter"",""1"",""3029""
","
","","","-1","","","17","12323","5530","&#9761;","elianto","#3366ff99","-1","-1","1","+10","[]","0","0","2","","","","","","","",""
"pit-trial","42","417127","0.0-2.0-11.1-0.1","battery-v0.2","","""event"",""trial"",""time""
""fullscreenenter"",""1"",""3029""
","
","
","""event"",""trial"",""time""
""fullscreenenter"",""1"",""3029""
","
","","","-1","","","17","12323","5530","&#9761;","elianto","#3366ff99","-1","-1","1","+10","[]","0","0","2","","","","","","","",""
"pit-trial","43","421982","0.0-2.0-11.1-1.1","battery-v0.2","","""event"",""trial"",""time""
""fullscreenenter"",""1"",""3029""
","
","
","""event"",""trial"",""time""
""fullscreenenter"",""1"",""3029""
","
","","","-1","","","17","12323","5530","&#9761;","elianto","#3366ff99","-1","-1","1","+10","[]","0","0","2","","","","","","","",""
"pit-trial","44","426835","0.0-2.0-11.1-2.1","battery-v0.2","","""event"",""trial"",""time""
""fullscreenenter"",""1"",""3029""
","
","
","""event"",""trial"",""time""
""fullscreenenter"",""1"",""3029""
","
","","","-1","","","17","12323","5530","&#9761;","elianto","#3366ff99","-1","-1","1","+10","[]","0","0","2","","","","","","","",""
"pit-trial","45","431690","0.0-2.0-11.1-3.1","battery-v0.2","","""event"",""trial"",""time""
""fullscreenenter"",""1"",""3029""
","
","
","""event"",""trial"",""time""
""fullscreenenter"",""1"",""3029""
","
","","","-1","","","17","12323","5530","&#9761;","elianto","#3366ff99","-1","-1","1","0","[]","0","0","2","","","","","","","",""
"pit-trial","46","436545","0.0-2.0-11.1-4.1","battery-v0.2","","""event"",""trial"",""time""
""fullscreenenter"",""1"",""3029""
","
","
","""event"",""trial"",""time""
""fullscreenenter"",""1"",""3029""
","
","","","-1","","","17","12323","5530","&#9761;","elianto","#3366ff99","-1","-1","1","+10","[]","0","0","2","","","","","","","",""
"pit-trial","47","441401","0.0-2.0-11.2-0.2","battery-v0.2","","""event"",""trial"",""time""
""fullscreenenter"",""1"",""3029""
","
","
","""event"",""trial"",""time""
""fullscreenenter"",""1"",""3029""
","
","","","-1","","","17","12323","5530","&#9761;","elianto","#3366ff99","-1","-1","1","+10","[]","0","0","2","","","","","","","",""
"pit-trial","48","446254","0.0-2.0-11.2-1.2","battery-v0.2","","""event"",""trial"",""time""
""fullscreenenter"",""1"",""3029""
","
","
","""event"",""trial"",""time""
""fullscreenenter"",""1"",""3029""
","
","","","-1","","","17","12323","5530","&#9761;","elianto","#3366ff99","-1","-1","1","+10","[]","0","0","2","","","","","","","",""
"pit-trial","49","451108","0.0-2.0-11.2-2.2","battery-v0.2","","""event"",""trial"",""time""
""fullscreenenter"",""1"",""3029""
","
","
","""event"",""trial"",""time""
""fullscreenenter"",""1"",""3029""
","
","","","-1","","","17","12323","5530","&#9761;","elianto","#3366ff99","-1","-1","1","+10","[]","0","0","2","","","","","","","",""
"pit-trial","50","455964","0.0-2.0-11.2-3.2","battery-v0.2","","""event"",""trial"",""time""
""fullscreenenter"",""1"",""3029""
","
","
","""event"",""trial"",""time""
""fullscreenenter"",""1"",""3029""
","
","","","-1","","","17","12323","5530","&#9761;","elianto","#3366ff99","-1","-1","1","0","[]","0","0","2","","","","","","","",""
"pit-trial","51","460818","0.0-2.0-11.2-4.2","battery-v0.2","","""event"",""trial"",""time""
""fullscreenenter"",""1"",""3029""
","
","
","""event"",""trial"",""time""
""fullscreenenter"",""1"",""3029""
","
","","","-1","","","17","12323","5530","&#9761;","elianto","#3366ff99","-1","-1","1","+10","[]","0","0","2","","","","","","","",""
"pit-trial","52","465673","0.0-2.0-11.3-0.3","battery-v0.2","","""event"",""trial"",""time""
""fullscreenenter"",""1"",""3029""
","
","
","""event"",""trial"",""time""
""fullscreenenter"",""1"",""3029""
","
","","","-1","","","17","12323","5530","&#9761;","elianto","#3366ff99","-1","-1","1","+10","[]","0","0","2","","","","","","","",""
"pit-trial","53","470529","0.0-2.0-11.3-1.3","battery-v0.2","","""event"",""trial"",""time""
""fullscreenenter"",""1"",""3029""
","
","
","""event"",""trial"",""time""
""fullscreenenter"",""1"",""3029""
","
","","","-1","","","17","12323","5530","&#9761;","elianto","#3366ff99","-1","-1","1","+10","[]","0","0","2","","","","","","","",""
"pit-trial","54","475384","0.0-2.0-11.3-2.3","battery-v0.2","","""event"",""trial"",""time""
""fullscreenenter"",""1"",""3029""
","
","
","""event"",""trial"",""time""
""fullscreenenter"",""1"",""3029""
","
","","","-1","","","17","12323","5530","&#9761;","elianto","#3366ff99","-1","-1","1","+10","[]","0","0","2","","","","","","","",""
"pit-trial","55","480240","0.0-2.0-11.3-3.3","battery-v0.2","","""event"",""trial"",""time""
""fullscreenenter"",""1"",""3029""
","
","
","""event"",""trial"",""time""
""fullscreenenter"",""1"",""3029""
","
","","","-1","","","17","12323","5530","&#9761;","elianto","#3366ff99","-1","-1","1","0","[]","0","0","2","","","","","","","",""
"pit-trial","56","485094","0.0-2.0-11.3-4.3","battery-v0.2","","""event"",""trial"",""time""
""fullscreenenter"",""1"",""3029""
","
","
","""event"",""trial"",""time""
""fullscreenenter"",""1"",""3029""
","
","","","-1","","","17","12323","5530","&#9761;","elianto","#3366ff99","-1","-1","1","+10","[]","0","0","2","","","","","","","",""
"call-function","57","485096","0.0-2.0-12.0","battery-v0.2","","""event"",""trial"",""time""
""fullscreenenter"",""1"",""3029""
","
","
","""event"",""trial"",""time""
""fullscreenenter"",""1"",""3029""
","
","","","","","","","","","","","","","","","","","","","","","","","","","","",""
"pit-instructions","58","517035","0.0-2.0-13.0","battery-v0.2","","""event"",""trial"",""time""
""fullscreenenter"",""1"",""3029""
","
","
","""event"",""trial"",""time""
""fullscreenenter"",""1"",""3029""
","
","","[{""page_index"":0,""viewing_time"":8164},{""page_index"":1,""viewing_time"":6171.20000000007},{""page_index"":2,""viewing_time"":3335.79999999993},{""page_index"":3,""viewing_time"":10107.20000000007},{""page_index"":4,""viewing_time"":4160}]","31938.5","","","","","","","","","","","","","","","","","","","","","","","",""
"pit-trial","59","520789","0.0-2.0-14.0-0.0","battery-v0.2","","""event"",""trial"",""time""
""fullscreenenter"",""1"",""3029""
","
","
","""event"",""trial"",""time""
""fullscreenenter"",""1"",""3029""
","
","","","898.5999999999767","","","17","12323","5530","&#9826;","elianto","#f73b6a7A","-1"," ","0","-10","[337.0999999999767,1750.1999999999534]","2","0","3","","","","","","","",""
"pit-trial","60","525645","0.0-2.0-14.0-1.0","battery-v0.2","","""event"",""trial"",""time""
""fullscreenenter"",""1"",""3029""
","
","
","""event"",""trial"",""time""
""fullscreenenter"",""1"",""3029""
","
","","","-1","","","17","12323","5530","&#9826;","elianto","#f73b6a7A","-1","-1","1","0","[]","0","0","3","","","","","","","",""
"pit-trial","61","530501","0.0-2.0-14.0-2.0","battery-v0.2","","""event"",""trial"",""time""
""fullscreenenter"",""1"",""3029""
","
","
","""event"",""trial"",""time""
""fullscreenenter"",""1"",""3029""
","
","","","-1","","","17","12323","5530","&#9826;","elianto","#f73b6a7A","-1","-1","1","0","[]","0","0","3","","","","","","","",""
"pit-trial","62","535356","0.0-2.0-14.0-3.0","battery-v0.2","","""event"",""trial"",""time""
""fullscreenenter"",""1"",""3029""
","
","
","""event"",""trial"",""time""
""fullscreenenter"",""1"",""3029""
","
","","","-1","","","17","12323","5530","&#9826;","elianto","#f73b6a7A","-1","-1","1","-10","[]","0","0","3","","","","","","","",""
"pit-trial","63","540211","0.0-2.0-14.0-4.0","battery-v0.2","","""event"",""trial"",""time""
""fullscreenenter"",""1"",""3029""
","
","
","""event"",""trial"",""time""
""fullscreenenter"",""1"",""3029""
","
","","","-1","","","17","12323","5530","&#9826;","elianto","#f73b6a7A","-1","-1","1","0","[]","0","0","3","","","","","","","",""
"pit-trial","64","545066","0.0-2.0-14.1-0.1","battery-v0.2","","""event"",""trial"",""time""
""fullscreenenter"",""1"",""3029""
","
","
","""event"",""trial"",""time""
""fullscreenenter"",""1"",""3029""
","
","","","-1","","","17","12323","5530","&#9826;","elianto","#f73b6a7A","-1","-1","1","0","[]","0","0","3","","","","","","","",""
"pit-trial","65","549921","0.0-2.0-14.1-1.1","battery-v0.2","","""event"",""trial"",""time""
""fullscreenenter"",""1"",""3029""
","
","
","""event"",""trial"",""time""
""fullscreenenter"",""1"",""3029""
","
","","","-1","","","17","12323","5530","&#9826;","elianto","#f73b6a7A","-1","-1","1","0","[]","0","0","3","","","","","","","",""
"pit-trial","66","554775","0.0-2.0-14.1-2.1","battery-v0.2","","""event"",""trial"",""time""
""fullscreenenter"",""1"",""3029""
","
","
","""event"",""trial"",""time""
""fullscreenenter"",""1"",""3029""
","
","","","-1","","","17","12323","5530","&#9826;","elianto","#f73b6a7A","-1","-1","1","0","[]","0","0","3","","","","","","","",""
"pit-trial","67","559629","0.0-2.0-14.1-3.1","battery-v0.2","","""event"",""trial"",""time""
""fullscreenenter"",""1"",""3029""
","
","
","""event"",""trial"",""time""
""fullscreenenter"",""1"",""3029""
","
","","","-1","","","17","12323","5530","&#9826;","elianto","#f73b6a7A","-1","-1","1","-10","[]","0","0","3","","","","","","","",""
"pit-trial","68","564484","0.0-2.0-14.1-4.1","battery-v0.2","","""event"",""trial"",""time""
""fullscreenenter"",""1"",""3029""
","
","
","""event"",""trial"",""time""
""fullscreenenter"",""1"",""3029""
","
","","","-1","","","17","12323","5530","&#9826;","elianto","#f73b6a7A","-1","-1","1","0","[]","0","0","3","","","","","","","",""
"pit-trial","69","569338","0.0-2.0-14.2-0.2","battery-v0.2","","""event"",""trial"",""time""
""fullscreenenter"",""1"",""3029""
","
","
","""event"",""trial"",""time""
""fullscreenenter"",""1"",""3029""
","
","","","-1","","","17","12323","5530","&#9826;","elianto","#f73b6a7A","-1","-1","1","0","[]","0","0","3","","","","","","","",""
"pit-trial","70","574194","0.0-2.0-14.2-1.2","battery-v0.2","","""event"",""trial"",""time""
""fullscreenenter"",""1"",""3029""
","
","
","""event"",""trial"",""time""
""fullscreenenter"",""1"",""3029""
","
","","","-1","","","17","12323","5530","&#9826;","elianto","#f73b6a7A","-1","-1","1","0","[]","0","0","3","","","","","","","",""
"pit-trial","71","579048","0.0-2.0-14.2-2.2","battery-v0.2","","""event"",""trial"",""time""
""fullscreenenter"",""1"",""3029""
","
","
","""event"",""trial"",""time""
""fullscreenenter"",""1"",""3029""
","
","","","-1","","","17","12323","5530","&#9826;","elianto","#f73b6a7A","-1","-1","1","0","[]","0","0","3","","","","","","","",""
"pit-trial","72","583901","0.0-2.0-14.2-3.2","battery-v0.2","","""event"",""trial"",""time""
""fullscreenenter"",""1"",""3029""
","
","
","""event"",""trial"",""time""
""fullscreenenter"",""1"",""3029""
","
","","","-1","","","17","12323","5530","&#9826;","elianto","#f73b6a7A","-1","-1","1","-10","[]","0","0","3","","","","","","","",""
"pit-trial","73","588756","0.0-2.0-14.2-4.2","battery-v0.2","","""event"",""trial"",""time""
""fullscreenenter"",""1"",""3029""
","
","
","""event"",""trial"",""time""
""fullscreenenter"",""1"",""3029""
","
","","","-1","","","17","12323","5530","&#9826;","elianto","#f73b6a7A","-1","-1","1","0","[]","0","0","3","","","","","","","",""
"pit-trial","74","593610","0.0-2.0-14.3-0.3","battery-v0.2","","""event"",""trial"",""time""
""fullscreenenter"",""1"",""3029""
","
","
","""event"",""trial"",""time""
""fullscreenenter"",""1"",""3029""
","
","","","-1","","","17","12323","5530","&#9826;","elianto","#f73b6a7A","-1","-1","1","0","[]","0","0","3","","","","","","","",""
"pit-trial","75","598465","0.0-2.0-14.3-1.3","battery-v0.2","","""event"",""trial"",""time""
""fullscreenenter"",""1"",""3029""
","
","
","""event"",""trial"",""time""
""fullscreenenter"",""1"",""3029""
","
","","","-1","","","17","12323","5530","&#9826;","elianto","#f73b6a7A","-1","-1","1","0","[]","0","0","3","","","","","","","",""
"pit-trial","76","603320","0.0-2.0-14.3-2.3","battery-v0.2","","""event"",""trial"",""time""
""fullscreenenter"",""1"",""3029""
","
","
","""event"",""trial"",""time""
""fullscreenenter"",""1"",""3029""
","
","","","-1","","","17","12323","5530","&#9826;","elianto","#f73b6a7A","-1","-1","1","0","[]","0","0","3","","","","","","","",""
"pit-trial","77","608176","0.0-2.0-14.3-3.3","battery-v0.2","","""event"",""trial"",""time""
""fullscreenenter"",""1"",""3029""
","
","
","""event"",""trial"",""time""
""fullscreenenter"",""1"",""3029""
","
","","","-1","","","17","12323","5530","&#9826;","elianto","#f73b6a7A","-1","-1","1","-10","[]","0","0","3","","","","","","","",""
"pit-trial","78","613030","0.0-2.0-14.3-4.3","battery-v0.2","","""event"",""trial"",""time""
""fullscreenenter"",""1"",""3029""
","
","
","""event"",""trial"",""time""
""fullscreenenter"",""1"",""3029""
","
","","","-1","","","17","12323","5530","&#9826;","elianto","#f73b6a7A","-1","-1","1","0","[]","0","0","3","","","","","","","",""
"call-function","79","613031","0.0-2.0-15.0","battery-v0.2","","""event"",""trial"",""time""
""fullscreenenter"",""1"",""3029""
","
","
","""event"",""trial"",""time""
""fullscreenenter"",""1"",""3029""
","
","","","","","","","","","","","","","","","","","","","","","","","","","","",""
"pit-instructions","80","639820","0.0-2.0-16.0","battery-v0.2","","""event"",""trial"",""time""
""fullscreenenter"",""1"",""3029""
","
","
","""event"",""trial"",""time""
""fullscreenenter"",""1"",""3029""
","
","","[{""page_index"":0,""viewing_time"":9024.79999999993},{""page_index"":1,""viewing_time"":8298.70000000007},{""page_index"":2,""viewing_time"":4216.199999999953},{""page_index"":3,""viewing_time"":5247.800000000047}]","26787.900000000023","","","","","","","","","","","","","","","","","","","","","","","",""
"pit-trial","81","644676","0.0-2.0-17.0-0.0","battery-v0.2","","""event"",""trial"",""time""
""fullscreenenter"",""1"",""3029""
","
","
","""event"",""trial"",""time""
""fullscreenenter"",""1"",""3029""
","
","","","-1","","","17","12323","5530","&#9789;","elianto","#f73b6a7A"," ","-1","0","-10","[145]","1","0","4","","","","","","","",""
"pit-trial","82","647744","0.0-2.0-17.0-1.0","battery-v0.2","","""event"",""trial"",""time""
""fullscreenenter"",""1"",""3029""
","
","
","""event"",""trial"",""time""
""fullscreenenter"",""1"",""3029""
","
","","","213.90000000002328","","","17","12323","5530","&#9789;","elianto","#f73b6a7A"," "," ","1","0","[1065.5999999999767,1285.1999999999534,1610.7999999999302,1941.0999999999767,2106.6999999999534,2925.1999999999534]","6","0","4","","","","","","","",""
"pit-trial","83","650602","0.0-2.0-17.0-2.0","battery-v0.2","","""event"",""trial"",""time""
""fullscreenenter"",""1"",""3029""
","
","
","""event"",""trial"",""time""
""fullscreenenter"",""1"",""3029""
","
","","","3.099999999976717","","","17","12323","5530","&#9789;","elianto","#f73b6a7A"," "," ","1","0","[38.40000000002328,256.60000000009313,462.9000000000233,656.6000000000931,854,1047.9000000000233,1246.5,1448.7000000000698,1654.4000000000233,1832.7000000000698,2022.3000000000466,2241]","12","0","4","","","","","","","",""
"pit-trial","84","653619","0.0-2.0-17.0-3.0","battery-v0.2","","""event"",""trial"",""time""
""fullscreenenter"",""1"",""3029""
","
","
","""event"",""trial"",""time""
""fullscreenenter"",""1"",""3029""
","
","","","160.79999999993015","","","17","12323","5530","&#9789;","elianto","#f73b6a7A"," "," ","1","-10","[604.2000000000698,815.4000000000233,1012.4000000000233,1207,1668.5,1871,2308.4000000000233,2734.70000000007,2940.4000000000233]","9","0","4","","","","","","","",""
"pit-trial","85","656643","0.0-2.0-17.0-4.0","battery-v0.2","","""event"",""trial"",""time""
""fullscreenenter"",""1"",""3029""
","
","
","""event"",""trial"",""time""
""fullscreenenter"",""1"",""3029""
","
","","","170.19999999995343","","","17","12323","5530","&#9789;","elianto","#f73b6a7A"," "," ","1","0","[406.5999999999767,620.3000000000466,1021.0999999999767,1468.3000000000466,1678.5999999999767,2140.0999999999767,2343,2796.1999999999534]","8","0","4","","","","","","","",""
"pit-trial","86","659579","0.0-2.0-17.1-0.1","battery-v0.2","","""event"",""trial"",""time""
""fullscreenenter"",""1"",""3029""
","
","
","""event"",""trial"",""time""
""fullscreenenter"",""1"",""3029""
","
","","","79.59999999997672","","","17","12323","5530","&#9789;","elianto","#f73b6a7A"," "," ","1","0","[262.5,498.69999999995343,718.1999999999534,931,1132.9000000000233,1346.4000000000233,1725.0999999999767,1978.5]","8","0","4","","","","","","","",""
"pit-trial","87","663068","0.0-2.0-17.1-1.1","battery-v0.2","","""event"",""trial"",""time""
""fullscreenenter"",""1"",""3029""
","
","
","""event"",""trial"",""time""
""fullscreenenter"",""1"",""3029""
","
","","","635.6999999999534","","","17","12323","5530","&#9789;","elianto","#f73b6a7A"," "," ","1","0","[1486.1999999999534]","1","0","4","","","","","","","",""
"pit-trial","88","665994","0.0-2.0-17.1-2.1","battery-v0.2","","""event"",""trial"",""time""
""fullscreenenter"",""1"",""3029""
","
","
","""event"",""trial"",""time""
""fullscreenenter"",""1"",""3029""
","
","","","72.59999999997672","","","17","12323","5530","&#9789;","elianto","#f73b6a7A"," "," ","1","0","[354.69999999995343,661.1999999999534,922.5999999999767,1237,1466.7999999999302,1725,1914.7999999999302,2429.1999999999534,2866.79999999993]","9","0","4","","","","","","","",""
"pit-trial","89","668884","0.0-2.0-17.1-3.1","battery-v0.2","","""event"",""trial"",""time""
""fullscreenenter"",""1"",""3029""
","
","
","""event"",""trial"",""time""
""fullscreenenter"",""1"",""3029""
","
","","","36.699999999953434","","","17","12323","5530","&#9789;","elianto","#f73b6a7A"," "," ","1","-10","[199.79999999993015,492.0999999999767,887.3999999999069,1156.3999999999069,1415,1612.5,1911.2999999999302,2076.5999999999767,2391.0999999999767,2572.79999999993]","10","0","4","","","","","","","",""
"pit-trial","90","672009","0.0-2.0-17.1-4.1","battery-v0.2","","""event"",""trial"",""time""
""fullscreenenter"",""1"",""3029""
","
","
","""event"",""trial"",""time""
""fullscreenenter"",""1"",""3029""
","
","","","271.9000000000233","","","17","12323","5530","&#9789;","elianto","#f73b6a7A"," "," ","1","0","[52.29999999993015,514.8999999999069,814.8999999999069,1122.5999999999767,1373,1746.5999999999767,1988.7999999999302,2314.5999999999767,2605.0999999999767,2962.5999999999767]","10","0","4","","","","","","","",""
"pit-trial","91","674979","0.0-2.0-17.2-0.2","battery-v0.2","","""event"",""trial"",""time""
""fullscreenenter"",""1"",""3029""
","
","
","""event"",""trial"",""time""
""fullscreenenter"",""1"",""3029""
","
","","","112.89999999990687","","","17","12323","5530","&#9789;","elianto","#f73b6a7A"," "," ","1","0","[144.5,428.79999999993015,713.1999999999534,964.2999999999302,1783.1999999999534,2684.6999999999534]","6","0","4","","","","","","","",""
"pit-trial","92","677843","0.0-2.0-17.2-1.2","battery-v0.2","","""event"",""trial"",""time""
""fullscreenenter"",""1"",""3029""
","
","
","""event"",""trial"",""time""
""fullscreenenter"",""1"",""3029""
","
","","","9","","","17","12323","5530","&#9789;","elianto","#f73b6a7A"," "," ","1","0","[110.29999999993015,316.4000000000233,590.2999999999302,859.9000000000233,1046.4000000000233,1268.1999999999534,1518.4000000000233,1796,2006.4000000000233,2244.1999999999534]","10","0","4","","","","","","","",""
"pit-trial","93","680908","0.0-2.0-17.2-2.2","battery-v0.2","","""event"",""trial"",""time""
""fullscreenenter"",""1"",""3029""
","
","
","""event"",""trial"",""time""
""fullscreenenter"",""1"",""3029""
","
","","","211.60000000009313","","","17","12323","5530","&#9789;","elianto","#f73b6a7A"," "," ","1","0","[39,821.5999999999767,1062.3999999999069,1284.1999999999534,2126.5,2372.0999999999767]","6","0","4","","","","","","","",""
"pit-trial","94","684411","0.0-2.0-17.2-3.2","battery-v0.2","","""event"",""trial"",""time""
""fullscreenenter"",""1"",""3029""
","
","
","""event"",""trial"",""time""
""fullscreenenter"",""1"",""3029""
","
","","","647","","","17","12323","5530","&#9789;","elianto","#f73b6a7A"," "," ","1","-10","[285.30000000004657,546.4000000000233,820.0999999999767,1498.5,1812.7000000000698,2634.20000000007]","6","0","4","","","","","","","",""
"pit-trial","95","687506","0.0-2.0-17.2-4.2","battery-v0.2","","""event"",""trial"",""time""
""fullscreenenter"",""1"",""3029""
","
","
","""event"",""trial"",""time""
""fullscreenenter"",""1"",""3029""
","
","","","241.30000000004657","","","17","12323","5530","&#9789;","elianto","#f73b6a7A"," "," ","1","0","[110,420.4000000000233,751.2999999999302,1092.0999999999767,1446.4000000000233,1820.0999999999767,2206.29999999993,2812]","8","0","4","","","","","","","",""
"pit-trial","96","690460","0.0-2.0-17.3-0.3","battery-v0.2","","""event"",""trial"",""time""
""fullscreenenter"",""1"",""3029""
","
","
","""event"",""trial"",""time""
""fullscreenenter"",""1"",""3029""
","
","","","98.59999999997672","","","17","12323","5530","&#9789;","elianto","#f73b6a7A"," "," ","1","0","[328.69999999995343,644.5,950.4000000000233,1259.8000000000466,1606.5,1900.0999999999767,2198.5999999999767,2499.6999999999534,2862.0999999999767]","9","0","4","","","","","","","",""
"pit-trial","97","693507","0.0-2.0-17.3-1.3","battery-v0.2","","""event"",""trial"",""time""
""fullscreenenter"",""1"",""3029""
","
","
","""event"",""trial"",""time""
""fullscreenenter"",""1"",""3029""
","
","","","192.20000000006985","","","17","12323","5530","&#9789;","elianto","#f73b6a7A"," "," ","1","0","[235,702.6999999999534,1043.2999999999302,1525.2999999999302,1771,2005.2999999999302,2443.0999999999767,2669.5,2907.1999999999534]","9","0","4","","","","","","","",""
"pit-trial","98","696565","0.0-2.0-17.3-2.3","battery-v0.2","","""event"",""trial"",""time""
""fullscreenenter"",""1"",""3029""
","
","
","""event"",""trial"",""time""
""fullscreenenter"",""1"",""3029""
","
","","","203.90000000002328","","","17","12323","5530","&#9789;","elianto","#f73b6a7A"," "," ","1","0","[118.59999999997672,356.69999999995343,591.7999999999302,821.9000000000233,1054.6999999999534,1291.9000000000233,1502.4000000000233,1931.7999999999302,2174.1999999999534,2364,2598.4000000000233,2835.9000000000233]","12","0","4","","","","","","","",""
"pit-trial","99","699740","0.0-2.0-17.3-3.3","battery-v0.2","","""event"",""trial"",""time""
""fullscreenenter"",""1"",""3029""
","
","
","""event"",""trial"",""time""
""fullscreenenter"",""1"",""3029""
","
","","","319.89999999990687","","","17","12323","5530","&#9789;","elianto","#f73b6a7A"," "," ","1","-10","[26.400000000023283,289.4000000000233,499.5,729.0999999999767,1171.5999999999767,1369,1571.8000000000466,1785.3000000000466,2051.70000000007,2265.4000000000233,2491.5999999999767,2713.3000000000466,3115.9000000000233]","13","0","4","","","","","","","",""
"pit-trial","100","702746","0.0-2.0-17.3-4.3","battery-v0.2","","""event"",""trial"",""time""
""fullscreenenter"",""1"",""3029""
","
","
","""event"",""trial"",""time""
""fullscreenenter"",""1"",""3029""
","
","","","152.40000000002328","","","17","12323","5530","&#9789;","elianto","#f73b6a7A"," "," ","1","0","[148.30000000004657,357.9000000000233,587.3000000000466,829.1999999999534,1003.5,1549.3000000000466,1691,1941.4000000000233,2370.9000000000233,2581.0999999999767]","10","0","4","","","","","","","",""
"call-function","101","702748","0.0-2.0-18.0","battery-v0.2","","""event"",""trial"",""time""
""fullscreenenter"",""1"",""3029""
","
","
","""event"",""trial"",""time""
""fullscreenenter"",""1"",""3029""
","
","","","","","","","","","","","","","","","","","","","","","","","","","","",""
"pit-instructions","102","777591","0.0-2.0-19.0","battery-v0.2","","""event"",""trial"",""time""
""fullscreenenter"",""1"",""3029""
","
","
","""event"",""trial"",""time""
""fullscreenenter"",""1"",""3029""
","
","","[{""page_index"":0,""viewing_time"":8452.099999999977},{""page_index"":1,""viewing_time"":7439},{""page_index"":2,""viewing_time"":14176},{""page_index"":3,""viewing_time"":8008.100000000093},{""page_index"":4,""viewing_time"":7984.099999999977},{""page_index"":5,""viewing_time"":9105.699999999953},{""page_index"":6,""viewing_time"":9162.599999999977},{""page_index"":7,""viewing_time"":6464.400000000023},{""page_index"":8,""viewing_time"":4064.0999999999767}]","74856.40000000002","","","","","","","","","","","","","","","","","","","","","","","",""
"pit-comprehension","103","783641","0.0-2.0-20.0-0.0","battery-v0.2","","""event"",""trial"",""time""
""fullscreenenter"",""1"",""3029""
","
","
","""event"",""trial"",""time""
""fullscreenenter"",""1"",""3029""
","
","","","6047","[""SPACE""]","0","17","12323","5530","","","","","","","","","","","","","","","","","","",""
"pit-instructions","104","786342","0.0-2.0-20.0-1.0","battery-v0.2","","""event"",""trial"",""time""
""fullscreenenter"",""1"",""3029""
","
","
","""event"",""trial"",""time""
""fullscreenenter"",""1"",""3029""
","
","","[{""page_index"":0,""viewing_time"":2661.600000000093}]","2661.9000000000233","","","","","","","","","","","","","","","","","","","","","","","",""
"pit-comprehension","105","790941","0.0-2.0-21.0-0.0","battery-v0.2","","""event"",""trial"",""time""
""fullscreenenter"",""1"",""3029""
","
","
","""event"",""trial"",""time""
""fullscreenenter"",""1"",""3029""
","
","","","4594.900000000023","[""10""]","0","17","12323","5530","","","","","","","","","","","","","","","","","","",""
"pit-instructions","106","792919","0.0-2.0-21.0-1.0","battery-v0.2","","""event"",""trial"",""time""
""fullscreenenter"",""1"",""3029""
","
","
","""event"",""trial"",""time""
""fullscreenenter"",""1"",""3029""
","
","","[{""page_index"":0,""viewing_time"":1939.8000000000466}]","1940.1000000000931","","","","","","","","","","","","","","","","","","","","","","","",""
"pit-comprehension","107","800666","0.0-2.0-22.0-0.0","battery-v0.2","","""event"",""trial"",""time""
""fullscreenenter"",""1"",""3029""
","
","
","""event"",""trial"",""time""
""fullscreenenter"",""1"",""3029""
","
","","","7742.70000000007","[""0""]","0","17","12323","5530","","","","","","","","","","","","","","","","","","",""
"pit-instructions","108","801871","0.0-2.0-22.0-1.0","battery-v0.2","","""event"",""trial"",""time""
""fullscreenenter"",""1"",""3029""
","
","
","""event"",""trial"",""time""
""fullscreenenter"",""1"",""3029""
","
","","[{""page_index"":0,""viewing_time"":1165.4000000000233}]","1165.7000000000698","","","","","","","","","","","","","","","","","","","","","","","",""
"pit-comprehension","109","812315","0.0-2.0-23.0-0.0","battery-v0.2","","""event"",""trial"",""time""
""fullscreenenter"",""1"",""3029""
","
","
","""event"",""trial"",""time""
""fullscreenenter"",""1"",""3029""
","
","","","10440.699999999953","[""True""]","0","17","12323","5530","","","","","","","","","","","","","","","","","","",""
"pit-instructions","110","813733","0.0-2.0-23.0-1.0","battery-v0.2","","""event"",""trial"",""time""
""fullscreenenter"",""1"",""3029""
","
","
","""event"",""trial"",""time""
""fullscreenenter"",""1"",""3029""
","
","","[{""page_index"":0,""viewing_time"":1380}]","1380.3000000000466","","","","","","","","","","","","","","","","","","","","","","","",""
"pit-comprehension","111","820841","0.0-2.0-24.0-0.0","battery-v0.2","","""event"",""trial"",""time""
""fullscreenenter"",""1"",""3029""
","
","
","""event"",""trial"",""time""
""fullscreenenter"",""1"",""3029""
","
","","","7104","[""True""]","0","17","12323","5530","","","","","","","","","","","","","","","","","","",""
"pit-instructions","112","821971","0.0-2.0-24.0-1.0","battery-v0.2","","""event"",""trial"",""time""
""fullscreenenter"",""1"",""3029""
","
","
","""event"",""trial"",""time""
""fullscreenenter"",""1"",""3029""
","
","","[{""page_index"":0,""viewing_time"":1090.5}]","1090.6000000000931","","","","","","","","","","","","","","","","","","","","","","","",""
"pit-comprehension","113","828298","0.0-2.0-25.0-0.0","battery-v0.2","","""event"",""trial"",""time""
""fullscreenenter"",""1"",""3029""
","
","
","""event"",""trial"",""time""
""fullscreenenter"",""1"",""3029""
","
","","","6323.399999999907","[""True""]","0","17","12323","5530","","","","","","","","","","","","","","","","","","",""
"pit-instructions","114","829701","0.0-2.0-25.0-1.0","battery-v0.2","","""event"",""trial"",""time""
""fullscreenenter"",""1"",""3029""
","
","
","""event"",""trial"",""time""
""fullscreenenter"",""1"",""3029""
","
","","[{""page_index"":0,""viewing_time"":1361.8000000000466}]","1362.1999999999534","","","","","","","","","","","","","","","","","","","","","","","",""
"pit-comprehension","115","833839","0.0-2.0-26.0-0.0","battery-v0.2","","""event"",""trial"",""time""
""fullscreenenter"",""1"",""3029""
","
","
","""event"",""trial"",""time""
""fullscreenenter"",""1"",""3029""
","
","","","4133.90000000014","[""False""]","0","17","12323","5530","","","","","","","","","","","","","","","","","","",""
"pit-instructions","116","835259","0.0-2.0-26.0-1.0","battery-v0.2","","""event"",""trial"",""time""
""fullscreenenter"",""1"",""3029""
","
","
","""event"",""trial"",""time""
""fullscreenenter"",""1"",""3029""
","
","","[{""page_index"":0,""viewing_time"":1380.8000000000466}]","1381.1000000000931","","","","","","","","","","","","","","","","","","","","","","","",""
"pit-instructions","117","855136","0.0-3.0","battery-v0.2","","""event"",""trial"",""time""
""fullscreenenter"",""1"",""3029""
","
","
","""event"",""trial"",""time""
""fullscreenenter"",""1"",""3029""
","
","","[{""page_index"":0,""viewing_time"":4001.399999999907},{""page_index"":1,""viewing_time"":8214},{""page_index"":2,""viewing_time"":7659.199999999953}]","19874.899999999907","","","","","","","","","","","","","","","","","","","","","","","",""
"pit-trial","118","858586","0.0-4.0","battery-v0.2","","""event"",""trial"",""time""
""fullscreenenter"",""1"",""3029""
","
","
","""event"",""trial"",""time""
""fullscreenenter"",""1"",""3029""
","
","","","592.1000000000931","","","17","12323","5530","&#9733;","elianto","#3366ff99","-1"," ","0","+10","[1443.6000000000931]","1","1","","","12323","1","2","2","win","no-go","1"
"pit-trial","119","863440","0.0-5.0","battery-v0.2","","""event"",""trial"",""time""
""fullscreenenter"",""1"",""3029""
","
","
","""event"",""trial"",""time""
""fullscreenenter"",""1"",""3029""
","
","","","-1","","","17","12323","5530","&#9730;","elianto","#3366ff99"," ","-1","0","+10","[]","0","1","","","12323","2","1","1","win","go","1"
"pit-trial","120","868296","0.0-6.0","battery-v0.2","","""event"",""trial"",""time""
""fullscreenenter"",""1"",""3029""
","
","
","""event"",""trial"",""time""
""fullscreenenter"",""1"",""3029""
","
","","","-1","","","17","12323","5530","&#9728;","elianto","#f73b6a7A","-1","-1","1","0","[]","0","1","","","12323","3","0","4","lose","no-go","0"
"pit-trial","121","872399","0.0-7.0","battery-v0.2","","""event"",""trial"",""time""
""fullscreenenter"",""1"",""3029""
","
","
","""event"",""trial"",""time""
""fullscreenenter"",""1"",""3029""
","
","","","1247.5","","","17","12323","5530","&#9752;","elianto","#f73b6a7A"," "," ","1","0","[2099.5]","1","1","","","12323","4","3","3","lose","go","0"
"pit-trial","122","877229","0.0-8.0","battery-v0.2","","""event"",""trial"",""time""
""fullscreenenter"",""1"",""3029""
","
","
","""event"",""trial"",""time""
""fullscreenenter"",""1"",""3029""
","
","","","1975","","","17","12323","5530","&#9730;","elianto","#3366ff99"," "," ","1","+10","[2825.5]","1","1","","","12323","5","1","1","win","go","0"
"pit-trial","123","880926","0.0-9.0","battery-v0.2","","""event"",""trial"",""time""
""fullscreenenter"",""1"",""3029""
","
","
","""event"",""trial"",""time""
""fullscreenenter"",""1"",""3029""
","
","","","843","","","17","12323","5530","&#9733;","elianto","#3366ff99","-1"," ","0","0","[1694.1999999999534]","1","1","","","12323","6","2","2","win","no-go","0"
"pit-trial","124","885173","0.0-10.0","battery-v0.2","","""event"",""trial"",""time""
""fullscreenenter"",""1"",""3029""
","
","
","""event"",""trial"",""time""
""fullscreenenter"",""1"",""3029""
","
","","","1392.3000000000466","","","17","12323","5530","&#9752;","elianto","#f73b6a7A"," "," ","1","0","[2243.899999999907]","1","1","","","12323","7","3","3","lose","go","0"
"pit-trial","125","889800","0.0-11.0","battery-v0.2","","""event"",""trial"",""time""
""fullscreenenter"",""1"",""3029""
","
","
","""event"",""trial"",""time""
""fullscreenenter"",""1"",""3029""
","
","","","1772.6999999999534","","","17","12323","5530","&#9728;","elianto","#f73b6a7A","-1"," ","0","-10","[2622.8000000000466]","1","1","","","12323","8","0","4","lose","no-go","0"
"pit-trial","126","894317","0.0-12.0","battery-v0.2","","""event"",""trial"",""time""
""fullscreenenter"",""1"",""3029""
","
","
","""event"",""trial"",""time""
""fullscreenenter"",""1"",""3029""
","
","","","1662.8999999999069","","","17","12323","5530","&#9733;","elianto","#3366ff99","-1"," ","0","0","[2513.5999999998603]","1","1","","","12323","9","2","2","win","no-go","0"
"pit-trial","127","898647","0.0-13.0","battery-v0.2","","""event"",""trial"",""time""
""fullscreenenter"",""1"",""3029""
","
","
","""event"",""trial"",""time""
""fullscreenenter"",""1"",""3029""
","
","","","1475.5","","","17","12323","5530","&#9752;","elianto","#f73b6a7A"," "," ","1","0","[2326.8000000000466]","1","1","","","12323","10","3","3","lose","go","0"
"pit-trial","128","902220","0.0-14.0","battery-v0.2","","""event"",""trial"",""time""
""fullscreenenter"",""1"",""3029""
","
","
","""event"",""trial"",""time""
""fullscreenenter"",""1"",""3029""
","
","","","719.6999999999534","","","17","12323","5530","&#9730;","elianto","#3366ff99"," "," ","1","+10","[1569.8999999999069]","1","1","","","12323","11","1","1","win","go","0"
"pit-trial","129","907075","0.0-15.0","battery-v0.2","","""event"",""trial"",""time""
""fullscreenenter"",""1"",""3029""
","
","
","""event"",""trial"",""time""
""fullscreenenter"",""1"",""3029""
","
","","","-1","","","17","12323","5530","&#9728;","elianto","#f73b6a7A","-1","-1","1","0","[3706.8000000000466]","1","1","","","12323","12","0","4","lose","no-go","0"
"pit-trial","130","911930","0.0-16.0","battery-v0.2","","""event"",""trial"",""time""
""fullscreenenter"",""1"",""3029""
","
","
","""event"",""trial"",""time""
""fullscreenenter"",""1"",""3029""
","
","","","-1","","","17","12323","5530","&#9752;","elianto","#f73b6a7A"," ","-1","0","-10","[]","0","1","","","12323","13","3","3","lose","go","0"
"pit-trial","131","915073","0.0-17.0","battery-v0.2","","""event"",""trial"",""time""
""fullscreenenter"",""1"",""3029""
","
","
","""event"",""trial"",""time""
""fullscreenenter"",""1"",""3029""
","
","","","286.5","","","17","12323","5530","&#9733;","elianto","#3366ff99","-1"," ","0","0","[1138.4000000001397]","1","1","","","12323","14","2","2","win","no-go","0"
"pit-trial","132","918474","0.0-18.0","battery-v0.2","","""event"",""trial"",""time""
""fullscreenenter"",""1"",""3029""
","
","
","""event"",""trial"",""time""
""fullscreenenter"",""1"",""3029""
","
","","","546.5","","","17","12323","5530","&#9728;","elianto","#f73b6a7A","-1"," ","0","-10","[1398.0999999998603]","1","1","","","12323","15","0","4","lose","no-go","0"
"pit-trial","133","923329","0.0-19.0","battery-v0.2","","""event"",""trial"",""time""
""fullscreenenter"",""1"",""3029""
","
","
","""event"",""trial"",""time""
""fullscreenenter"",""1"",""3029""
","
","","","-1","","","17","12323","5530","&#9730;","elianto","#3366ff99"," ","-1","0","+10","[]","0","1","","","12323","16","1","1","win","go","1"
"pit-trial","134","928184","0.0-20.0","battery-v0.2","","""event"",""trial"",""time""
""fullscreenenter"",""1"",""3029""
","
","
","""event"",""trial"",""time""
""fullscreenenter"",""1"",""3029""
","
","","","-1","","","17","12323","5530","&#9752;","elianto","#f73b6a7A"," ","-1","0","-10","[3786.5]","1","1","","","12323","17","3","3","lose","go","0"
"pit-trial","135","931632","0.0-21.0","battery-v0.2","","""event"",""trial"",""time""
""fullscreenenter"",""1"",""3029""
","
","
","""event"",""trial"",""time""
""fullscreenenter"",""1"",""3029""
","
","","","592.6000000000931","","","17","12323","5530","&#9733;","elianto","#3366ff99","-1"," ","0","0","[1444.3999999999069,2354]","2","1","","","12323","18","2","2","win","no-go","0"
"pit-trial","136","935528","0.0-22.0","battery-v0.2","","""event"",""trial"",""time""
""fullscreenenter"",""1"",""3029""
","
","
","""event"",""trial"",""time""
""fullscreenenter"",""1"",""3029""
","
","","","1041.3000000000466","","","17","12323","5530","&#9728;","elianto","#f73b6a7A","-1"," ","0","-10","[1892.0999999998603,3026]","2","1","","","12323","19","0","4","lose","no-go","0"
"pit-trial","137","940383","0.0-23.0","battery-v0.2","","""event"",""trial"",""time""
""fullscreenenter"",""1"",""3029""
","
","
","""event"",""trial"",""time""
""fullscreenenter"",""1"",""3029""
","
","","","-1","","","17","12323","5530","&#9730;","elianto","#3366ff99"," ","-1","0","0","[333]","1","1","","","12323","20","1","1","win","go","0"
"pit-instructions","138","1079482","0.0-24.0","battery-v0.2","","""event"",""trial"",""time""
""fullscreenenter"",""1"",""3029""
","
","
","""event"",""trial"",""time""
""fullscreenenter"",""1"",""3029""
","
","","[{""page_index"":0,""viewing_time"":6301.199999999953},{""page_index"":1,""viewing_time"":132797.59999999998}]","139099.09999999998","","","","","","","","","","","","","","","","","","","","","","","",""
"pit-trial","139","1083521","0.0-25.0","battery-v0.2","","""event"",""trial"",""time""
""fullscreenenter"",""1"",""3029""
","
","
","""event"",""trial"",""time""
""fullscreenenter"",""1"",""3029""
","
","","","1184.3999999999069","","","17","12323","5530","h","elianto","#f73b6a7A"," "," ","1","-10","[2035.0999999998603]","1","2","","","12323","21","3","3","lose","go","1"
"pit-trial","140","1087271","0.0-26.0","battery-v0.2","","""event"",""trial"",""time""
""fullscreenenter"",""1"",""3029""
","
","
","""event"",""trial"",""time""
""fullscreenenter"",""1"",""3029""
","
","","","894.3999999999069","","","17","12323","5530","r","elianto","#3366ff99"," "," ","1","0","[1746.5]","1","2","","","12323","22","1","1","win","go","1"
"pit-trial","141","1091440","0.0-27.0","battery-v0.2","","""event"",""trial"",""time""
""fullscreenenter"",""1"",""3029""
","
","
","""event"",""trial"",""time""
""fullscreenenter"",""1"",""3029""
","
","","","1315.5","","","17","12323","5530","y","elianto","#f73b6a7A","-1"," ","0","-10","[2166.3000000000466]","1","2","","","12323","23","2","4","lose","no-go","0"
"pit-trial","142","1096294","0.0-28.0","battery-v0.2","","""event"",""trial"",""time""
""fullscreenenter"",""1"",""3029""
","
","
","""event"",""trial"",""time""
""fullscreenenter"",""1"",""3029""
","
","","","-1","","","17","12323","5530","m","elianto","#f73b6a7A","-1","-1","1","0","[]","0","2","","","12323","24","0","4","lose","no-go","0"
"pit-trial","143","1101150","0.0-29.0","battery-v0.2","","""event"",""trial"",""time""
""fullscreenenter"",""1"",""3029""
","
","
","""event"",""trial"",""time""
""fullscreenenter"",""1"",""3029""
","
","","","-1","","","17","12323","5530","y","elianto","#f73b6a7A","-1","-1","1","0","[]","0","2","","","12323","25","2","4","lose","no-go","0"
"pit-trial","144","1106004","0.0-30.0","battery-v0.2","","""event"",""trial"",""time""
""fullscreenenter"",""1"",""3029""
","
","
","""event"",""trial"",""time""
""fullscreenenter"",""1"",""3029""
","
","","","-1","","","17","12323","5530","r","elianto","#3366ff99"," ","-1","0","0","[]","0","2","","","12323","26","1","1","win","go","0"
"pit-trial","145","1109519","0.0-31.0","battery-v0.2","","""event"",""trial"",""time""
""fullscreenenter"",""1"",""3029""
","
","
","""event"",""trial"",""time""
""fullscreenenter"",""1"",""3029""
","
","","","660.4000000001397","","","17","12323","5530","m","elianto","#f73b6a7A","-1"," ","0","0","[1511.1000000000931]","1","2","","","12323","27","0","4","lose","no-go","1"
"pit-trial","146","1114375","0.0-32.0","battery-v0.2","","""event"",""trial"",""time""
""fullscreenenter"",""1"",""3029""
","
","
","""event"",""trial"",""time""
""fullscreenenter"",""1"",""3029""
","
","","","-1","","","17","12323","5530","h","elianto","#f73b6a7A"," ","-1","0","0","[]","0","2","","","12323","28","3","3","lose","go","1"
"pit-trial","147","1117978","0.0-33.0","battery-v0.2","","""event"",""trial"",""time""
""fullscreenenter"",""1"",""3029""
","
","
","""event"",""trial"",""time""
""fullscreenenter"",""1"",""3029""
","
","","","747.5999999998603","","","17","12323","5530","h","elianto","#f73b6a7A"," "," ","1","0","[1598.8000000000466]","1","2","","","12323","29","3","3","lose","go","0"
"pit-trial","148","1122833","0.0-34.0","battery-v0.2","","""event"",""trial"",""time""
""fullscreenenter"",""1"",""3029""
","
","
","""event"",""trial"",""time""
""fullscreenenter"",""1"",""3029""
","
","","","-1","","","17","12323","5530","r","elianto","#3366ff99"," ","-1","0","+10","[]","0","2","","","12323","30","1","1","win","go","1"
"pit-trial","149","1126742","0.0-35.0","battery-v0.2","","""event"",""trial"",""time""
""fullscreenenter"",""1"",""3029""
","
","
","""event"",""trial"",""time""
""fullscreenenter"",""1"",""3029""
","
","","","1054.3999999999069","","","17","12323","5530","y","elianto","#f73b6a7A","-1"," ","0","0","[1905.8999999999069]","1","2","","","12323","31","2","4","lose","no-go","1"
"pit-trial","150","1131596","0.0-36.0","battery-v0.2","","""event"",""trial"",""time""
""fullscreenenter"",""1"",""3029""
","
","
","""event"",""trial"",""time""
""fullscreenenter"",""1"",""3029""
","
","","","-1","","","17","12323","5530","m","elianto","#f73b6a7A","-1","-1","1","0","[]","0","2","","","12323","32","0","4","lose","no-go","0"
"pit-trial","151","1136451","0.0-37.0","battery-v0.2","","""event"",""trial"",""time""
""fullscreenenter"",""1"",""3029""
","
","
","""event"",""trial"",""time""
""fullscreenenter"",""1"",""3029""
","
","","","-1","","","17","12323","5530","r","elianto","#3366ff99"," ","-1","0","0","[]","0","2","","","12323","33","1","1","win","go","0"
"pit-trial","152","1140811","0.0-38.0","battery-v0.2","","""event"",""trial"",""time""
""fullscreenenter"",""1"",""3029""
","
","
","""event"",""trial"",""time""
""fullscreenenter"",""1"",""3029""
","
","","","1505.6999999999534","","","17","12323","5530","m","elianto","#f73b6a7A","-1"," ","0","-10","[2357]","1","2","","","12323","34","0","4","lose","no-go","0"
"pit-trial","153","1144431","0.0-39.0","battery-v0.2","","""event"",""trial"",""time""
""fullscreenenter"",""1"",""3029""
","
","
","""event"",""trial"",""time""
""fullscreenenter"",""1"",""3029""
","
","","","765.3999999999069","","","17","12323","5530","h","elianto","#f73b6a7A"," "," ","1","0","[1616.5]","1","2","","","12323","35","3","3","lose","go","0"
"pit-trial","154","1148094","0.0-40.0","battery-v0.2","","""event"",""trial"",""time""
""fullscreenenter"",""1"",""3029""
","
","
","""event"",""trial"",""time""
""fullscreenenter"",""1"",""3029""
","
","","","809.3999999999069","","","17","12323","5530","y","elianto","#f73b6a7A","-1"," ","0","0","[1659.8000000000466]","1","2","","","12323","36","2","4","lose","no-go","1"
"pit-trial","155","1151443","0.0-41.0","battery-v0.2","","""event"",""trial"",""time""
""fullscreenenter"",""1"",""3029""
","
","
","""event"",""trial"",""time""
""fullscreenenter"",""1"",""3029""
","
","","","495.10000000009313","","","17","12323","5530","y","elianto","#f73b6a7A","-1"," ","0","-10","[1345.8000000000466]","1","2","","","12323","37","2","4","lose","no-go","0"
"pit-trial","156","1156299","0.0-42.0","battery-v0.2","","""event"",""trial"",""time""
""fullscreenenter"",""1"",""3029""
","
","
","""event"",""trial"",""time""
""fullscreenenter"",""1"",""3029""
","
","","","-1","","","17","12323","5530","m","elianto","#f73b6a7A","-1","-1","1","0","[]","0","2","","","12323","38","0","4","lose","no-go","0"
"pit-trial","157","1159933","0.0-43.0","battery-v0.2","","""event"",""trial"",""time""
""fullscreenenter"",""1"",""3029""
","
","
","""event"",""trial"",""time""
""fullscreenenter"",""1"",""3029""
","
","","","779.4000000001397","","","17","12323","5530","h","elianto","#f73b6a7A"," "," ","1","0","[1631]","1","2","","","12323","39","3","3","lose","go","0"
"pit-trial","158","1163396","0.0-44.0","battery-v0.2","","""event"",""trial"",""time""
""fullscreenenter"",""1"",""3029""
","
","
","""event"",""trial"",""time""
""fullscreenenter"",""1"",""3029""
","
","","","607.3999999999069","","","17","12323","5530","r","elianto","#3366ff99"," "," ","1","+10","[1458.6000000000931]","1","2","","","12323","40","1","1","win","go","0"
"pit-trial","159","1168158","0.0-45.0","battery-v0.2","","""event"",""trial"",""time""
""fullscreenenter"",""1"",""3029""
","
","
","""event"",""trial"",""time""
""fullscreenenter"",""1"",""3029""
","
","","","1907.3999999999069","","","17","12323","5530","r","elianto","#3366ff99"," "," ","1","+10","[2758]","1","2","","","12323","41","1","1","win","go","0"
"pit-trial","160","1173012","0.0-46.0","battery-v0.2","","""event"",""trial"",""time""
""fullscreenenter"",""1"",""3029""
","
","
","""event"",""trial"",""time""
""fullscreenenter"",""1"",""3029""
","
","","","-1","","","17","12323","5530","h","elianto","#f73b6a7A"," ","-1","0","-10","[]","0","2","","","12323","42","3","3","lose","go","0"
"pit-trial","161","1177183","0.0-47.0","battery-v0.2","","""event"",""trial"",""time""
""fullscreenenter"",""1"",""3029""
","
","
","""event"",""trial"",""time""
""fullscreenenter"",""1"",""3029""
","
","","","1316.1000000000931","","","17","12323","5530","y","elianto","#f73b6a7A","-1"," ","0","-10","[2167.3000000000466]","1","2","","","12323","43","2","4","lose","no-go","0"
"pit-trial","162","1182038","0.0-48.0","battery-v0.2","","""event"",""trial"",""time""
""fullscreenenter"",""1"",""3029""
","
","
","""event"",""trial"",""time""
""fullscreenenter"",""1"",""3029""
","
","","","-1","","","17","12323","5530","m","elianto","#f73b6a7A","-1","-1","1","0","[]","0","2","","","12323","44","0","4","lose","no-go","0"
"pit-trial","163","1185844","0.0-49.0","battery-v0.2","","""event"",""trial"",""time""
""fullscreenenter"",""1"",""3029""
","
","
","""event"",""trial"",""time""
""fullscreenenter"",""1"",""3029""
","
","","","951.1000000000931","","","17","12323","5530","z","elianto","#3366ff99","-1"," ","0","+10","[1802.3000000000466]","1","2","","","12323","45","4","2","win","no-go","1"
"pit-trial","164","1189466","0.0-50.0","battery-v0.2","","""event"",""trial"",""time""
""fullscreenenter"",""1"",""3029""
","
","
","""event"",""trial"",""time""
""fullscreenenter"",""1"",""3029""
","
","","","768.0999999998603","","","17","12323","5530","y","elianto","#f73b6a7A","-1"," ","0","-10","[1618.6999999999534]","1","2","","","12323","46","2","4","lose","no-go","0"
"pit-trial","165","1194321","0.0-51.0","battery-v0.2","","""event"",""trial"",""time""
""fullscreenenter"",""1"",""3029""
","
","
","""event"",""trial"",""time""
""fullscreenenter"",""1"",""3029""
","
","","","-1","","","17","12323","5530","h","elianto","#f73b6a7A"," ","-1","0","-10","[]","0","2","","","12323","47","3","3","lose","go","0"
"pit-trial","166","1197335","0.0-52.0","battery-v0.2","","""event"",""trial"",""time""
""fullscreenenter"",""1"",""3029""
","
","
","""event"",""trial"",""time""
""fullscreenenter"",""1"",""3029""
","
","","","158.79999999981374","","","17","12323","5530","m","elianto","#f73b6a7A","-1"," ","0","0","[580,1010.9000000001397,1244]","3","2","","","12323","48","0","4","lose","no-go","1"
"pit-trial","167","1202189","0.0-53.0","battery-v0.2","","""event"",""trial"",""time""
""fullscreenenter"",""1"",""3029""
","
","
","""event"",""trial"",""time""
""fullscreenenter"",""1"",""3029""
","
","","","-1","","","17","12323","5530","h","elianto","#f73b6a7A"," ","-1","0","-10","[]","0","2","","","12323","49","3","3","lose","go","0"
"pit-trial","168","1205557","0.0-54.0","battery-v0.2","","""event"",""trial"",""time""
""fullscreenenter"",""1"",""3029""
","
","
","""event"",""trial"",""time""
""fullscreenenter"",""1"",""3029""
","
","","","514.3000000000466","","","17","12323","5530","z","elianto","#3366ff99","-1"," ","0","0","[1365.8000000000466]","1","2","","","12323","50","4","2","win","no-go","0"
"pit-trial","169","1209664","0.0-55.0","battery-v0.2","","""event"",""trial"",""time""
""fullscreenenter"",""1"",""3029""
","
","
","""event"",""trial"",""time""
""fullscreenenter"",""1"",""3029""
","
","","","1252.2000000001863","","","17","12323","5530","r","elianto","#3366ff99"," "," ","1","+10","[2103.5]","1","2","","","12323","51","1","1","win","go","0"
"pit-trial","170","1214517","0.0-56.0","battery-v0.2","","""event"",""trial"",""time""
""fullscreenenter"",""1"",""3029""
","
","
","""event"",""trial"",""time""
""fullscreenenter"",""1"",""3029""
","
","","","-1","","","17","12323","5530","m","elianto","#f73b6a7A","-1","-1","1","-10","[]","0","2","","","12323","52","0","4","lose","no-go","1"
"pit-trial","171","1217799","0.0-57.0","battery-v0.2","","""event"",""trial"",""time""
""fullscreenenter"",""1"",""3029""
","
","
","""event"",""trial"",""time""
""fullscreenenter"",""1"",""3029""
","
","","","427.89999999990687","","","17","12323","5530","z","elianto","#3366ff99","-1"," ","0","0","[1278.1999999999534]","1","2","","","12323","53","4","2","win","no-go","0"
"pit-trial","172","1221721","0.0-58.0","battery-v0.2","","""event"",""trial"",""time""
""fullscreenenter"",""1"",""3029""
","
","
","""event"",""trial"",""time""
""fullscreenenter"",""1"",""3029""
","
","","","1066.6000000000931","","","17","12323","5530","r","elianto","#3366ff99"," "," ","1","+10","[1918.5]","1","2","","","12323","54","1","1","win","go","0"
"pit-trial","173","1225584","0.0-59.0","battery-v0.2","","""event"",""trial"",""time""
""fullscreenenter"",""1"",""3029""
","
","
","""event"",""trial"",""time""
""fullscreenenter"",""1"",""3029""
","
","","","1008.3000000000466","","","17","12323","5530","m","elianto","#f73b6a7A","-1"," ","0","-10","[1859.8000000000466]","1","2","","","12323","55","0","4","lose","no-go","0"
"pit-trial","174","1229227","0.0-60.0","battery-v0.2","","""event"",""trial"",""time""
""fullscreenenter"",""1"",""3029""
","
","
","""event"",""trial"",""time""
""fullscreenenter"",""1"",""3029""
","
","","","788.6999999999534","","","17","12323","5530","y","elianto","#f73b6a7A","-1"," ","0","-10","[1639.3999999999069]","1","2","","","12323","56","2","4","lose","no-go","0"
"pit-trial","175","1234081","0.0-61.0","battery-v0.2","","""event"",""trial"",""time""
""fullscreenenter"",""1"",""3029""
","
","
","""event"",""trial"",""time""
""fullscreenenter"",""1"",""3029""
","
","","","-1","","","17","12323","5530","h","elianto","#f73b6a7A"," ","-1","0","-10","[]","0","2","","","12323","57","3","3","lose","go","0"
"pit-trial","176","1238091","0.0-62.0","battery-v0.2","","""event"",""trial"",""time""
""fullscreenenter"",""1"",""3029""
","
","
","""event"",""trial"",""time""
""fullscreenenter"",""1"",""3029""
","
","","","1154.9000000001397","","","17","12323","5530","r","elianto","#3366ff99"," "," ","1","+10","[2006.6000000000931]","1","2","","","12323","58","1","1","win","go","0"
"pit-trial","177","1242947","0.0-63.0","battery-v0.2","","""event"",""trial"",""time""
""fullscreenenter"",""1"",""3029""
","
","
","""event"",""trial"",""time""
""fullscreenenter"",""1"",""3029""
","
","","","-1","","","17","12323","5530","m","elianto","#f73b6a7A","-1","-1","1","0","[]","0","2","","","12323","59","0","4","lose","no-go","0"
"pit-trial","178","1246941","0.0-64.0","battery-v0.2","","""event"",""trial"",""time""
""fullscreenenter"",""1"",""3029""
","
","
","""event"",""trial"",""time""
""fullscreenenter"",""1"",""3029""
","
","","","1139.3999999999069","","","17","12323","5530","z","elianto","#3366ff99","-1"," ","0","+10","[1991.3000000000466]","1","2","","","12323","60","4","2","win","no-go","1"
"pit-trial","179","1250626","0.0-65.0","battery-v0.2","","""event"",""trial"",""time""
""fullscreenenter"",""1"",""3029""
","
","
","""event"",""trial"",""time""
""fullscreenenter"",""1"",""3029""
","
","","","831.1000000000931","","","17","12323","5530","r","elianto","#3366ff99"," "," ","1","+10","[1682.1999999999534]","1","2","","","12323","61","1","1","win","go","0"
"pit-trial","180","1254959","0.0-66.0","battery-v0.2","","""event"",""trial"",""time""
""fullscreenenter"",""1"",""3029""
","
","
","""event"",""trial"",""time""
""fullscreenenter"",""1"",""3029""
","
","","","1478.1999999999534","","","17","12323","5530","z","elianto","#3366ff99","-1"," ","0","0","[2329.0999999998603]","1","2","","","12323","62","4","2","win","no-go","0"
"pit-trial","181","1259813","0.0-67.0","battery-v0.2","","""event"",""trial"",""time""
""fullscreenenter"",""1"",""3029""
","
","
","""event"",""trial"",""time""
""fullscreenenter"",""1"",""3029""
","
","","","-1","","","17","12323","5530","h","elianto","#f73b6a7A"," ","-1","0","-10","[]","0","2","","","12323","63","3","3","lose","go","0"
"pit-trial","182","1263498","0.0-68.0","battery-v0.2","","""event"",""trial"",""time""
""fullscreenenter"",""1"",""3029""
","
","
","""event"",""trial"",""time""
""fullscreenenter"",""1"",""3029""
","
","","","828.6999999999534","","","17","12323","5530","y","elianto","#f73b6a7A","-1"," ","0","-10","[1680.3999999999069]","1","2","","","12323","64","2","4","lose","no-go","0"
"pit-trial","183","1266971","0.0-69.0","battery-v0.2","","""event"",""trial"",""time""
""fullscreenenter"",""1"",""3029""
","
","
","""event"",""trial"",""time""
""fullscreenenter"",""1"",""3029""
","
","","","619.3000000000466","","","17","12323","5530","z","elianto","#3366ff99","-1"," ","0","0","[1470]","1","2","","","12323","65","4","2","win","no-go","0"
"pit-trial","184","1270633","0.0-70.0","battery-v0.2","","""event"",""trial"",""time""
""fullscreenenter"",""1"",""3029""
","
","
","""event"",""trial"",""time""
""fullscreenenter"",""1"",""3029""
","
","","","807.3000000000466","","","17","12323","5530","y","elianto","#f73b6a7A","-1"," ","0","-10","[1658.3000000000466]","1","2","","","12323","66","2","4","lose","no-go","0"
"pit-trial","185","1274489","0.0-71.0","battery-v0.2","","""event"",""trial"",""time""
""fullscreenenter"",""1"",""3029""
","
","
","""event"",""trial"",""time""
""fullscreenenter"",""1"",""3029""
","
","","","1000.1000000000931","","","17","12323","5530","r","elianto","#3366ff99"," "," ","1","+10","[1851.9000000001397]","1","2","","","12323","67","1","1","win","go","0"
"pit-trial","186","1279344","0.0-72.0","battery-v0.2","","""event"",""trial"",""time""
""fullscreenenter"",""1"",""3029""
","
","
","""event"",""trial"",""time""
""fullscreenenter"",""1"",""3029""
","
","","","-1","","","17","12323","5530","h","elianto","#f73b6a7A"," ","-1","0","-10","[]","0","2","","","12323","68","3","3","lose","go","0"
"pit-trial","187","1282936","0.0-73.0","battery-v0.2","","""event"",""trial"",""time""
""fullscreenenter"",""1"",""3029""
","
","
","""event"",""trial"",""time""
""fullscreenenter"",""1"",""3029""
","
","","","738.3000000000466","","","17","12323","5530","h","elianto","#f73b6a7A"," "," ","1","0","[1588.5999999998603]","1","2","","","12323","69","3","3","lose","go","0"
"pit-trial","188","1286330","0.0-74.0","battery-v0.2","","""event"",""trial"",""time""
""fullscreenenter"",""1"",""3029""
","
","
","""event"",""trial"",""time""
""fullscreenenter"",""1"",""3029""
","
","","","540.1999999999534","","","17","12323","5530","c","elianto","#3366ff99"," "," ","1","+10","[1390.8000000000466]","1","2","","","12323","70","5","1","win","go","0"
"pit-trial","189","1290072","0.0-75.0","battery-v0.2","","""event"",""trial"",""time""
""fullscreenenter"",""1"",""3029""
","
","
","""event"",""trial"",""time""
""fullscreenenter"",""1"",""3029""
","
","","","886.8999999999069","","","17","12323","5530","r","elianto","#3366ff99"," "," ","1","+10","[1738]","1","2","","","12323","71","1","1","win","go","0"
"pit-trial","190","1293907","0.0-76.0","battery-v0.2","","""event"",""trial"",""time""
""fullscreenenter"",""1"",""3029""
","
","
","""event"",""trial"",""time""
""fullscreenenter"",""1"",""3029""
","
","","","979.2999999998137","","","17","12323","5530","z","elianto","#3366ff99","-1"," ","0","+10","[1831.0999999998603]","1","2","","","12323","72","4","2","win","no-go","1"
"pit-trial","191","1297473","0.0-77.0","battery-v0.2","","""event"",""trial"",""time""
""fullscreenenter"",""1"",""3029""
","
","
","""event"",""trial"",""time""
""fullscreenenter"",""1"",""3029""
","
","","","712.3000000000466","","","17","12323","5530","c","elianto","#3366ff99"," "," ","1","+10","[1562.5]","1","2","","","12323","73","5","1","win","go","0"
"pit-trial","192","1302319","0.0-78.0","battery-v0.2","","""event"",""trial"",""time""
""fullscreenenter"",""1"",""3029""
","
","
","""event"",""trial"",""time""
""fullscreenenter"",""1"",""3029""
","
","","","1991","","","17","12323","5530","h","elianto","#f73b6a7A"," "," ","1","0","[2842.4000000001397]","1","2","","","12323","74","3","3","lose","go","0"
"pit-trial","193","1306188","0.0-79.0","battery-v0.2","","""event"",""trial"",""time""
""fullscreenenter"",""1"",""3029""
","
","
","""event"",""trial"",""time""
""fullscreenenter"",""1"",""3029""
","
","","","1015.7999999998137","","","17","12323","5530","r","elianto","#3366ff99"," "," ","1","+10","[1865.9000000001397]","1","2","","","12323","75","1","1","win","go","0"
"pit-trial","194","1311044","0.0-80.0","battery-v0.2","","""event"",""trial"",""time""
""fullscreenenter"",""1"",""3029""
","
","
","""event"",""trial"",""time""
""fullscreenenter"",""1"",""3029""
","
","","","-1","","","17","12323","5530","z","elianto","#3366ff99","-1","-1","1","0","[]","0","2","","","12323","76","4","2","win","no-go","1"
"pit-trial","195","1314607","0.0-81.0","battery-v0.2","","""event"",""trial"",""time""
""fullscreenenter"",""1"",""3029""
","
","
","""event"",""trial"",""time""
""fullscreenenter"",""1"",""3029""
","
","","","708.1000000000931","","","17","12323","5530","b","elianto","#f73b6a7A","-1"," ","0","0","[1558.8999999999069]","1","2","","","12323","77","6","4","lose","no-go","1"
"pit-trial","196","1319462","0.0-82.0","battery-v0.2","","""event"",""trial"",""time""
""fullscreenenter"",""1"",""3029""
","
","
","""event"",""trial"",""time""
""fullscreenenter"",""1"",""3029""
","
","","","-1","","","17","12323","5530","h","elianto","#f73b6a7A"," ","-1","0","-10","[]","0","2","","","12323","78","3","3","lose","go","0"
"pit-trial","197","1323306","0.0-83.0","battery-v0.2","","""event"",""trial"",""time""
""fullscreenenter"",""1"",""3029""
","
","
","""event"",""trial"",""time""
""fullscreenenter"",""1"",""3029""
","
","","","991","","","17","12323","5530","z","elianto","#3366ff99","-1"," ","0","0","[1841.5]","1","2","","","12323","79","4","2","win","no-go","0"
"pit-trial","198","1326869","0.0-84.0","battery-v0.2","","""event"",""trial"",""time""
""fullscreenenter"",""1"",""3029""
","
","
","""event"",""trial"",""time""
""fullscreenenter"",""1"",""3029""
","
","","","706.6000000000931","","","17","12323","5530","c","elianto","#3366ff99"," "," ","1","+10","[1558.6000000000931]","1","2","","","12323","80","5","1","win","go","0"
"pit-trial","199","1330835","0.0-85.0","battery-v0.2","","""event"",""trial"",""time""
""fullscreenenter"",""1"",""3029""
","
","
","""event"",""trial"",""time""
""fullscreenenter"",""1"",""3029""
","
","","","1110.7999999998137","","","17","12323","5530","c","elianto","#3366ff99"," "," ","1","+10","[1962.0999999998603]","1","2","","","12323","81","5","1","win","go","0"
"pit-trial","200","1334926","0.0-86.0","battery-v0.2","","""event"",""trial"",""time""
""fullscreenenter"",""1"",""3029""
","
","
","""event"",""trial"",""time""
""fullscreenenter"",""1"",""3029""
","
","","","1234.8000000000466","","","17","12323","5530","z","elianto","#3366ff99","-1"," ","0","0","[2086.6999999999534]","1","2","","","12323","82","4","2","win","no-go","0"
"pit-trial","201","1338628","0.0-87.0","battery-v0.2","","""event"",""trial"",""time""
""fullscreenenter"",""1"",""3029""
","
","
","""event"",""trial"",""time""
""fullscreenenter"",""1"",""3029""
","
","","","846.8000000000466","","","17","12323","5530","t","elianto","#f73b6a7A"," "," ","1","-10","[1697.8000000000466]","1","2","","","12323","83","7","3","lose","go","1"
"pit-trial","202","1343483","0.0-88.0","battery-v0.2","","""event"",""trial"",""time""
""fullscreenenter"",""1"",""3029""
","
","
","""event"",""trial"",""time""
""fullscreenenter"",""1"",""3029""
","
","","","-1","","","17","12323","5530","b","elianto","#f73b6a7A","-1","-1","1","0","[]","0","2","","","12323","84","6","4","lose","no-go","0"
"pit-trial","203","1348337","0.0-89.0","battery-v0.2","","""event"",""trial"",""time""
""fullscreenenter"",""1"",""3029""
","
","
","""event"",""trial"",""time""
""fullscreenenter"",""1"",""3029""
","
","","","-1","","","17","12323","5530","t","elianto","#f73b6a7A"," ","-1","0","-10","[]","0","2","","","12323","85","7","3","lose","go","0"
"pit-trial","204","1351836","0.0-90.0","battery-v0.2","","""event"",""trial"",""time""
""fullscreenenter"",""1"",""3029""
","
","
","""event"",""trial"",""time""
""fullscreenenter"",""1"",""3029""
","
","","","643.6999999999534","","","17","12323","5530","c","elianto","#3366ff99"," "," ","1","+10","[1494.9000000001397]","1","2","","","12323","86","5","1","win","go","0"
"pit-trial","205","1355216","0.0-91.0","battery-v0.2","","""event"",""trial"",""time""
""fullscreenenter"",""1"",""3029""
","
","
","""event"",""trial"",""time""
""fullscreenenter"",""1"",""3029""
","
","","","526.6999999999534","","","17","12323","5530","b","elianto","#f73b6a7A","-1"," ","0","0","[1377.6000000000931]","1","2","","","12323","87","6","4","lose","no-go","1"
"pit-trial","206","1358323","0.0-92.0","battery-v0.2","","""event"",""trial"",""time""
""fullscreenenter"",""1"",""3029""
","
","
","""event"",""trial"",""time""
""fullscreenenter"",""1"",""3029""
","
","","","252.80000000004657","","","17","12323","5530","z","elianto","#3366ff99","-1"," ","0","+10","[1103.1999999999534]","1","2","","","12323","88","4","2","win","no-go","1"
"pit-trial","207","1361816","0.0-93.0","battery-v0.2","","""event"",""trial"",""time""
""fullscreenenter"",""1"",""3029""
","
","
","""event"",""trial"",""time""
""fullscreenenter"",""1"",""3029""
","
","","","638.6999999999534","","","17","12323","5530","c","elianto","#3366ff99"," "," ","1","+10","[1489.9000000001397]","1","2","","","12323","89","5","1","win","go","0"
"pit-trial","208","1366496","0.0-94.0","battery-v0.2","","""event"",""trial"",""time""
""fullscreenenter"",""1"",""3029""
","
","
","""event"",""trial"",""time""
""fullscreenenter"",""1"",""3029""
","
","","","1825.8000000000466","","","17","12323","5530","t","elianto","#f73b6a7A"," "," ","1","0","[2676.9000000001397]","1","2","","","12323","90","7","3","lose","go","0"
"pit-trial","209","1370358","0.0-95.0","battery-v0.2","","""event"",""trial"",""time""
""fullscreenenter"",""1"",""3029""
","
","
","""event"",""trial"",""time""
""fullscreenenter"",""1"",""3029""
","
","","","1008.1999999999534","","","17","12323","5530","b","elianto","#f73b6a7A","-1"," ","0","-10","[1858.3000000000466]","1","2","","","12323","91","6","4","lose","no-go","0"
"pit-trial","210","1374952","0.0-96.0","battery-v0.2","","""event"",""trial"",""time""
""fullscreenenter"",""1"",""3029""
","
","
","""event"",""trial"",""time""
""fullscreenenter"",""1"",""3029""
","
","","","1739.5999999998603","","","17","12323","5530","z","elianto","#3366ff99","-1"," ","0","+10","[2590.5]","1","2","","","12323","92","4","2","win","no-go","1"
"pit-trial","211","1379808","0.0-97.0","battery-v0.2","","""event"",""trial"",""time""
""fullscreenenter"",""1"",""3029""
","
","
","""event"",""trial"",""time""
""fullscreenenter"",""1"",""3029""
","
","","","-1","","","17","12323","5530","t","elianto","#f73b6a7A"," ","-1","0","-10","[]","0","2","","","12323","93","7","3","lose","go","0"
"pit-trial","212","1383299","0.0-98.0","battery-v0.2","","""event"",""trial"",""time""
""fullscreenenter"",""1"",""3029""
","
","
","""event"",""trial"",""time""
""fullscreenenter"",""1"",""3029""
","
","","","637.1000000000931","","","17","12323","5530","b","elianto","#f73b6a7A","-1"," ","0","-10","[1487]","1","2","","","12323","94","6","4","lose","no-go","0"
"pit-trial","213","1387686","0.0-99.0","battery-v0.2","","""event"",""trial"",""time""
""fullscreenenter"",""1"",""3029""
","
","
","""event"",""trial"",""time""
""fullscreenenter"",""1"",""3029""
","
","","","1532.1000000000931","","","17","12323","5530","f","elianto","#3366ff99","-1"," ","0","0","[2382.8000000000466]","1","2","","","12323","95","8","2","win","no-go","0"
"pit-trial","214","1391483","0.0-100.0","battery-v0.2","","""event"",""trial"",""time""
""fullscreenenter"",""1"",""3029""
","
","
","""event"",""trial"",""time""
""fullscreenenter"",""1"",""3029""
","
","","","942.1000000000931","","","17","12323","5530","c","elianto","#3366ff99"," "," ","1","0","[1793.5]","1","2","","","12323","96","5","1","win","go","1"
"pit-trial","215","1396336","0.0-101.0","battery-v0.2","","""event"",""trial"",""time""
""fullscreenenter"",""1"",""3029""
","
","
","""event"",""trial"",""time""
""fullscreenenter"",""1"",""3029""
","
","","","-1","","","17","12323","5530","t","elianto","#f73b6a7A"," ","-1","0","-10","[]","0","2","","","12323","97","7","3","lose","go","0"
"pit-trial","216","1399958","0.0-102.0","battery-v0.2","","""event"",""trial"",""time""
""fullscreenenter"",""1"",""3029""
","
","
","""event"",""trial"",""time""
""fullscreenenter"",""1"",""3029""
","
","","","765.8999999999069","","","17","12323","5530","f","elianto","#3366ff99","-1"," ","0","0","[1617.5]","1","2","","","12323","98","8","2","win","no-go","0"
"pit-trial","217","1403795","0.0-103.0","battery-v0.2","","""event"",""trial"",""time""
""fullscreenenter"",""1"",""3029""
","
","
","""event"",""trial"",""time""
""fullscreenenter"",""1"",""3029""
","
","","","982.3999999999069","","","17","12323","5530","b","elianto","#f73b6a7A","-1"," ","0","-10","[1833.6999999999534]","1","2","","","12323","99","6","4","lose","no-go","0"
"pit-trial","218","1407476","0.0-104.0","battery-v0.2","","""event"",""trial"",""time""
""fullscreenenter"",""1"",""3029""
","
","
","""event"",""trial"",""time""
""fullscreenenter"",""1"",""3029""
","
","","","826.9000000001397","","","17","12323","5530","c","elianto","#3366ff99"," "," ","1","+10","[1677.3000000000466]","1","2","","","12323","100","5","1","win","go","0"
"pit-trial","219","1411633","0.0-105.0","battery-v0.2","","""event"",""trial"",""time""
""fullscreenenter"",""1"",""3029""
","
","
","""event"",""trial"",""time""
""fullscreenenter"",""1"",""3029""
","
","","","1302.8000000000466","","","17","12323","5530","b","elianto","#f73b6a7A","-1"," ","0","-10","[2153.5]","1","2","","","12323","101","6","4","lose","no-go","0"
"pit-trial","220","1415633","0.0-106.0","battery-v0.2","","""event"",""trial"",""time""
""fullscreenenter"",""1"",""3029""
","
","
","""event"",""trial"",""time""
""fullscreenenter"",""1"",""3029""
","
","","","1145.3000000000466","","","17","12323","5530","c","elianto","#3366ff99"," "," ","1","+10","[1996.3000000000466]","1","2","","","12323","102","5","1","win","go","0"
"pit-trial","221","1419294","0.0-107.0","battery-v0.2","","""event"",""trial"",""time""
""fullscreenenter"",""1"",""3029""
","
","
","""event"",""trial"",""time""
""fullscreenenter"",""1"",""3029""
","
","","","806.5","","","17","12323","5530","f","elianto","#3366ff99","-1"," ","0","0","[1657.2999999998137]","1","2","","","12323","103","8","2","win","no-go","0"
"pit-trial","222","1422936","0.0-108.0","battery-v0.2","","""event"",""trial"",""time""
""fullscreenenter"",""1"",""3029""
","
","
","""event"",""trial"",""time""
""fullscreenenter"",""1"",""3029""
","
","","","787.8999999999069","","","17","12323","5530","n","elianto","#3366ff99","-1"," ","0","0","[1639.1999999999534]","1","2","","","12323","104","9","2","win","no-go","0"
"pit-trial","223","1427790","0.0-109.0","battery-v0.2","","""event"",""trial"",""time""
""fullscreenenter"",""1"",""3029""
","
","
","""event"",""trial"",""time""
""fullscreenenter"",""1"",""3029""
","
","","","-1","","","17","12323","5530","n","elianto","#3366ff99","-1","-1","1","0","[]","0","2","","","12323","105","9","2","win","no-go","1"
"pit-trial","224","1431281","0.0-110.0","battery-v0.2","","""event"",""trial"",""time""
""fullscreenenter"",""1"",""3029""
","
","
","""event"",""trial"",""time""
""fullscreenenter"",""1"",""3029""
","
","","","637.8000000000466","","","17","12323","5530","f","elianto","#3366ff99","-1"," ","0","0","[1489]","1","2","","","12323","106","8","2","win","no-go","0"
"pit-trial","225","1435196","0.0-111.0","battery-v0.2","","""event"",""trial"",""time""
""fullscreenenter"",""1"",""3029""
","
","
","""event"",""trial"",""time""
""fullscreenenter"",""1"",""3029""
","
","","","1060.1999999999534","","","17","12323","5530","b","elianto","#f73b6a7A","-1"," ","0","-10","[1911.4000000001397]","1","2","","","12323","107","6","4","lose","no-go","0"
"pit-trial","226","1438807","0.0-112.0","battery-v0.2","","""event"",""trial"",""time""
""fullscreenenter"",""1"",""3029""
","
","
","""event"",""trial"",""time""
""fullscreenenter"",""1"",""3029""
","
","","","757.6999999999534","","","17","12323","5530","c","elianto","#3366ff99"," "," ","1","+10","[1608.7999999998137]","1","2","","","12323","108","5","1","win","go","0"
"pit-trial","227","1443291","0.0-113.0","battery-v0.2","","""event"",""trial"",""time""
""fullscreenenter"",""1"",""3029""
","
","
","""event"",""trial"",""time""
""fullscreenenter"",""1"",""3029""
","
","","","1628.3999999999069","","","17","12323","5530","f","elianto","#3366ff99","-1"," ","0","0","[2479.600000000093]","1","2","","","12323","109","8","2","win","no-go","0"
"pit-trial","228","1446600","0.0-114.0","battery-v0.2","","""event"",""trial"",""time""
""fullscreenenter"",""1"",""3029""
","
","
","""event"",""trial"",""time""
""fullscreenenter"",""1"",""3029""
","
","","","454.20000000018626","","","17","12323","5530","c","elianto","#3366ff99"," "," ","1","+10","[1305.9000000001397]","1","2","","","12323","110","5","1","win","go","0"
"pit-trial","229","1450074","0.0-115.0","battery-v0.2","","""event"",""trial"",""time""
""fullscreenenter"",""1"",""3029""
","
","
","""event"",""trial"",""time""
""fullscreenenter"",""1"",""3029""
","
","","","618.3000000000466","","","17","12323","5530","b","elianto","#f73b6a7A","-1"," ","0","-10","[1470.0999999998603]","1","2","","","12323","111","6","4","lose","no-go","0"
"pit-trial","230","1453736","0.0-116.0","battery-v0.2","","""event"",""trial"",""time""
""fullscreenenter"",""1"",""3029""
","
","
","""event"",""trial"",""time""
""fullscreenenter"",""1"",""3029""
","
","","","807.3000000000466","","","17","12323","5530","n","elianto","#3366ff99","-1"," ","0","+10","[1658.3000000000466]","1","2","","","12323","112","9","2","win","no-go","1"
"pit-trial","231","1457490","0.0-117.0","battery-v0.2","","""event"",""trial"",""time""
""fullscreenenter"",""1"",""3029""
","
","
","""event"",""trial"",""time""
""fullscreenenter"",""1"",""3029""
","
","","","900.6999999999534","","","17","12323","5530","f","elianto","#3366ff99","-1"," ","0","+10","[1751.3000000000466]","1","2","","","12323","113","8","2","win","no-go","1"
"pit-trial","232","1460832","0.0-118.0","battery-v0.2","","""event"",""trial"",""time""
""fullscreenenter"",""1"",""3029""
","
","
","""event"",""trial"",""time""
""fullscreenenter"",""1"",""3029""
","
","","","488","","","17","12323","5530","t","elianto","#f73b6a7A"," "," ","1","0","[1338.1999999999534]","1","2","","","12323","114","7","3","lose","go","0"
"pit-trial","233","1465688","0.0-119.0","battery-v0.2","","""event"",""trial"",""time""
""fullscreenenter"",""1"",""3029""
","
","
","""event"",""trial"",""time""
""fullscreenenter"",""1"",""3029""
","
","","","-1","","","17","12323","5530","n","elianto","#3366ff99","-1","-1","1","+10","[]","0","2","","","12323","115","9","2","win","no-go","0"
"pit-trial","234","1470440","0.0-120.0","battery-v0.2","","""event"",""trial"",""time""
""fullscreenenter"",""1"",""3029""
","
","
","""event"",""trial"",""time""
""fullscreenenter"",""1"",""3029""
","
","","","1898.3999999999069","","","17","12323","5530","c","elianto","#3366ff99"," "," ","1","0","[2748.899999999907]","1","2","","","12323","116","5","1","win","go","1"
"pit-trial","235","1473629","0.0-121.0","battery-v0.2","","""event"",""trial"",""time""
""fullscreenenter"",""1"",""3029""
","
","
","""event"",""trial"",""time""
""fullscreenenter"",""1"",""3029""
","
","","","334.19999999995343","","","17","12323","5530","c","elianto","#3366ff99"," "," ","1","0","[1185.6999999999534]","1","2","","","12323","117","5","1","win","go","1"
"pit-trial","236","1476711","0.0-122.0","battery-v0.2","","""event"",""trial"",""time""
""fullscreenenter"",""1"",""3029""
","
","
","""event"",""trial"",""time""
""fullscreenenter"",""1"",""3029""
","
","","","227.5","","","17","12323","5530","b","elianto","#f73b6a7A","-1"," ","0","-10","[1078.9000000001397]","1","2","","","12323","118","6","4","lose","no-go","0"
"pit-trial","237","1479789","0.0-123.0","battery-v0.2","","""event"",""trial"",""time""
""fullscreenenter"",""1"",""3029""
","
","
","""event"",""trial"",""time""
""fullscreenenter"",""1"",""3029""
","
","","","223","","","17","12323","5530","f","elianto","#3366ff99","-1"," ","0","0","[1075]","1","2","","","12323","119","8","2","win","no-go","0"
"pit-trial","238","1482778","0.0-124.0","battery-v0.2","","""event"",""trial"",""time""
""fullscreenenter"",""1"",""3029""
","
","
","""event"",""trial"",""time""
""fullscreenenter"",""1"",""3029""
","
","","","134.9000000001397","","","17","12323","5530","n","elianto","#3366ff99","-1"," ","0","0","[985.3000000000466]","1","2","","","12323","120","9","2","win","no-go","0"
"pit-trial","239","1486029","0.0-125.0","battery-v0.2","","""event"",""trial"",""time""
""fullscreenenter"",""1"",""3029""
","
","
","""event"",""trial"",""time""
""fullscreenenter"",""1"",""3029""
","
","","","396.5999999998603","","","17","12323","5530","t","elianto","#f73b6a7A"," "," ","1","0","[1247.5999999998603]","1","2","","","12323","121","7","3","lose","go","0"
"pit-trial","240","1489615","0.0-126.0","battery-v0.2","","""event"",""trial"",""time""
""fullscreenenter"",""1"",""3029""
","
","
","""event"",""trial"",""time""
""fullscreenenter"",""1"",""3029""
","
","","","732","","","17","12323","5530","f","elianto","#3366ff99","-1"," ","0","0","[1582.8999999999069]","1","2","","","12323","122","8","2","win","no-go","0"
"pit-trial","241","1494470","0.0-127.0","battery-v0.2","","""event"",""trial"",""time""
""fullscreenenter"",""1"",""3029""
","
","
","""event"",""trial"",""time""
""fullscreenenter"",""1"",""3029""
","
","","","-1","","","17","12323","5530","c","elianto","#3366ff99"," ","-1","0","0","[]","0","2","","","12323","123","5","1","win","go","0"
"pit-trial","242","1498653","0.0-128.0","battery-v0.2","","""event"",""trial"",""time""
""fullscreenenter"",""1"",""3029""
","
","
","""event"",""trial"",""time""
""fullscreenenter"",""1"",""3029""
","
","","","1329","","","17","12323","5530","n","elianto","#3366ff99","-1"," ","0","0","[2180.6999999999534]","1","2","","","12323","124","9","2","win","no-go","0"
"pit-trial","243","1503187","0.0-129.0","battery-v0.2","","""event"",""trial"",""time""
""fullscreenenter"",""1"",""3029""
","
","
","""event"",""trial"",""time""
""fullscreenenter"",""1"",""3029""
","
","","","1678.7999999998137","","","17","12323","5530","f","elianto","#3366ff99","-1"," ","0","0","[2529.899999999907]","1","2","","","12323","125","8","2","win","no-go","0"
"pit-trial","244","1506949","0.0-130.0","battery-v0.2","","""event"",""trial"",""time""
""fullscreenenter"",""1"",""3029""
","
","
","""event"",""trial"",""time""
""fullscreenenter"",""1"",""3029""
","
","","","908.5999999998603","","","17","12323","5530","b","elianto","#f73b6a7A","-1"," ","0","-10","[1759.0999999998603]","1","2","","","12323","126","6","4","lose","no-go","0"
"pit-trial","245","1511205","0.0-131.0","battery-v0.2","","""event"",""trial"",""time""
""fullscreenenter"",""1"",""3029""
","
","
","""event"",""trial"",""time""
""fullscreenenter"",""1"",""3029""
","
","","","1400.1999999999534","","","17","12323","5530","t","elianto","#f73b6a7A"," "," ","1","-10","[2251.5999999998603]","1","2","","","12323","127","7","3","lose","go","1"
"pit-trial","246","1516060","0.0-132.0","battery-v0.2","","""event"",""trial"",""time""
""fullscreenenter"",""1"",""3029""
","
","
","""event"",""trial"",""time""
""fullscreenenter"",""1"",""3029""
","
","","","-1","","","17","12323","5530","n","elianto","#3366ff99","-1","-1","1","+10","[2862.5999999998603]","1","2","","","12323","128","9","2","win","no-go","0"
"pit-trial","247","1520614","0.0-133.0","battery-v0.2","","""event"",""trial"",""time""
""fullscreenenter"",""1"",""3029""
","
","
","""event"",""trial"",""time""
""fullscreenenter"",""1"",""3029""
","
","","","1700.1999999999534","","","17","12323","5530","t","elianto","#f73b6a7A"," "," ","1","0","[2550.5]","1","2","","","12323","129","7","3","lose","go","0"
"pit-trial","248","1525100","0.0-134.0","battery-v0.2","","""event"",""trial"",""time""
""fullscreenenter"",""1"",""3029""
","
","
","""event"",""trial"",""time""
""fullscreenenter"",""1"",""3029""
","
","","","1631.9000000001397","","","17","12323","5530","n","elianto","#3366ff99","-1"," ","0","+10","[2482.2000000001863]","1","2","","","12323","130","9","2","win","no-go","1"
"pit-trial","249","1529953","0.0-135.0","battery-v0.2","","""event"",""trial"",""time""
""fullscreenenter"",""1"",""3029""
","
","
","""event"",""trial"",""time""
""fullscreenenter"",""1"",""3029""
","
","","","-1","","","17","12323","5530","f","elianto","#3366ff99","-1","-1","1","+10","[2893.899999999907]","1","2","","","12323","131","8","2","win","no-go","0"
"pit-trial","250","1534807","0.0-136.0","battery-v0.2","","""event"",""trial"",""time""
""fullscreenenter"",""1"",""3029""
","
","
","""event"",""trial"",""time""
""fullscreenenter"",""1"",""3029""
","
","","","-1","","","17","12323","5530","b","elianto","#f73b6a7A","-1","-1","1","0","[3702.5999999998603]","1","2","","","12323","132","6","4","lose","no-go","0"
"pit-trial","251","1538046","0.0-137.0","battery-v0.2","","""event"",""trial"",""time""
""fullscreenenter"",""1"",""3029""
","
","
","""event"",""trial"",""time""
""fullscreenenter"",""1"",""3029""
","
","","","384.39999999990687","","","17","12323","5530","f","elianto","#3366ff99","-1"," ","0","0","[1234.6999999999534]","1","2","","","12323","133","8","2","win","no-go","0"
"pit-trial","252","1541842","0.0-138.0","battery-v0.2","","""event"",""trial"",""time""
""fullscreenenter"",""1"",""3029""
","
","
","""event"",""trial"",""time""
""fullscreenenter"",""1"",""3029""
","
","","","943.6000000000931","","","17","12323","5530","b","elianto","#f73b6a7A","-1"," ","0","-10","[1793.8000000000466]","1","2","","","12323","134","6","4","lose","no-go","0"
"pit-trial","253","1546697","0.0-139.0","battery-v0.2","","""event"",""trial"",""time""
""fullscreenenter"",""1"",""3029""
","
","
","""event"",""trial"",""time""
""fullscreenenter"",""1"",""3029""
","
","","","-1","","","17","12323","5530","n","elianto","#3366ff99","-1","-1","1","+10","[]","0","2","","","12323","135","9","2","win","no-go","0"
"pit-trial","254","1550382","0.0-140.0","battery-v0.2","","""event"",""trial"",""time""
""fullscreenenter"",""1"",""3029""
","
","
","""event"",""trial"",""time""
""fullscreenenter"",""1"",""3029""
","
","","","830.5999999998603","","","17","12323","5530","t","elianto","#f73b6a7A"," "," ","1","0","[1681]","1","2","","","12323","136","7","3","lose","go","0"
"pit-trial","255","1554155","0.0-141.0","battery-v0.2","","""event"",""trial"",""time""
""fullscreenenter"",""1"",""3029""
","
","
","""event"",""trial"",""time""
""fullscreenenter"",""1"",""3029""
","
","","","917.6999999999534","","","17","12323","5530","n","elianto","#3366ff99","-1"," ","0","+10","[1769.6000000000931]","1","2","","","12323","137","9","2","win","no-go","1"
"pit-trial","256","1557493","0.0-142.0","battery-v0.2","","""event"",""trial"",""time""
""fullscreenenter"",""1"",""3029""
","
","
","""event"",""trial"",""time""
""fullscreenenter"",""1"",""3029""
","
","","","483.39999999990687","","","17","12323","5530","b","elianto","#f73b6a7A","-1"," ","0","-10","[1334.5]","1","2","","","12323","138","6","4","lose","no-go","0"
"pit-trial","257","1560691","0.0-143.0","battery-v0.2","","""event"",""trial"",""time""
""fullscreenenter"",""1"",""3029""
","
","
","""event"",""trial"",""time""
""fullscreenenter"",""1"",""3029""
","
","","","342.5","","","17","12323","5530","t","elianto","#f73b6a7A"," "," ","1","0","[1193.8000000000466]","1","2","","","12323","139","7","3","lose","go","0"
"pit-trial","258","1563939","0.0-144.0","battery-v0.2","","""event"",""trial"",""time""
""fullscreenenter"",""1"",""3029""
","
","
","""event"",""trial"",""time""
""fullscreenenter"",""1"",""3029""
","
