"trial_type","trial_index","time_elapsed","internal_node_id","task_version","subject_id","interactions","blur_events","focus_events","fullscreenenter_events","fullscreenexit_events","success","view_history","rt","responses","num_errors","age","subject","participantId","rune","rune_set","hex","correct","choice","accuracy","outcome","keys","total_keys","block","practice","value","sub","trial","stimulus","robot","valence","action","sham"
"pavlovia","0","28","0.0-0.0","battery-v0.2","","""event"",""trial"",""time""
""fullscreenenter"",""1"",""1787""
","
","
","""event"",""trial"",""time""
""fullscreenenter"",""1"",""1787""
","
","","","","","","","","","","","","","","","","","","","","","","","","","","",""
"fullscreen","1","2762","0.0-1.0","battery-v0.2","","""event"",""trial"",""time""
""fullscreenenter"",""1"",""1787""
","
","
","""event"",""trial"",""time""
""fullscreenenter"",""1"",""1787""
","
","true","","","","","","","","","","","","","","","","","","","","","","","","","",""
"pit-instructions","2","7771","0.0-2.0-0.0","battery-v0.2","","""event"",""trial"",""time""
""fullscreenenter"",""1"",""1787""
","
","
","""event"",""trial"",""time""
""fullscreenenter"",""1"",""1787""
","
","","[{""page_index"":0,""viewing_time"":5005.199999988079}]","5005.800000011921","","","","","","","","","","","","","","","","","","","","","","","",""
"pit-comprehension","3","10698","0.0-2.0-1.0-0.0","battery-v0.2","","""event"",""trial"",""time""
""fullscreenenter"",""1"",""1787""
","
","
","""event"",""trial"",""time""
""fullscreenenter"",""1"",""1787""
","
","","","2921.599999964237","[""shark""]","0","22","15154","6106","","","","","","","","","","","","","","","","","","",""
"pit-instructions","4","11916","0.0-2.0-1.0-1.0","battery-v0.2","","""event"",""trial"",""time""
""fullscreenenter"",""1"",""1787""
","
","
","""event"",""trial"",""time""
""fullscreenenter"",""1"",""1787""
","
","","[{""page_index"":0,""viewing_time"":1207.5}]","1207.8999999761581","","","","","","","","","","","","","","","","","","","","","","","",""
"pit-comprehension","5","14328","0.0-2.0-2.0-0.0","battery-v0.2","","""event"",""trial"",""time""
""fullscreenenter"",""1"",""1787""
","
","
","""event"",""trial"",""time""
""fullscreenenter"",""1"",""1787""
","
","","","2407.300000011921","[""tiger""]","0","22","15154","6106","","","","","","","","","","","","","","","","","","",""
"pit-instructions","6","15085","0.0-2.0-2.0-1.0","battery-v0.2","","""event"",""trial"",""time""
""fullscreenenter"",""1"",""1787""
","
","
","""event"",""trial"",""time""
""fullscreenenter"",""1"",""1787""
","
","","[{""page_index"":0,""viewing_time"":752.6999999880791}]","753.1999999880791","","","","","","","","","","","","","","","","","","","","","","","",""
"pit-instructions","7","108576","0.0-2.0-3.0","battery-v0.2","","""event"",""trial"",""time""
""fullscreenenter"",""1"",""1787""
","
","
","""event"",""trial"",""time""
""fullscreenenter"",""1"",""1787""
","
","","[{""page_index"":0,""viewing_time"":7919.699999988079},{""page_index"":1,""viewing_time"":6011.899999976158},{""page_index"":2,""viewing_time"":7691.400000035763},{""page_index"":3,""viewing_time"":5075.699999988079},{""page_index"":4,""viewing_time"":5508.199999988079},{""page_index"":5,""viewing_time"":5210.199999988079},{""page_index"":6,""viewing_time"":7478.199999988079},{""page_index"":7,""viewing_time"":6421.5},{""page_index"":8,""viewing_time"":6730.300000011921},{""page_index"":9,""viewing_time"":8278.900000035763},{""page_index"":10,""viewing_time"":8316.899999976158},{""page_index"":11,""viewing_time"":7144.899999976158},{""page_index"":12,""viewing_time"":6693},{""page_index"":13,""viewing_time"":5007.900000035763}]","93489.59999996424","","","","","","","","","","","","","","","","","","","","","","","",""
"pit-trial","8","112041","0.0-2.0-4.0-0.0","battery-v0.2","","""event"",""trial"",""time""
""fullscreenenter"",""1"",""1787""
","
","
","""event"",""trial"",""time""
""fullscreenenter"",""1"",""1787""
","
","","","606.3000000119209","","","22","15154","6106","&#9784;","elianto","#FFFFF080"," "," ","1","&#10004","[1457.1000000238419]","1","0","0","","","","","","","",""
"pit-trial","9","115670","0.0-2.0-4.1-0.1","battery-v0.2","","""event"",""trial"",""time""
""fullscreenenter"",""1"",""1787""
","
","
","""event"",""trial"",""time""
""fullscreenenter"",""1"",""1787""
","
","","","771.6999999880791","","","22","15154","6106","&#9784;","elianto","#FFFFF080"," "," ","1","&#10004","[1622.199999988079]","1","0","0","","","","","","","",""
"pit-trial","10","119082","0.0-2.0-4.2-0.2","battery-v0.2","","""event"",""trial"",""time""
""fullscreenenter"",""1"",""1787""
","
","
","""event"",""trial"",""time""
""fullscreenenter"",""1"",""1787""
","
","","","555.1999999880791","","","22","15154","6106","&#9784;","elianto","#FFFFF080"," "," ","1","&#10004","[1407.1000000238419]","1","0","0","","","","","","","",""
"pit-trial","11","122448","0.0-2.0-4.3-0.3","battery-v0.2","","""event"",""trial"",""time""
""fullscreenenter"",""1"",""1787""
","
","
","""event"",""trial"",""time""
""fullscreenenter"",""1"",""1787""
","
","","","509.5","","","22","15154","6106","&#9784;","elianto","#FFFFF080"," "," ","1","&#10004","[1359.800000011921]","1","0","0","","","","","","","",""
"pit-trial","12","125776","0.0-2.0-4.4-0.4","battery-v0.2","","""event"",""trial"",""time""
""fullscreenenter"",""1"",""1787""
","
","
","""event"",""trial"",""time""
""fullscreenenter"",""1"",""1787""
","
","","","471.80000001192093","","","22","15154","6106","&#9784;","elianto","#FFFFF080"," "," ","1","&#10004","[1322.5999999642372]","1","0","0","","","","","","","",""
"pit-instructions","13","147365","0.0-2.0-5.0","battery-v0.2","","""event"",""trial"",""time""
""fullscreenenter"",""1"",""1787""
","
","
","""event"",""trial"",""time""
""fullscreenenter"",""1"",""1787""
","
","","[{""page_index"":0,""viewing_time"":5114.300000011921},{""page_index"":1,""viewing_time"":5425.5},{""page_index"":2,""viewing_time"":5066.599999964237},{""page_index"":3,""viewing_time"":5977.800000011921}]","21584.69999998808","","","","","","","","","","","","","","","","","","","","","","","",""
"pit-trial","14","152220","0.0-2.0-6.0-0.0","battery-v0.2","","""event"",""trial"",""time""
""fullscreenenter"",""1"",""1787""
","
","
","""event"",""trial"",""time""
""fullscreenenter"",""1"",""1787""
","
","","","-1","","","22","15154","6106","&#9854;","elianto","#FFFFF080","-1","-1","1","&#10004","[]","0","0","1","","","","","","","",""
"pit-trial","15","157077","0.0-2.0-6.1-0.1","battery-v0.2","","""event"",""trial"",""time""
""fullscreenenter"",""1"",""1787""
","
","
","""event"",""trial"",""time""
""fullscreenenter"",""1"",""1787""
","
","","","-1","","","22","15154","6106","&#9854;","elianto","#FFFFF080","-1","-1","1","&#10004","[]","0","0","1","","","","","","","",""
"pit-trial","16","161933","0.0-2.0-6.2-0.2","battery-v0.2","","""event"",""trial"",""time""
""fullscreenenter"",""1"",""1787""
","
","
","""event"",""trial"",""time""
""fullscreenenter"",""1"",""1787""
","
","","","-1","","","22","15154","6106","&#9854;","elianto","#FFFFF080","-1","-1","1","&#10004","[]","0","0","1","","","","","","","",""
"pit-trial","17","166787","0.0-2.0-6.3-0.3","battery-v0.2","","""event"",""trial"",""time""
""fullscreenenter"",""1"",""1787""
","
","
","""event"",""trial"",""time""
""fullscreenenter"",""1"",""1787""
","
","","","-1","","","22","15154","6106","&#9854;","elianto","#FFFFF080","-1","-1","1","&#10004","[]","0","0","1","","","","","","","",""
"pit-trial","18","171643","0.0-2.0-6.4-0.4","battery-v0.2","","""event"",""trial"",""time""
""fullscreenenter"",""1"",""1787""
","
","
","""event"",""trial"",""time""
""fullscreenenter"",""1"",""1787""
","
","","","-1","","","22","15154","6106","&#9854;","elianto","#FFFFF080","-1","-1","1","&#10004","[]","0","0","1","","","","","","","",""
"pit-instructions","19","289496","0.0-2.0-7.0","battery-v0.2","","""event"",""trial"",""time""
""fullscreenenter"",""1"",""1787""
","
","
","""event"",""trial"",""time""
""fullscreenenter"",""1"",""1787""
","
","","[{""page_index"":0,""viewing_time"":5814.199999988079},{""page_index"":1,""viewing_time"":6873.199999988079},{""page_index"":2,""viewing_time"":7943.5},{""page_index"":3,""viewing_time"":6109.800000011921},{""page_index"":4,""viewing_time"":5478.800000011921},{""page_index"":5,""viewing_time"":5009.5},{""page_index"":6,""viewing_time"":4501.099999964237},{""page_index"":7,""viewing_time"":7875.800000011921},{""page_index"":8,""viewing_time"":6592.100000023842},{""page_index"":9,""viewing_time"":6704.5},{""page_index"":10,""viewing_time"":6758.899999976158},{""page_index"":11,""viewing_time"":4623.900000035763},{""page_index"":12,""viewing_time"":6828.5},{""page_index"":13,""viewing_time"":7700.299999952316},{""page_index"":14,""viewing_time"":7811.5},{""page_index"":15,""viewing_time"":6540.5},{""page_index"":16,""viewing_time"":6791.100000023842},{""page_index"":17,""viewing_time"":7894.899999976158}]","117852.59999996424","","","","","","","","","","","","","","","","","","","","","","","",""
"pit-trial","20","292958","0.0-2.0-8.0-0.0","battery-v0.2","","""event"",""trial"",""time""
""fullscreenenter"",""1"",""1787""
","
","
","""event"",""trial"",""time""
""fullscreenenter"",""1"",""1787""
","
","","","607.1999999880791","","","22","15154","6106","&#9776;","elianto","#3366ff99"," "," ","1","+10","[1457.800000011921]","1","0","1","","","","","","","",""
"pit-trial","21","296297","0.0-2.0-8.0-1.0","battery-v0.2","","""event"",""trial"",""time""
""fullscreenenter"",""1"",""1787""
","
","
","""event"",""trial"",""time""
""fullscreenenter"",""1"",""1787""
","
","","","484.30000001192093","","","22","15154","6106","&#9776;","elianto","#3366ff99"," "," ","1","+10","[1334.800000011921]","1","0","1","","","","","","","",""
"pit-trial","22","299665","0.0-2.0-8.0-2.0","battery-v0.2","","""event"",""trial"",""time""
""fullscreenenter"",""1"",""1787""
","
","
","""event"",""trial"",""time""
""fullscreenenter"",""1"",""1787""
","
","","","513.8999999761581","","","22","15154","6106","&#9776;","elianto","#3366ff99"," "," ","1","+10","[1364.8999999761581]","1","0","1","","","","","","","",""
"pit-trial","23","303105","0.0-2.0-8.0-3.0","battery-v0.2","","""event"",""trial"",""time""
""fullscreenenter"",""1"",""1787""
","
","
","""event"",""trial"",""time""
""fullscreenenter"",""1"",""1787""
","
","","","584.5999999642372","","","22","15154","6106","&#9776;","elianto","#3366ff99"," "," ","1","0","[1435.8999999761581]","1","0","1","","","","","","","",""
"pit-trial","24","306415","0.0-2.0-8.0-4.0","battery-v0.2","","""event"",""trial"",""time""
""fullscreenenter"",""1"",""1787""
","
","
","""event"",""trial"",""time""
""fullscreenenter"",""1"",""1787""
","
","","","455.10000002384186","","","22","15154","6106","&#9776;","elianto","#3366ff99"," "," ","1","+10","[1306]","1","0","1","","","","","","","",""
"pit-trial","25","309703","0.0-2.0-8.1-0.1","battery-v0.2","","""event"",""trial"",""time""
""fullscreenenter"",""1"",""1787""
","
","
","""event"",""trial"",""time""
""fullscreenenter"",""1"",""1787""
","
","","","431.80000001192093","","","22","15154","6106","&#9776;","elianto","#3366ff99"," "," ","1","+10","[1283.5]","1","0","1","","","","","","","",""
"pit-trial","26","312927","0.0-2.0-8.1-1.1","battery-v0.2","","""event"",""trial"",""time""
""fullscreenenter"",""1"",""1787""
","
","
","""event"",""trial"",""time""
""fullscreenenter"",""1"",""1787""
","
","","","370.19999998807907","","","22","15154","6106","&#9776;","elianto","#3366ff99"," "," ","1","+10","[1220.800000011921]","1","0","1","","","","","","","",""
"pit-trial","27","316207","0.0-2.0-8.1-2.1","battery-v0.2","","""event"",""trial"",""time""
""fullscreenenter"",""1"",""1787""
","
","
","""event"",""trial"",""time""
""fullscreenenter"",""1"",""1787""
","
","","","425.5","","","22","15154","6106","&#9776;","elianto","#3366ff99"," "," ","1","+10","[1276.5]","1","0","1","","","","","","","",""
"pit-trial","28","319467","0.0-2.0-8.1-3.1","battery-v0.2","","""event"",""trial"",""time""
""fullscreenenter"",""1"",""1787""
","
","
","""event"",""trial"",""time""
""fullscreenenter"",""1"",""1787""
","
","","","405.9000000357628","","","22","15154","6106","&#9776;","elianto","#3366ff99"," "," ","1","0","[1256.300000011921]","1","0","1","","","","","","","",""
"pit-trial","29","322706","0.0-2.0-8.1-4.1","battery-v0.2","","""event"",""trial"",""time""
""fullscreenenter"",""1"",""1787""
","
","
","""event"",""trial"",""time""
""fullscreenenter"",""1"",""1787""
","
","","","385","","","22","15154","6106","&#9776;","elianto","#3366ff99"," "," ","1","+10","[1236]","1","0","1","","","","","","","",""
"pit-trial","30","325890","0.0-2.0-8.2-0.2","battery-v0.2","","""event"",""trial"",""time""
""fullscreenenter"",""1"",""1787""
","
","
","""event"",""trial"",""time""
""fullscreenenter"",""1"",""1787""
","
","","","330","","","22","15154","6106","&#9776;","elianto","#3366ff99"," "," ","1","+10","[1180.6000000238419]","1","0","1","","","","","","","",""
"pit-trial","31","329092","0.0-2.0-8.2-1.2","battery-v0.2","","""event"",""trial"",""time""
""fullscreenenter"",""1"",""1787""
","
","
","""event"",""trial"",""time""
""fullscreenenter"",""1"",""1787""
","
","","","347.5","","","22","15154","6106","&#9776;","elianto","#3366ff99"," "," ","1","+10","[1198.5]","1","0","1","","","","","","","",""
"pit-trial","32","332392","0.0-2.0-8.2-2.2","battery-v0.2","","""event"",""trial"",""time""
""fullscreenenter"",""1"",""1787""
","
","
","""event"",""trial"",""time""
""fullscreenenter"",""1"",""1787""
","
","","","445","","","22","15154","6106","&#9776;","elianto","#3366ff99"," "," ","1","+10","[1296.2000000476837]","1","0","1","","","","","","","",""
"pit-trial","33","335693","0.0-2.0-8.2-3.2","battery-v0.2","","""event"",""trial"",""time""
""fullscreenenter"",""1"",""1787""
","
","
","""event"",""trial"",""time""
""fullscreenenter"",""1"",""1787""
","
","","","445.80000001192093","","","22","15154","6106","&#9776;","elianto","#3366ff99"," "," ","1","0","[1296.5]","1","0","1","","","","","","","",""
"pit-trial","34","338831","0.0-2.0-8.2-4.2","battery-v0.2","","""event"",""trial"",""time""
""fullscreenenter"",""1"",""1787""
","
","
","""event"",""trial"",""time""
""fullscreenenter"",""1"",""1787""
","
","","","284.7000000476837","","","22","15154","6106","&#9776;","elianto","#3366ff99"," "," ","1","+10","[1135.699999988079]","1","0","1","","","","","","","",""
"call-function","35","338835","0.0-2.0-9.0","battery-v0.2","","""event"",""trial"",""time""
""fullscreenenter"",""1"",""1787""
","
","
","""event"",""trial"",""time""
""fullscreenenter"",""1"",""1787""
","
","","","","","","","","","","","","","","","","","","","","","","","","","","",""
"pit-instructions","36","379640","0.0-2.0-10.0","battery-v0.2","","""event"",""trial"",""time""
""fullscreenenter"",""1"",""1787""
","
","
","""event"",""trial"",""time""
""fullscreenenter"",""1"",""1787""
","
","","[{""page_index"":0,""viewing_time"":6290.599999964237},{""page_index"":1,""viewing_time"":7544.300000011921},{""page_index"":2,""viewing_time"":9896.5},{""page_index"":3,""viewing_time"":9228.699999988079},{""page_index"":4,""viewing_time"":7845}]","40805.69999998808","","","","","","","","","","","","","","","","","","","","","","","",""
"pit-trial","37","384496","0.0-2.0-11.0-0.0","battery-v0.2","","""event"",""trial"",""time""
""fullscreenenter"",""1"",""1787""
","
","
","""event"",""trial"",""time""
""fullscreenenter"",""1"",""1787""
","
","","","-1","","","22","15154","6106","&#9761;","elianto","#3366ff99","-1","-1","1","+10","[]","0","0","2","","","","","","","",""
"pit-trial","38","389352","0.0-2.0-11.0-1.0","battery-v0.2","","""event"",""trial"",""time""
""fullscreenenter"",""1"",""1787""
","
","
","""event"",""trial"",""time""
""fullscreenenter"",""1"",""1787""
","
","","","-1","","","22","15154","6106","&#9761;","elianto","#3366ff99","-1","-1","1","+10","[]","0","0","2","","","","","","","",""
"pit-trial","39","394207","0.0-2.0-11.0-2.0","battery-v0.2","","""event"",""trial"",""time""
""fullscreenenter"",""1"",""1787""
","
","
","""event"",""trial"",""time""
""fullscreenenter"",""1"",""1787""
","
","","","-1","","","22","15154","6106","&#9761;","elianto","#3366ff99","-1","-1","1","+10","[]","0","0","2","","","","","","","",""
"pit-trial","40","399061","0.0-2.0-11.0-3.0","battery-v0.2","","""event"",""trial"",""time""
""fullscreenenter"",""1"",""1787""
","
","
","""event"",""trial"",""time""
""fullscreenenter"",""1"",""1787""
","
","","","-1","","","22","15154","6106","&#9761;","elianto","#3366ff99","-1","-1","1","0","[]","0","0","2","","","","","","","",""
"pit-trial","41","403916","0.0-2.0-11.0-4.0","battery-v0.2","","""event"",""trial"",""time""
""fullscreenenter"",""1"",""1787""
","
","
","""event"",""trial"",""time""
""fullscreenenter"",""1"",""1787""
","
","","","-1","","","22","15154","6106","&#9761;","elianto","#3366ff99","-1","-1","1","+10","[]","0","0","2","","","","","","","",""
"pit-trial","42","408771","0.0-2.0-11.1-0.1","battery-v0.2","","""event"",""trial"",""time""
""fullscreenenter"",""1"",""1787""
","
","
","""event"",""trial"",""time""
""fullscreenenter"",""1"",""1787""
","
","","","-1","","","22","15154","6106","&#9761;","elianto","#3366ff99","-1","-1","1","+10","[]","0","0","2","","","","","","","",""
"pit-trial","43","413625","0.0-2.0-11.1-1.1","battery-v0.2","","""event"",""trial"",""time""
""fullscreenenter"",""1"",""1787""
","
","
","""event"",""trial"",""time""
""fullscreenenter"",""1"",""1787""
","
","","","-1","","","22","15154","6106","&#9761;","elianto","#3366ff99","-1","-1","1","+10","[]","0","0","2","","","","","","","",""
"pit-trial","44","418480","0.0-2.0-11.1-2.1","battery-v0.2","","""event"",""trial"",""time""
""fullscreenenter"",""1"",""1787""
","
","
","""event"",""trial"",""time""
""fullscreenenter"",""1"",""1787""
","
","","","-1","","","22","15154","6106","&#9761;","elianto","#3366ff99","-1","-1","1","+10","[]","0","0","2","","","","","","","",""
"pit-trial","45","423335","0.0-2.0-11.1-3.1","battery-v0.2","","""event"",""trial"",""time""
""fullscreenenter"",""1"",""1787""
","
","
","""event"",""trial"",""time""
""fullscreenenter"",""1"",""1787""
","
","","","-1","","","22","15154","6106","&#9761;","elianto","#3366ff99","-1","-1","1","0","[]","0","0","2","","","","","","","",""
"pit-trial","46","428190","0.0-2.0-11.1-4.1","battery-v0.2","","""event"",""trial"",""time""
""fullscreenenter"",""1"",""1787""
","
","
","""event"",""trial"",""time""
""fullscreenenter"",""1"",""1787""
","
","","","-1","","","22","15154","6106","&#9761;","elianto","#3366ff99","-1","-1","1","+10","[]","0","0","2","","","","","","","",""
"pit-trial","47","433046","0.0-2.0-11.2-0.2","battery-v0.2","","""event"",""trial"",""time""
""fullscreenenter"",""1"",""1787""
","
","
","""event"",""trial"",""time""
""fullscreenenter"",""1"",""1787""
","
","","","-1","","","22","15154","6106","&#9761;","elianto","#3366ff99","-1","-1","1","+10","[]","0","0","2","","","","","","","",""
"pit-trial","48","437900","0.0-2.0-11.2-1.2","battery-v0.2","","""event"",""trial"",""time""
""fullscreenenter"",""1"",""1787""
","
","
","""event"",""trial"",""time""
""fullscreenenter"",""1"",""1787""
","
","","","-1","","","22","15154","6106","&#9761;","elianto","#3366ff99","-1","-1","1","+10","[]","0","0","2","","","","","","","",""
"pit-trial","49","442755","0.0-2.0-11.2-2.2","battery-v0.2","","""event"",""trial"",""time""
""fullscreenenter"",""1"",""1787""
","
","
","""event"",""trial"",""time""
""fullscreenenter"",""1"",""1787""
","
","","","-1","","","22","15154","6106","&#9761;","elianto","#3366ff99","-1","-1","1","+10","[]","0","0","2","","","","","","","",""
"pit-trial","50","447611","0.0-2.0-11.2-3.2","battery-v0.2","","""event"",""trial"",""time""
""fullscreenenter"",""1"",""1787""
","
","
","""event"",""trial"",""time""
""fullscreenenter"",""1"",""1787""
","
","","","-1","","","22","15154","6106","&#9761;","elianto","#3366ff99","-1","-1","1","0","[]","0","0","2","","","","","","","",""
"pit-trial","51","452465","0.0-2.0-11.2-4.2","battery-v0.2","","""event"",""trial"",""time""
""fullscreenenter"",""1"",""1787""
","
","
","""event"",""trial"",""time""
""fullscreenenter"",""1"",""1787""
","
","","","-1","","","22","15154","6106","&#9761;","elianto","#3366ff99","-1","-1","1","+10","[]","0","0","2","","","","","","","",""
"pit-trial","52","457321","0.0-2.0-11.3-0.3","battery-v0.2","","""event"",""trial"",""time""
""fullscreenenter"",""1"",""1787""
","
","
","""event"",""trial"",""time""
""fullscreenenter"",""1"",""1787""
","
","","","-1","","","22","15154","6106","&#9761;","elianto","#3366ff99","-1","-1","1","+10","[]","0","0","2","","","","","","","",""
"pit-trial","53","462175","0.0-2.0-11.3-1.3","battery-v0.2","","""event"",""trial"",""time""
""fullscreenenter"",""1"",""1787""
","
","
","""event"",""trial"",""time""
""fullscreenenter"",""1"",""1787""
","
","","","-1","","","22","15154","6106","&#9761;","elianto","#3366ff99","-1","-1","1","+10","[]","0","0","2","","","","","","","",""
"pit-trial","54","467029","0.0-2.0-11.3-2.3","battery-v0.2","","""event"",""trial"",""time""
""fullscreenenter"",""1"",""1787""
","
","
","""event"",""trial"",""time""
""fullscreenenter"",""1"",""1787""
","
","","","-1","","","22","15154","6106","&#9761;","elianto","#3366ff99","-1","-1","1","+10","[]","0","0","2","","","","","","","",""
"pit-trial","55","471883","0.0-2.0-11.3-3.3","battery-v0.2","","""event"",""trial"",""time""
""fullscreenenter"",""1"",""1787""
","
","
","""event"",""trial"",""time""
""fullscreenenter"",""1"",""1787""
","
","","","-1","","","22","15154","6106","&#9761;","elianto","#3366ff99","-1","-1","1","0","[]","0","0","2","","","","","","","",""
"pit-trial","56","476737","0.0-2.0-11.3-4.3","battery-v0.2","","""event"",""trial"",""time""
""fullscreenenter"",""1"",""1787""
","
","
","""event"",""trial"",""time""
""fullscreenenter"",""1"",""1787""
","
","","","-1","","","22","15154","6106","&#9761;","elianto","#3366ff99","-1","-1","1","+10","[]","0","0","2","","","","","","","",""
"call-function","57","476739","0.0-2.0-12.0","battery-v0.2","","""event"",""trial"",""time""
""fullscreenenter"",""1"",""1787""
","
","
","""event"",""trial"",""time""
""fullscreenenter"",""1"",""1787""
","
","","","","","","","","","","","","","","","","","","","","","","","","","","",""
"pit-instructions","58","509665","0.0-2.0-13.0","battery-v0.2","","""event"",""trial"",""time""
""fullscreenenter"",""1"",""1787""
","
","
","""event"",""trial"",""time""
""fullscreenenter"",""1"",""1787""
","
","","[{""page_index"":0,""viewing_time"":6235.900000035763},{""page_index"":1,""viewing_time"":7610.099999964237},{""page_index"":2,""viewing_time"":3410.199999988079},{""page_index"":3,""viewing_time"":10944.700000047684},{""page_index"":4,""viewing_time"":4724.599999964237}]","32926.40000003576","","","","","","","","","","","","","","","","","","","","","","","",""
"pit-trial","59","513114","0.0-2.0-14.0-0.0","battery-v0.2","","""event"",""trial"",""time""
""fullscreenenter"",""1"",""1787""
","
","
","""event"",""trial"",""time""
""fullscreenenter"",""1"",""1787""
","
","","","591.8999999761581","","","22","15154","6106","&#9826;","elianto","#f73b6a7A","-1"," ","0","-10","[1443.0999999642372]","1","0","3","","","","","","","",""
"pit-trial","60","516354","0.0-2.0-14.0-1.0","battery-v0.2","","""event"",""trial"",""time""
""fullscreenenter"",""1"",""1787""
","
","
","""event"",""trial"",""time""
""fullscreenenter"",""1"",""1787""
","
","","","386.10000002384186","","","22","15154","6106","&#9826;","elianto","#f73b6a7A","-1"," ","0","-10","[1236.699999988079]","1","0","3","","","","","","","",""
"pit-trial","61","521208","0.0-2.0-14.0-2.0","battery-v0.2","","""event"",""trial"",""time""
""fullscreenenter"",""1"",""1787""
","
","
","""event"",""trial"",""time""
""fullscreenenter"",""1"",""1787""
","
","","","-1","","","22","15154","6106","&#9826;","elianto","#f73b6a7A","-1","-1","1","0","[]","0","0","3","","","","","","","",""
"pit-trial","62","526063","0.0-2.0-14.0-3.0","battery-v0.2","","""event"",""trial"",""time""
""fullscreenenter"",""1"",""1787""
","
","
","""event"",""trial"",""time""
""fullscreenenter"",""1"",""1787""
","
","","","-1","","","22","15154","6106","&#9826;","elianto","#f73b6a7A","-1","-1","1","-10","[]","0","0","3","","","","","","","",""
"pit-trial","63","530919","0.0-2.0-14.0-4.0","battery-v0.2","","""event"",""trial"",""time""
""fullscreenenter"",""1"",""1787""
","
","
","""event"",""trial"",""time""
""fullscreenenter"",""1"",""1787""
","
","","","-1","","","22","15154","6106","&#9826;","elianto","#f73b6a7A","-1","-1","1","0","[]","0","0","3","","","","","","","",""
"pit-trial","64","535774","0.0-2.0-14.1-0.1","battery-v0.2","","""event"",""trial"",""time""
""fullscreenenter"",""1"",""1787""
","
","
","""event"",""trial"",""time""
""fullscreenenter"",""1"",""1787""
","
","","","-1","","","22","15154","6106","&#9826;","elianto","#f73b6a7A","-1","-1","1","0","[]","0","0","3","","","","","","","",""
"pit-trial","65","540629","0.0-2.0-14.1-1.1","battery-v0.2","","""event"",""trial"",""time""
""fullscreenenter"",""1"",""1787""
","
","
","""event"",""trial"",""time""
""fullscreenenter"",""1"",""1787""
","
","","","-1","","","22","15154","6106","&#9826;","elianto","#f73b6a7A","-1","-1","1","0","[]","0","0","3","","","","","","","",""
"pit-trial","66","545485","0.0-2.0-14.1-2.1","battery-v0.2","","""event"",""trial"",""time""
""fullscreenenter"",""1"",""1787""
","
","
","""event"",""trial"",""time""
""fullscreenenter"",""1"",""1787""
","
","","","-1","","","22","15154","6106","&#9826;","elianto","#f73b6a7A","-1","-1","1","0","[]","0","0","3","","","","","","","",""
"pit-trial","67","550339","0.0-2.0-14.1-3.1","battery-v0.2","","""event"",""trial"",""time""
""fullscreenenter"",""1"",""1787""
","
","
","""event"",""trial"",""time""
""fullscreenenter"",""1"",""1787""
","
","","","-1","","","22","15154","6106","&#9826;","elianto","#f73b6a7A","-1","-1","1","-10","[]","0","0","3","","","","","","","",""
"pit-trial","68","555194","0.0-2.0-14.1-4.1","battery-v0.2","","""event"",""trial"",""time""
""fullscreenenter"",""1"",""1787""
","
","
","""event"",""trial"",""time""
""fullscreenenter"",""1"",""1787""
","
","","","-1","","","22","15154","6106","&#9826;","elianto","#f73b6a7A","-1","-1","1","0","[]","0","0","3","","","","","","","",""
"pit-trial","69","560050","0.0-2.0-14.2-0.2","battery-v0.2","","""event"",""trial"",""time""
""fullscreenenter"",""1"",""1787""
","
","
","""event"",""trial"",""time""
""fullscreenenter"",""1"",""1787""
","
","","","-1","","","22","15154","6106","&#9826;","elianto","#f73b6a7A","-1","-1","1","0","[]","0","0","3","","","","","","","",""
"pit-trial","70","564905","0.0-2.0-14.2-1.2","battery-v0.2","","""event"",""trial"",""time""
""fullscreenenter"",""1"",""1787""
","
","
","""event"",""trial"",""time""
""fullscreenenter"",""1"",""1787""
","
","","","-1","","","22","15154","6106","&#9826;","elianto","#f73b6a7A","-1","-1","1","0","[]","0","0","3","","","","","","","",""
"pit-trial","71","569760","0.0-2.0-14.2-2.2","battery-v0.2","","""event"",""trial"",""time""
""fullscreenenter"",""1"",""1787""
","
","
","""event"",""trial"",""time""
""fullscreenenter"",""1"",""1787""
","
","","","-1","","","22","15154","6106","&#9826;","elianto","#f73b6a7A","-1","-1","1","0","[]","0","0","3","","","","","","","",""
"pit-trial","72","574615","0.0-2.0-14.2-3.2","battery-v0.2","","""event"",""trial"",""time""
""fullscreenenter"",""1"",""1787""
","
","
","""event"",""trial"",""time""
""fullscreenenter"",""1"",""1787""
","
","","","-1","","","22","15154","6106","&#9826;","elianto","#f73b6a7A","-1","-1","1","-10","[]","0","0","3","","","","","","","",""
"pit-trial","73","579469","0.0-2.0-14.2-4.2","battery-v0.2","","""event"",""trial"",""time""
""fullscreenenter"",""1"",""1787""
","
","
","""event"",""trial"",""time""
""fullscreenenter"",""1"",""1787""
","
","","","-1","","","22","15154","6106","&#9826;","elianto","#f73b6a7A","-1","-1","1","0","[]","0","0","3","","","","","","","",""
"pit-trial","74","584325","0.0-2.0-14.3-0.3","battery-v0.2","","""event"",""trial"",""time""
""fullscreenenter"",""1"",""1787""
","
","
","""event"",""trial"",""time""
""fullscreenenter"",""1"",""1787""
","
","","","-1","","","22","15154","6106","&#9826;","elianto","#f73b6a7A","-1","-1","1","0","[]","0","0","3","","","","","","","",""
"pit-trial","75","589181","0.0-2.0-14.3-1.3","battery-v0.2","","""event"",""trial"",""time""
""fullscreenenter"",""1"",""1787""
","
","
","""event"",""trial"",""time""
""fullscreenenter"",""1"",""1787""
","
","","","-1","","","22","15154","6106","&#9826;","elianto","#f73b6a7A","-1","-1","1","0","[]","0","0","3","","","","","","","",""
"pit-trial","76","594036","0.0-2.0-14.3-2.3","battery-v0.2","","""event"",""trial"",""time""
""fullscreenenter"",""1"",""1787""
","
","
","""event"",""trial"",""time""
""fullscreenenter"",""1"",""1787""
","
","","","-1","","","22","15154","6106","&#9826;","elianto","#f73b6a7A","-1","-1","1","0","[]","0","0","3","","","","","","","",""
"pit-trial","77","598892","0.0-2.0-14.3-3.3","battery-v0.2","","""event"",""trial"",""time""
""fullscreenenter"",""1"",""1787""
","
","
","""event"",""trial"",""time""
""fullscreenenter"",""1"",""1787""
","
","","","-1","","","22","15154","6106","&#9826;","elianto","#f73b6a7A","-1","-1","1","-10","[]","0","0","3","","","","","","","",""
"pit-trial","78","603747","0.0-2.0-14.3-4.3","battery-v0.2","","""event"",""trial"",""time""
""fullscreenenter"",""1"",""1787""
","
","
","""event"",""trial"",""time""
""fullscreenenter"",""1"",""1787""
","
","","","-1","","","22","15154","6106","&#9826;","elianto","#f73b6a7A","-1","-1","1","0","[]","0","0","3","","","","","","","",""
"call-function","79","603750","0.0-2.0-15.0","battery-v0.2","","""event"",""trial"",""time""
""fullscreenenter"",""1"",""1787""
","
","
","""event"",""trial"",""time""
""fullscreenenter"",""1"",""1787""
","
","","","","","","","","","","","","","","","","","","","","","","","","","","",""
"pit-instructions","80","652635","0.0-2.0-16.0","battery-v0.2","","""event"",""trial"",""time""
""fullscreenenter"",""1"",""1787""
","
","
","""event"",""trial"",""time""
""fullscreenenter"",""1"",""1787""
","
","","[{""page_index"":0,""viewing_time"":14608.599999964237},{""page_index"":1,""viewing_time"":9375},{""page_index"":2,""viewing_time"":17673.100000023842},{""page_index"":3,""viewing_time"":7227.699999988079}]","48884.89999997616","","","","","","","","","","","","","","","","","","","","","","","",""
"pit-trial","81","656199","0.0-2.0-17.0-0.0","battery-v0.2","","""event"",""trial"",""time""
""fullscreenenter"",""1"",""1787""
","
","
","""event"",""trial"",""time""
""fullscreenenter"",""1"",""1787""
","
","","","709.8000000119209","","","22","15154","6106","&#9789;","elianto","#f73b6a7A"," "," ","1","0","[1560.800000011921]","1","0","4","","","","","","","",""
"pit-trial","82","659760","0.0-2.0-17.0-1.0","battery-v0.2","","""event"",""trial"",""time""
""fullscreenenter"",""1"",""1787""
","
","
","""event"",""trial"",""time""
""fullscreenenter"",""1"",""1787""
","
","","","707","","","22","15154","6106","&#9789;","elianto","#f73b6a7A"," "," ","1","0","[1557.699999988079]","1","0","4","","","","","","","",""
"pit-trial","83","663257","0.0-2.0-17.0-2.0","battery-v0.2","","""event"",""trial"",""time""
""fullscreenenter"",""1"",""1787""
","
","
","""event"",""trial"",""time""
""fullscreenenter"",""1"",""1787""
","
","","","643.1999999880791","","","22","15154","6106","&#9789;","elianto","#f73b6a7A"," "," ","1","0","[1493.5]","1","0","4","","","","","","","",""
"pit-trial","84","666491","0.0-2.0-17.0-3.0","battery-v0.2","","""event"",""trial"",""time""
""fullscreenenter"",""1"",""1787""
","
","
","""event"",""trial"",""time""
""fullscreenenter"",""1"",""1787""
","
","","","380.19999998807907","","","22","15154","6106","&#9789;","elianto","#f73b6a7A"," "," ","1","-10","[1230.699999988079]","1","0","4","","","","","","","",""
"pit-trial","85","669740","0.0-2.0-17.0-4.0","battery-v0.2","","""event"",""trial"",""time""
""fullscreenenter"",""1"",""1787""
","
","
","""event"",""trial"",""time""
""fullscreenenter"",""1"",""1787""
","
","","","392.4000000357628","","","22","15154","6106","&#9789;","elianto","#f73b6a7A"," "," ","1","0","[1243.6000000238419]","1","0","4","","","","","","","",""
"pit-trial","86","672950","0.0-2.0-17.1-0.1","battery-v0.2","","""event"",""trial"",""time""
""fullscreenenter"",""1"",""1787""
","
","
","""event"",""trial"",""time""
""fullscreenenter"",""1"",""1787""
","
","","","356.39999997615814","","","22","15154","6106","&#9789;","elianto","#f73b6a7A"," "," ","1","0","[1206.8999999761581]","1","0","4","","","","","","","",""
"pit-trial","87","676253","0.0-2.0-17.1-1.1","battery-v0.2","","""event"",""trial"",""time""
""fullscreenenter"",""1"",""1787""
","
","
","""event"",""trial"",""time""
""fullscreenenter"",""1"",""1787""
","
","","","447.69999998807907","","","22","15154","6106","&#9789;","elianto","#f73b6a7A"," "," ","1","0","[1298.0999999642372]","1","0","4","","","","","","","",""
"pit-trial","88","681107","0.0-2.0-17.1-2.1","battery-v0.2","","""event"",""trial"",""time""
""fullscreenenter"",""1"",""1787""
","
","
","""event"",""trial"",""time""
""fullscreenenter"",""1"",""1787""
","
","","","-1","","","22","15154","6106","&#9789;","elianto","#f73b6a7A"," ","-1","0","-10","[3482.800000011921]","1","0","4","","","","","","","",""
"pit-trial","89","684215","0.0-2.0-17.1-3.1","battery-v0.2","","""event"",""trial"",""time""
""fullscreenenter"",""1"",""1787""
","
","
","""event"",""trial"",""time""
""fullscreenenter"",""1"",""1787""
","
","","","252.39999997615814","","","22","15154","6106","&#9789;","elianto","#f73b6a7A"," "," ","1","-10","[1103.8999999761581]","1","0","4","","","","","","","",""
"pit-trial","90","687390","0.0-2.0-17.1-4.1","battery-v0.2","","""event"",""trial"",""time""
""fullscreenenter"",""1"",""1787""
","
","
","""event"",""trial"",""time""
""fullscreenenter"",""1"",""1787""
","
","","","319.89999997615814","","","22","15154","6106","&#9789;","elianto","#f73b6a7A"," "," ","1","0","[1170.8999999761581]","1","0","4","","","","","","","",""
"pit-trial","91","690611","0.0-2.0-17.2-0.2","battery-v0.2","","""event"",""trial"",""time""
""fullscreenenter"",""1"",""1787""
","
","
","""event"",""trial"",""time""
""fullscreenenter"",""1"",""1787""
","
","","","366.30000001192093","","","22","15154","6106","&#9789;","elianto","#f73b6a7A"," "," ","1","0","[1216.9000000357628]","1","0","4","","","","","","","",""
"pit-trial","92","693730","0.0-2.0-17.2-1.2","battery-v0.2","","""event"",""trial"",""time""
""fullscreenenter"",""1"",""1787""
","
","
","""event"",""trial"",""time""
""fullscreenenter"",""1"",""1787""
","
","","","265.5","","","22","15154","6106","&#9789;","elianto","#f73b6a7A"," "," ","1","0","[1116.0999999642372]","1","0","4","","","","","","","",""
"pit-trial","93","696886","0.0-2.0-17.2-2.2","battery-v0.2","","""event"",""trial"",""time""
""fullscreenenter"",""1"",""1787""
","
","
","""event"",""trial"",""time""
""fullscreenenter"",""1"",""1787""
","
","","","300.2000000476837","","","22","15154","6106","&#9789;","elianto","#f73b6a7A"," "," ","1","0","[1150.6000000238419]","1","0","4","","","","","","","",""
"pit-trial","94","700137","0.0-2.0-17.2-3.2","battery-v0.2","","""event"",""trial"",""time""
""fullscreenenter"",""1"",""1787""
","
","
","""event"",""trial"",""time""
""fullscreenenter"",""1"",""1787""
","
","","","397","","","22","15154","6106","&#9789;","elianto","#f73b6a7A"," "," ","1","-10","[1247.0999999642372]","1","0","4","","","","","","","",""
"pit-trial","95","703183","0.0-2.0-17.2-4.2","battery-v0.2","","""event"",""trial"",""time""
""fullscreenenter"",""1"",""1787""
","
","
","""event"",""trial"",""time""
""fullscreenenter"",""1"",""1787""
","
","","","191.5","","","22","15154","6106","&#9789;","elianto","#f73b6a7A"," "," ","1","0","[1041.8999999761581]","1","0","4","","","","","","","",""
"pit-trial","96","706267","0.0-2.0-17.3-0.3","battery-v0.2","","""event"",""trial"",""time""
""fullscreenenter"",""1"",""1787""
","
","
","""event"",""trial"",""time""
""fullscreenenter"",""1"",""1787""
","
","","","228","","","22","15154","6106","&#9789;","elianto","#f73b6a7A"," "," ","1","0","[1079.699999988079]","1","0","4","","","","","","","",""
"pit-trial","97","709273","0.0-2.0-17.3-1.3","battery-v0.2","","""event"",""trial"",""time""
""fullscreenenter"",""1"",""1787""
","
","
","""event"",""trial"",""time""
""fullscreenenter"",""1"",""1787""
","
","","","151.80000001192093","","","22","15154","6106","&#9789;","elianto","#f73b6a7A"," "," ","1","0","[1002.3000000119209]","1","0","4","","","","","","","",""
"pit-trial","98","712334","0.0-2.0-17.3-2.3","battery-v0.2","","""event"",""trial"",""time""
""fullscreenenter"",""1"",""1787""
","
","
","""event"",""trial"",""time""
""fullscreenenter"",""1"",""1787""
","
","","","205.5999999642372","","","22","15154","6106","&#9789;","elianto","#f73b6a7A"," "," ","1","0","[1056]","1","0","4","","","","","","","",""
"pit-trial","99","715625","0.0-2.0-17.3-3.3","battery-v0.2","","""event"",""trial"",""time""
""fullscreenenter"",""1"",""1787""
","
","
","""event"",""trial"",""time""
""fullscreenenter"",""1"",""1787""
","
","","","433.5","","","22","15154","6106","&#9789;","elianto","#f73b6a7A"," "," ","1","-10","[1286.2000000476837]","1","0","4","","","","","","","",""
"pit-trial","100","718726","0.0-2.0-17.3-4.3","battery-v0.2","","""event"",""trial"",""time""
""fullscreenenter"",""1"",""1787""
","
","
","""event"",""trial"",""time""
""fullscreenenter"",""1"",""1787""
","
","","","246.30000001192093","","","22","15154","6106","&#9789;","elianto","#f73b6a7A"," "," ","1","0","[1097.5]","1","0","4","","","","","","","",""
"call-function","101","718728","0.0-2.0-18.0","battery-v0.2","","""event"",""trial"",""time""
""fullscreenenter"",""1"",""1787""
","
","
","""event"",""trial"",""time""
""fullscreenenter"",""1"",""1787""
","
","","","","","","","","","","","","","","","","","","","","","","","","","","",""
"pit-instructions","102","810762","0.0-2.0-19.0","battery-v0.2","","""event"",""trial"",""time""
""fullscreenenter"",""1"",""1787""
","
","
","""event"",""trial"",""time""
""fullscreenenter"",""1"",""1787""
","
","","[{""page_index"":0,""viewing_time"":6446.699999988079},{""page_index"":1,""viewing_time"":6042},{""page_index"":2,""viewing_time"":21349.600000023842},{""page_index"":3,""viewing_time"":7964.099999964237},{""page_index"":4,""viewing_time"":22974.30000001192},{""page_index"":5,""viewing_time"":8660.800000011921},{""page_index"":6,""viewing_time"":8333},{""page_index"":7,""viewing_time"":6274.5},{""page_index"":8,""viewing_time"":3991.399999976158}]","92036.89999997616","","","","","","","","","","","","","","","","","","","","","","","",""
"pit-comprehension","103","815247","0.0-2.0-20.0-0.0","battery-v0.2","","""event"",""trial"",""time""
""fullscreenenter"",""1"",""1787""
","
","
","""event"",""trial"",""time""
""fullscreenenter"",""1"",""1787""
","
","","","4479.899999976158","[""SPACE""]","0","22","15154","6106","","","","","","","","","","","","","","","","","","",""
"pit-instructions","104","819600","0.0-2.0-20.0-1.0","battery-v0.2","","""event"",""trial"",""time""
""fullscreenenter"",""1"",""1787""
","
","
","""event"",""trial"",""time""
""fullscreenenter"",""1"",""1787""
","
","","[{""page_index"":0,""viewing_time"":4310.100000023842}]","4310.600000023842","","","","","","","","","","","","","","","","","","","","","","","",""
"pit-comprehension","105","826311","0.0-2.0-21.0-0.0","battery-v0.2","","""event"",""trial"",""time""
""fullscreenenter"",""1"",""1787""
","
","
","""event"",""trial"",""time""
""fullscreenenter"",""1"",""1787""
","
","","","6706.5","[""10""]","0","22","15154","6106","","","","","","","","","","","","","","","","","","",""
"pit-instructions","106","829675","0.0-2.0-21.0-1.0","battery-v0.2","","""event"",""trial"",""time""
""fullscreenenter"",""1"",""1787""
","
","
","""event"",""trial"",""time""
""fullscreenenter"",""1"",""1787""
","
","","[{""page_index"":0,""viewing_time"":3326.5}]","3327.100000023842","","","","","","","","","","","","","","","","","","","","","","","",""
"pit-comprehension","107","836735","0.0-2.0-22.0-0.0","battery-v0.2","","""event"",""trial"",""time""
""fullscreenenter"",""1"",""1787""
","
","
","""event"",""trial"",""time""
""fullscreenenter"",""1"",""1787""
","
","","","7055.199999988079","[""0""]","0","22","15154","6106","","","","","","","","","","","","","","","","","","",""
"pit-instructions","108","838287","0.0-2.0-22.0-1.0","battery-v0.2","","""event"",""trial"",""time""
""fullscreenenter"",""1"",""1787""
","
","
","""event"",""trial"",""time""
""fullscreenenter"",""1"",""1787""
","
","","[{""page_index"":0,""viewing_time"":1509.300000011921}]","1509.699999988079","","","","","","","","","","","","","","","","","","","","","","","",""
"pit-comprehension","109","846753","0.0-2.0-23.0-0.0","battery-v0.2","","""event"",""trial"",""time""
""fullscreenenter"",""1"",""1787""
","
","
","""event"",""trial"",""time""
""fullscreenenter"",""1"",""1787""
","
","","","8462.599999964237","[""True""]","0","22","15154","6106","","","","","","","","","","","","","","","","","","",""
"pit-instructions","110","848376","0.0-2.0-23.0-1.0","battery-v0.2","","""event"",""trial"",""time""
""fullscreenenter"",""1"",""1787""
","
","
","""event"",""trial"",""time""
""fullscreenenter"",""1"",""1787""
","
","","[{""page_index"":0,""viewing_time"":1584}]","1584.5","","","","","","","","","","","","","","","","","","","","","","","",""
"pit-comprehension","111","856353","0.0-2.0-24.0-0.0","battery-v0.2","","""event"",""trial"",""time""
""fullscreenenter"",""1"",""1787""
","
","
","""event"",""trial"",""time""
""fullscreenenter"",""1"",""1787""
","
","","","7973","[""True""]","0","22","15154","6106","","","","","","","","","","","","","","","","","","",""
"pit-instructions","112","859334","0.0-2.0-24.0-1.0","battery-v0.2","","""event"",""trial"",""time""
""fullscreenenter"",""1"",""1787""
","
","
","""event"",""trial"",""time""
""fullscreenenter"",""1"",""1787""
","
","","[{""page_index"":0,""viewing_time"":2937.300000011921}]","2937.800000011921","","","","","","","","","","","","","","","","","","","","","","","",""
"pit-comprehension","113","865654","0.0-2.0-25.0-0.0","battery-v0.2","","""event"",""trial"",""time""
""fullscreenenter"",""1"",""1787""
","
","
","""event"",""trial"",""time""
""fullscreenenter"",""1"",""1787""
","
","","","6316.600000023842","[""True""]","0","22","15154","6106","","","","","","","","","","","","","","","","","","",""
"pit-instructions","114","867146","0.0-2.0-25.0-1.0","battery-v0.2","","""event"",""trial"",""time""
""fullscreenenter"",""1"",""1787""
","
","
","""event"",""trial"",""time""
""fullscreenenter"",""1"",""1787""
","
","","[{""page_index"":0,""viewing_time"":1453.5}]","1453.8999999761581","","","","","","","","","","","","","","","","","","","","","","","",""
"pit-comprehension","115","872493","0.0-2.0-26.0-0.0","battery-v0.2","","""event"",""trial"",""time""
""fullscreenenter"",""1"",""1787""
","
","
","""event"",""trial"",""time""
""fullscreenenter"",""1"",""1787""
","
","","","5343.400000035763","[""False""]","0","22","15154","6106","","","","","","","","","","","","","","","","","","",""
"pit-instructions","116","874288","0.0-2.0-26.0-1.0","battery-v0.2","","""event"",""trial"",""time""
""fullscreenenter"",""1"",""1787""
","
","
","""event"",""trial"",""time""
""fullscreenenter"",""1"",""1787""
","
","","[{""page_index"":0,""viewing_time"":1751.800000011921}]","1752.199999988079","","","","","","","","","","","","","","","","","","","","","","","",""
"pit-instructions","117","890819","0.0-3.0","battery-v0.2","","""event"",""trial"",""time""
""fullscreenenter"",""1"",""1787""
","
","
","""event"",""trial"",""time""
""fullscreenenter"",""1"",""1787""
","
","","[{""page_index"":0,""viewing_time"":3499},{""page_index"":1,""viewing_time"":5705.699999988079},{""page_index"":2,""viewing_time"":7324.599999964237}]","16529.69999998808","","","","","","","","","","","","","","","","","","","","","","","",""
"pit-trial","118","894215","0.0-4.0","battery-v0.2","","""event"",""trial"",""time""
""fullscreenenter"",""1"",""1787""
","
","
","""event"",""trial"",""time""
""fullscreenenter"",""1"",""1787""
","
","","","536.3000000119209","","","22","15154","6106","&#9728;","elianto","#f73b6a7A","-1"," ","0","-10","[1387.3999999761581]","1","1","","","15154","1","0","4","lose","no-go","0"
"pit-trial","119","897835","0.0-5.0","battery-v0.2","","""event"",""trial"",""time""
""fullscreenenter"",""1"",""1787""
","
","
","""event"",""trial"",""time""
""fullscreenenter"",""1"",""1787""
","
","","","765.5","","","22","15154","6106","&#9752;","elianto","#f73b6a7A"," "," ","1","-10","[1616.5]","1","1","","","15154","2","3","3","lose","go","1"
"pit-trial","120","901149","0.0-6.0","battery-v0.2","","""event"",""trial"",""time""
""fullscreenenter"",""1"",""1787""
","
","
","""event"",""trial"",""time""
""fullscreenenter"",""1"",""1787""
","
","","","459.30000001192093","","","22","15154","6106","&#9733;","elianto","#3366ff99","-1"," ","0","0","[1310.2999999523163]","1","1","","","15154","3","2","2","win","no-go","0"
"pit-trial","121","904640","0.0-7.0","battery-v0.2","","""event"",""trial"",""time""
""fullscreenenter"",""1"",""1787""
","
","
","""event"",""trial"",""time""
""fullscreenenter"",""1"",""1787""
","
","","","636.8000000119209","","","22","15154","6106","&#9730;","elianto","#3366ff99"," "," ","1","+10","[1487.199999988079]","1","1","","","15154","4","1","1","win","go","0"
"pit-trial","122","908144","0.0-8.0","battery-v0.2","","""event"",""trial"",""time""
""fullscreenenter"",""1"",""1787""
","
","
","""event"",""trial"",""time""
""fullscreenenter"",""1"",""1787""
","
","","","648.3999999761581","","","22","15154","6106","&#9730;","elianto","#3366ff99"," "," ","1","+10","[1499.199999988079]","1","1","","","15154","5","1","1","win","go","0"
"pit-trial","123","912998","0.0-9.0","battery-v0.2","","""event"",""trial"",""time""
""fullscreenenter"",""1"",""1787""
","
","
","""event"",""trial"",""time""
""fullscreenenter"",""1"",""1787""
","
","","","-1","","","22","15154","6106","&#9733;","elianto","#3366ff99","-1","-1","1","+10","[]","0","1","","","15154","6","2","2","win","no-go","0"
"pit-trial","124","917854","0.0-10.0","battery-v0.2","","""event"",""trial"",""time""
""fullscreenenter"",""1"",""1787""
","
","
","""event"",""trial"",""time""
""fullscreenenter"",""1"",""1787""
","
","","","-1","","","22","15154","6106","&#9752;","elianto","#f73b6a7A"," ","-1","0","0","[]","0","1","","","15154","7","3","3","lose","go","1"
"pit-trial","125","921756","0.0-11.0","battery-v0.2","","""event"",""trial"",""time""
""fullscreenenter"",""1"",""1787""
","
","
","""event"",""trial"",""time""
""fullscreenenter"",""1"",""1787""
","
","","","1047.199999988079","","","22","15154","6106","&#9728;","elianto","#f73b6a7A","-1"," ","0","-10","[1897.800000011921]","1","1","","","15154","8","0","4","lose","no-go","0"
"pit-trial","126","926611","0.0-12.0","battery-v0.2","","""event"",""trial"",""time""
""fullscreenenter"",""1"",""1787""
","
","
","""event"",""trial"",""time""
""fullscreenenter"",""1"",""1787""
","
","","","-1","","","22","15154","6106","&#9752;","elianto","#f73b6a7A"," ","-1","0","-10","[]","0","1","","","15154","9","3","3","lose","go","0"
"pit-trial","127","931466","0.0-13.0","battery-v0.2","","""event"",""trial"",""time""
""fullscreenenter"",""1"",""1787""
","
","
","""event"",""trial"",""time""
""fullscreenenter"",""1"",""1787""
","
","","","-1","","","22","15154","6106","&#9728;","elianto","#f73b6a7A","-1","-1","1","0","[]","0","1","","","15154","10","0","4","lose","no-go","0"
"pit-trial","128","935186","0.0-14.0","battery-v0.2","","""event"",""trial"",""time""
""fullscreenenter"",""1"",""1787""
","
","
","""event"",""trial"",""time""
""fullscreenenter"",""1"",""1787""
","
","","","864.3999999761581","","","22","15154","6106","&#9730;","elianto","#3366ff99"," "," ","1","+10","[1715.7999999523163]","1","1","","","15154","11","1","1","win","go","0"
"pit-trial","129","940041","0.0-15.0","battery-v0.2","","""event"",""trial"",""time""
""fullscreenenter"",""1"",""1787""
","
","
","""event"",""trial"",""time""
""fullscreenenter"",""1"",""1787""
","
","","","-1","","","22","15154","6106","&#9733;","elianto","#3366ff99","-1","-1","1","+10","[]","0","1","","","15154","12","2","2","win","no-go","0"
"pit-trial","130","944896","0.0-16.0","battery-v0.2","","""event"",""trial"",""time""
""fullscreenenter"",""1"",""1787""
","
","
","""event"",""trial"",""time""
""fullscreenenter"",""1"",""1787""
","
","","","-1","","","22","15154","6106","&#9752;","elianto","#f73b6a7A"," ","-1","0","-10","[]","0","1","","","15154","13","3","3","lose","go","0"
"pit-trial","131","949752","0.0-17.0","battery-v0.2","","""event"",""trial"",""time""
""fullscreenenter"",""1"",""1787""
","
","
","""event"",""trial"",""time""
""fullscreenenter"",""1"",""1787""
","
","","","-1","","","22","15154","6106","&#9733;","elianto","#3366ff99","-1","-1","1","0","[]","0","1","","","15154","14","2","2","win","no-go","1"
"pit-trial","132","954199","0.0-18.0","battery-v0.2","","""event"",""trial"",""time""
""fullscreenenter"",""1"",""1787""
","
","
","""event"",""trial"",""time""
""fullscreenenter"",""1"",""1787""
","
","","","1593.1000000238419","","","22","15154","6106","&#9728;","elianto","#f73b6a7A","-1"," ","0","-10","[2444.2000000476837]","1","1","","","15154","15","0","4","lose","no-go","0"
"pit-trial","133","957663","0.0-19.0","battery-v0.2","","""event"",""trial"",""time""
""fullscreenenter"",""1"",""1787""
","
","
","""event"",""trial"",""time""
""fullscreenenter"",""1"",""1787""
","
","","","609.5999999642372","","","22","15154","6106","&#9730;","elianto","#3366ff99"," "," ","1","+10","[1461]","1","1","","","15154","16","1","1","win","go","0"
"pit-trial","134","962517","0.0-20.0","battery-v0.2","","""event"",""trial"",""time""
""fullscreenenter"",""1"",""1787""
","
","
","""event"",""trial"",""time""
""fullscreenenter"",""1"",""1787""
","
","","","-1","","","22","15154","6106","&#9752;","elianto","#f73b6a7A"," ","-1","0","0","[]","0","1","","","15154","17","3","3","lose","go","1"
"pit-trial","135","967371","0.0-21.0","battery-v0.2","","""event"",""trial"",""time""
""fullscreenenter"",""1"",""1787""
","
","
","""event"",""trial"",""time""
""fullscreenenter"",""1"",""1787""
","
","","","-1","","","22","15154","6106","&#9733;","elianto","#3366ff99","-1","-1","1","+10","[2953.300000011921]","1","1","","","15154","18","2","2","win","no-go","0"
"pit-trial","136","972227","0.0-22.0","battery-v0.2","","""event"",""trial"",""time""
""fullscreenenter"",""1"",""1787""
","
","
","""event"",""trial"",""time""
""fullscreenenter"",""1"",""1787""
","
","","","-1","","","22","15154","6106","&#9728;","elianto","#f73b6a7A","-1","-1","1","0","[]","0","1","","","15154","19","0","4","lose","no-go","0"
"pit-trial","137","975795","0.0-23.0","battery-v0.2","","""event"",""trial"",""time""
""fullscreenenter"",""1"",""1787""
","
","
","""event"",""trial"",""time""
""fullscreenenter"",""1"",""1787""
","
","","","712.8999999761581","","","22","15154","6106","&#9730;","elianto","#3366ff99"," "," ","1","+10","[1563.9000000357628]","1","1","","","15154","20","1","1","win","go","0"
"pit-instructions","138","988413","0.0-24.0","battery-v0.2","","""event"",""trial"",""time""
""fullscreenenter"",""1"",""1787""
","
","
","""event"",""trial"",""time""
""fullscreenenter"",""1"",""1787""
","
","","[{""page_index"":0,""viewing_time"":6121},{""page_index"":1,""viewing_time"":6493.699999988079}]","12615.099999964237","","","","","","","","","","","","","","","","","","","","","","","",""
"pit-trial","139","991988","0.0-25.0","battery-v0.2","","""event"",""trial"",""time""
""fullscreenenter"",""1"",""1787""
","
","
","""event"",""trial"",""time""
""fullscreenenter"",""1"",""1787""
","
","","","719.9000000357628","","","22","15154","6106","m","elianto","#f73b6a7A"," "," ","1","0","[1571.3999999761581]","1","2","","","15154","21","0","3","lose","go","0"
"pit-trial","140","996843","0.0-26.0","battery-v0.2","","""event"",""trial"",""time""
""fullscreenenter"",""1"",""1787""
","
","
","""event"",""trial"",""time""
""fullscreenenter"",""1"",""1787""
","
","","","-1","","","22","15154","6106","r","elianto","#3366ff99","-1","-1","1","+10","[]","0","2","","","15154","22","1","2","win","no-go","0"
"pit-trial","141","1000549","0.0-27.0","battery-v0.2","","""event"",""trial"",""time""
""fullscreenenter"",""1"",""1787""
","
","
","""event"",""trial"",""time""
""fullscreenenter"",""1"",""1787""
","
","","","850.5","","","22","15154","6106","y","elianto","#f73b6a7A"," "," ","1","0","[1701.6000000238419]","1","2","","","15154","23","2","3","lose","go","0"
"pit-trial","142","1005404","0.0-28.0","battery-v0.2","","""event"",""trial"",""time""
""fullscreenenter"",""1"",""1787""
","
","
","""event"",""trial"",""time""
""fullscreenenter"",""1"",""1787""
","
","","","-1","","","22","15154","6106","h","elianto","#f73b6a7A","-1","-1","1","0","[]","0","2","","","15154","24","3","4","lose","no-go","0"
"pit-trial","143","1009669","0.0-29.0","battery-v0.2","","""event"",""trial"",""time""
""fullscreenenter"",""1"",""1787""
","
","
","""event"",""trial"",""time""
""fullscreenenter"",""1"",""1787""
","
","","","1411.199999988079","","","22","15154","6106","y","elianto","#f73b6a7A"," "," ","1","0","[2262.7999999523163]","1","2","","","15154","25","2","3","lose","go","0"
"pit-trial","144","1014523","0.0-30.0","battery-v0.2","","""event"",""trial"",""time""
""fullscreenenter"",""1"",""1787""
","
","
","""event"",""trial"",""time""
""fullscreenenter"",""1"",""1787""
","
","","","-1","","","22","15154","6106","h","elianto","#f73b6a7A","-1","-1","1","0","[]","0","2","","","15154","26","3","4","lose","no-go","0"
"pit-trial","145","1019378","0.0-31.0","battery-v0.2","","""event"",""trial"",""time""
""fullscreenenter"",""1"",""1787""
","
","
","""event"",""trial"",""time""
""fullscreenenter"",""1"",""1787""
","
","","","-1","","","22","15154","6106","r","elianto","#3366ff99","-1","-1","1","0","[]","0","2","","","15154","27","1","2","win","no-go","1"
"pit-trial","146","1023446","0.0-32.0","battery-v0.2","","""event"",""trial"",""time""
""fullscreenenter"",""1"",""1787""
","
","
","""event"",""trial"",""time""
""fullscreenenter"",""1"",""1787""
","
","","","1212.6000000238419","","","22","15154","6106","m","elianto","#f73b6a7A"," "," ","1","-10","[2064.199999988079]","1","2","","","15154","28","0","3","lose","go","1"
"pit-trial","147","1027555","0.0-33.0","battery-v0.2","","""event"",""trial"",""time""
""fullscreenenter"",""1"",""1787""
","
","
","""event"",""trial"",""time""
""fullscreenenter"",""1"",""1787""
","
","","","1253.3999999761581","","","22","15154","6106","h","elianto","#f73b6a7A","-1"," ","0","-10","[2104.099999964237]","1","2","","","15154","29","3","4","lose","no-go","0"
"pit-trial","148","1032411","0.0-34.0","battery-v0.2","","""event"",""trial"",""time""
""fullscreenenter"",""1"",""1787""
","
","
","""event"",""trial"",""time""
""fullscreenenter"",""1"",""1787""
","
","","","-1","","","22","15154","6106","r","elianto","#3366ff99","-1","-1","1","+10","[]","0","2","","","15154","30","1","2","win","no-go","0"
"pit-trial","149","1036210","0.0-35.0","battery-v0.2","","""event"",""trial"",""time""
""fullscreenenter"",""1"",""1787""
","
","
","""event"",""trial"",""time""
""fullscreenenter"",""1"",""1787""
","
","","","944.6999999880791","","","22","15154","6106","y","elianto","#f73b6a7A"," "," ","1","0","[1795.2999999523163]","1","2","","","15154","31","2","3","lose","go","0"
"pit-trial","150","1040357","0.0-36.0","battery-v0.2","","""event"",""trial"",""time""
""fullscreenenter"",""1"",""1787""
","
","
","""event"",""trial"",""time""
""fullscreenenter"",""1"",""1787""
","
","","","1292.5","","","22","15154","6106","m","elianto","#f73b6a7A"," "," ","1","0","[2142.7999999523163]","1","2","","","15154","32","0","3","lose","go","0"
"pit-trial","151","1044207","0.0-37.0","battery-v0.2","","""event"",""trial"",""time""
""fullscreenenter"",""1"",""1787""
","
","
","""event"",""trial"",""time""
""fullscreenenter"",""1"",""1787""
","
","","","995.4000000357628","","","22","15154","6106","m","elianto","#f73b6a7A"," "," ","1","0","[1846.6000000238419]","1","2","","","15154","33","0","3","lose","go","0"
"pit-trial","152","1048190","0.0-38.0","battery-v0.2","","""event"",""trial"",""time""
""fullscreenenter"",""1"",""1787""
","
","
","""event"",""trial"",""time""
""fullscreenenter"",""1"",""1787""
","
","","","1128.300000011921","","","22","15154","6106","y","elianto","#f73b6a7A"," "," ","1","0","[1979.300000011921]","1","2","","","15154","34","2","3","lose","go","0"
"pit-trial","153","1053046","0.0-39.0","battery-v0.2","","""event"",""trial"",""time""
""fullscreenenter"",""1"",""1787""
","
","
","""event"",""trial"",""time""
""fullscreenenter"",""1"",""1787""
","
","","","-1","","","22","15154","6106","h","elianto","#f73b6a7A","-1","-1","1","0","[]","0","2","","","15154","35","3","4","lose","no-go","0"
"pit-trial","154","1057900","0.0-40.0","battery-v0.2","","""event"",""trial"",""time""
""fullscreenenter"",""1"",""1787""
","
","
","""event"",""trial"",""time""
""fullscreenenter"",""1"",""1787""
","
","","","-1","","","22","15154","6106","r","elianto","#3366ff99","-1","-1","1","+10","[]","0","2","","","15154","36","1","2","win","no-go","0"
"pit-trial","155","1061927","0.0-41.0","battery-v0.2","","""event"",""trial"",""time""
""fullscreenenter"",""1"",""1787""
","
","
","""event"",""trial"",""time""
""fullscreenenter"",""1"",""1787""
","
","","","1172","","","22","15154","6106","m","elianto","#f73b6a7A"," "," ","1","0","[2022.5]","1","2","","","15154","37","0","3","lose","go","0"
"pit-trial","156","1066781","0.0-42.0","battery-v0.2","","""event"",""trial"",""time""
""fullscreenenter"",""1"",""1787""
","
","
","""event"",""trial"",""time""
""fullscreenenter"",""1"",""1787""
","
","","","-1","","","22","15154","6106","r","elianto","#3366ff99","-1","-1","1","+10","[]","0","2","","","15154","38","1","2","win","no-go","0"
"pit-trial","157","1070943","0.0-43.0","battery-v0.2","","""event"",""trial"",""time""
""fullscreenenter"",""1"",""1787""
","
","
","""event"",""trial"",""time""
""fullscreenenter"",""1"",""1787""
","
","","","1306.9000000357628","","","22","15154","6106","y","elianto","#f73b6a7A"," "," ","1","-10","[2158]","1","2","","","15154","39","2","3","lose","go","1"
"pit-trial","158","1075797","0.0-44.0","battery-v0.2","","""event"",""trial"",""time""
""fullscreenenter"",""1"",""1787""
","
","
","""event"",""trial"",""time""
""fullscreenenter"",""1"",""1787""
","
","","","-1","","","22","15154","6106","h","elianto","#f73b6a7A","-1","-1","1","0","[]","0","2","","","15154","40","3","4","lose","no-go","0"
"pit-trial","159","1080653","0.0-45.0","battery-v0.2","","""event"",""trial"",""time""
""fullscreenenter"",""1"",""1787""
","
","
","""event"",""trial"",""time""
""fullscreenenter"",""1"",""1787""
","
","","","-1","","","22","15154","6106","y","elianto","#f73b6a7A"," ","-1","0","-10","[]","0","2","","","15154","41","2","3","lose","go","0"
"pit-trial","160","1084356","0.0-46.0","battery-v0.2","","""event"",""trial"",""time""
""fullscreenenter"",""1"",""1787""
","
","
","""event"",""trial"",""time""
""fullscreenenter"",""1"",""1787""
","
","","","849.3000000119209","","","22","15154","6106","m","elianto","#f73b6a7A"," "," ","1","0","[1699.9000000357628]","1","2","","","15154","42","0","3","lose","go","0"
"pit-trial","161","1089211","0.0-47.0","battery-v0.2","","""event"",""trial"",""time""
""fullscreenenter"",""1"",""1787""
","
","
","""event"",""trial"",""time""
""fullscreenenter"",""1"",""1787""
","
","","","-1","","","22","15154","6106","h","elianto","#f73b6a7A","-1","-1","1","-10","[]","0","2","","","15154","43","3","4","lose","no-go","1"
"pit-trial","162","1094066","0.0-48.0","battery-v0.2","","""event"",""trial"",""time""
""fullscreenenter"",""1"",""1787""
","
","
","""event"",""trial"",""time""
""fullscreenenter"",""1"",""1787""
","
","","","-1","","","22","15154","6106","r","elianto","#3366ff99","-1","-1","1","+10","[]","0","2","","","15154","44","1","2","win","no-go","0"
"pit-trial","163","1098011","0.0-49.0","battery-v0.2","","""event"",""trial"",""time""
""fullscreenenter"",""1"",""1787""
","
","
","""event"",""trial"",""time""
""fullscreenenter"",""1"",""1787""
","
","","","1088.6000000238419","","","22","15154","6106","m","elianto","#f73b6a7A"," "," ","1","0","[1940.5]","1","2","","","15154","45","0","3","lose","go","0"
"pit-trial","164","1102866","0.0-50.0","battery-v0.2","","""event"",""trial"",""time""
""fullscreenenter"",""1"",""1787""
","
","
","""event"",""trial"",""time""
""fullscreenenter"",""1"",""1787""
","
","","","-1","","","22","15154","6106","r","elianto","#3366ff99","-1","-1","1","+10","[]","0","2","","","15154","46","1","2","win","no-go","0"
"pit-trial","165","1107157","0.0-51.0","battery-v0.2","","""event"",""trial"",""time""
""fullscreenenter"",""1"",""1787""
","
","
","""event"",""trial"",""time""
""fullscreenenter"",""1"",""1787""
","
","","","1437.5","","","22","15154","6106","y","elianto","#f73b6a7A"," "," ","1","0","[2288.100000023842]","1","2","","","15154","47","2","3","lose","go","0"
"pit-trial","166","1112012","0.0-52.0","battery-v0.2","","""event"",""trial"",""time""
""fullscreenenter"",""1"",""1787""
","
","
","""event"",""trial"",""time""
""fullscreenenter"",""1"",""1787""
","
","","","-1","","","22","15154","6106","h","elianto","#f73b6a7A","-1","-1","1","0","[]","0","2","","","15154","48","3","4","lose","no-go","0"
"pit-trial","167","1115968","0.0-53.0","battery-v0.2","","""event"",""trial"",""time""
""fullscreenenter"",""1"",""1787""
","
","
","""event"",""trial"",""time""
""fullscreenenter"",""1"",""1787""
","
","","","1102.5","","","22","15154","6106","m","elianto","#f73b6a7A"," "," ","1","0","[1953]","1","2","","","15154","49","0","3","lose","go","0"
"pit-trial","168","1120824","0.0-54.0","battery-v0.2","","""event"",""trial"",""time""
""fullscreenenter"",""1"",""1787""
","
","
","""event"",""trial"",""time""
""fullscreenenter"",""1"",""1787""
","
","","","-1","","","22","15154","6106","h","elianto","#f73b6a7A","-1","-1","1","-10","[]","0","2","","","15154","50","3","4","lose","no-go","1"
"pit-trial","169","1125679","0.0-55.0","battery-v0.2","","""event"",""trial"",""time""
""fullscreenenter"",""1"",""1787""
","
","
","""event"",""trial"",""time""
""fullscreenenter"",""1"",""1787""
","
","","","-1","","","22","15154","6106","r","elianto","#3366ff99","-1","-1","1","+10","[]","0","2","","","15154","51","1","2","win","no-go","0"
"pit-trial","170","1129442","0.0-56.0","battery-v0.2","","""event"",""trial"",""time""
""fullscreenenter"",""1"",""1787""
","
","
","""event"",""trial"",""time""
""fullscreenenter"",""1"",""1787""
","
","","","908","","","22","15154","6106","y","elianto","#f73b6a7A"," "," ","1","0","[1759]","1","2","","","15154","52","2","3","lose","go","0"
"pit-trial","171","1133178","0.0-57.0","battery-v0.2","","""event"",""trial"",""time""
""fullscreenenter"",""1"",""1787""
","
","
","""event"",""trial"",""time""
""fullscreenenter"",""1"",""1787""
","
","","","881.3000000119209","","","22","15154","6106","m","elianto","#f73b6a7A"," "," ","1","-10","[1732.300000011921]","1","2","","","15154","53","0","3","lose","go","1"
"pit-trial","172","1138034","0.0-58.0","battery-v0.2","","""event"",""trial"",""time""
""fullscreenenter"",""1"",""1787""
","
","
","""event"",""trial"",""time""
""fullscreenenter"",""1"",""1787""
","
","","","-1","","","22","15154","6106","r","elianto","#3366ff99","-1","-1","1","0","[]","0","2","","","15154","54","1","2","win","no-go","1"
"pit-trial","173","1142888","0.0-59.0","battery-v0.2","","""event"",""trial"",""time""
""fullscreenenter"",""1"",""1787""
","
","
","""event"",""trial"",""time""
""fullscreenenter"",""1"",""1787""
","
","","","-1","","","22","15154","6106","h","elianto","#f73b6a7A","-1","-1","1","-10","[]","0","2","","","15154","55","3","4","lose","no-go","1"
"pit-trial","174","1146750","0.0-60.0","battery-v0.2","","""event"",""trial"",""time""
""fullscreenenter"",""1"",""1787""
","
","
","""event"",""trial"",""time""
""fullscreenenter"",""1"",""1787""
","
","","","1006.5","","","22","15154","6106","y","elianto","#f73b6a7A"," "," ","1","0","[1857.8999999761581]","1","2","","","15154","56","2","3","lose","go","0"
"pit-trial","175","1151001","0.0-61.0","battery-v0.2","","""event"",""trial"",""time""
""fullscreenenter"",""1"",""1787""
","
","
","""event"",""trial"",""time""
""fullscreenenter"",""1"",""1787""
","
","","","1396.0999999642372","","","22","15154","6106","m","elianto","#f73b6a7A"," "," ","1","-10","[2246.5]","1","2","","","15154","57","0","3","lose","go","1"
"pit-trial","176","1155129","0.0-62.0","battery-v0.2","","""event"",""trial"",""time""
""fullscreenenter"",""1"",""1787""
","
","
","""event"",""trial"",""time""
""fullscreenenter"",""1"",""1787""
","
","","","1273.3999999761581","","","22","15154","6106","y","elianto","#f73b6a7A"," "," ","1","0","[2123.699999988079]","1","2","","","15154","58","2","3","lose","go","0"
"pit-trial","177","1159985","0.0-63.0","battery-v0.2","","""event"",""trial"",""time""
""fullscreenenter"",""1"",""1787""
","
","
","""event"",""trial"",""time""
""fullscreenenter"",""1"",""1787""
","
","","","-1","","","22","15154","6106","h","elianto","#f73b6a7A","-1","-1","1","0","[]","0","2","","","15154","59","3","4","lose","no-go","0"
"pit-trial","178","1163760","0.0-64.0","battery-v0.2","","""event"",""trial"",""time""
""fullscreenenter"",""1"",""1787""
","
","
","""event"",""trial"",""time""
""fullscreenenter"",""1"",""1787""
","
","","","919.5","","","22","15154","6106","z","elianto","#3366ff99"," "," ","1","0","[1770.4000000357628]","1","2","","","15154","60","4","1","win","go","1"
"pit-trial","179","1167648","0.0-65.0","battery-v0.2","","""event"",""trial"",""time""
""fullscreenenter"",""1"",""1787""
","
","
","""event"",""trial"",""time""
""fullscreenenter"",""1"",""1787""
","
","","","1031.699999988079","","","22","15154","6106","y","elianto","#f73b6a7A"," "," ","1","0","[1882.8999999761581]","1","2","","","15154","61","2","3","lose","go","0"
"pit-trial","180","1172502","0.0-66.0","battery-v0.2","","""event"",""trial"",""time""
""fullscreenenter"",""1"",""1787""
","
","
","""event"",""trial"",""time""
""fullscreenenter"",""1"",""1787""
","
","","","-1","","","22","15154","6106","h","elianto","#f73b6a7A","-1","-1","1","0","[]","0","2","","","15154","62","3","4","lose","no-go","0"
"pit-trial","181","1176207","0.0-67.0","battery-v0.2","","""event"",""trial"",""time""
""fullscreenenter"",""1"",""1787""
","
","
","""event"",""trial"",""time""
""fullscreenenter"",""1"",""1787""
","
","","","850.3999999761581","","","22","15154","6106","z","elianto","#3366ff99"," "," ","1","+10","[1701.3999999761581]","1","2","","","15154","63","4","1","win","go","0"
"pit-trial","182","1181062","0.0-68.0","battery-v0.2","","""event"",""trial"",""time""
""fullscreenenter"",""1"",""1787""
","
","
","""event"",""trial"",""time""
""fullscreenenter"",""1"",""1787""
","
","","","-1","","","22","15154","6106","r","elianto","#3366ff99","-1","-1","1","+10","[]","0","2","","","15154","64","1","2","win","no-go","0"
"pit-trial","183","1185917","0.0-69.0","battery-v0.2","","""event"",""trial"",""time""
""fullscreenenter"",""1"",""1787""
","
","
","""event"",""trial"",""time""
""fullscreenenter"",""1"",""1787""
","
","","","-1","","","22","15154","6106","h","elianto","#f73b6a7A","-1","-1","1","0","[]","0","2","","","15154","65","3","4","lose","no-go","0"
"pit-trial","184","1189709","0.0-70.0","battery-v0.2","","""event"",""trial"",""time""
""fullscreenenter"",""1"",""1787""
","
","
","""event"",""trial"",""time""
""fullscreenenter"",""1"",""1787""
","
","","","936.8999999761581","","","22","15154","6106","c","elianto","#3366ff99","-1"," ","0","0","[1788]","1","2","","","15154","66","5","2","win","no-go","0"
"pit-trial","185","1194564","0.0-71.0","battery-v0.2","","""event"",""trial"",""time""
""fullscreenenter"",""1"",""1787""
","
","
","""event"",""trial"",""time""
""fullscreenenter"",""1"",""1787""
","
","","","-1","","","22","15154","6106","r","elianto","#3366ff99","-1","-1","1","+10","[]","0","2","","","15154","67","1","2","win","no-go","0"
"pit-trial","186","1198443","0.0-72.0","battery-v0.2","","""event"",""trial"",""time""
""fullscreenenter"",""1"",""1787""
","
","
","""event"",""trial"",""time""
""fullscreenenter"",""1"",""1787""
","
","","","1022.9000000357628","","","22","15154","6106","z","elianto","#3366ff99"," "," ","1","+10","[1873.6000000238419]","1","2","","","15154","68","4","1","win","go","0"
"pit-trial","187","1202395","0.0-73.0","battery-v0.2","","""event"",""trial"",""time""
""fullscreenenter"",""1"",""1787""
","
","
","""event"",""trial"",""time""
""fullscreenenter"",""1"",""1787""
","
","","","1097.6000000238419","","","22","15154","6106","y","elianto","#f73b6a7A"," "," ","1","0","[1948.3999999761581]","1","2","","","15154","69","2","3","lose","go","0"
"pit-trial","188","1207376","0.0-74.0","battery-v0.2","","""event"",""trial"",""time""
""fullscreenenter"",""1"",""1787""
","
","
","""event"",""trial"",""time""
""fullscreenenter"",""1"",""1787""
","
","","","-1","","","22","15154","6106","c","elianto","#3366ff99","-1","-1","1","+10","[]","0","2","","","15154","70","5","2","win","no-go","0"
"pit-trial","189","1211899","0.0-75.0","battery-v0.2","","""event"",""trial"",""time""
""fullscreenenter"",""1"",""1787""
","
","
","""event"",""trial"",""time""
""fullscreenenter"",""1"",""1787""
","
","","","1668.300000011921","","","22","15154","6106","z","elianto","#3366ff99"," "," ","1","+10","[2519.300000011921]","1","2","","","15154","71","4","1","win","go","0"
"pit-trial","190","1216753","0.0-76.0","battery-v0.2","","""event"",""trial"",""time""
""fullscreenenter"",""1"",""1787""
","
","
","""event"",""trial"",""time""
""fullscreenenter"",""1"",""1787""
","
","","","-1","","","22","15154","6106","r","elianto","#3366ff99","-1","-1","1","+10","[]","0","2","","","15154","72","1","2","win","no-go","0"
"pit-trial","191","1221607","0.0-77.0","battery-v0.2","","""event"",""trial"",""time""
""fullscreenenter"",""1"",""1787""
","
","
","""event"",""trial"",""time""
""fullscreenenter"",""1"",""1787""
","
","","","-1","","","22","15154","6106","c","elianto","#3366ff99","-1","-1","1","0","[]","0","2","","","15154","73","5","2","win","no-go","1"
"pit-trial","192","1226462","0.0-78.0","battery-v0.2","","""event"",""trial"",""time""
""fullscreenenter"",""1"",""1787""
","
","
","""event"",""trial"",""time""
""fullscreenenter"",""1"",""1787""
","
","","","-1","","","22","15154","6106","r","elianto","#3366ff99","-1","-1","1","+10","[]","0","2","","","15154","74","1","2","win","no-go","0"
"pit-trial","193","1231317","0.0-79.0","battery-v0.2","","""event"",""trial"",""time""
""fullscreenenter"",""1"",""1787""
","
","
","""event"",""trial"",""time""
""fullscreenenter"",""1"",""1787""
","
","","","-1","","","22","15154","6106","h","elianto","#f73b6a7A","-1","-1","1","0","[]","0","2","","","15154","75","3","4","lose","no-go","0"
"pit-trial","194","1235385","0.0-80.0","battery-v0.2","","""event"",""trial"",""time""
""fullscreenenter"",""1"",""1787""
","
","
","""event"",""trial"",""time""
""fullscreenenter"",""1"",""1787""
","
","","","1211.9000000357628","","","22","15154","6106","z","elianto","#3366ff99"," "," ","1","+10","[2062.7000000476837]","1","2","","","15154","76","4","1","win","go","0"
"pit-trial","195","1240241","0.0-81.0","battery-v0.2","","""event"",""trial"",""time""
""fullscreenenter"",""1"",""1787""
","
","
","""event"",""trial"",""time""
""fullscreenenter"",""1"",""1787""
","
","","","-1","","","22","15154","6106","c","elianto","#3366ff99","-1","-1","1","0","[]","0","2","","","15154","77","5","2","win","no-go","1"
"pit-trial","196","1245096","0.0-82.0","battery-v0.2","","""event"",""trial"",""time""
""fullscreenenter"",""1"",""1787""
","
","
","""event"",""trial"",""time""
""fullscreenenter"",""1"",""1787""
","
","","","-1","","","22","15154","6106","h","elianto","#f73b6a7A","-1","-1","1","0","[]","0","2","","","15154","78","3","4","lose","no-go","0"
"pit-trial","197","1249166","0.0-83.0","battery-v0.2","","""event"",""trial"",""time""
""fullscreenenter"",""1"",""1787""
","
","
","""event"",""trial"",""time""
""fullscreenenter"",""1"",""1787""
","
","","","1214.8999999761581","","","22","15154","6106","z","elianto","#3366ff99"," "," ","1","+10","[2065.5]","1","2","","","15154","79","4","1","win","go","0"
"pit-trial","198","1253374","0.0-84.0","battery-v0.2","","""event"",""trial"",""time""
""fullscreenenter"",""1"",""1787""
","
","
","""event"",""trial"",""time""
""fullscreenenter"",""1"",""1787""
","
","","","1354.199999988079","","","22","15154","6106","z","elianto","#3366ff99"," "," ","1","0","[2205.100000023842]","1","2","","","15154","80","4","1","win","go","1"
"pit-trial","199","1257688","0.0-85.0","battery-v0.2","","""event"",""trial"",""time""
""fullscreenenter"",""1"",""1787""
","
","
","""event"",""trial"",""time""
""fullscreenenter"",""1"",""1787""
","
","","","1458.5","","","22","15154","6106","t","elianto","#f73b6a7A","-1"," ","0","-10","[2309.899999976158]","1","2","","","15154","81","7","4","lose","no-go","0"
"pit-trial","200","1261723","0.0-86.0","battery-v0.2","","""event"",""trial"",""time""
""fullscreenenter"",""1"",""1787""
","
","
","""event"",""trial"",""time""
""fullscreenenter"",""1"",""1787""
","
","","","1178.6000000238419","","","22","15154","6106","z","elianto","#3366ff99"," "," ","1","+10","[2031.3999999761581]","1","2","","","15154","82","4","1","win","go","0"
"pit-trial","201","1266578","0.0-87.0","battery-v0.2","","""event"",""trial"",""time""
""fullscreenenter"",""1"",""1787""
","
","
","""event"",""trial"",""time""
""fullscreenenter"",""1"",""1787""
","
","","","-1","","","22","15154","6106","c","elianto","#3366ff99","-1","-1","1","+10","[]","0","2","","","15154","83","5","2","win","no-go","0"
"pit-trial","202","1271434","0.0-88.0","battery-v0.2","","""event"",""trial"",""time""
""fullscreenenter"",""1"",""1787""
","
","
","""event"",""trial"",""time""
""fullscreenenter"",""1"",""1787""
","
","","","-1","","","22","15154","6106","h","elianto","#f73b6a7A","-1","-1","1","0","[]","0","2","","","15154","84","3","4","lose","no-go","0"
"pit-trial","203","1275629","0.0-89.0","battery-v0.2","","""event"",""trial"",""time""
""fullscreenenter"",""1"",""1787""
","
","
","""event"",""trial"",""time""
""fullscreenenter"",""1"",""1787""
","
","","","1340.699999988079","","","22","15154","6106","b","elianto","#f73b6a7A"," "," ","1","0","[2192]","1","2","","","15154","85","6","3","lose","go","0"
"pit-trial","204","1280483","0.0-90.0","battery-v0.2","","""event"",""trial"",""time""
""fullscreenenter"",""1"",""1787""
","
","
","""event"",""trial"",""time""
""fullscreenenter"",""1"",""1787""
","
","","","-1","","","22","15154","6106","c","elianto","#3366ff99","-1","-1","1","0","[]","0","2","","","15154","86","5","2","win","no-go","1"
"pit-trial","205","1284723","0.0-91.0","battery-v0.2","","""event"",""trial"",""time""
""fullscreenenter"",""1"",""1787""
","
","
","""event"",""trial"",""time""
""fullscreenenter"",""1"",""1787""
","
","","","1383","","","22","15154","6106","z","elianto","#3366ff99"," "," ","1","+10","[2234.400000035763]","1","2","","","15154","87","4","1","win","go","0"
"pit-trial","206","1289579","0.0-92.0","battery-v0.2","","""event"",""trial"",""time""
""fullscreenenter"",""1"",""1787""
","
","
","""event"",""trial"",""time""
""fullscreenenter"",""1"",""1787""
","
","","","-1","","","22","15154","6106","t","elianto","#f73b6a7A","-1","-1","1","-10","[]","0","2","","","15154","88","7","4","lose","no-go","1"
"pit-trial","207","1293616","0.0-93.0","battery-v0.2","","""event"",""trial"",""time""
""fullscreenenter"",""1"",""1787""
","
","
","""event"",""trial"",""time""
""fullscreenenter"",""1"",""1787""
","
","","","1181.5","","","22","15154","6106","z","elianto","#3366ff99"," "," ","1","+10","[2032.699999988079]","1","2","","","15154","89","4","1","win","go","0"
"pit-trial","208","1298472","0.0-94.0","battery-v0.2","","""event"",""trial"",""time""
""fullscreenenter"",""1"",""1787""
","
","
","""event"",""trial"",""time""
""fullscreenenter"",""1"",""1787""
","
","","","-1","","","22","15154","6106","t","elianto","#f73b6a7A","-1","-1","1","0","[]","0","2","","","15154","90","7","4","lose","no-go","0"
"pit-trial","209","1302659","0.0-95.0","battery-v0.2","","""event"",""trial"",""time""
""fullscreenenter"",""1"",""1787""
","
","
","""event"",""trial"",""time""
""fullscreenenter"",""1"",""1787""
","
","","","1334.800000011921","","","22","15154","6106","c","elianto","#3366ff99","-1"," ","0","+10","[2184.800000011921]","1","2","","","15154","91","5","2","win","no-go","1"
"pit-trial","210","1306967","0.0-96.0","battery-v0.2","","""event"",""trial"",""time""
""fullscreenenter"",""1"",""1787""
","
","
","""event"",""trial"",""time""
""fullscreenenter"",""1"",""1787""
","
","","","1453","","","22","15154","6106","b","elianto","#f73b6a7A"," "," ","1","-10","[2303.900000035763]","1","2","","","15154","92","6","3","lose","go","1"
"pit-trial","211","1311377","0.0-97.0","battery-v0.2","","""event"",""trial"",""time""
""fullscreenenter"",""1"",""1787""
","
","
","""event"",""trial"",""time""
""fullscreenenter"",""1"",""1787""
","
","","","1556.300000011921","","","22","15154","6106","f","elianto","#3366ff99"," "," ","1","+10","[2406.800000011921]","1","2","","","15154","93","8","1","win","go","0"
"pit-trial","212","1316232","0.0-98.0","battery-v0.2","","""event"",""trial"",""time""
""fullscreenenter"",""1"",""1787""
","
","
","""event"",""trial"",""time""
""fullscreenenter"",""1"",""1787""
","
","","","-1","","","22","15154","6106","t","elianto","#f73b6a7A","-1","-1","1","0","[]","0","2","","","15154","94","7","4","lose","no-go","0"
"pit-trial","213","1321087","0.0-99.0","battery-v0.2","","""event"",""trial"",""time""
""fullscreenenter"",""1"",""1787""
","
","
","""event"",""trial"",""time""
""fullscreenenter"",""1"",""1787""
","
","","","-1","","","22","15154","6106","c","elianto","#3366ff99","-1","-1","1","0","[]","0","2","","","15154","95","5","2","win","no-go","1"
"pit-trial","214","1325281","0.0-100.0","battery-v0.2","","""event"",""trial"",""time""
""fullscreenenter"",""1"",""1787""
","
","
","""event"",""trial"",""time""
""fullscreenenter"",""1"",""1787""
","
","","","1340","","","22","15154","6106","b","elianto","#f73b6a7A"," "," ","1","-10","[2191]","1","2","","","15154","96","6","3","lose","go","1"
"pit-trial","215","1330136","0.0-101.0","battery-v0.2","","""event"",""trial"",""time""
""fullscreenenter"",""1"",""1787""
","
","
","""event"",""trial"",""time""
""fullscreenenter"",""1"",""1787""
","
","","","-1","","","22","15154","6106","c","elianto","#3366ff99","-1","-1","1","+10","[]","0","2","","","15154","97","5","2","win","no-go","0"
"pit-trial","216","1334991","0.0-102.0","battery-v0.2","","""event"",""trial"",""time""
""fullscreenenter"",""1"",""1787""
","
","
","""event"",""trial"",""time""
""fullscreenenter"",""1"",""1787""
","
","","","-1","","","22","15154","6106","t","elianto","#f73b6a7A","-1","-1","1","-10","[]","0","2","","","15154","98","7","4","lose","no-go","1"
"pit-trial","217","1339175","0.0-103.0","battery-v0.2","","""event"",""trial"",""time""
""fullscreenenter"",""1"",""1787""
","
","
","""event"",""trial"",""time""
""fullscreenenter"",""1"",""1787""
","
","","","1327.5999999642372","","","22","15154","6106","b","elianto","#f73b6a7A"," "," ","1","0","[2178.099999964237]","1","2","","","15154","99","6","3","lose","go","0"
"pit-trial","218","1343089","0.0-104.0","battery-v0.2","","""event"",""trial"",""time""
""fullscreenenter"",""1"",""1787""
","
","
","""event"",""trial"",""time""
""fullscreenenter"",""1"",""1787""
","
","","","1058","","","22","15154","6106","f","elianto","#3366ff99"," "," ","1","+10","[1909.800000011921]","1","2","","","15154","100","8","1","win","go","0"
"pit-trial","219","1347040","0.0-105.0","battery-v0.2","","""event"",""trial"",""time""
""fullscreenenter"",""1"",""1787""
","
","
","""event"",""trial"",""time""
""fullscreenenter"",""1"",""1787""
","
","","","1095.5","","","22","15154","6106","t","elianto","#f73b6a7A","-1"," ","0","0","[1946.2000000476837]","1","2","","","15154","101","7","4","lose","no-go","1"
"pit-trial","220","1351014","0.0-106.0","battery-v0.2","","""event"",""trial"",""time""
""fullscreenenter"",""1"",""1787""
","
","
","""event"",""trial"",""time""
""fullscreenenter"",""1"",""1787""
","
","","","1119.6000000238419","","","22","15154","6106","f","elianto","#3366ff99"," "," ","1","0","[1969.8999999761581]","1","2","","","15154","102","8","1","win","go","1"
"pit-trial","221","1355276","0.0-107.0","battery-v0.2","","""event"",""trial"",""time""
""fullscreenenter"",""1"",""1787""
","
","
","""event"",""trial"",""time""
""fullscreenenter"",""1"",""1787""
","
","","","1406.8999999761581","","","22","15154","6106","n","elianto","#3366ff99"," "," ","1","+10","[2257.900000035763]","1","2","","","15154","103","9","1","win","go","0"
"pit-trial","222","1360131","0.0-108.0","battery-v0.2","","""event"",""trial"",""time""
""fullscreenenter"",""1"",""1787""
","
","
","""event"",""trial"",""time""
""fullscreenenter"",""1"",""1787""
","
","","","-1","","","22","15154","6106","c","elianto","#3366ff99","-1","-1","1","+10","[]","0","2","","","15154","104","5","2","win","no-go","0"
"pit-trial","223","1364017","0.0-109.0","battery-v0.2","","""event"",""trial"",""time""
""fullscreenenter"",""1"",""1787""
","
","
","""event"",""trial"",""time""
""fullscreenenter"",""1"",""1787""
","
","","","1031.6000000238419","","","22","15154","6106","n","elianto","#3366ff99"," "," ","1","+10","[1882.699999988079]","1","2","","","15154","105","9","1","win","go","0"
"pit-trial","224","1368223","0.0-110.0","battery-v0.2","","""event"",""trial"",""time""
""fullscreenenter"",""1"",""1787""
","
","
","""event"",""trial"",""time""
""fullscreenenter"",""1"",""1787""
","
","","","1351.1000000238419","","","22","15154","6106","z","elianto","#3366ff99"," "," ","1","+10","[2202.400000035763]","1","2","","","15154","106","4","1","win","go","0"
"pit-trial","225","1372033","0.0-111.0","battery-v0.2","","""event"",""trial"",""time""
""fullscreenenter"",""1"",""1787""
","
","
","""event"",""trial"",""time""
""fullscreenenter"",""1"",""1787""
","
","","","955.8000000119209","","","22","15154","6106","f","elianto","#3366ff99"," "," ","1","+10","[1806.9000000357628]","1","2","","","15154","107","8","1","win","go","0"
"pit-trial","226","1376162","0.0-112.0","battery-v0.2","","""event"",""trial"",""time""
""fullscreenenter"",""1"",""1787""
","
","
","""event"",""trial"",""time""
""fullscreenenter"",""1"",""1787""
","
","","","1274.5","","","22","15154","6106","b","elianto","#f73b6a7A"," "," ","1","0","[2125.800000011921]","1","2","","","15154","108","6","3","lose","go","0"
"pit-trial","227","1379938","0.0-113.0","battery-v0.2","","""event"",""trial"",""time""
""fullscreenenter"",""1"",""1787""
","
","
","""event"",""trial"",""time""
""fullscreenenter"",""1"",""1787""
","
","","","922.1999999880791","","","22","15154","6106","b","elianto","#f73b6a7A"," "," ","1","0","[1773.0999999642372]","1","2","","","15154","109","6","3","lose","go","0"
"pit-trial","228","1383704","0.0-114.0","battery-v0.2","","""event"",""trial"",""time""
""fullscreenenter"",""1"",""1787""
","
","
","""event"",""trial"",""time""
""fullscreenenter"",""1"",""1787""
","
","","","911.5999999642372","","","22","15154","6106","f","elianto","#3366ff99"," "," ","1","+10","[1762.5]","1","2","","","15154","110","8","1","win","go","0"
"pit-trial","229","1388561","0.0-115.0","battery-v0.2","","""event"",""trial"",""time""
""fullscreenenter"",""1"",""1787""
","
","
","""event"",""trial"",""time""
""fullscreenenter"",""1"",""1787""
","
","","","-1","","","22","15154","6106","c","elianto","#3366ff99","-1","-1","1","+10","[]","0","2","","","15154","111","5","2","win","no-go","0"
"pit-trial","230","1392257","0.0-116.0","battery-v0.2","","""event"",""trial"",""time""
""fullscreenenter"",""1"",""1787""
","
","
","""event"",""trial"",""time""
""fullscreenenter"",""1"",""1787""
","
","","","840.8000000119209","","","22","15154","6106","n","elianto","#3366ff99"," "," ","1","+10","[1692.5999999642372]","1","2","","","15154","112","9","1","win","go","0"
"pit-trial","231","1397113","0.0-117.0","battery-v0.2","","""event"",""trial"",""time""
""fullscreenenter"",""1"",""1787""
","
","
","""event"",""trial"",""time""
""fullscreenenter"",""1"",""1787""
","
","","","-1","","","22","15154","6106","c","elianto","#3366ff99","-1","-1","1","+10","[]","0","2","","","15154","113","5","2","win","no-go","0"
"pit-trial","232","1401327","0.0-118.0","battery-v0.2","","""event"",""trial"",""time""
""fullscreenenter"",""1"",""1787""
","
","
","""event"",""trial"",""time""
""fullscreenenter"",""1"",""1787""
","
","","","1358.300000011921","","","22","15154","6106","f","elianto","#3366ff99"," "," ","1","+10","[2209.400000035763]","1","2","","","15154","114","8","1","win","go","0"
"pit-trial","233","1405309","0.0-119.0","battery-v0.2","","""event"",""trial"",""time""
""fullscreenenter"",""1"",""1787""
","
","
","""event"",""trial"",""time""
""fullscreenenter"",""1"",""1787""
","
","","","1125.8999999761581","","","22","15154","6106","b","elianto","#f73b6a7A"," "," ","1","0","[1976.699999988079]","1","2","","","15154","115","6","3","lose","go","0"
"pit-trial","234","1409128","0.0-120.0","battery-v0.2","","""event"",""trial"",""time""
""fullscreenenter"",""1"",""1787""
","
","
","""event"",""trial"",""time""
""fullscreenenter"",""1"",""1787""
","
","","","965.8000000119209","","","22","15154","6106","n","elianto","#3366ff99"," "," ","1","+10","[1816.199999988079]","1","2","","","15154","116","9","1","win","go","0"
"pit-trial","235","1413020","0.0-121.0","battery-v0.2","","""event"",""trial"",""time""
""fullscreenenter"",""1"",""1787""
","
","
","""event"",""trial"",""time""
""fullscreenenter"",""1"",""1787""
","
","","","1036.1000000238419","","","22","15154","6106","f","elianto","#3366ff99"," "," ","1","+10","[1888]","1","2","","","15154","117","8","1","win","go","0"
"pit-trial","236","1416890","0.0-122.0","battery-v0.2","","""event"",""trial"",""time""
""fullscreenenter"",""1"",""1787""
","
","
","""event"",""trial"",""time""
""fullscreenenter"",""1"",""1787""
","
","","","1014.8999999761581","","","22","15154","6106","c","elianto","#3366ff99","-1"," ","0","+10","[1865.800000011921]","1","2","","","15154","118","5","2","win","no-go","1"
"pit-trial","237","1420632","0.0-123.0","battery-v0.2","","""event"",""trial"",""time""
""fullscreenenter"",""1"",""1787""
","
","
","""event"",""trial"",""time""
""fullscreenenter"",""1"",""1787""
","
","","","886.6000000238419","","","22","15154","6106","n","elianto","#3366ff99"," "," ","1","+10","[1737.4000000357628]","1","2","","","15154","119","9","1","win","go","0"
"pit-trial","238","1424525","0.0-124.0","battery-v0.2","","""event"",""trial"",""time""
""fullscreenenter"",""1"",""1787""
","
","
","""event"",""trial"",""time""
""fullscreenenter"",""1"",""1787""
","
","","","1038.7000000476837","","","22","15154","6106","b","elianto","#f73b6a7A"," "," ","1","0","[1889.1000000238419]","1","2","","","15154","120","6","3","lose","go","0"
"pit-trial","239","1428332","0.0-125.0","battery-v0.2","","""event"",""trial"",""time""
""fullscreenenter"",""1"",""1787""
","
","
","""event"",""trial"",""time""
""fullscreenenter"",""1"",""1787""
","
","","","952.8000000119209","","","22","15154","6106","t","elianto","#f73b6a7A","-1"," ","0","0","[1803.4000000357628]","1","2","","","15154","121","7","4","lose","no-go","1"
"pit-trial","240","1432810","0.0-126.0","battery-v0.2","","""event"",""trial"",""time""
""fullscreenenter"",""1"",""1787""
","
","
","""event"",""trial"",""time""
""fullscreenenter"",""1"",""1787""
","
","","","1620.9000000357628","","","22","15154","6106","f","elianto","#3366ff99"," "," ","1","+10","[2471.899999976158]","1","2","","","15154","122","8","1","win","go","0"
"pit-trial","241","1436459","0.0-127.0","battery-v0.2","","""event"",""trial"",""time""
""fullscreenenter"",""1"",""1787""
","
","
","""event"",""trial"",""time""
""fullscreenenter"",""1"",""1787""
","
","","","791.1999999880791","","","22","15154","6106","n","elianto","#3366ff99"," "," ","1","0","[1642.5999999642372]","1","2","","","15154","123","9","1","win","go","1"
"pit-trial","242","1440520","0.0-128.0","battery-v0.2","","""event"",""trial"",""time""
""fullscreenenter"",""1"",""1787""
","
","
","""event"",""trial"",""time""
""fullscreenenter"",""1"",""1787""
","
","","","1205.5","","","22","15154","6106","b","elianto","#f73b6a7A"," "," ","1","0","[2056.699999988079]","1","2","","","15154","124","6","3","lose","go","0"
"pit-trial","243","1444153","0.0-129.0","battery-v0.2","","""event"",""trial"",""time""
""fullscreenenter"",""1"",""1787""
","
","
","""event"",""trial"",""time""
""fullscreenenter"",""1"",""1787""
","
","","","778.1000000238419","","","22","15154","6106","f","elianto","#3366ff99"," "," ","1","+10","[1629.1000000238419]","1","2","","","15154","125","8","1","win","go","0"
"pit-trial","244","1447973","0.0-130.0","battery-v0.2","","""event"",""trial"",""time""
""fullscreenenter"",""1"",""1787""
","
","
","""event"",""trial"",""time""
""fullscreenenter"",""1"",""1787""
","
","","","967.3999999761581","","","22","15154","6106","b","elianto","#f73b6a7A"," "," ","1","0","[1817.699999988079]","1","2","","","15154","126","6","3","lose","go","0"
"pit-trial","245","1451650","0.0-131.0","battery-v0.2","","""event"",""trial"",""time""
""fullscreenenter"",""1"",""1787""
","
","
","""event"",""trial"",""time""
""fullscreenenter"",""1"",""1787""
","
","","","822.8000000119209","","","22","15154","6106","n","elianto","#3366ff99"," "," ","1","+10","[1673.4000000357628]","1","2","","","15154","127","9","1","win","go","0"
"pit-trial","246","1455473","0.0-132.0","battery-v0.2","","""event"",""trial"",""time""
""fullscreenenter"",""1"",""1787""
","
","
","""event"",""trial"",""time""
""fullscreenenter"",""1"",""1787""
","
","","","969.6000000238419","","","22","15154","6106","t","elianto","#f73b6a7A","-1"," ","0","-10","[1820.4000000357628]","1","2","","","15154","128","7","4","lose","no-go","0"
"pit-trial","247","1458956","0.0-133.0","battery-v0.2","","""event"",""trial"",""time""
""fullscreenenter"",""1"",""1787""
","
","
","""event"",""trial"",""time""
""fullscreenenter"",""1"",""1787""
","
","","","630.1999999880791","","","22","15154","6106","f","elianto","#3366ff99"," "," ","1","+10","[1481.199999988079]","1","2","","","15154","129","8","1","win","go","0"
"pit-trial","248","1462634","0.0-134.0","battery-v0.2","","""event"",""trial"",""time""
""fullscreenenter"",""1"",""1787""
","
","
","""event"",""trial"",""time""
""fullscreenenter"",""1"",""1787""
","
","","","823.1999999880791","","","22","15154","6106","b","elianto","#f73b6a7A"," "," ","1","0","[1673.7999999523163]","1","2","","","15154","130","6","3","lose","go","0"
"pit-trial","249","1466217","0.0-135.0","battery-v0.2","","""event"",""trial"",""time""
""fullscreenenter"",""1"",""1787""
","
","
","""event"",""trial"",""time""
""fullscreenenter"",""1"",""1787""
","
","","","730.2999999523163","","","22","15154","6106","n","elianto","#3366ff99"," "," ","1","+10","[1580.5999999642372]","1","2","","","15154","131","9","1","win","go","0"
"pit-trial","250","1469919","0.0-136.0","battery-v0.2","","""event"",""trial"",""time""
""fullscreenenter"",""1"",""1787""
","
","
","""event"",""trial"",""time""
""fullscreenenter"",""1"",""1787""
","
","","","847.9000000357628","","","22","15154","6106","t","elianto","#f73b6a7A","-1"," ","0","-10","[1698.2000000476837]","1","2","","","15154","132","7","4","lose","no-go","0"
"pit-trial","251","1473458","0.0-137.0","battery-v0.2","","""event"",""trial"",""time""
""fullscreenenter"",""1"",""1787""
","
","
","""event"",""trial"",""time""
""fullscreenenter"",""1"",""1787""
","
","","","685.9000000357628","","","22","15154","6106","n","elianto","#3366ff99"," "," ","1","0","[1536.5]","1","2","","","15154","133","9","1","win","go","1"
"pit-trial","252","1477177","0.0-138.0","battery-v0.2","","""event"",""trial"",""time""
""fullscreenenter"",""1"",""1787""
","
","
","""event"",""trial"",""time""
""fullscreenenter"",""1"",""1787""
","
","","","865.9000000357628","","","22","15154","6106","b","elianto","#f73b6a7A"," "," ","1","-10","[1716.1000000238419]","1","2","","","15154","134","6","3","lose","go","1"
"pit-trial","253","1480814","0.0-139.0","battery-v0.2","","""event"",""trial"",""time""
""fullscreenenter"",""1"",""1787""
","
","
","""event"",""trial"",""time""
""fullscreenenter"",""1"",""1787""
","
","","","782","","","22","15154","6106","f","elianto","#3366ff99"," "," ","1","+10","[1633.4000000357628]","1","2","","","15154","135","8","1","win","go","0"
"pit-trial","254","1484670","0.0-140.0","battery-v0.2","","""event"",""trial"",""time""
""fullscreenenter"",""1"",""1787""
","
","
","""event"",""trial"",""time""
""fullscreenenter"",""1"",""1787""
","
","","","1003.0999999642372","","","22","15154","6106","t","elianto","#f73b6a7A","-1"," ","0","-10","[1853.5999999642372]","1","2","","","15154","136","7","4","lose","no-go","0"
"pit-trial","255","1488166","0.0-141.0","battery-v0.2","","""event"",""trial"",""time""
""fullscreenenter"",""1"",""1787""
","
","
","""event"",""trial"",""time""
""fullscreenenter"",""1"",""1787""
","
","","","643.3000000119209","","","22","15154","6106","f","elianto","#3366ff99"," "," ","1","+10","[1493.4000000357628]","1","2","","","15154","137","8","1","win","go","0"
"pit-trial","256","1493020","0.0-142.0","battery-v0.2","","""event"",""trial"",""time""
""fullscreenenter"",""1"",""1787""
","
","
","""event"",""trial"",""time""
""fullscreenenter"",""1"",""1787""
","
","","","-1","","","22","15154","6106","t","elianto","#f73b6a7A","-1","-1","1","0","[]","0","2","","","15154","138","7","4","lose","no-go","0"
"pit-trial","257","1496783","0.0-143.0","battery-v0.2","","""event"",""trial"",""time""
""fullscreenenter"",""1"",""1787""
","
","
","""event"",""trial"",""time""
""fullscreenenter"",""1"",""1787""
","
","","","910.1999999880791","","","22","15154","6106","b","elianto","#f73b6a7A"," "," ","1","0","[1760.300000011921]","1","2","","","15154","139","6","3","lose","go","0"
"pit-trial","258","1500447","0.0-144.0","battery-v0.2","","""event"",""trial"",""time""
""fullscreenenter"",""1"",""1787""
","
","
","""event"",""trial"",""time""
""fullscreenenter"",""1"",""1787""
","
","","","810","","","22","15154","6106","n","elianto","#3366ff99"," "," ","1","+10","[1661.0999999642372]","1","2","","","15154","140","9","1","win","go","0"
"pit-instructions","259","1602941","0.0-145.0","battery-v0.2","","""event"",""trial"",""time""
""fullscreenenter"",""1"",""1787""
","
","
","""event"",""trial"",""time""
""fullscreenenter"",""1"",""1787""
","
","","[{""page_index"":0,""viewing_time"":94337.40000003576},{""page_index"":1,""viewing_time"":8154.399999976158}]","102492.30000001192","","","","","","","","","","","","","","","","","","","","","","","",""
"pit-trial","260","1606465","0.0-146.0","battery-v0.2","","""event"",""trial"",""time""
""fullscreenenter"",""1"",""1787""
","
","
","""event"",""trial"",""time""
""fullscreenenter"",""1"",""1787""
","
","","","663.5","","","22","15154","6106","a","elianto","#f73b6a7A","-1"," ","0","-10","[1515.300000011921]","1","3","","","15154","141","2","4","lose","no-go","0"
"pit-trial","261","1611320","0.0-147.0","battery-v0.2","","""event"",""trial"",""time""
""fullscreenenter"",""1"",""1787""
","
","
","""event"",""trial"",""time""
""fullscreenenter"",""1"",""1787""
","
","","","-1","","","22","15154","6106","u","elianto","#f73b6a7A","-1","-1","1","0","[]","0","3","","","15154","142","0","4","lose","no-go","0"
"pit-trial","262","1615253","0.0-148.0","battery-v0.2","","""event"",""trial"",""time""
""fullscreenenter"",""1"",""1787""
","
","
","""event"",""trial"",""time""
""fullscreenenter"",""1"",""1787""
","
","","","1078.800000011921","","","22","15154","6106","g","elianto","#f73b6a7A"," "," ","1","0","[1929.4000000357628]","1","3","","","15154","143","3","3","lose","go","0"
"pit-trial","263","1619333","0.0-149.0","battery-v0.2","","""event"",""trial"",""time""
""fullscreenenter"",""1"",""1787""
","
","
","""event"",""trial"",""time""
""fullscreenenter"",""1"",""1787""
","
","","","1224.0999999642372","","","22","15154","6106","l","elianto","#3366ff99"," "," ","1","+10","[2075.400000035763]","1","3","","","15154","144","1","1","win","go","0"
"pit-trial","264","1623411","0.0-150.0","battery-v0.2","","""event"",""trial"",""time""
""fullscreenenter"",""1"",""1787""
","
","
","""event"",""trial"",""time""
""fullscreenenter"",""1"",""1787""
","
","","","1223.699999988079","","","22","15154","6106","g","elianto","#f73b6a7A"," "," ","1","0","[2073.899999976158]","1","3","","","15154","145","3","3","lose","go","0"
"pit-trial","265","1627074","0.0-151.0","battery-v0.2","","""event"",""trial"",""time""
""fullscreenenter"",""1"",""1787""
","
","
","""event"",""trial"",""time""
""fullscreenenter"",""1"",""1787""
","
","","","809.7999999523163","","","22","15154","6106","l","elianto","#3366ff99"," "," ","1","+10","[1661]","1","3","","","15154","146","1","1","win","go","0"
"pit-trial","266","1630954","0.0-152.0","battery-v0.2","","""event"",""trial"",""time""
""fullscreenenter"",""1"",""1787""
","
","
","""event"",""trial"",""time""
""fullscreenenter"",""1"",""1787""
","
