"trial_type","trial_index","time_elapsed","internal_node_id","task_version","subject_id","interactions","blur_events","focus_events","fullscreenenter_events","fullscreenexit_events","success","view_history","rt","responses","num_errors","age","subject","participantId","rune","rune_set","hex","correct","choice","accuracy","outcome","keys","total_keys","block","practice","value","sub","trial","stimulus","robot","valence","action","sham"
"pavlovia","0","16","0.0-0.0","battery-v0.2","","""event"",""trial"",""time""
""fullscreenenter"",""1"",""2219""
","
","
","""event"",""trial"",""time""
""fullscreenenter"",""1"",""2219""
","
","","","","","","","","","","","","","","","","","","","","","","","","","","",""
"fullscreen","1","3201","0.0-1.0","battery-v0.2","","""event"",""trial"",""time""
""fullscreenenter"",""1"",""2219""
","
","
","""event"",""trial"",""time""
""fullscreenenter"",""1"",""2219""
","
","true","","","","","","","","","","","","","","","","","","","","","","","","","",""
"pit-instructions","2","13377","0.0-2.0-0.0","battery-v0.2","","""event"",""trial"",""time""
""fullscreenenter"",""1"",""2219""
","
","
","""event"",""trial"",""time""
""fullscreenenter"",""1"",""2219""
","
","","[{""page_index"":0,""viewing_time"":10172.800000190735}]","10173.300000190735","","","","","","","","","","","","","","","","","","","","","","","",""
"pit-comprehension","3","17210","0.0-2.0-1.0-0.0","battery-v0.2","","""event"",""trial"",""time""
""fullscreenenter"",""1"",""2219""
","
","
","""event"",""trial"",""time""
""fullscreenenter"",""1"",""2219""
","
","","","3829.1000003814697","[""shark""]","0","16","5939","2065","","","","","","","","","","","","","","","","","","",""
"pit-instructions","4","18509","0.0-2.0-1.0-1.0","battery-v0.2","","""event"",""trial"",""time""
""fullscreenenter"",""1"",""2219""
","
","
","""event"",""trial"",""time""
""fullscreenenter"",""1"",""2219""
","
","","[{""page_index"":0,""viewing_time"":1275.6000003814697}]","1276","","","","","","","","","","","","","","","","","","","","","","","",""
"pit-comprehension","5","21966","0.0-2.0-2.0-0.0","battery-v0.2","","""event"",""trial"",""time""
""fullscreenenter"",""1"",""2219""
","
","
","""event"",""trial"",""time""
""fullscreenenter"",""1"",""2219""
","
","","","3453.4000005722046","[""tiger""]","0","16","5939","2065","","","","","","","","","","","","","","","","","","",""
"pit-instructions","6","24178","0.0-2.0-2.0-1.0","battery-v0.2","","""event"",""trial"",""time""
""fullscreenenter"",""1"",""2219""
","
","
","""event"",""trial"",""time""
""fullscreenenter"",""1"",""2219""
","
","","[{""page_index"":0,""viewing_time"":2207.5999994277954}]","2208.0999994277954","","","","","","","","","","","","","","","","","","","","","","","",""
"pit-instructions","7","157844","0.0-2.0-3.0","battery-v0.2","","""event"",""trial"",""time""
""fullscreenenter"",""1"",""2219""
","
","
","""event"",""trial"",""time""
""fullscreenenter"",""1"",""2219""
","
","","[{""page_index"":0,""viewing_time"":26506.900000572205},{""page_index"":1,""viewing_time"":8397.89999961853},{""page_index"":2,""viewing_time"":7578.10000038147},{""page_index"":3,""viewing_time"":8503.39999961853},{""page_index"":4,""viewing_time"":13147.60000038147},{""page_index"":5,""viewing_time"":9806.800000190735},{""page_index"":6,""viewing_time"":6795.39999961853},{""page_index"":7,""viewing_time"":6420.89999961853},{""page_index"":8,""viewing_time"":6704.800000190735},{""page_index"":9,""viewing_time"":11394.400000572205},{""page_index"":10,""viewing_time"":7480.799999237061},{""page_index"":11,""viewing_time"":7177.10000038147},{""page_index"":12,""viewing_time"":8609.800000190735},{""page_index"":13,""viewing_time"":5138.39999961853}]","133662.80000019073","","","","","","","","","","","","","","","","","","","","","","","",""
"pit-trial","8","161428","0.0-2.0-4.0-0.0","battery-v0.2","","""event"",""trial"",""time""
""fullscreenenter"",""1"",""2219""
","
","
","""event"",""trial"",""time""
""fullscreenenter"",""1"",""2219""
","
","","","707","","","16","5939","2065","&#9784;","elianto","#FFFFF080"," "," ","1","&#10004","[1567.5]","1","0","0","","","","","","","",""
"pit-trial","9","165278","0.0-2.0-4.1-0.1","battery-v0.2","","""event"",""trial"",""time""
""fullscreenenter"",""1"",""2219""
","
","
","""event"",""trial"",""time""
""fullscreenenter"",""1"",""2219""
","
","","","968.5","","","16","5939","2065","&#9784;","elianto","#FFFFF080"," "," ","1","&#10004","[1827.3999996185303]","1","0","0","","","","","","","",""
"pit-trial","10","169029","0.0-2.0-4.2-0.2","battery-v0.2","","""event"",""trial"",""time""
""fullscreenenter"",""1"",""2219""
","
","
","""event"",""trial"",""time""
""fullscreenenter"",""1"",""2219""
","
","","","872.8999996185303","","","16","5939","2065","&#9784;","elianto","#FFFFF080"," "," ","1","&#10004","[1733]","1","0","0","","","","","","","",""
"pit-trial","11","172779","0.0-2.0-4.3-0.3","battery-v0.2","","""event"",""trial"",""time""
""fullscreenenter"",""1"",""2219""
","
","
","""event"",""trial"",""time""
""fullscreenenter"",""1"",""2219""
","
","","","881.1999998092651","","","16","5939","2065","&#9784;","elianto","#FFFFF080"," "," ","1","&#10004","[1740.3000001907349]","1","0","0","","","","","","","",""
"pit-trial","12","176316","0.0-2.0-4.4-0.4","battery-v0.2","","""event"",""trial"",""time""
""fullscreenenter"",""1"",""2219""
","
","
","""event"",""trial"",""time""
""fullscreenenter"",""1"",""2219""
","
","","","671.6999998092651","","","16","5939","2065","&#9784;","elianto","#FFFFF080"," "," ","1","&#10004","[1530.8000001907349]","1","0","0","","","","","","","",""
"pit-instructions","13","198885","0.0-2.0-5.0","battery-v0.2","","""event"",""trial"",""time""
""fullscreenenter"",""1"",""2219""
","
","
","""event"",""trial"",""time""
""fullscreenenter"",""1"",""2219""
","
","","[{""page_index"":0,""viewing_time"":6890.89999961853},{""page_index"":1,""viewing_time"":5957.400000572205},{""page_index"":2,""viewing_time"":4243},{""page_index"":3,""viewing_time"":5474.599999427795}]","22566.199999809265","","","","","","","","","","","","","","","","","","","","","","","",""
"pit-trial","14","203776","0.0-2.0-6.0-0.0","battery-v0.2","","""event"",""trial"",""time""
""fullscreenenter"",""1"",""2219""
","
","
","""event"",""trial"",""time""
""fullscreenenter"",""1"",""2219""
","
","","","-1","","","16","5939","2065","&#9854;","elianto","#FFFFF080","-1","-1","1","&#10004","[]","0","0","1","","","","","","","",""
"pit-trial","15","208663","0.0-2.0-6.1-0.1","battery-v0.2","","""event"",""trial"",""time""
""fullscreenenter"",""1"",""2219""
","
","
","""event"",""trial"",""time""
""fullscreenenter"",""1"",""2219""
","
","","","-1","","","16","5939","2065","&#9854;","elianto","#FFFFF080","-1","-1","1","&#10004","[]","0","0","1","","","","","","","",""
"pit-trial","16","213533","0.0-2.0-6.2-0.2","battery-v0.2","","""event"",""trial"",""time""
""fullscreenenter"",""1"",""2219""
","
","
","""event"",""trial"",""time""
""fullscreenenter"",""1"",""2219""
","
","","","-1","","","16","5939","2065","&#9854;","elianto","#FFFFF080","-1","-1","1","&#10004","[]","0","0","1","","","","","","","",""
"pit-trial","17","218410","0.0-2.0-6.3-0.3","battery-v0.2","","""event"",""trial"",""time""
""fullscreenenter"",""1"",""2219""
","
","
","""event"",""trial"",""time""
""fullscreenenter"",""1"",""2219""
","
","","","-1","","","16","5939","2065","&#9854;","elianto","#FFFFF080","-1","-1","1","&#10004","[]","0","0","1","","","","","","","",""
"pit-trial","18","223296","0.0-2.0-6.4-0.4","battery-v0.2","","""event"",""trial"",""time""
""fullscreenenter"",""1"",""2219""
""blur"",""19"",""262961""
""focus"",""19"",""262968""
""fullscreenexit"",""19"",""262974""
","""event"",""trial"",""time""
""blur"",""19"",""262961""
","""event"",""trial"",""time""
""focus"",""19"",""262968""
","""event"",""trial"",""time""
""fullscreenenter"",""1"",""2219""
","""event"",""trial"",""time""
""fullscreenexit"",""19"",""262974""
","","","-1","","","16","5939","2065","&#9854;","elianto","#FFFFF080","-1","-1","1","&#10004","[]","0","0","1","","","","","","","",""
"pit-instructions","19","348231","0.0-2.0-7.0","battery-v0.2","","""event"",""trial"",""time""
""fullscreenenter"",""1"",""2219""
""blur"",""19"",""262961""
""focus"",""19"",""262968""
""fullscreenexit"",""19"",""262974""
","""event"",""trial"",""time""
""blur"",""19"",""262961""
","""event"",""trial"",""time""
""focus"",""19"",""262968""
","""event"",""trial"",""time""
""fullscreenenter"",""1"",""2219""
","""event"",""trial"",""time""
""fullscreenexit"",""19"",""262974""
","","[{""page_index"":0,""viewing_time"":6454.10000038147},{""page_index"":1,""viewing_time"":10214.89999961853},{""page_index"":2,""viewing_time"":5984.10000038147},{""page_index"":3,""viewing_time"":6018},{""page_index"":4,""viewing_time"":5075},{""page_index"":5,""viewing_time"":8399},{""page_index"":6,""viewing_time"":5785.099999427795},{""page_index"":7,""viewing_time"":11274},{""page_index"":8,""viewing_time"":6162.900000572205},{""page_index"":9,""viewing_time"":5787},{""page_index"":10,""viewing_time"":6724.5},{""page_index"":11,""viewing_time"":4866.599999427795},{""page_index"":12,""viewing_time"":6986.800000190735},{""page_index"":13,""viewing_time"":6946.900000572205},{""page_index"":14,""viewing_time"":7080},{""page_index"":15,""viewing_time"":7826.199999809265},{""page_index"":16,""viewing_time"":6204.099999427795},{""page_index"":17,""viewing_time"":7142.900000572205}]","124932.60000038147","","","","","","","","","","","","","","","","","","","","","","","",""
"pit-trial","20","351862","0.0-2.0-8.0-0.0","battery-v0.2","","""event"",""trial"",""time""
""fullscreenenter"",""1"",""2219""
""blur"",""19"",""262961""
""focus"",""19"",""262968""
""fullscreenexit"",""19"",""262974""
","""event"",""trial"",""time""
""blur"",""19"",""262961""
","""event"",""trial"",""time""
""focus"",""19"",""262968""
","""event"",""trial"",""time""
""fullscreenenter"",""1"",""2219""
","""event"",""trial"",""time""
""fullscreenexit"",""19"",""262974""
","","","763.3000001907349","","","16","5939","2065","&#9776;","elianto","#3366ff99"," "," ","1","+10","[1619.3999996185303]","1","0","1","","","","","","","",""
"pit-trial","21","355408","0.0-2.0-8.0-1.0","battery-v0.2","","""event"",""trial"",""time""
""fullscreenenter"",""1"",""2219""
""blur"",""19"",""262961""
""focus"",""19"",""262968""
""fullscreenexit"",""19"",""262974""
","""event"",""trial"",""time""
""blur"",""19"",""262961""
","""event"",""trial"",""time""
""focus"",""19"",""262968""
","""event"",""trial"",""time""
""fullscreenenter"",""1"",""2219""
","""event"",""trial"",""time""
""fullscreenexit"",""19"",""262974""
","","","662.0999994277954","","","16","5939","2065","&#9776;","elianto","#3366ff99"," "," ","1","+10","[1522.8999996185303]","1","0","1","","","","","","","",""
"pit-trial","22","358747","0.0-2.0-8.0-2.0","battery-v0.2","","""event"",""trial"",""time""
""fullscreenenter"",""1"",""2219""
""blur"",""19"",""262961""
""focus"",""19"",""262968""
""fullscreenexit"",""19"",""262974""
","""event"",""trial"",""time""
""blur"",""19"",""262961""
","""event"",""trial"",""time""
""focus"",""19"",""262968""
","""event"",""trial"",""time""
""fullscreenenter"",""1"",""2219""
","""event"",""trial"",""time""
""fullscreenexit"",""19"",""262974""
","","","468.3999996185303","","","16","5939","2065","&#9776;","elianto","#3366ff99"," "," ","1","+10","[1318.4000005722046]","1","0","1","","","","","","","",""
"pit-trial","23","362115","0.0-2.0-8.0-3.0","battery-v0.2","","""event"",""trial"",""time""
""fullscreenenter"",""1"",""2219""
""blur"",""19"",""262961""
""focus"",""19"",""262968""
""fullscreenexit"",""19"",""262974""
","""event"",""trial"",""time""
""blur"",""19"",""262961""
","""event"",""trial"",""time""
""focus"",""19"",""262968""
","""event"",""trial"",""time""
""fullscreenenter"",""1"",""2219""
","""event"",""trial"",""time""
""fullscreenexit"",""19"",""262974""
","","","491","","","16","5939","2065","&#9776;","elianto","#3366ff99"," "," ","1","0","[1351.0999994277954]","1","0","1","","","","","","","",""
"pit-trial","24","365392","0.0-2.0-8.0-4.0","battery-v0.2","","""event"",""trial"",""time""
""fullscreenenter"",""1"",""2219""
""blur"",""19"",""262961""
""focus"",""19"",""262968""
""fullscreenexit"",""19"",""262974""
","""event"",""trial"",""time""
""blur"",""19"",""262961""
","""event"",""trial"",""time""
""focus"",""19"",""262968""
","""event"",""trial"",""time""
""fullscreenenter"",""1"",""2219""
","""event"",""trial"",""time""
""fullscreenexit"",""19"",""262974""
","","","409","","","16","5939","2065","&#9776;","elianto","#3366ff99"," "," ","1","+10","[1261.3999996185303]","1","0","1","","","","","","","",""
"pit-trial","25","368642","0.0-2.0-8.1-0.1","battery-v0.2","","""event"",""trial"",""time""
""fullscreenenter"",""1"",""2219""
""blur"",""19"",""262961""
""focus"",""19"",""262968""
""fullscreenexit"",""19"",""262974""
","""event"",""trial"",""time""
""blur"",""19"",""262961""
","""event"",""trial"",""time""
""focus"",""19"",""262968""
","""event"",""trial"",""time""
""fullscreenenter"",""1"",""2219""
","""event"",""trial"",""time""
""fullscreenexit"",""19"",""262974""
","","","372.3999996185303","","","16","5939","2065","&#9776;","elianto","#3366ff99"," "," ","1","+10","[1232.8999996185303]","1","0","1","","","","","","","",""
"pit-trial","26","371978","0.0-2.0-8.1-1.1","battery-v0.2","","""event"",""trial"",""time""
""fullscreenenter"",""1"",""2219""
""blur"",""19"",""262961""
""focus"",""19"",""262968""
""fullscreenexit"",""19"",""262974""
","""event"",""trial"",""time""
""blur"",""19"",""262961""
","""event"",""trial"",""time""
""focus"",""19"",""262968""
","""event"",""trial"",""time""
""fullscreenenter"",""1"",""2219""
","""event"",""trial"",""time""
""fullscreenexit"",""19"",""262974""
","","","467.30000019073486","","","16","5939","2065","&#9776;","elianto","#3366ff99"," "," ","1","+10","[1317.6999998092651]","1","0","1","","","","","","","",""
"pit-trial","27","375359","0.0-2.0-8.1-2.1","battery-v0.2","","""event"",""trial"",""time""
""fullscreenenter"",""1"",""2219""
""blur"",""19"",""262961""
""focus"",""19"",""262968""
""fullscreenexit"",""19"",""262974""
","""event"",""trial"",""time""
""blur"",""19"",""262961""
","""event"",""trial"",""time""
""focus"",""19"",""262968""
","""event"",""trial"",""time""
""fullscreenenter"",""1"",""2219""
","""event"",""trial"",""time""
""fullscreenexit"",""19"",""262974""
","","","507.5","","","16","5939","2065","&#9776;","elianto","#3366ff99"," "," ","1","+10","[1369.8999996185303]","1","0","1","","","","","","","",""
"pit-trial","28","378689","0.0-2.0-8.1-3.1","battery-v0.2","","""event"",""trial"",""time""
""fullscreenenter"",""1"",""2219""
""blur"",""19"",""262961""
""focus"",""19"",""262968""
""fullscreenexit"",""19"",""262974""
","""event"",""trial"",""time""
""blur"",""19"",""262961""
","""event"",""trial"",""time""
""focus"",""19"",""262968""
","""event"",""trial"",""time""
""fullscreenenter"",""1"",""2219""
","""event"",""trial"",""time""
""fullscreenexit"",""19"",""262974""
","","","472.5999994277954","","","16","5939","2065","&#9776;","elianto","#3366ff99"," "," ","1","0","[1323.2000007629395]","1","0","1","","","","","","","",""
"pit-trial","29","382001","0.0-2.0-8.1-4.1","battery-v0.2","","""event"",""trial"",""time""
""fullscreenenter"",""1"",""2219""
""blur"",""19"",""262961""
""focus"",""19"",""262968""
""fullscreenexit"",""19"",""262974""
","""event"",""trial"",""time""
""blur"",""19"",""262961""
","""event"",""trial"",""time""
""focus"",""19"",""262968""
","""event"",""trial"",""time""
""fullscreenenter"",""1"",""2219""
","""event"",""trial"",""time""
""fullscreenexit"",""19"",""262974""
","","","451.4000005722046","","","16","5939","2065","&#9776;","elianto","#3366ff99"," "," ","1","+10","[1302.1999998092651]","1","0","1","","","","","","","",""
"pit-trial","30","385384","0.0-2.0-8.2-0.2","battery-v0.2","","""event"",""trial"",""time""
""fullscreenenter"",""1"",""2219""
""blur"",""19"",""262961""
""focus"",""19"",""262968""
""fullscreenexit"",""19"",""262974""
","""event"",""trial"",""time""
""blur"",""19"",""262961""
","""event"",""trial"",""time""
""focus"",""19"",""262968""
","""event"",""trial"",""time""
""fullscreenenter"",""1"",""2219""
","""event"",""trial"",""time""
""fullscreenexit"",""19"",""262974""
","","","522.2999992370605","","","16","5939","2065","&#9776;","elianto","#3366ff99"," "," ","1","+10","[1376.6999998092651]","1","0","1","","","","","","","",""
"pit-trial","31","388626","0.0-2.0-8.2-1.2","battery-v0.2","","""event"",""trial"",""time""
""fullscreenenter"",""1"",""2219""
""blur"",""19"",""262961""
""focus"",""19"",""262968""
""fullscreenexit"",""19"",""262974""
","""event"",""trial"",""time""
""blur"",""19"",""262961""
","""event"",""trial"",""time""
""focus"",""19"",""262968""
","""event"",""trial"",""time""
""fullscreenenter"",""1"",""2219""
","""event"",""trial"",""time""
""fullscreenexit"",""19"",""262974""
","","","375.8999996185303","","","16","5939","2065","&#9776;","elianto","#3366ff99"," "," ","1","+10","[1231.1000003814697]","1","0","1","","","","","","","",""
"pit-trial","32","391889","0.0-2.0-8.2-2.2","battery-v0.2","","""event"",""trial"",""time""
""fullscreenenter"",""1"",""2219""
""blur"",""19"",""262961""
""focus"",""19"",""262968""
""fullscreenexit"",""19"",""262974""
","""event"",""trial"",""time""
""blur"",""19"",""262961""
","""event"",""trial"",""time""
""focus"",""19"",""262968""
","""event"",""trial"",""time""
""fullscreenenter"",""1"",""2219""
","""event"",""trial"",""time""
""fullscreenexit"",""19"",""262974""
","","","400.19999980926514","","","16","5939","2065","&#9776;","elianto","#3366ff99"," "," ","1","+10","[1252.1999998092651]","1","0","1","","","","","","","",""
"pit-trial","33","395137","0.0-2.0-8.2-3.2","battery-v0.2","","""event"",""trial"",""time""
""fullscreenenter"",""1"",""2219""
""blur"",""19"",""262961""
""focus"",""19"",""262968""
""fullscreenexit"",""19"",""262974""
","""event"",""trial"",""time""
""blur"",""19"",""262961""
","""event"",""trial"",""time""
""focus"",""19"",""262968""
","""event"",""trial"",""time""
""fullscreenenter"",""1"",""2219""
","""event"",""trial"",""time""
""fullscreenexit"",""19"",""262974""
","","","393","","","16","5939","2065","&#9776;","elianto","#3366ff99"," "," ","1","0","[1243.8000001907349]","1","0","1","","","","","","","",""
"pit-trial","34","398321","0.0-2.0-8.2-4.2","battery-v0.2","","""event"",""trial"",""time""
""fullscreenenter"",""1"",""2219""
""blur"",""19"",""262961""
""focus"",""19"",""262968""
""fullscreenexit"",""19"",""262974""
","""event"",""trial"",""time""
""blur"",""19"",""262961""
","""event"",""trial"",""time""
""focus"",""19"",""262968""
","""event"",""trial"",""time""
""fullscreenenter"",""1"",""2219""
","""event"",""trial"",""time""
""fullscreenexit"",""19"",""262974""
","","","321.0999994277954","","","16","5939","2065","&#9776;","elianto","#3366ff99"," "," ","1","+10","[1174.6000003814697]","1","0","1","","","","","","","",""
"call-function","35","398322","0.0-2.0-9.0","battery-v0.2","","""event"",""trial"",""time""
""fullscreenenter"",""1"",""2219""
""blur"",""19"",""262961""
""focus"",""19"",""262968""
""fullscreenexit"",""19"",""262974""
","""event"",""trial"",""time""
""blur"",""19"",""262961""
","""event"",""trial"",""time""
""focus"",""19"",""262968""
","""event"",""trial"",""time""
""fullscreenenter"",""1"",""2219""
","""event"",""trial"",""time""
""fullscreenexit"",""19"",""262974""
","","","","","","","","","","","","","","","","","","","","","","","","","","",""
"pit-instructions","36","449117","0.0-2.0-10.0","battery-v0.2","","""event"",""trial"",""time""
""fullscreenenter"",""1"",""2219""
""blur"",""19"",""262961""
""focus"",""19"",""262968""
""fullscreenexit"",""19"",""262974""
","""event"",""trial"",""time""
""blur"",""19"",""262961""
","""event"",""trial"",""time""
""focus"",""19"",""262968""
","""event"",""trial"",""time""
""fullscreenenter"",""1"",""2219""
","""event"",""trial"",""time""
""fullscreenexit"",""19"",""262974""
","","[{""page_index"":0,""viewing_time"":6882.799999237061},{""page_index"":1,""viewing_time"":7005.700000762939},{""page_index"":2,""viewing_time"":13333.599999427795},{""page_index"":3,""viewing_time"":11023.699999809265},{""page_index"":4,""viewing_time"":12547.900000572205}]","50794.099999427795","","","","","","","","","","","","","","","","","","","","","","","",""
"pit-trial","37","452983","0.0-2.0-11.0-0.0","battery-v0.2","","""event"",""trial"",""time""
""fullscreenenter"",""1"",""2219""
""blur"",""19"",""262961""
""focus"",""19"",""262968""
""fullscreenexit"",""19"",""262974""
","""event"",""trial"",""time""
""blur"",""19"",""262961""
","""event"",""trial"",""time""
""focus"",""19"",""262968""
","""event"",""trial"",""time""
""fullscreenenter"",""1"",""2219""
","""event"",""trial"",""time""
""fullscreenexit"",""19"",""262974""
","","","986.4000005722046","","","16","5939","2065","&#9761;","elianto","#3366ff99","-1"," ","0","0","[1843.3000001907349]","1","0","2","","","","","","","",""
"pit-trial","38","456337","0.0-2.0-11.0-1.0","battery-v0.2","","""event"",""trial"",""time""
""fullscreenenter"",""1"",""2219""
""blur"",""19"",""262961""
""focus"",""19"",""262968""
""fullscreenexit"",""19"",""262974""
","""event"",""trial"",""time""
""blur"",""19"",""262961""
","""event"",""trial"",""time""
""focus"",""19"",""262968""
","""event"",""trial"",""time""
""fullscreenenter"",""1"",""2219""
","""event"",""trial"",""time""
""fullscreenexit"",""19"",""262974""
","","","486.9000005722046","","","16","5939","2065","&#9761;","elianto","#3366ff99","-1"," ","0","0","[1344.9000005722046]","1","0","2","","","","","","","",""
"pit-trial","39","459671","0.0-2.0-11.0-2.0","battery-v0.2","","""event"",""trial"",""time""
""fullscreenenter"",""1"",""2219""
""blur"",""19"",""262961""
""focus"",""19"",""262968""
""fullscreenexit"",""19"",""262974""
","""event"",""trial"",""time""
""blur"",""19"",""262961""
","""event"",""trial"",""time""
""focus"",""19"",""262968""
","""event"",""trial"",""time""
""fullscreenenter"",""1"",""2219""
","""event"",""trial"",""time""
""fullscreenexit"",""19"",""262974""
","","","466.9000005722046","","","16","5939","2065","&#9761;","elianto","#3366ff99","-1"," ","0","0","[1320.8000001907349]","1","0","2","","","","","","","",""
"pit-trial","40","464550","0.0-2.0-11.0-3.0","battery-v0.2","","""event"",""trial"",""time""
""fullscreenenter"",""1"",""2219""
""blur"",""19"",""262961""
""focus"",""19"",""262968""
""fullscreenexit"",""19"",""262974""
","""event"",""trial"",""time""
""blur"",""19"",""262961""
","""event"",""trial"",""time""
""focus"",""19"",""262968""
","""event"",""trial"",""time""
""fullscreenenter"",""1"",""2219""
","""event"",""trial"",""time""
""fullscreenexit"",""19"",""262974""
","","","-1","","","16","5939","2065","&#9761;","elianto","#3366ff99","-1","-1","1","0","[]","0","0","2","","","","","","","",""
"pit-trial","41","469430","0.0-2.0-11.0-4.0","battery-v0.2","","""event"",""trial"",""time""
""fullscreenenter"",""1"",""2219""
""blur"",""19"",""262961""
""focus"",""19"",""262968""
""fullscreenexit"",""19"",""262974""
","""event"",""trial"",""time""
""blur"",""19"",""262961""
","""event"",""trial"",""time""
""focus"",""19"",""262968""
","""event"",""trial"",""time""
""fullscreenenter"",""1"",""2219""
","""event"",""trial"",""time""
""fullscreenexit"",""19"",""262974""
","","","-1","","","16","5939","2065","&#9761;","elianto","#3366ff99","-1","-1","1","+10","[]","0","0","2","","","","","","","",""
"pit-trial","42","474305","0.0-2.0-11.1-0.1","battery-v0.2","","""event"",""trial"",""time""
""fullscreenenter"",""1"",""2219""
""blur"",""19"",""262961""
""focus"",""19"",""262968""
""fullscreenexit"",""19"",""262974""
","""event"",""trial"",""time""
""blur"",""19"",""262961""
","""event"",""trial"",""time""
""focus"",""19"",""262968""
","""event"",""trial"",""time""
""fullscreenenter"",""1"",""2219""
","""event"",""trial"",""time""
""fullscreenexit"",""19"",""262974""
","","","-1","","","16","5939","2065","&#9761;","elianto","#3366ff99","-1","-1","1","+10","[]","0","0","2","","","","","","","",""
"pit-trial","43","479169","0.0-2.0-11.1-1.1","battery-v0.2","","""event"",""trial"",""time""
""fullscreenenter"",""1"",""2219""
""blur"",""19"",""262961""
""focus"",""19"",""262968""
""fullscreenexit"",""19"",""262974""
","""event"",""trial"",""time""
""blur"",""19"",""262961""
","""event"",""trial"",""time""
""focus"",""19"",""262968""
","""event"",""trial"",""time""
""fullscreenenter"",""1"",""2219""
","""event"",""trial"",""time""
""fullscreenexit"",""19"",""262974""
","","","-1","","","16","5939","2065","&#9761;","elianto","#3366ff99","-1","-1","1","+10","[]","0","0","2","","","","","","","",""
"pit-trial","44","484033","0.0-2.0-11.1-2.1","battery-v0.2","","""event"",""trial"",""time""
""fullscreenenter"",""1"",""2219""
""blur"",""19"",""262961""
""focus"",""19"",""262968""
""fullscreenexit"",""19"",""262974""
","""event"",""trial"",""time""
""blur"",""19"",""262961""
","""event"",""trial"",""time""
""focus"",""19"",""262968""
","""event"",""trial"",""time""
""fullscreenenter"",""1"",""2219""
","""event"",""trial"",""time""
""fullscreenexit"",""19"",""262974""
","","","-1","","","16","5939","2065","&#9761;","elianto","#3366ff99","-1","-1","1","+10","[]","0","0","2","","","","","","","",""
"pit-trial","45","488897","0.0-2.0-11.1-3.1","battery-v0.2","","""event"",""trial"",""time""
""fullscreenenter"",""1"",""2219""
""blur"",""19"",""262961""
""focus"",""19"",""262968""
""fullscreenexit"",""19"",""262974""
","""event"",""trial"",""time""
""blur"",""19"",""262961""
","""event"",""trial"",""time""
""focus"",""19"",""262968""
","""event"",""trial"",""time""
""fullscreenenter"",""1"",""2219""
","""event"",""trial"",""time""
""fullscreenexit"",""19"",""262974""
","","","-1","","","16","5939","2065","&#9761;","elianto","#3366ff99","-1","-1","1","0","[]","0","0","2","","","","","","","",""
"pit-trial","46","493761","0.0-2.0-11.1-4.1","battery-v0.2","","""event"",""trial"",""time""
""fullscreenenter"",""1"",""2219""
""blur"",""19"",""262961""
""focus"",""19"",""262968""
""fullscreenexit"",""19"",""262974""
","""event"",""trial"",""time""
""blur"",""19"",""262961""
","""event"",""trial"",""time""
""focus"",""19"",""262968""
","""event"",""trial"",""time""
""fullscreenenter"",""1"",""2219""
","""event"",""trial"",""time""
""fullscreenexit"",""19"",""262974""
","","","-1","","","16","5939","2065","&#9761;","elianto","#3366ff99","-1","-1","1","+10","[]","0","0","2","","","","","","","",""
"pit-trial","47","498625","0.0-2.0-11.2-0.2","battery-v0.2","","""event"",""trial"",""time""
""fullscreenenter"",""1"",""2219""
""blur"",""19"",""262961""
""focus"",""19"",""262968""
""fullscreenexit"",""19"",""262974""
","""event"",""trial"",""time""
""blur"",""19"",""262961""
","""event"",""trial"",""time""
""focus"",""19"",""262968""
","""event"",""trial"",""time""
""fullscreenenter"",""1"",""2219""
","""event"",""trial"",""time""
""fullscreenexit"",""19"",""262974""
","","","-1","","","16","5939","2065","&#9761;","elianto","#3366ff99","-1","-1","1","+10","[]","0","0","2","","","","","","","",""
"pit-trial","48","503489","0.0-2.0-11.2-1.2","battery-v0.2","","""event"",""trial"",""time""
""fullscreenenter"",""1"",""2219""
""blur"",""19"",""262961""
""focus"",""19"",""262968""
""fullscreenexit"",""19"",""262974""
","""event"",""trial"",""time""
""blur"",""19"",""262961""
","""event"",""trial"",""time""
""focus"",""19"",""262968""
","""event"",""trial"",""time""
""fullscreenenter"",""1"",""2219""
","""event"",""trial"",""time""
""fullscreenexit"",""19"",""262974""
","","","-1","","","16","5939","2065","&#9761;","elianto","#3366ff99","-1","-1","1","+10","[]","0","0","2","","","","","","","",""
"pit-trial","49","508354","0.0-2.0-11.2-2.2","battery-v0.2","","""event"",""trial"",""time""
""fullscreenenter"",""1"",""2219""
""blur"",""19"",""262961""
""focus"",""19"",""262968""
""fullscreenexit"",""19"",""262974""
","""event"",""trial"",""time""
""blur"",""19"",""262961""
","""event"",""trial"",""time""
""focus"",""19"",""262968""
","""event"",""trial"",""time""
""fullscreenenter"",""1"",""2219""
","""event"",""trial"",""time""
""fullscreenexit"",""19"",""262974""
","","","-1","","","16","5939","2065","&#9761;","elianto","#3366ff99","-1","-1","1","+10","[]","0","0","2","","","","","","","",""
"pit-trial","50","513217","0.0-2.0-11.2-3.2","battery-v0.2","","""event"",""trial"",""time""
""fullscreenenter"",""1"",""2219""
""blur"",""19"",""262961""
""focus"",""19"",""262968""
""fullscreenexit"",""19"",""262974""
","""event"",""trial"",""time""
""blur"",""19"",""262961""
","""event"",""trial"",""time""
""focus"",""19"",""262968""
","""event"",""trial"",""time""
""fullscreenenter"",""1"",""2219""
","""event"",""trial"",""time""
""fullscreenexit"",""19"",""262974""
","","","-1","","","16","5939","2065","&#9761;","elianto","#3366ff99","-1","-1","1","0","[]","0","0","2","","","","","","","",""
"pit-trial","51","518080","0.0-2.0-11.2-4.2","battery-v0.2","","""event"",""trial"",""time""
""fullscreenenter"",""1"",""2219""
""blur"",""19"",""262961""
""focus"",""19"",""262968""
""fullscreenexit"",""19"",""262974""
","""event"",""trial"",""time""
""blur"",""19"",""262961""
","""event"",""trial"",""time""
""focus"",""19"",""262968""
","""event"",""trial"",""time""
""fullscreenenter"",""1"",""2219""
","""event"",""trial"",""time""
""fullscreenexit"",""19"",""262974""
","","","-1","","","16","5939","2065","&#9761;","elianto","#3366ff99","-1","-1","1","+10","[]","0","0","2","","","","","","","",""
"pit-trial","52","522945","0.0-2.0-11.3-0.3","battery-v0.2","","""event"",""trial"",""time""
""fullscreenenter"",""1"",""2219""
""blur"",""19"",""262961""
""focus"",""19"",""262968""
""fullscreenexit"",""19"",""262974""
","""event"",""trial"",""time""
""blur"",""19"",""262961""
","""event"",""trial"",""time""
""focus"",""19"",""262968""
","""event"",""trial"",""time""
""fullscreenenter"",""1"",""2219""
","""event"",""trial"",""time""
""fullscreenexit"",""19"",""262974""
","","","-1","","","16","5939","2065","&#9761;","elianto","#3366ff99","-1","-1","1","+10","[]","0","0","2","","","","","","","",""
"pit-trial","53","527810","0.0-2.0-11.3-1.3","battery-v0.2","","""event"",""trial"",""time""
""fullscreenenter"",""1"",""2219""
""blur"",""19"",""262961""
""focus"",""19"",""262968""
""fullscreenexit"",""19"",""262974""
","""event"",""trial"",""time""
""blur"",""19"",""262961""
","""event"",""trial"",""time""
""focus"",""19"",""262968""
","""event"",""trial"",""time""
""fullscreenenter"",""1"",""2219""
","""event"",""trial"",""time""
""fullscreenexit"",""19"",""262974""
","","","-1","","","16","5939","2065","&#9761;","elianto","#3366ff99","-1","-1","1","+10","[]","0","0","2","","","","","","","",""
"pit-trial","54","532672","0.0-2.0-11.3-2.3","battery-v0.2","","""event"",""trial"",""time""
""fullscreenenter"",""1"",""2219""
""blur"",""19"",""262961""
""focus"",""19"",""262968""
""fullscreenexit"",""19"",""262974""
","""event"",""trial"",""time""
""blur"",""19"",""262961""
","""event"",""trial"",""time""
""focus"",""19"",""262968""
","""event"",""trial"",""time""
""fullscreenenter"",""1"",""2219""
","""event"",""trial"",""time""
""fullscreenexit"",""19"",""262974""
","","","-1","","","16","5939","2065","&#9761;","elianto","#3366ff99","-1","-1","1","+10","[]","0","0","2","","","","","","","",""
"pit-trial","55","537536","0.0-2.0-11.3-3.3","battery-v0.2","","""event"",""trial"",""time""
""fullscreenenter"",""1"",""2219""
""blur"",""19"",""262961""
""focus"",""19"",""262968""
""fullscreenexit"",""19"",""262974""
","""event"",""trial"",""time""
""blur"",""19"",""262961""
","""event"",""trial"",""time""
""focus"",""19"",""262968""
","""event"",""trial"",""time""
""fullscreenenter"",""1"",""2219""
","""event"",""trial"",""time""
""fullscreenexit"",""19"",""262974""
","","","-1","","","16","5939","2065","&#9761;","elianto","#3366ff99","-1","-1","1","0","[]","0","0","2","","","","","","","",""
"pit-trial","56","542400","0.0-2.0-11.3-4.3","battery-v0.2","","""event"",""trial"",""time""
""fullscreenenter"",""1"",""2219""
""blur"",""19"",""262961""
""focus"",""19"",""262968""
""fullscreenexit"",""19"",""262974""
","""event"",""trial"",""time""
""blur"",""19"",""262961""
","""event"",""trial"",""time""
""focus"",""19"",""262968""
","""event"",""trial"",""time""
""fullscreenenter"",""1"",""2219""
","""event"",""trial"",""time""
""fullscreenexit"",""19"",""262974""
","","","-1","","","16","5939","2065","&#9761;","elianto","#3366ff99","-1","-1","1","+10","[]","0","0","2","","","","","","","",""
"call-function","57","542402","0.0-2.0-12.0","battery-v0.2","","""event"",""trial"",""time""
""fullscreenenter"",""1"",""2219""
""blur"",""19"",""262961""
""focus"",""19"",""262968""
""fullscreenexit"",""19"",""262974""
","""event"",""trial"",""time""
""blur"",""19"",""262961""
","""event"",""trial"",""time""
""focus"",""19"",""262968""
","""event"",""trial"",""time""
""fullscreenenter"",""1"",""2219""
","""event"",""trial"",""time""
""fullscreenexit"",""19"",""262974""
","","","","","","","","","","","","","","","","","","","","","","","","","","",""
"pit-instructions","58","575247","0.0-2.0-13.0","battery-v0.2","","""event"",""trial"",""time""
""fullscreenenter"",""1"",""2219""
""blur"",""19"",""262961""
""focus"",""19"",""262968""
""fullscreenexit"",""19"",""262974""
","""event"",""trial"",""time""
""blur"",""19"",""262961""
","""event"",""trial"",""time""
""focus"",""19"",""262968""
","""event"",""trial"",""time""
""fullscreenenter"",""1"",""2219""
","""event"",""trial"",""time""
""fullscreenexit"",""19"",""262974""
","","[{""page_index"":0,""viewing_time"":5799.5},{""page_index"":1,""viewing_time"":7471.099999427795},{""page_index"":2,""viewing_time"":3417.699999809265},{""page_index"":3,""viewing_time"":11162},{""page_index"":4,""viewing_time"":4993.900000572205}]","32844.599999427795","","","","","","","","","","","","","","","","","","","","","","","",""
"pit-trial","59","578900","0.0-2.0-14.0-0.0","battery-v0.2","","""event"",""trial"",""time""
""fullscreenenter"",""1"",""2219""
""blur"",""19"",""262961""
""focus"",""19"",""262968""
""fullscreenexit"",""19"",""262974""
","""event"",""trial"",""time""
""blur"",""19"",""262961""
","""event"",""trial"",""time""
""focus"",""19"",""262968""
","""event"",""trial"",""time""
""fullscreenenter"",""1"",""2219""
","""event"",""trial"",""time""
""fullscreenexit"",""19"",""262974""
","","","788.6000003814697","","","16","5939","2065","&#9826;","elianto","#f73b6a7A","-1"," ","0","-10","[1639.0999994277954]","1","0","3","","","","","","","",""
"pit-trial","60","582683","0.0-2.0-14.0-1.0","battery-v0.2","","""event"",""trial"",""time""
""fullscreenenter"",""1"",""2219""
""blur"",""19"",""262961""
""focus"",""19"",""262968""
""fullscreenexit"",""19"",""262974""
","""event"",""trial"",""time""
""blur"",""19"",""262961""
","""event"",""trial"",""time""
""focus"",""19"",""262968""
","""event"",""trial"",""time""
""fullscreenenter"",""1"",""2219""
","""event"",""trial"",""time""
""fullscreenexit"",""19"",""262974""
","","","918.5","","","16","5939","2065","&#9826;","elianto","#f73b6a7A","-1"," ","0","-10","[1777.1999998092651]","1","0","3","","","","","","","",""
"pit-trial","61","587553","0.0-2.0-14.0-2.0","battery-v0.2","","""event"",""trial"",""time""
""fullscreenenter"",""1"",""2219""
""blur"",""19"",""262961""
""focus"",""19"",""262968""
""fullscreenexit"",""19"",""262974""
","""event"",""trial"",""time""
""blur"",""19"",""262961""
","""event"",""trial"",""time""
""focus"",""19"",""262968""
","""event"",""trial"",""time""
""fullscreenenter"",""1"",""2219""
","""event"",""trial"",""time""
""fullscreenexit"",""19"",""262974""
","","","-1","","","16","5939","2065","&#9826;","elianto","#f73b6a7A","-1","-1","1","0","[]","0","0","3","","","","","","","",""
"pit-trial","62","592433","0.0-2.0-14.0-3.0","battery-v0.2","","""event"",""trial"",""time""
""fullscreenenter"",""1"",""2219""
""blur"",""19"",""262961""
""focus"",""19"",""262968""
""fullscreenexit"",""19"",""262974""
","""event"",""trial"",""time""
""blur"",""19"",""262961""
","""event"",""trial"",""time""
""focus"",""19"",""262968""
","""event"",""trial"",""time""
""fullscreenenter"",""1"",""2219""
","""event"",""trial"",""time""
""fullscreenexit"",""19"",""262974""
","","","-1","","","16","5939","2065","&#9826;","elianto","#f73b6a7A","-1","-1","1","-10","[]","0","0","3","","","","","","","",""
"pit-trial","63","597310","0.0-2.0-14.0-4.0","battery-v0.2","","""event"",""trial"",""time""
""fullscreenenter"",""1"",""2219""
""blur"",""19"",""262961""
""focus"",""19"",""262968""
""fullscreenexit"",""19"",""262974""
","""event"",""trial"",""time""
""blur"",""19"",""262961""
","""event"",""trial"",""time""
""focus"",""19"",""262968""
","""event"",""trial"",""time""
""fullscreenenter"",""1"",""2219""
","""event"",""trial"",""time""
""fullscreenexit"",""19"",""262974""
","","","-1","","","16","5939","2065","&#9826;","elianto","#f73b6a7A","-1","-1","1","0","[]","0","0","3","","","","","","","",""
"pit-trial","64","602181","0.0-2.0-14.1-0.1","battery-v0.2","","""event"",""trial"",""time""
""fullscreenenter"",""1"",""2219""
""blur"",""19"",""262961""
""focus"",""19"",""262968""
""fullscreenexit"",""19"",""262974""
","""event"",""trial"",""time""
""blur"",""19"",""262961""
","""event"",""trial"",""time""
""focus"",""19"",""262968""
","""event"",""trial"",""time""
""fullscreenenter"",""1"",""2219""
","""event"",""trial"",""time""
""fullscreenexit"",""19"",""262974""
","","","-1","","","16","5939","2065","&#9826;","elianto","#f73b6a7A","-1","-1","1","0","[]","0","0","3","","","","","","","",""
"pit-trial","65","607048","0.0-2.0-14.1-1.1","battery-v0.2","","""event"",""trial"",""time""
""fullscreenenter"",""1"",""2219""
""blur"",""19"",""262961""
""focus"",""19"",""262968""
""fullscreenexit"",""19"",""262974""
","""event"",""trial"",""time""
""blur"",""19"",""262961""
","""event"",""trial"",""time""
""focus"",""19"",""262968""
","""event"",""trial"",""time""
""fullscreenenter"",""1"",""2219""
","""event"",""trial"",""time""
""fullscreenexit"",""19"",""262974""
","","","-1","","","16","5939","2065","&#9826;","elianto","#f73b6a7A","-1","-1","1","0","[]","0","0","3","","","","","","","",""
"pit-trial","66","611913","0.0-2.0-14.1-2.1","battery-v0.2","","""event"",""trial"",""time""
""fullscreenenter"",""1"",""2219""
""blur"",""19"",""262961""
""focus"",""19"",""262968""
""fullscreenexit"",""19"",""262974""
","""event"",""trial"",""time""
""blur"",""19"",""262961""
","""event"",""trial"",""time""
""focus"",""19"",""262968""
","""event"",""trial"",""time""
""fullscreenenter"",""1"",""2219""
","""event"",""trial"",""time""
""fullscreenexit"",""19"",""262974""
","","","-1","","","16","5939","2065","&#9826;","elianto","#f73b6a7A","-1","-1","1","0","[]","0","0","3","","","","","","","",""
"pit-trial","67","616778","0.0-2.0-14.1-3.1","battery-v0.2","","""event"",""trial"",""time""
""fullscreenenter"",""1"",""2219""
""blur"",""19"",""262961""
""focus"",""19"",""262968""
""fullscreenexit"",""19"",""262974""
","""event"",""trial"",""time""
""blur"",""19"",""262961""
","""event"",""trial"",""time""
""focus"",""19"",""262968""
","""event"",""trial"",""time""
""fullscreenenter"",""1"",""2219""
","""event"",""trial"",""time""
""fullscreenexit"",""19"",""262974""
","","","-1","","","16","5939","2065","&#9826;","elianto","#f73b6a7A","-1","-1","1","-10","[]","0","0","3","","","","","","","",""
"pit-trial","68","621641","0.0-2.0-14.1-4.1","battery-v0.2","","""event"",""trial"",""time""
""fullscreenenter"",""1"",""2219""
""blur"",""19"",""262961""
""focus"",""19"",""262968""
""fullscreenexit"",""19"",""262974""
","""event"",""trial"",""time""
""blur"",""19"",""262961""
","""event"",""trial"",""time""
""focus"",""19"",""262968""
","""event"",""trial"",""time""
""fullscreenenter"",""1"",""2219""
","""event"",""trial"",""time""
""fullscreenexit"",""19"",""262974""
","","","-1","","","16","5939","2065","&#9826;","elianto","#f73b6a7A","-1","-1","1","0","[]","0","0","3","","","","","","","",""
"pit-trial","69","626506","0.0-2.0-14.2-0.2","battery-v0.2","","""event"",""trial"",""time""
""fullscreenenter"",""1"",""2219""
""blur"",""19"",""262961""
""focus"",""19"",""262968""
""fullscreenexit"",""19"",""262974""
","""event"",""trial"",""time""
""blur"",""19"",""262961""
","""event"",""trial"",""time""
""focus"",""19"",""262968""
","""event"",""trial"",""time""
""fullscreenenter"",""1"",""2219""
","""event"",""trial"",""time""
""fullscreenexit"",""19"",""262974""
","","","-1","","","16","5939","2065","&#9826;","elianto","#f73b6a7A","-1","-1","1","0","[]","0","0","3","","","","","","","",""
"pit-trial","70","631368","0.0-2.0-14.2-1.2","battery-v0.2","","""event"",""trial"",""time""
""fullscreenenter"",""1"",""2219""
""blur"",""19"",""262961""
""focus"",""19"",""262968""
""fullscreenexit"",""19"",""262974""
","""event"",""trial"",""time""
""blur"",""19"",""262961""
","""event"",""trial"",""time""
""focus"",""19"",""262968""
","""event"",""trial"",""time""
""fullscreenenter"",""1"",""2219""
","""event"",""trial"",""time""
""fullscreenexit"",""19"",""262974""
","","","-1","","","16","5939","2065","&#9826;","elianto","#f73b6a7A","-1","-1","1","0","[]","0","0","3","","","","","","","",""
"pit-trial","71","636233","0.0-2.0-14.2-2.2","battery-v0.2","","""event"",""trial"",""time""
""fullscreenenter"",""1"",""2219""
""blur"",""19"",""262961""
""focus"",""19"",""262968""
""fullscreenexit"",""19"",""262974""
","""event"",""trial"",""time""
""blur"",""19"",""262961""
","""event"",""trial"",""time""
""focus"",""19"",""262968""
","""event"",""trial"",""time""
""fullscreenenter"",""1"",""2219""
","""event"",""trial"",""time""
""fullscreenexit"",""19"",""262974""
","","","-1","","","16","5939","2065","&#9826;","elianto","#f73b6a7A","-1","-1","1","0","[]","0","0","3","","","","","","","",""
"pit-trial","72","641096","0.0-2.0-14.2-3.2","battery-v0.2","","""event"",""trial"",""time""
""fullscreenenter"",""1"",""2219""
""blur"",""19"",""262961""
""focus"",""19"",""262968""
""fullscreenexit"",""19"",""262974""
","""event"",""trial"",""time""
""blur"",""19"",""262961""
","""event"",""trial"",""time""
""focus"",""19"",""262968""
","""event"",""trial"",""time""
""fullscreenenter"",""1"",""2219""
","""event"",""trial"",""time""
""fullscreenexit"",""19"",""262974""
","","","-1","","","16","5939","2065","&#9826;","elianto","#f73b6a7A","-1","-1","1","-10","[]","0","0","3","","","","","","","",""
"pit-trial","73","645960","0.0-2.0-14.2-4.2","battery-v0.2","","""event"",""trial"",""time""
""fullscreenenter"",""1"",""2219""
""blur"",""19"",""262961""
""focus"",""19"",""262968""
""fullscreenexit"",""19"",""262974""
","""event"",""trial"",""time""
""blur"",""19"",""262961""
","""event"",""trial"",""time""
""focus"",""19"",""262968""
","""event"",""trial"",""time""
""fullscreenenter"",""1"",""2219""
","""event"",""trial"",""time""
""fullscreenexit"",""19"",""262974""
","","","-1","","","16","5939","2065","&#9826;","elianto","#f73b6a7A","-1","-1","1","0","[]","0","0","3","","","","","","","",""
"pit-trial","74","650825","0.0-2.0-14.3-0.3","battery-v0.2","","""event"",""trial"",""time""
""fullscreenenter"",""1"",""2219""
""blur"",""19"",""262961""
""focus"",""19"",""262968""
""fullscreenexit"",""19"",""262974""
","""event"",""trial"",""time""
""blur"",""19"",""262961""
","""event"",""trial"",""time""
""focus"",""19"",""262968""
","""event"",""trial"",""time""
""fullscreenenter"",""1"",""2219""
","""event"",""trial"",""time""
""fullscreenexit"",""19"",""262974""
","","","-1","","","16","5939","2065","&#9826;","elianto","#f73b6a7A","-1","-1","1","0","[]","0","0","3","","","","","","","",""
"pit-trial","75","655689","0.0-2.0-14.3-1.3","battery-v0.2","","""event"",""trial"",""time""
""fullscreenenter"",""1"",""2219""
""blur"",""19"",""262961""
""focus"",""19"",""262968""
""fullscreenexit"",""19"",""262974""
","""event"",""trial"",""time""
""blur"",""19"",""262961""
","""event"",""trial"",""time""
""focus"",""19"",""262968""
","""event"",""trial"",""time""
""fullscreenenter"",""1"",""2219""
","""event"",""trial"",""time""
""fullscreenexit"",""19"",""262974""
","","","-1","","","16","5939","2065","&#9826;","elianto","#f73b6a7A","-1","-1","1","0","[]","0","0","3","","","","","","","",""
"pit-trial","76","660552","0.0-2.0-14.3-2.3","battery-v0.2","","""event"",""trial"",""time""
""fullscreenenter"",""1"",""2219""
""blur"",""19"",""262961""
""focus"",""19"",""262968""
""fullscreenexit"",""19"",""262974""
","""event"",""trial"",""time""
""blur"",""19"",""262961""
","""event"",""trial"",""time""
""focus"",""19"",""262968""
","""event"",""trial"",""time""
""fullscreenenter"",""1"",""2219""
","""event"",""trial"",""time""
""fullscreenexit"",""19"",""262974""
","","","-1","","","16","5939","2065","&#9826;","elianto","#f73b6a7A","-1","-1","1","0","[]","0","0","3","","","","","","","",""
"pit-trial","77","665416","0.0-2.0-14.3-3.3","battery-v0.2","","""event"",""trial"",""time""
""fullscreenenter"",""1"",""2219""
""blur"",""19"",""262961""
""focus"",""19"",""262968""
""fullscreenexit"",""19"",""262974""
","""event"",""trial"",""time""
""blur"",""19"",""262961""
","""event"",""trial"",""time""
""focus"",""19"",""262968""
","""event"",""trial"",""time""
""fullscreenenter"",""1"",""2219""
","""event"",""trial"",""time""
""fullscreenexit"",""19"",""262974""
","","","-1","","","16","5939","2065","&#9826;","elianto","#f73b6a7A","-1","-1","1","-10","[]","0","0","3","","","","","","","",""
"pit-trial","78","670281","0.0-2.0-14.3-4.3","battery-v0.2","","""event"",""trial"",""time""
""fullscreenenter"",""1"",""2219""
""blur"",""19"",""262961""
""focus"",""19"",""262968""
""fullscreenexit"",""19"",""262974""
","""event"",""trial"",""time""
""blur"",""19"",""262961""
","""event"",""trial"",""time""
""focus"",""19"",""262968""
","""event"",""trial"",""time""
""fullscreenenter"",""1"",""2219""
","""event"",""trial"",""time""
""fullscreenexit"",""19"",""262974""
","","","-1","","","16","5939","2065","&#9826;","elianto","#f73b6a7A","-1","-1","1","0","[]","0","0","3","","","","","","","",""
"call-function","79","670282","0.0-2.0-15.0","battery-v0.2","","""event"",""trial"",""time""
""fullscreenenter"",""1"",""2219""
""blur"",""19"",""262961""
""focus"",""19"",""262968""
""fullscreenexit"",""19"",""262974""
","""event"",""trial"",""time""
""blur"",""19"",""262961""
","""event"",""trial"",""time""
""focus"",""19"",""262968""
","""event"",""trial"",""time""
""fullscreenenter"",""1"",""2219""
","""event"",""trial"",""time""
""fullscreenexit"",""19"",""262974""
","","","","","","","","","","","","","","","","","","","","","","","","","","",""
"pit-instructions","80","696054","0.0-2.0-16.0","battery-v0.2","","""event"",""trial"",""time""
""fullscreenenter"",""1"",""2219""
""blur"",""19"",""262961""
""focus"",""19"",""262968""
""fullscreenexit"",""19"",""262974""
","""event"",""trial"",""time""
""blur"",""19"",""262961""
","""event"",""trial"",""time""
""focus"",""19"",""262968""
","""event"",""trial"",""time""
""fullscreenenter"",""1"",""2219""
","""event"",""trial"",""time""
""fullscreenexit"",""19"",""262974""
","","[{""page_index"":0,""viewing_time"":6460},{""page_index"":1,""viewing_time"":8155.10000038147},{""page_index"":2,""viewing_time"":5509.5},{""page_index"":3,""viewing_time"":5646}]","25771.199999809265","","","","","","","","","","","","","","","","","","","","","","","",""
"pit-trial","81","699441","0.0-2.0-17.0-0.0","battery-v0.2","","""event"",""trial"",""time""
""fullscreenenter"",""1"",""2219""
""blur"",""19"",""262961""
""focus"",""19"",""262968""
""fullscreenexit"",""19"",""262974""
","""event"",""trial"",""time""
""blur"",""19"",""262961""
","""event"",""trial"",""time""
""focus"",""19"",""262968""
","""event"",""trial"",""time""
""fullscreenenter"",""1"",""2219""
","""event"",""trial"",""time""
""fullscreenexit"",""19"",""262974""
","","","514.3000001907349","","","16","5939","2065","&#9789;","elianto","#f73b6a7A"," "," ","1","0","[1370.1999998092651]","1","0","4","","","","","","","",""
"pit-trial","82","702757","0.0-2.0-17.0-1.0","battery-v0.2","","""event"",""trial"",""time""
""fullscreenenter"",""1"",""2219""
""blur"",""19"",""262961""
""focus"",""19"",""262968""
""fullscreenexit"",""19"",""262974""
","""event"",""trial"",""time""
""blur"",""19"",""262961""
","""event"",""trial"",""time""
""focus"",""19"",""262968""
","""event"",""trial"",""time""
""fullscreenenter"",""1"",""2219""
","""event"",""trial"",""time""
""fullscreenexit"",""19"",""262974""
","","","445.9000005722046","","","16","5939","2065","&#9789;","elianto","#f73b6a7A"," "," ","1","0","[1298.3000001907349]","1","0","4","","","","","","","",""
"pit-trial","83","705850","0.0-2.0-17.0-2.0","battery-v0.2","","""event"",""trial"",""time""
""fullscreenenter"",""1"",""2219""
""blur"",""19"",""262961""
""focus"",""19"",""262968""
""fullscreenexit"",""19"",""262974""
","""event"",""trial"",""time""
""blur"",""19"",""262961""
","""event"",""trial"",""time""
""focus"",""19"",""262968""
","""event"",""trial"",""time""
""fullscreenenter"",""1"",""2219""
","""event"",""trial"",""time""
""fullscreenexit"",""19"",""262974""
","","","235","","","16","5939","2065","&#9789;","elianto","#f73b6a7A"," "," ","1","0","[1087.8000001907349]","1","0","4","","","","","","","",""
"pit-trial","84","708957","0.0-2.0-17.0-3.0","battery-v0.2","","""event"",""trial"",""time""
""fullscreenenter"",""1"",""2219""
""blur"",""19"",""262961""
""focus"",""19"",""262968""
""fullscreenexit"",""19"",""262974""
","""event"",""trial"",""time""
""blur"",""19"",""262961""
","""event"",""trial"",""time""
""focus"",""19"",""262968""
","""event"",""trial"",""time""
""fullscreenenter"",""1"",""2219""
","""event"",""trial"",""time""
""fullscreenexit"",""19"",""262974""
","","","231.5","","","16","5939","2065","&#9789;","elianto","#f73b6a7A"," "," ","1","-10","[1091.4000005722046]","1","0","4","","","","","","","",""
"pit-trial","85","712041","0.0-2.0-17.0-4.0","battery-v0.2","","""event"",""trial"",""time""
""fullscreenenter"",""1"",""2219""
""blur"",""19"",""262961""
""focus"",""19"",""262968""
""fullscreenexit"",""19"",""262974""
","""event"",""trial"",""time""
""blur"",""19"",""262961""
","""event"",""trial"",""time""
""focus"",""19"",""262968""
","""event"",""trial"",""time""
""fullscreenenter"",""1"",""2219""
","""event"",""trial"",""time""
""fullscreenexit"",""19"",""262974""
","","","227.79999923706055","","","16","5939","2065","&#9789;","elianto","#f73b6a7A"," "," ","1","0","[1080.2999992370605]","1","0","4","","","","","","","",""
"pit-trial","86","715093","0.0-2.0-17.1-0.1","battery-v0.2","","""event"",""trial"",""time""
""fullscreenenter"",""1"",""2219""
""blur"",""19"",""262961""
""focus"",""19"",""262968""
""fullscreenexit"",""19"",""262974""
","""event"",""trial"",""time""
""blur"",""19"",""262961""
","""event"",""trial"",""time""
""focus"",""19"",""262968""
","""event"",""trial"",""time""
""fullscreenenter"",""1"",""2219""
","""event"",""trial"",""time""
""fullscreenexit"",""19"",""262974""
","","","189.60000038146973","","","16","5939","2065","&#9789;","elianto","#f73b6a7A"," "," ","1","0","[1041.3000001907349]","1","0","4","","","","","","","",""
"pit-trial","87","718389","0.0-2.0-17.1-1.1","battery-v0.2","","""event"",""trial"",""time""
""fullscreenenter"",""1"",""2219""
""blur"",""19"",""262961""
""focus"",""19"",""262968""
""fullscreenexit"",""19"",""262974""
","""event"",""trial"",""time""
""blur"",""19"",""262961""
","""event"",""trial"",""time""
""focus"",""19"",""262968""
","""event"",""trial"",""time""
""fullscreenenter"",""1"",""2219""
","""event"",""trial"",""time""
""fullscreenexit"",""19"",""262974""
","","","428","","","16","5939","2065","&#9789;","elianto","#f73b6a7A"," "," ","1","0","[1278.3000001907349]","1","0","4","","","","","","","",""
"pit-trial","88","721705","0.0-2.0-17.1-2.1","battery-v0.2","","""event"",""trial"",""time""
""fullscreenenter"",""1"",""2219""
""blur"",""19"",""262961""
""focus"",""19"",""262968""
""fullscreenexit"",""19"",""262974""
","""event"",""trial"",""time""
""blur"",""19"",""262961""
","""event"",""trial"",""time""
""focus"",""19"",""262968""
","""event"",""trial"",""time""
""fullscreenenter"",""1"",""2219""
","""event"",""trial"",""time""
""fullscreenexit"",""19"",""262974""
","","","456.30000019073486","","","16","5939","2065","&#9789;","elianto","#f73b6a7A"," "," ","1","0","[1310.8999996185303]","1","0","4","","","","","","","",""
"pit-trial","89","724979","0.0-2.0-17.1-3.1","battery-v0.2","","""event"",""trial"",""time""
""fullscreenenter"",""1"",""2219""
""blur"",""19"",""262961""
""focus"",""19"",""262968""
""fullscreenexit"",""19"",""262974""
","""event"",""trial"",""time""
""blur"",""19"",""262961""
","""event"",""trial"",""time""
""focus"",""19"",""262968""
","""event"",""trial"",""time""
""fullscreenenter"",""1"",""2219""
","""event"",""trial"",""time""
""fullscreenexit"",""19"",""262974""
","","","403.19999980926514","","","16","5939","2065","&#9789;","elianto","#f73b6a7A"," "," ","1","-10","[1257.8000001907349]","1","0","4","","","","","","","",""
"pit-trial","90","728146","0.0-2.0-17.1-4.1","battery-v0.2","","""event"",""trial"",""time""
""fullscreenenter"",""1"",""2219""
""blur"",""19"",""262961""
""focus"",""19"",""262968""
""fullscreenexit"",""19"",""262974""
","""event"",""trial"",""time""
""blur"",""19"",""262961""
","""event"",""trial"",""time""
""focus"",""19"",""262968""
","""event"",""trial"",""time""
""fullscreenenter"",""1"",""2219""
","""event"",""trial"",""time""
""fullscreenexit"",""19"",""262974""
","","","311.5999994277954","","","16","5939","2065","&#9789;","elianto","#f73b6a7A"," "," ","1","0","[1162.5]","1","0","4","","","","","","","",""
"pit-trial","91","731450","0.0-2.0-17.2-0.2","battery-v0.2","","""event"",""trial"",""time""
""fullscreenenter"",""1"",""2219""
""blur"",""19"",""262961""
""focus"",""19"",""262968""
""fullscreenexit"",""19"",""262974""
","""event"",""trial"",""time""
""blur"",""19"",""262961""
","""event"",""trial"",""time""
""focus"",""19"",""262968""
","""event"",""trial"",""time""
""fullscreenenter"",""1"",""2219""
","""event"",""trial"",""time""
""fullscreenexit"",""19"",""262974""
","","","449.5999994277954","","","16","5939","2065","&#9789;","elianto","#f73b6a7A"," "," ","1","0","[1300.1000003814697]","1","0","4","","","","","","","",""
"pit-trial","92","734729","0.0-2.0-17.2-1.2","battery-v0.2","","""event"",""trial"",""time""
""fullscreenenter"",""1"",""2219""
""blur"",""19"",""262961""
""focus"",""19"",""262968""
""fullscreenexit"",""19"",""262974""
","""event"",""trial"",""time""
""blur"",""19"",""262961""
","""event"",""trial"",""time""
""focus"",""19"",""262968""
","""event"",""trial"",""time""
""fullscreenenter"",""1"",""2219""
","""event"",""trial"",""time""
""fullscreenexit"",""19"",""262974""
","","","421.3999996185303","","","16","5939","2065","&#9789;","elianto","#f73b6a7A"," "," ","1","0","[1274.5]","1","0","4","","","","","","","",""
"pit-trial","93","737937","0.0-2.0-17.2-2.2","battery-v0.2","","""event"",""trial"",""time""
""fullscreenenter"",""1"",""2219""
""blur"",""19"",""262961""
""focus"",""19"",""262968""
""fullscreenexit"",""19"",""262974""
","""event"",""trial"",""time""
""blur"",""19"",""262961""
","""event"",""trial"",""time""
""focus"",""19"",""262968""
","""event"",""trial"",""time""
""fullscreenenter"",""1"",""2219""
","""event"",""trial"",""time""
""fullscreenexit"",""19"",""262974""
","","","336.80000019073486","","","16","5939","2065","&#9789;","elianto","#f73b6a7A"," "," ","1","0","[1200.1000003814697]","1","0","4","","","","","","","",""
"pit-trial","94","741008","0.0-2.0-17.2-3.2","battery-v0.2","","""event"",""trial"",""time""
""fullscreenenter"",""1"",""2219""
""blur"",""19"",""262961""
""focus"",""19"",""262968""
""fullscreenexit"",""19"",""262974""
","""event"",""trial"",""time""
""blur"",""19"",""262961""
","""event"",""trial"",""time""
""focus"",""19"",""262968""
","""event"",""trial"",""time""
""fullscreenenter"",""1"",""2219""
","""event"",""trial"",""time""
""fullscreenexit"",""19"",""262974""
","","","212.10000038146973","","","16","5939","2065","&#9789;","elianto","#f73b6a7A"," "," ","1","-10","[1066.5,1327.1999998092651]","2","0","4","","","","","","","",""
"pit-trial","95","744313","0.0-2.0-17.2-4.2","battery-v0.2","","""event"",""trial"",""time""
""fullscreenenter"",""1"",""2219""
""blur"",""19"",""262961""
""focus"",""19"",""262968""
""fullscreenexit"",""19"",""262974""
","""event"",""trial"",""time""
""blur"",""19"",""262961""
","""event"",""trial"",""time""
""focus"",""19"",""262968""
","""event"",""trial"",""time""
""fullscreenenter"",""1"",""2219""
","""event"",""trial"",""time""
""fullscreenexit"",""19"",""262974""
","","","447.80000019073486","","","16","5939","2065","&#9789;","elianto","#f73b6a7A"," "," ","1","0","[1299]","1","0","4","","","","","","","",""
"pit-trial","96","747632","0.0-2.0-17.3-0.3","battery-v0.2","","""event"",""trial"",""time""
""fullscreenenter"",""1"",""2219""
""blur"",""19"",""262961""
""focus"",""19"",""262968""
""fullscreenexit"",""19"",""262974""
","""event"",""trial"",""time""
""blur"",""19"",""262961""
","""event"",""trial"",""time""
""focus"",""19"",""262968""
","""event"",""trial"",""time""
""fullscreenenter"",""1"",""2219""
","""event"",""trial"",""time""
""fullscreenexit"",""19"",""262974""
","","","461.69999980926514","","","16","5939","2065","&#9789;","elianto","#f73b6a7A"," "," ","1","0","[1315.1999998092651]","1","0","4","","","","","","","",""
"pit-trial","97","750912","0.0-2.0-17.3-1.3","battery-v0.2","","""event"",""trial"",""time""
""fullscreenenter"",""1"",""2219""
""blur"",""19"",""262961""
""focus"",""19"",""262968""
""fullscreenexit"",""19"",""262974""
","""event"",""trial"",""time""
""blur"",""19"",""262961""
","""event"",""trial"",""time""
""focus"",""19"",""262968""
","""event"",""trial"",""time""
""fullscreenenter"",""1"",""2219""
","""event"",""trial"",""time""
""fullscreenexit"",""19"",""262974""
","","","415.5","","","16","5939","2065","&#9789;","elianto","#f73b6a7A"," "," ","1","0","[1270.5]","1","0","4","","","","","","","",""
"pit-trial","98","754104","0.0-2.0-17.3-2.3","battery-v0.2","","""event"",""trial"",""time""
""fullscreenenter"",""1"",""2219""
""blur"",""19"",""262961""
""focus"",""19"",""262968""
""fullscreenexit"",""19"",""262974""
","""event"",""trial"",""time""
""blur"",""19"",""262961""
","""event"",""trial"",""time""
""focus"",""19"",""262968""
","""event"",""trial"",""time""
""fullscreenenter"",""1"",""2219""
","""event"",""trial"",""time""
""fullscreenexit"",""19"",""262974""
","","","332.80000019073486","","","16","5939","2065","&#9789;","elianto","#f73b6a7A"," "," ","1","0","[1186.6999998092651]","1","0","4","","","","","","","",""
"pit-trial","99","757417","0.0-2.0-17.3-3.3","battery-v0.2","","""event"",""trial"",""time""
""fullscreenenter"",""1"",""2219""
""blur"",""19"",""262961""
""focus"",""19"",""262968""
""fullscreenexit"",""19"",""262974""
","""event"",""trial"",""time""
""blur"",""19"",""262961""
","""event"",""trial"",""time""
""focus"",""19"",""262968""
","""event"",""trial"",""time""
""fullscreenenter"",""1"",""2219""
","""event"",""trial"",""time""
""fullscreenexit"",""19"",""262974""
","","","448.30000019073486","","","16","5939","2065","&#9789;","elianto","#f73b6a7A"," "," ","1","-10","[1302.8000001907349]","1","0","4","","","","","","","",""
"pit-trial","100","760672","0.0-2.0-17.3-4.3","battery-v0.2","","""event"",""trial"",""time""
""fullscreenenter"",""1"",""2219""
""blur"",""19"",""262961""
""focus"",""19"",""262968""
""fullscreenexit"",""19"",""262974""
","""event"",""trial"",""time""
""blur"",""19"",""262961""
","""event"",""trial"",""time""
""focus"",""19"",""262968""
","""event"",""trial"",""time""
""fullscreenenter"",""1"",""2219""
","""event"",""trial"",""time""
""fullscreenexit"",""19"",""262974""
","","","397.0999994277954","","","16","5939","2065","&#9789;","elianto","#f73b6a7A"," "," ","1","0","[1252.1000003814697]","1","0","4","","","","","","","",""
"call-function","101","760673","0.0-2.0-18.0","battery-v0.2","","""event"",""trial"",""time""
""fullscreenenter"",""1"",""2219""
""blur"",""19"",""262961""
""focus"",""19"",""262968""
""fullscreenexit"",""19"",""262974""
","""event"",""trial"",""time""
""blur"",""19"",""262961""
","""event"",""trial"",""time""
""focus"",""19"",""262968""
","""event"",""trial"",""time""
""fullscreenenter"",""1"",""2219""
","""event"",""trial"",""time""
""fullscreenexit"",""19"",""262974""
","","","","","","","","","","","","","","","","","","","","","","","","","","",""
"pit-instructions","102","831957","0.0-2.0-19.0","battery-v0.2","","""event"",""trial"",""time""
""fullscreenenter"",""1"",""2219""
""blur"",""19"",""262961""
""focus"",""19"",""262968""
""fullscreenexit"",""19"",""262974""
","""event"",""trial"",""time""
""blur"",""19"",""262961""
","""event"",""trial"",""time""
""focus"",""19"",""262968""
","""event"",""trial"",""time""
""fullscreenenter"",""1"",""2219""
","""event"",""trial"",""time""
""fullscreenexit"",""19"",""262974""
","","[{""page_index"":0,""viewing_time"":6465.39999961853},{""page_index"":1,""viewing_time"":6448.800000190735},{""page_index"":2,""viewing_time"":13804.099999427795},{""page_index"":3,""viewing_time"":8247},{""page_index"":4,""viewing_time"":9162.900000572205},{""page_index"":5,""viewing_time"":8845.699999809265},{""page_index"":6,""viewing_time"":7762.5},{""page_index"":7,""viewing_time"":6437.89999961853},{""page_index"":8,""viewing_time"":4108}]","71282.69999980927","","","","","","","","","","","","","","","","","","","","","","","",""
"pit-comprehension","103","836589","0.0-2.0-20.0-0.0","battery-v0.2","","""event"",""trial"",""time""
""fullscreenenter"",""1"",""2219""
""blur"",""19"",""262961""
""focus"",""19"",""262968""
""fullscreenexit"",""19"",""262974""
","""event"",""trial"",""time""
""blur"",""19"",""262961""
","""event"",""trial"",""time""
""focus"",""19"",""262968""
","""event"",""trial"",""time""
""fullscreenenter"",""1"",""2219""
","""event"",""trial"",""time""
""fullscreenexit"",""19"",""262974""
","","","4627.900000572205","[""SPACE""]","0","16","5939","2065","","","","","","","","","","","","","","","","","","",""
"pit-instructions","104","839795","0.0-2.0-20.0-1.0","battery-v0.2","","""event"",""trial"",""time""
""fullscreenenter"",""1"",""2219""
""blur"",""19"",""262961""
""focus"",""19"",""262968""
""fullscreenexit"",""19"",""262974""
","""event"",""trial"",""time""
""blur"",""19"",""262961""
","""event"",""trial"",""time""
""focus"",""19"",""262968""
","""event"",""trial"",""time""
""fullscreenenter"",""1"",""2219""
","""event"",""trial"",""time""
""fullscreenexit"",""19"",""262974""
","","[{""page_index"":0,""viewing_time"":3135.300000190735}]","3135.9000005722046","","","","","","","","","","","","","","","","","","","","","","","",""
"pit-comprehension","105","846793","0.0-2.0-21.0-0.0","battery-v0.2","","""event"",""trial"",""time""
""fullscreenenter"",""1"",""2219""
""blur"",""19"",""262961""
""focus"",""19"",""262968""
""fullscreenexit"",""19"",""262974""
","""event"",""trial"",""time""
""blur"",""19"",""262961""
","""event"",""trial"",""time""
""focus"",""19"",""262968""
","""event"",""trial"",""time""
""fullscreenenter"",""1"",""2219""
","""event"",""trial"",""time""
""fullscreenexit"",""19"",""262974""
","","","6994","[""10""]","0","16","5939","2065","","","","","","","","","","","","","","","","","","",""
"pit-instructions","106","848701","0.0-2.0-21.0-1.0","battery-v0.2","","""event"",""trial"",""time""
""fullscreenenter"",""1"",""2219""
""blur"",""19"",""262961""
""focus"",""19"",""262968""
""fullscreenexit"",""19"",""262974""
","""event"",""trial"",""time""
""blur"",""19"",""262961""
","""event"",""trial"",""time""
""focus"",""19"",""262968""
","""event"",""trial"",""time""
""fullscreenenter"",""1"",""2219""
","""event"",""trial"",""time""
""fullscreenexit"",""19"",""262974""
","","[{""page_index"":0,""viewing_time"":1854.5}]","1855","","","","","","","","","","","","","","","","","","","","","","","",""
"pit-comprehension","107","855624","0.0-2.0-22.0-0.0","battery-v0.2","","""event"",""trial"",""time""
""fullscreenenter"",""1"",""2219""
""blur"",""19"",""262961""
""focus"",""19"",""262968""
""fullscreenexit"",""19"",""262974""
","""event"",""trial"",""time""
""blur"",""19"",""262961""
","""event"",""trial"",""time""
""focus"",""19"",""262968""
","""event"",""trial"",""time""
""fullscreenenter"",""1"",""2219""
","""event"",""trial"",""time""
""fullscreenexit"",""19"",""262974""
","","","6919.800000190735","[""0""]","0","16","5939","2065","","","","","","","","","","","","","","","","","","",""
"pit-instructions","108","857170","0.0-2.0-22.0-1.0","battery-v0.2","","""event"",""trial"",""time""
""fullscreenenter"",""1"",""2219""
""blur"",""19"",""262961""
""focus"",""19"",""262968""
""fullscreenexit"",""19"",""262974""
","""event"",""trial"",""time""
""blur"",""19"",""262961""
","""event"",""trial"",""time""
""focus"",""19"",""262968""
","""event"",""trial"",""time""
""fullscreenenter"",""1"",""2219""
","""event"",""trial"",""time""
""fullscreenexit"",""19"",""262974""
","","[{""page_index"":0,""viewing_time"":1496.0999994277954}]","1496.5","","","","","","","","","","","","","","","","","","","","","","","",""
"pit-comprehension","109","865859","0.0-2.0-23.0-0.0","battery-v0.2","","""event"",""trial"",""time""
""fullscreenenter"",""1"",""2219""
""blur"",""19"",""262961""
""focus"",""19"",""262968""
""fullscreenexit"",""19"",""262974""
","""event"",""trial"",""time""
""blur"",""19"",""262961""
","""event"",""trial"",""time""
""focus"",""19"",""262968""
","""event"",""trial"",""time""
""fullscreenenter"",""1"",""2219""
","""event"",""trial"",""time""
""fullscreenexit"",""19"",""262974""
","","","8685.70000076294","[""True""]","0","16","5939","2065","","","","","","","","","","","","","","","","","","",""
"pit-instructions","110","867660","0.0-2.0-23.0-1.0","battery-v0.2","","""event"",""trial"",""time""
""fullscreenenter"",""1"",""2219""
""blur"",""19"",""262961""
""focus"",""19"",""262968""
""fullscreenexit"",""19"",""262974""
","""event"",""trial"",""time""
""blur"",""19"",""262961""
","""event"",""trial"",""time""
""focus"",""19"",""262968""
","""event"",""trial"",""time""
""fullscreenenter"",""1"",""2219""
","""event"",""trial"",""time""
""fullscreenexit"",""19"",""262974""
","","[{""page_index"":0,""viewing_time"":1746.6999998092651}]","1746.8999996185303","","","","","","","","","","","","","","","","","","","","","","","",""
"pit-comprehension","111","875767","0.0-2.0-24.0-0.0","battery-v0.2","","""event"",""trial"",""time""
""fullscreenenter"",""1"",""2219""
""blur"",""19"",""262961""
""focus"",""19"",""262968""
""fullscreenexit"",""19"",""262974""
","""event"",""trial"",""time""
""blur"",""19"",""262961""
","""event"",""trial"",""time""
""focus"",""19"",""262968""
","""event"",""trial"",""time""
""fullscreenenter"",""1"",""2219""
","""event"",""trial"",""time""
""fullscreenexit"",""19"",""262974""
","","","8104.10000038147","[""True""]","0","16","5939","2065","","","","","","","","","","","","","","","","","","",""
"pit-instructions","112","877722","0.0-2.0-24.0-1.0","battery-v0.2","","""event"",""trial"",""time""
""fullscreenenter"",""1"",""2219""
""blur"",""19"",""262961""
""focus"",""19"",""262968""
""fullscreenexit"",""19"",""262974""
","""event"",""trial"",""time""
""blur"",""19"",""262961""
","""event"",""trial"",""time""
""focus"",""19"",""262968""
","""event"",""trial"",""time""
""fullscreenenter"",""1"",""2219""
","""event"",""trial"",""time""
""fullscreenexit"",""19"",""262974""
","","[{""page_index"":0,""viewing_time"":1889.1000003814697}]","1889.4000005722046","","","","","","","","","","","","","","","","","","","","","","","",""
"pit-comprehension","113","884454","0.0-2.0-25.0-0.0","battery-v0.2","","""event"",""trial"",""time""
""fullscreenenter"",""1"",""2219""
""blur"",""19"",""262961""
""focus"",""19"",""262968""
""fullscreenexit"",""19"",""262974""
","""event"",""trial"",""time""
""blur"",""19"",""262961""
","""event"",""trial"",""time""
""focus"",""19"",""262968""
","""event"",""trial"",""time""
""fullscreenenter"",""1"",""2219""
","""event"",""trial"",""time""
""fullscreenexit"",""19"",""262974""
","","","6728.800000190735","[""True""]","0","16","5939","2065","","","","","","","","","","","","","","","","","","",""
"pit-instructions","114","886021","0.0-2.0-25.0-1.0","battery-v0.2","","""event"",""trial"",""time""
""fullscreenenter"",""1"",""2219""
""blur"",""19"",""262961""
""focus"",""19"",""262968""
""fullscreenexit"",""19"",""262974""
","""event"",""trial"",""time""
""blur"",""19"",""262961""
","""event"",""trial"",""time""
""focus"",""19"",""262968""
","""event"",""trial"",""time""
""fullscreenenter"",""1"",""2219""
","""event"",""trial"",""time""
""fullscreenexit"",""19"",""262974""
","","[{""page_index"":0,""viewing_time"":1511.7999992370605}]","1512","","","","","","","","","","","","","","","","","","","","","","","",""
"pit-comprehension","115","890844","0.0-2.0-26.0-0.0","battery-v0.2","","""event"",""trial"",""time""
""fullscreenenter"",""1"",""2219""
""blur"",""19"",""262961""
""focus"",""19"",""262968""
""fullscreenexit"",""19"",""262974""
","""event"",""trial"",""time""
""blur"",""19"",""262961""
","""event"",""trial"",""time""
""focus"",""19"",""262968""
","""event"",""trial"",""time""
""fullscreenenter"",""1"",""2219""
","""event"",""trial"",""time""
""fullscreenexit"",""19"",""262974""
","","","4819.800000190735","[""False""]","0","16","5939","2065","","","","","","","","","","","","","","","","","","",""
"pit-instructions","116","892552","0.0-2.0-26.0-1.0","battery-v0.2","","""event"",""trial"",""time""
""fullscreenenter"",""1"",""2219""
""blur"",""19"",""262961""
""focus"",""19"",""262968""
""fullscreenexit"",""19"",""262974""
","""event"",""trial"",""time""
""blur"",""19"",""262961""
","""event"",""trial"",""time""
""focus"",""19"",""262968""
","""event"",""trial"",""time""
""fullscreenenter"",""1"",""2219""
","""event"",""trial"",""time""
""fullscreenexit"",""19"",""262974""
","","[{""page_index"":0,""viewing_time"":1656.5999994277954}]","1656.8999996185303","","","","","","","","","","","","","","","","","","","","","","","",""
"pit-instructions","117","911833","0.0-3.0","battery-v0.2","","""event"",""trial"",""time""
""fullscreenenter"",""1"",""2219""
""blur"",""19"",""262961""
""focus"",""19"",""262968""
""fullscreenexit"",""19"",""262974""
","""event"",""trial"",""time""
""blur"",""19"",""262961""
","""event"",""trial"",""time""
""focus"",""19"",""262968""
","""event"",""trial"",""time""
""fullscreenenter"",""1"",""2219""
","""event"",""trial"",""time""
""fullscreenexit"",""19"",""262974""
","","[{""page_index"":0,""viewing_time"":4987},{""page_index"":1,""viewing_time"":6469.099999427795},{""page_index"":2,""viewing_time"":7823.200000762939}]","19279.699999809265","","","","","","","","","","","","","","","","","","","","","","","",""
"pit-trial","118","915400","0.0-4.0","battery-v0.2","","""event"",""trial"",""time""
""fullscreenenter"",""1"",""2219""
""blur"",""19"",""262961""
""focus"",""19"",""262968""
""fullscreenexit"",""19"",""262974""
","""event"",""trial"",""time""
""blur"",""19"",""262961""
","""event"",""trial"",""time""
""focus"",""19"",""262968""
","""event"",""trial"",""time""
""fullscreenenter"",""1"",""2219""
","""event"",""trial"",""time""
""fullscreenexit"",""19"",""262974""
","","","696.6999998092651","","","16","5939","2065","&#9730;","elianto","#3366ff99"," "," ","1","0","[1548.4000005722046]","1","1","","","5939","1","1","1","win","go","1"
"pit-trial","119","918947","0.0-5.0","battery-v0.2","","""event"",""trial"",""time""
""fullscreenenter"",""1"",""2219""
""blur"",""19"",""262961""
""focus"",""19"",""262968""
""fullscreenexit"",""19"",""262974""
","""event"",""trial"",""time""
""blur"",""19"",""262961""
","""event"",""trial"",""time""
""focus"",""19"",""262968""
","""event"",""trial"",""time""
""fullscreenenter"",""1"",""2219""
","""event"",""trial"",""time""
""fullscreenexit"",""19"",""262974""
","","","670.6000003814697","","","16","5939","2065","&#9733;","elianto","#3366ff99","-1"," ","0","0","[1531.1000003814697]","1","1","","","5939","2","2","2","win","no-go","0"
"pit-trial","120","922691","0.0-6.0","battery-v0.2","","""event"",""trial"",""time""
""fullscreenenter"",""1"",""2219""
""blur"",""19"",""262961""
""focus"",""19"",""262968""
""fullscreenexit"",""19"",""262974""
","""event"",""trial"",""time""
""blur"",""19"",""262961""
","""event"",""trial"",""time""
""focus"",""19"",""262968""
","""event"",""trial"",""time""
""fullscreenenter"",""1"",""2219""
","""event"",""trial"",""time""
""fullscreenexit"",""19"",""262974""
","","","867.6999998092651","","","16","5939","2065","&#9752;","elianto","#f73b6a7A"," "," ","1","0","[1731.9000005722046]","1","1","","","5939","3","3","3","lose","go","0"
"pit-trial","121","926265","0.0-7.0","battery-v0.2","","""event"",""trial"",""time""
""fullscreenenter"",""1"",""2219""
""blur"",""19"",""262961""
""focus"",""19"",""262968""
""fullscreenexit"",""19"",""262974""
","""event"",""trial"",""time""
""blur"",""19"",""262961""
","""event"",""trial"",""time""
""focus"",""19"",""262968""
","""event"",""trial"",""time""
""fullscreenenter"",""1"",""2219""
","""event"",""trial"",""time""
""fullscreenexit"",""19"",""262974""
","","","713.3000001907349","","","16","5939","2065","&#9728;","elianto","#f73b6a7A","-1"," ","0","-10","[1566.3000001907349]","1","1","","","5939","4","0","4","lose","no-go","0"
"pit-trial","122","929716","0.0-8.0","battery-v0.2","","""event"",""trial"",""time""
""fullscreenenter"",""1"",""2219""
""blur"",""19"",""262961""
""focus"",""19"",""262968""
""fullscreenexit"",""19"",""262974""
","""event"",""trial"",""time""
""blur"",""19"",""262961""
","""event"",""trial"",""time""
""focus"",""19"",""262968""
","""event"",""trial"",""time""
""fullscreenenter"",""1"",""2219""
","""event"",""trial"",""time""
""fullscreenexit"",""19"",""262974""
","","","588.1999998092651","","","16","5939","2065","&#9733;","elianto","#3366ff99","-1"," ","0","0","[1442.5]","1","1","","","5939","5","2","2","win","no-go","0"
"pit-trial","123","933320","0.0-9.0","battery-v0.2","","""event"",""trial"",""time""
""fullscreenenter"",""1"",""2219""
""blur"",""19"",""262961""
""focus"",""19"",""262968""
""fullscreenexit"",""19"",""262974""
","""event"",""trial"",""time""
""blur"",""19"",""262961""
","""event"",""trial"",""time""
""focus"",""19"",""262968""
","""event"",""trial"",""time""
""fullscreenenter"",""1"",""2219""
","""event"",""trial"",""time""
""fullscreenexit"",""19"",""262974""
","","","727.3000001907349","","","16","5939","2065","&#9752;","elianto","#f73b6a7A"," "," ","1","0","[1589.5]","1","1","","","5939","6","3","3","lose","go","0"
"pit-trial","124","936801","0.0-10.0","battery-v0.2","","""event"",""trial"",""time""
""fullscreenenter"",""1"",""2219""
""blur"",""19"",""262961""
""focus"",""19"",""262968""
""fullscreenexit"",""19"",""262974""
","""event"",""trial"",""time""
""blur"",""19"",""262961""
","""event"",""trial"",""time""
""focus"",""19"",""262968""
","""event"",""trial"",""time""
""fullscreenenter"",""1"",""2219""
","""event"",""trial"",""time""
""fullscreenexit"",""19"",""262974""
","","","617.5","","","16","5939","2065","&#9730;","elianto","#3366ff99"," "," ","1","+10","[1475.0999994277954]","1","1","","","5939","7","1","1","win","go","0"
"pit-trial","125","941666","0.0-11.0","battery-v0.2","","""event"",""trial"",""time""
""fullscreenenter"",""1"",""2219""
""blur"",""19"",""262961""
""focus"",""19"",""262968""
""fullscreenexit"",""19"",""262974""
","""event"",""trial"",""time""
""blur"",""19"",""262961""
","""event"",""trial"",""time""
""focus"",""19"",""262968""
","""event"",""trial"",""time""
""fullscreenenter"",""1"",""2219""
","""event"",""trial"",""time""
""fullscreenexit"",""19"",""262974""
","","","-1","","","16","5939","2065","&#9728;","elianto","#f73b6a7A","-1","-1","1","0","[]","0","1","","","5939","8","0","4","lose","no-go","0"
"pit-trial","126","945272","0.0-12.0","battery-v0.2","","""event"",""trial"",""time""
""fullscreenenter"",""1"",""2219""
""blur"",""19"",""262961""
""focus"",""19"",""262968""
""fullscreenexit"",""19"",""262974""
","""event"",""trial"",""time""
""blur"",""19"",""262961""
","""event"",""trial"",""time""
""focus"",""19"",""262968""
","""event"",""trial"",""time""
""fullscreenenter"",""1"",""2219""
","""event"",""trial"",""time""
""fullscreenexit"",""19"",""262974""
","","","741.5","","","16","5939","2065","&#9733;","elianto","#3366ff99","-1"," ","0","+10","[1598.3000001907349]","1","1","","","5939","9","2","2","win","no-go","1"
"pit-trial","127","949088","0.0-13.0","battery-v0.2","","""event"",""trial"",""time""
""fullscreenenter"",""1"",""2219""
""blur"",""19"",""262961""
""focus"",""19"",""262968""
""fullscreenexit"",""19"",""262974""
","""event"",""trial"",""time""
""blur"",""19"",""262961""
","""event"",""trial"",""time""
""focus"",""19"",""262968""
","""event"",""trial"",""time""
""fullscreenenter"",""1"",""2219""
","""event"",""trial"",""time""
""fullscreenexit"",""19"",""262974""
","","","951.9000005722046","","","16","5939","2065","&#9752;","elianto","#f73b6a7A"," "," ","1","0","[1805.1000003814697]","1","1","","","5939","10","3","3","lose","go","0"
"pit-trial","128","953952","0.0-14.0","battery-v0.2","","""event"",""trial"",""time""
""fullscreenenter"",""1"",""2219""
""blur"",""19"",""262961""
""focus"",""19"",""262968""
""fullscreenexit"",""19"",""262974""
","""event"",""trial"",""time""
""blur"",""19"",""262961""
","""event"",""trial"",""time""
""focus"",""19"",""262968""
","""event"",""trial"",""time""
""fullscreenenter"",""1"",""2219""
","""event"",""trial"",""time""
""fullscreenexit"",""19"",""262974""
","","","-1","","","16","5939","2065","&#9730;","elianto","#3366ff99"," ","-1","0","0","[]","0","1","","","5939","11","1","1","win","go","0"
"pit-trial","129","958817","0.0-15.0","battery-v0.2","","""event"",""trial"",""time""
""fullscreenenter"",""1"",""2219""
""blur"",""19"",""262961""
""focus"",""19"",""262968""
""fullscreenexit"",""19"",""262974""
","""event"",""trial"",""time""
""blur"",""19"",""262961""
","""event"",""trial"",""time""
""focus"",""19"",""262968""
","""event"",""trial"",""time""
""fullscreenenter"",""1"",""2219""
","""event"",""trial"",""time""
""fullscreenexit"",""19"",""262974""
","","","-1","","","16","5939","2065","&#9728;","elianto","#f73b6a7A","-1","-1","1","0","[]","0","1","","","5939","12","0","4","lose","no-go","0"
"pit-trial","130","962441","0.0-16.0","battery-v0.2","","""event"",""trial"",""time""
""fullscreenenter"",""1"",""2219""
""blur"",""19"",""262961""
""focus"",""19"",""262968""
""fullscreenexit"",""19"",""262974""
","""event"",""trial"",""time""
""blur"",""19"",""262961""
","""event"",""trial"",""time""
""focus"",""19"",""262968""
","""event"",""trial"",""time""
""fullscreenenter"",""1"",""2219""
","""event"",""trial"",""time""
""fullscreenexit"",""19"",""262974""
","","","764.3999996185303","","","16","5939","2065","&#9733;","elianto","#3366ff99","-1"," ","0","0","[1618]","1","1","","","5939","13","2","2","win","no-go","0"
"pit-trial","131","966049","0.0-17.0","battery-v0.2","","""event"",""trial"",""time""
""fullscreenenter"",""1"",""2219""
""blur"",""19"",""262961""
""focus"",""19"",""262968""
""fullscreenexit"",""19"",""262974""
","""event"",""trial"",""time""
""blur"",""19"",""262961""
","""event"",""trial"",""time""
""focus"",""19"",""262968""
","""event"",""trial"",""time""
""fullscreenenter"",""1"",""2219""
","""event"",""trial"",""time""
""fullscreenexit"",""19"",""262974""
","","","743.3999996185303","","","16","5939","2065","&#9730;","elianto","#3366ff99"," "," ","1","+10","[1596.9000005722046]","1","1","","","5939","14","1","1","win","go","0"
"pit-trial","132","969600","0.0-18.0","battery-v0.2","","""event"",""trial"",""time""
""fullscreenenter"",""1"",""2219""
""blur"",""19"",""262961""
""focus"",""19"",""262968""
""fullscreenexit"",""19"",""262974""
","""event"",""trial"",""time""
""blur"",""19"",""262961""
","""event"",""trial"",""time""
""focus"",""19"",""262968""
","""event"",""trial"",""time""
""fullscreenenter"",""1"",""2219""
","""event"",""trial"",""time""
""fullscreenexit"",""19"",""262974""
","","","691.6000003814697","","","16","5939","2065","&#9752;","elianto","#f73b6a7A"," "," ","1","0","[1545.3999996185303]","1","1","","","5939","15","3","3","lose","go","0"
"pit-trial","133","974465","0.0-19.0","battery-v0.2","","""event"",""trial"",""time""
""fullscreenenter"",""1"",""2219""
""blur"",""19"",""262961""
""focus"",""19"",""262968""
""fullscreenexit"",""19"",""262974""
","""event"",""trial"",""time""
""blur"",""19"",""262961""
","""event"",""trial"",""time""
""focus"",""19"",""262968""
","""event"",""trial"",""time""
""fullscreenenter"",""1"",""2219""
","""event"",""trial"",""time""
""fullscreenexit"",""19"",""262974""
","","","-1","","","16","5939","2065","&#9728;","elianto","#f73b6a7A","-1","-1","1","0","[]","0","1","","","5939","16","0","4","lose","no-go","0"
"pit-trial","134","978105","0.0-20.0","battery-v0.2","","""event"",""trial"",""time""
""fullscreenenter"",""1"",""2219""
""blur"",""19"",""262961""
""focus"",""19"",""262968""
""fullscreenexit"",""19"",""262974""
","""event"",""trial"",""time""
""blur"",""19"",""262961""
","""event"",""trial"",""time""
""focus"",""19"",""262968""
","""event"",""trial"",""time""
""fullscreenenter"",""1"",""2219""
","""event"",""trial"",""time""
""fullscreenexit"",""19"",""262974""
","","","779","","","16","5939","2065","&#9752;","elianto","#f73b6a7A"," "," ","1","0","[1633.0999994277954]","1","1","","","5939","17","3","3","lose","go","0"
"pit-trial","135","982969","0.0-21.0","battery-v0.2","","""event"",""trial"",""time""
""fullscreenenter"",""1"",""2219""
""blur"",""19"",""262961""
""focus"",""19"",""262968""
""fullscreenexit"",""19"",""262974""
","""event"",""trial"",""time""
""blur"",""19"",""262961""
","""event"",""trial"",""time""
""focus"",""19"",""262968""
","""event"",""trial"",""time""
""fullscreenenter"",""1"",""2219""
","""event"",""trial"",""time""
""fullscreenexit"",""19"",""262974""
","","","-1","","","16","5939","2065","&#9728;","elianto","#f73b6a7A","-1","-1","1","-10","[]","0","1","","","5939","18","0","4","lose","no-go","1"
"pit-trial","136","986505","0.0-22.0","battery-v0.2","","""event"",""trial"",""time""
""fullscreenenter"",""1"",""2219""
""blur"",""19"",""262961""
""focus"",""19"",""262968""
""fullscreenexit"",""19"",""262974""
","""event"",""trial"",""time""
""blur"",""19"",""262961""
","""event"",""trial"",""time""
""focus"",""19"",""262968""
","""event"",""trial"",""time""
""fullscreenenter"",""1"",""2219""
","""event"",""trial"",""time""
""fullscreenexit"",""19"",""262974""
","","","671.7999992370605","","","16","5939","2065","&#9733;","elianto","#3366ff99","-1"," ","0","0","[1526.5999994277954]","1","1","","","5939","19","2","2","win","no-go","0"
"pit-trial","137","989873","0.0-23.0","battery-v0.2","","""event"",""trial"",""time""
""fullscreenenter"",""1"",""2219""
""blur"",""19"",""262961""
""focus"",""19"",""262968""
""fullscreenexit"",""19"",""262974""
","""event"",""trial"",""time""
""blur"",""19"",""262961""
","""event"",""trial"",""time""
""focus"",""19"",""262968""
","""event"",""trial"",""time""
""fullscreenenter"",""1"",""2219""
","""event"",""trial"",""time""
""fullscreenexit"",""19"",""262974""
","","","506.6000003814697","","","16","5939","2065","&#9730;","elianto","#3366ff99"," "," ","1","+10","[1361.8999996185303]","1","1","","","5939","20","1","1","win","go","0"
"pit-instructions","138","1002480","0.0-24.0","battery-v0.2","","""event"",""trial"",""time""
""fullscreenenter"",""1"",""2219""
""blur"",""19"",""262961""
""focus"",""19"",""262968""
""fullscreenexit"",""19"",""262974""
","""event"",""trial"",""time""
""blur"",""19"",""262961""
","""event"",""trial"",""time""
""focus"",""19"",""262968""
","""event"",""trial"",""time""
""fullscreenenter"",""1"",""2219""
","""event"",""trial"",""time""
""fullscreenexit"",""19"",""262974""
","","[{""page_index"":0,""viewing_time"":5755.5},{""page_index"":1,""viewing_time"":6850.39999961853}]","12606.60000038147","","","","","","","","","","","","","","","","","","","","","","","",""
"pit-trial","139","1005959","0.0-25.0","battery-v0.2","","""event"",""trial"",""time""
""fullscreenenter"",""1"",""2219""
""blur"",""19"",""262961""
""focus"",""19"",""262968""
""fullscreenexit"",""19"",""262974""
","""event"",""trial"",""time""
""blur"",""19"",""262961""
","""event"",""trial"",""time""
""focus"",""19"",""262968""
","""event"",""trial"",""time""
""fullscreenenter"",""1"",""2219""
","""event"",""trial"",""time""
""fullscreenexit"",""19"",""262974""
","","","603.1999998092651","","","16","5939","2065","f","elianto","#3366ff99"," "," ","1","+10","[1454.6999998092651]","1","2","","","5939","21","1","1","win","go","0"
"pit-trial","140","1009469","0.0-26.0","battery-v0.2","","""event"",""trial"",""time""
""fullscreenenter"",""1"",""2219""
""blur"",""19"",""262961""
""focus"",""19"",""262968""
""fullscreenexit"",""19"",""262974""
","""event"",""trial"",""time""
""blur"",""19"",""262961""
","""event"",""trial"",""time""
""focus"",""19"",""262968""
","""event"",""trial"",""time""
""fullscreenenter"",""1"",""2219""
","""event"",""trial"",""time""
""fullscreenexit"",""19"",""262974""
","","","636.3999996185303","","","16","5939","2065","b","elianto","#f73b6a7A"," "," ","1","0","[1489]","1","2","","","5939","22","3","3","lose","go","0"
"pit-trial","141","1012822","0.0-27.0","battery-v0.2","","""event"",""trial"",""time""
""fullscreenenter"",""1"",""2219""
""blur"",""19"",""262961""
""focus"",""19"",""262968""
""fullscreenexit"",""19"",""262974""
","""event"",""trial"",""time""
""blur"",""19"",""262961""
","""event"",""trial"",""time""
""focus"",""19"",""262968""
","""event"",""trial"",""time""
""fullscreenenter"",""1"",""2219""
","""event"",""trial"",""time""
""fullscreenexit"",""19"",""262974""
","","","474.80000019073486","","","16","5939","2065","n","elianto","#f73b6a7A","-1"," ","0","-10","[1334.1999998092651]","1","2","","","5939","23","0","4","lose","no-go","0"
"pit-trial","142","1016313","0.0-28.0","battery-v0.2","","""event"",""trial"",""time""
""fullscreenenter"",""1"",""2219""
""blur"",""19"",""262961""
""focus"",""19"",""262968""
""fullscreenexit"",""19"",""262974""
","""event"",""trial"",""time""
""blur"",""19"",""262961""
","""event"",""trial"",""time""
""focus"",""19"",""262968""
","""event"",""trial"",""time""
""fullscreenenter"",""1"",""2219""
","""event"",""trial"",""time""
""fullscreenexit"",""19"",""262974""
","","","630.1999998092651","","","16","5939","2065","t","elianto","#f73b6a7A","-1"," ","0","-10","[1487.1999998092651]","1","2","","","5939","24","2","4","lose","no-go","0"
"pit-trial","143","1019772","0.0-29.0","battery-v0.2","","""event"",""trial"",""time""
""fullscreenenter"",""1"",""2219""
""blur"",""19"",""262961""
""focus"",""19"",""262968""
""fullscreenexit"",""19"",""262974""
","""event"",""trial"",""time""
""blur"",""19"",""262961""
","""event"",""trial"",""time""
""focus"",""19"",""262968""
","""event"",""trial"",""time""
""fullscreenenter"",""1"",""2219""
","""event"",""trial"",""time""
""fullscreenexit"",""19"",""262974""
","","","592.2999992370605","","","16","5939","2065","n","elianto","#f73b6a7A","-1"," ","0","0","[1443]","1","2","","","5939","25","0","4","lose","no-go","1"
"pit-trial","144","1023215","0.0-30.0","battery-v0.2","","""event"",""trial"",""time""
""fullscreenenter"",""1"",""2219""
""blur"",""19"",""262961""
""focus"",""19"",""262968""
""fullscreenexit"",""19"",""262974""
","""event"",""trial"",""time""
""blur"",""19"",""262961""
","""event"",""trial"",""time""
""focus"",""19"",""262968""
","""event"",""trial"",""time""
""fullscreenenter"",""1"",""2219""
","""event"",""trial"",""time""
""fullscreenexit"",""19"",""262974""
","","","571.1999998092651","","","16","5939","2065","f","elianto","#3366ff99"," "," ","1","0","[1428.3999996185303]","1","2","","","5939","26","1","1","win","go","1"
"pit-trial","145","1028095","0.0-31.0","battery-v0.2","","""event"",""trial"",""time""
""fullscreenenter"",""1"",""2219""
""blur"",""19"",""262961""
""focus"",""19"",""262968""
""fullscreenexit"",""19"",""262974""
","""event"",""trial"",""time""
""blur"",""19"",""262961""
","""event"",""trial"",""time""
""focus"",""19"",""262968""
","""event"",""trial"",""time""
""fullscreenenter"",""1"",""2219""
","""event"",""trial"",""time""
""fullscreenexit"",""19"",""262974""
","","","-1","","","16","5939","2065","t","elianto","#f73b6a7A","-1","-1","1","-10","[]","0","2","","","5939","27","2","4","lose","no-go","1"
"pit-trial","146","1031626","0.0-32.0","battery-v0.2","","""event"",""trial"",""time""
""fullscreenenter"",""1"",""2219""
""blur"",""19"",""262961""
""focus"",""19"",""262968""
""fullscreenexit"",""19"",""262974""
","""event"",""trial"",""time""
""blur"",""19"",""262961""
","""event"",""trial"",""time""
""focus"",""19"",""262968""
","""event"",""trial"",""time""
""fullscreenenter"",""1"",""2219""
","""event"",""trial"",""time""
""fullscreenexit"",""19"",""262974""
","","","675.1999998092651","","","16","5939","2065","b","elianto","#f73b6a7A"," "," ","1","0","[1525.8999996185303]","1","2","","","5939","28","3","3","lose","go","0"
"pit-trial","147","1035401","0.0-33.0","battery-v0.2","","""event"",""trial"",""time""
""fullscreenenter"",""1"",""2219""
""blur"",""19"",""262961""
""focus"",""19"",""262968""
""fullscreenexit"",""19"",""262974""
","""event"",""trial"",""time""
""blur"",""19"",""262961""
","""event"",""trial"",""time""
""focus"",""19"",""262968""
","""event"",""trial"",""time""
""fullscreenenter"",""1"",""2219""
","""event"",""trial"",""time""
""fullscreenexit"",""19"",""262974""
","","","915.5","","","16","5939","2065","n","elianto","#f73b6a7A","-1"," ","0","-10","[1768.6000003814697]","1","2","","","5939","29","0","4","lose","no-go","0"
"pit-trial","148","1039121","0.0-34.0","battery-v0.2","","""event"",""trial"",""time""
""fullscreenenter"",""1"",""2219""
""blur"",""19"",""262961""
""focus"",""19"",""262968""
""fullscreenexit"",""19"",""262974""
","""event"",""trial"",""time""
""blur"",""19"",""262961""
","""event"",""trial"",""time""
""focus"",""19"",""262968""
","""event"",""trial"",""time""
""fullscreenenter"",""1"",""2219""
","""event"",""trial"",""time""
""fullscreenexit"",""19"",""262974""
","","","859.8000001907349","","","16","5939","2065","b","elianto","#f73b6a7A"," "," ","1","0","[1715.1000003814697]","1","2","","","5939","30","3","3","lose","go","0"
"pit-trial","149","1042953","0.0-35.0","battery-v0.2","","""event"",""trial"",""time""
""fullscreenenter"",""1"",""2219""
""blur"",""19"",""262961""
""focus"",""19"",""262968""
""fullscreenexit"",""19"",""262974""
","""event"",""trial"",""time""
""blur"",""19"",""262961""
","""event"",""trial"",""time""
""focus"",""19"",""262968""
","""event"",""trial"",""time""
""fullscreenenter"",""1"",""2219""
","""event"",""trial"",""time""
""fullscreenexit"",""19"",""262974""
","","","973.6999998092651","","","16","5939","2065","t","elianto","#f73b6a7A","-1"," ","0","-10","[1828]","1","2","","","5939","31","2","4","lose","no-go","0"
"pit-trial","150","1046441","0.0-36.0","battery-v0.2","","""event"",""trial"",""time""
""fullscreenenter"",""1"",""2219""
""blur"",""19"",""262961""
""focus"",""19"",""262968""
""fullscreenexit"",""19"",""262974""
","""event"",""trial"",""time""
""blur"",""19"",""262961""
","""event"",""trial"",""time""
""focus"",""19"",""262968""
","""event"",""trial"",""time""
""fullscreenenter"",""1"",""2219""
","""event"",""trial"",""time""
""fullscreenexit"",""19"",""262974""
","","","625.7999992370605","","","16","5939","2065","f","elianto","#3366ff99"," "," ","1","0","[1479.6999998092651]","1","2","","","5939","32","1","1","win","go","1"
"pit-trial","151","1050513","0.0-37.0","battery-v0.2","","""event"",""trial"",""time""
""fullscreenenter"",""1"",""2219""
""blur"",""19"",""262961""
""focus"",""19"",""262968""
""fullscreenexit"",""19"",""262974""
","""event"",""trial"",""time""
""blur"",""19"",""262961""
","""event"",""trial"",""time""
""focus"",""19"",""262968""
","""event"",""trial"",""time""
""fullscreenenter"",""1"",""2219""
","""event"",""trial"",""time""
""fullscreenexit"",""19"",""262974""
","","","1210.1999998092651","","","16","5939","2065","b","elianto","#f73b6a7A"," "," ","1","0","[2064.3999996185303]","1","2","","","5939","33","3","3","lose","go","0"
"pit-trial","152","1055377","0.0-38.0","battery-v0.2","","""event"",""trial"",""time""
""fullscreenenter"",""1"",""2219""
""blur"",""19"",""262961""
""focus"",""19"",""262968""
""fullscreenexit"",""19"",""262974""
","""event"",""trial"",""time""
""blur"",""19"",""262961""
","""event"",""trial"",""time""
""focus"",""19"",""262968""
","""event"",""trial"",""time""
""fullscreenenter"",""1"",""2219""
","""event"",""trial"",""time""
""fullscreenexit"",""19"",""262974""
","","","-1","","","16","5939","2065","n","elianto","#f73b6a7A","-1","-1","1","0","[]","0","2","","","5939","34","0","4","lose","no-go","0"
"pit-trial","153","1059128","0.0-39.0","battery-v0.2","","""event"",""trial"",""time""
""fullscreenenter"",""1"",""2219""
""blur"",""19"",""262961""
""focus"",""19"",""262968""
""fullscreenexit"",""19"",""262974""
","""event"",""trial"",""time""
""blur"",""19"",""262961""
","""event"",""trial"",""time""
""focus"",""19"",""262968""
","""event"",""trial"",""time""
""fullscreenenter"",""1"",""2219""
","""event"",""trial"",""time""
""fullscreenexit"",""19"",""262974""
","","","895.1000003814697","","","16","5939","2065","f","elianto","#3366ff99"," "," ","1","+10","[1748.0999994277954]","1","2","","","5939","35","1","1","win","go","0"
"pit-trial","154","1063994","0.0-40.0","battery-v0.2","","""event"",""trial"",""time""
""fullscreenenter"",""1"",""2219""
""blur"",""19"",""262961""
""focus"",""19"",""262968""
""fullscreenexit"",""19"",""262974""
","""event"",""trial"",""time""
""blur"",""19"",""262961""
","""event"",""trial"",""time""
""focus"",""19"",""262968""
","""event"",""trial"",""time""
""fullscreenenter"",""1"",""2219""
","""event"",""trial"",""time""
""fullscreenexit"",""19"",""262974""
","","","-1","","","16","5939","2065","t","elianto","#f73b6a7A","-1","-1","1","0","[]","0","2","","","5939","36","2","4","lose","no-go","0"
"pit-trial","155","1068857","0.0-41.0","battery-v0.2","","""event"",""trial"",""time""
""fullscreenenter"",""1"",""2219""
""blur"",""19"",""262961""
""focus"",""19"",""262968""
""fullscreenexit"",""19"",""262974""
","""event"",""trial"",""time""
""blur"",""19"",""262961""
","""event"",""trial"",""time""
""focus"",""19"",""262968""
","""event"",""trial"",""time""
""fullscreenenter"",""1"",""2219""
","""event"",""trial"",""time""
""fullscreenexit"",""19"",""262974""
","","","-1","","","16","5939","2065","n","elianto","#f73b6a7A","-1","-1","1","0","[]","0","2","","","5939","37","0","4","lose","no-go","0"
"pit-trial","156","1072425","0.0-42.0","battery-v0.2","","""event"",""trial"",""time""
""fullscreenenter"",""1"",""2219""
""blur"",""19"",""262961""
""focus"",""19"",""262968""
""fullscreenexit"",""19"",""262974""
","""event"",""trial"",""time""
""blur"",""19"",""262961""
","""event"",""trial"",""time""
""focus"",""19"",""262968""
","""event"",""trial"",""time""
""fullscreenenter"",""1"",""2219""
","""event"",""trial"",""time""
""fullscreenexit"",""19"",""262974""
","","","708.8000001907349","","","16","5939","2065","b","elianto","#f73b6a7A"," "," ","1","0","[1563.5999994277954]","1","2","","","5939","38","3","3","lose","go","0"
"pit-trial","157","1077289","0.0-43.0","battery-v0.2","","""event"",""trial"",""time""
""fullscreenenter"",""1"",""2219""
""blur"",""19"",""262961""
""focus"",""19"",""262968""
""fullscreenexit"",""19"",""262974""
","""event"",""trial"",""time""
""blur"",""19"",""262961""
","""event"",""trial"",""time""
""focus"",""19"",""262968""
","""event"",""trial"",""time""
""fullscreenenter"",""1"",""2219""
","""event"",""trial"",""time""
""fullscreenexit"",""19"",""262974""
","","","-1","","","16","5939","2065","t","elianto","#f73b6a7A","-1","-1","1","0","[]","0","2","","","5939","39","2","4","lose","no-go","0"
"pit-trial","158","1080849","0.0-44.0","battery-v0.2","","""event"",""trial"",""time""
""fullscreenenter"",""1"",""2219""
""blur"",""19"",""262961""
""focus"",""19"",""262968""
""fullscreenexit"",""19"",""262974""
","""event"",""trial"",""time""
""blur"",""19"",""262961""
","""event"",""trial"",""time""
""focus"",""19"",""262968""
","""event"",""trial"",""time""
""fullscreenenter"",""1"",""2219""
","""event"",""trial"",""time""
""fullscreenexit"",""19"",""262974""
","","","702.1000003814697","","","16","5939","2065","f","elianto","#3366ff99"," "," ","1","0","[1556.3000001907349]","1","2","","","5939","40","1","1","win","go","1"
"pit-trial","159","1085713","0.0-45.0","battery-v0.2","","""event"",""trial"",""time""
""fullscreenenter"",""1"",""2219""
""blur"",""19"",""262961""
""focus"",""19"",""262968""
""fullscreenexit"",""19"",""262974""
","""event"",""trial"",""time""
""blur"",""19"",""262961""
","""event"",""trial"",""time""
""focus"",""19"",""262968""
","""event"",""trial"",""time""
""fullscreenenter"",""1"",""2219""
","""event"",""trial"",""time""
""fullscreenexit"",""19"",""262974""
","","","-1","","","16","5939","2065","n","elianto","#f73b6a7A","-1","-1","1","0","[]","0","2","","","5939","41","0","4","lose","no-go","0"
"pit-trial","160","1089737","0.0-46.0","battery-v0.2","","""event"",""trial"",""time""
""fullscreenenter"",""1"",""2219""
""blur"",""19"",""262961""
""focus"",""19"",""262968""
""fullscreenexit"",""19"",""262974""
","""event"",""trial"",""time""
""blur"",""19"",""262961""