"trial_type","trial_index","time_elapsed","internal_node_id","task_version","subject_id","interactions","blur_events","focus_events","fullscreenenter_events","fullscreenexit_events","success","view_history","rt","responses","num_errors","age","subject","participantId","rune","rune_set","hex","correct","choice","accuracy","outcome","keys","total_keys","block","practice","value","sub","trial","stimulus","robot","valence","action","sham"
"pavlovia","0","11","0.0-0.0","battery-v0.2","","""event"",""trial"",""time""
""fullscreenenter"",""1"",""5513""
","
","
","""event"",""trial"",""time""
""fullscreenenter"",""1"",""5513""
","
","","","","","","","","","","","","","","","","","","","","","","","","","","",""
"fullscreen","1","6508","0.0-1.0","battery-v0.2","","""event"",""trial"",""time""
""fullscreenenter"",""1"",""5513""
","
","
","""event"",""trial"",""time""
""fullscreenenter"",""1"",""5513""
","
","true","","","","","","","","","","","","","","","","","","","","","","","","","",""
"pit-instructions","2","12230","0.0-2.0-0.0","battery-v0.2","","""event"",""trial"",""time""
""fullscreenenter"",""1"",""5513""
","
","
","""event"",""trial"",""time""
""fullscreenenter"",""1"",""5513""
","
","","[{""page_index"":0,""viewing_time"":5716.199999999953}]","5716.799999999988","","","","","","","","","","","","","","","","","","","","","","","",""
"pit-comprehension","3","18957","0.0-2.0-1.0-0.0","battery-v0.2","","""event"",""trial"",""time""
""fullscreenenter"",""1"",""5513""
","
","
","""event"",""trial"",""time""
""fullscreenenter"",""1"",""5513""
","
","","","6720","[""shark""]","0","15","9764","4416","","","","","","","","","","","","","","","","","","",""
"pit-instructions","4","20527","0.0-2.0-1.0-1.0","battery-v0.2","","""event"",""trial"",""time""
""fullscreenenter"",""1"",""5513""
","
","
","""event"",""trial"",""time""
""fullscreenenter"",""1"",""5513""
","
","","[{""page_index"":0,""viewing_time"":1558.7000000000116}]","1559.4000000000233","","","","","","","","","","","","","","","","","","","","","","","",""
"pit-comprehension","5","24213","0.0-2.0-2.0-0.0","battery-v0.2","","""event"",""trial"",""time""
""fullscreenenter"",""1"",""5513""
","
","
","""event"",""trial"",""time""
""fullscreenenter"",""1"",""5513""
","
","","","3678.2999999999884","[""tiger""]","0","15","9764","4416","","","","","","","","","","","","","","","","","","",""
"pit-instructions","6","27190","0.0-2.0-2.0-1.0","battery-v0.2","","""event"",""trial"",""time""
""fullscreenenter"",""1"",""5513""
","
","
","""event"",""trial"",""time""
""fullscreenenter"",""1"",""5513""
","
","","[{""page_index"":0,""viewing_time"":2968}]","2968.4000000000233","","","","","","","","","","","","","","","","","","","","","","","",""
"pit-instructions","7","128580","0.0-2.0-3.0","battery-v0.2","","""event"",""trial"",""time""
""fullscreenenter"",""1"",""5513""
","
","
","""event"",""trial"",""time""
""fullscreenenter"",""1"",""5513""
","
","","[{""page_index"":0,""viewing_time"":9681.399999999965},{""page_index"":1,""viewing_time"":7037.700000000012},{""page_index"":2,""viewing_time"":6114.799999999988},{""page_index"":3,""viewing_time"":6610.400000000023},{""page_index"":4,""viewing_time"":6401.599999999977},{""page_index"":5,""viewing_time"":6987.299999999988},{""page_index"":6,""viewing_time"":7183.100000000035},{""page_index"":7,""viewing_time"":7123.099999999977},{""page_index"":8,""viewing_time"":6009.200000000012},{""page_index"":9,""viewing_time"":10426.900000000023},{""page_index"":10,""viewing_time"":7182.899999999965},{""page_index"":11,""viewing_time"":8304.600000000035},{""page_index"":12,""viewing_time"":6668.799999999988},{""page_index"":13,""viewing_time"":5653.899999999965}]","101386.5","","","","","","","","","","","","","","","","","","","","","","","",""
"pit-trial","8","131949","0.0-2.0-4.0-0.0","battery-v0.2","","""event"",""trial"",""time""
""fullscreenenter"",""1"",""5513""
","
","
","""event"",""trial"",""time""
""fullscreenenter"",""1"",""5513""
","
","","","504","","","15","9764","4416","&#9784;","elianto","#FFFFF080"," "," ","1","&#10004","[1357.5]","1","0","0","","","","","","","",""
"pit-trial","9","135948","0.0-2.0-4.1-0.1","battery-v0.2","","""event"",""trial"",""time""
""fullscreenenter"",""1"",""5513""
","
","
","""event"",""trial"",""time""
""fullscreenenter"",""1"",""5513""
","
","","","1138.5","","","15","9764","4416","&#9784;","elianto","#FFFFF080"," "," ","1","&#10004","[1989.2000000000116]","1","0","0","","","","","","","",""
"pit-trial","10","139493","0.0-2.0-4.2-0.2","battery-v0.2","","""event"",""trial"",""time""
""fullscreenenter"",""1"",""5513""
","
","
","""event"",""trial"",""time""
""fullscreenenter"",""1"",""5513""
","
","","","679.5999999999767","","","15","9764","4416","&#9784;","elianto","#FFFFF080"," "," ","1","&#10004","[1532.600000000035]","1","0","0","","","","","","","",""
"pit-trial","11","142949","0.0-2.0-4.3-0.3","battery-v0.2","","""event"",""trial"",""time""
""fullscreenenter"",""1"",""5513""
","
","
","""event"",""trial"",""time""
""fullscreenenter"",""1"",""5513""
","
","","","593.6000000000349","","","15","9764","4416","&#9784;","elianto","#FFFFF080"," "," ","1","&#10004","[1446.5]","1","0","0","","","","","","","",""
"pit-trial","12","146237","0.0-2.0-4.4-0.4","battery-v0.2","","""event"",""trial"",""time""
""fullscreenenter"",""1"",""5513""
","
","
","""event"",""trial"",""time""
""fullscreenenter"",""1"",""5513""
","
","","","427.6000000000349","","","15","9764","4416","&#9784;","elianto","#FFFFF080"," "," ","1","&#10004","[1280.5]","1","0","0","","","","","","","",""
"pit-instructions","13","175209","0.0-2.0-5.0","battery-v0.2","","""event"",""trial"",""time""
""fullscreenenter"",""1"",""5513""
","
","
","""event"",""trial"",""time""
""fullscreenenter"",""1"",""5513""
","
","","[{""page_index"":0,""viewing_time"":7026.700000000012},{""page_index"":1,""viewing_time"":7637.699999999953},{""page_index"":2,""viewing_time"":7652.5},{""page_index"":3,""viewing_time"":6649}]","28966.399999999965","","","","","","","","","","","","","","","","","","","","","","","",""
"pit-trial","14","180077","0.0-2.0-6.0-0.0","battery-v0.2","","""event"",""trial"",""time""
""fullscreenenter"",""1"",""5513""
","
","
","""event"",""trial"",""time""
""fullscreenenter"",""1"",""5513""
","
","","","-1","","","15","9764","4416","&#9854;","elianto","#FFFFF080","-1","-1","1","&#10004","[]","0","0","1","","","","","","","",""
"pit-trial","15","184940","0.0-2.0-6.1-0.1","battery-v0.2","","""event"",""trial"",""time""
""fullscreenenter"",""1"",""5513""
","
","
","""event"",""trial"",""time""
""fullscreenenter"",""1"",""5513""
","
","","","-1","","","15","9764","4416","&#9854;","elianto","#FFFFF080","-1","-1","1","&#10004","[]","0","0","1","","","","","","","",""
"pit-trial","16","189805","0.0-2.0-6.2-0.2","battery-v0.2","","""event"",""trial"",""time""
""fullscreenenter"",""1"",""5513""
","
","
","""event"",""trial"",""time""
""fullscreenenter"",""1"",""5513""
","
","","","-1","","","15","9764","4416","&#9854;","elianto","#FFFFF080","-1","-1","1","&#10004","[]","0","0","1","","","","","","","",""
"pit-trial","17","194668","0.0-2.0-6.3-0.3","battery-v0.2","","""event"",""trial"",""time""
""fullscreenenter"",""1"",""5513""
","
","
","""event"",""trial"",""time""
""fullscreenenter"",""1"",""5513""
","
","","","-1","","","15","9764","4416","&#9854;","elianto","#FFFFF080","-1","-1","1","&#10004","[]","0","0","1","","","","","","","",""
"pit-trial","18","199532","0.0-2.0-6.4-0.4","battery-v0.2","","""event"",""trial"",""time""
""fullscreenenter"",""1"",""5513""
","
","
","""event"",""trial"",""time""
""fullscreenenter"",""1"",""5513""
","
","","","-1","","","15","9764","4416","&#9854;","elianto","#FFFFF080","-1","-1","1","&#10004","[]","0","0","1","","","","","","","",""
"pit-instructions","19","331693","0.0-2.0-7.0","battery-v0.2","","""event"",""trial"",""time""
""fullscreenenter"",""1"",""5513""
","
","
","""event"",""trial"",""time""
""fullscreenenter"",""1"",""5513""
","
","","[{""page_index"":0,""viewing_time"":6131.399999999965},{""page_index"":1,""viewing_time"":8829.799999999988},{""page_index"":2,""viewing_time"":6064.300000000047},{""page_index"":3,""viewing_time"":7546.099999999977},{""page_index"":4,""viewing_time"":5706.199999999953},{""page_index"":5,""viewing_time"":6310.70000000007},{""page_index"":6,""viewing_time"":5892.79999999993},{""page_index"":7,""viewing_time"":9037.300000000047},{""page_index"":8,""viewing_time"":8077.5},{""page_index"":9,""viewing_time"":6842.400000000023},{""page_index"":10,""viewing_time"":7310.29999999993},{""page_index"":11,""viewing_time"":5562.70000000007},{""page_index"":12,""viewing_time"":7387.599999999977},{""page_index"":13,""viewing_time"":7425.300000000047},{""page_index"":14,""viewing_time"":7921.29999999993},{""page_index"":15,""viewing_time"":6717.20000000007},{""page_index"":16,""viewing_time"":10706.5},{""page_index"":17,""viewing_time"":8687.399999999907}]","132157.40000000002","","","","","","","","","","","","","","","","","","","","","","","",""
"pit-trial","20","335069","0.0-2.0-8.0-0.0","battery-v0.2","","""event"",""trial"",""time""
""fullscreenenter"",""1"",""5513""
","
","
","""event"",""trial"",""time""
""fullscreenenter"",""1"",""5513""
","
","","","518.7000000000698","","","15","9764","4416","&#9776;","elianto","#3366ff99"," "," ","1","+10","[379.0999999999767,1370.9000000000233]","2","0","1","","","","","","","",""
"pit-trial","21","338292","0.0-2.0-8.0-1.0","battery-v0.2","","""event"",""trial"",""time""
""fullscreenenter"",""1"",""5513""
","
","
","""event"",""trial"",""time""
""fullscreenenter"",""1"",""5513""
","
","","","368.19999999995343","","","15","9764","4416","&#9776;","elianto","#3366ff99"," "," ","1","+10","[1219.5]","1","0","1","","","","","","","",""
"pit-trial","22","341485","0.0-2.0-8.0-2.0","battery-v0.2","","""event"",""trial"",""time""
""fullscreenenter"",""1"",""5513""
","
","
","""event"",""trial"",""time""
""fullscreenenter"",""1"",""5513""
","
","","","329.19999999995343","","","15","9764","4416","&#9776;","elianto","#3366ff99"," "," ","1","+10","[1183.6999999999534]","1","0","1","","","","","","","",""
"pit-trial","23","345061","0.0-2.0-8.0-3.0","battery-v0.2","","""event"",""trial"",""time""
""fullscreenenter"",""1"",""5513""
","
","
","""event"",""trial"",""time""
""fullscreenenter"",""1"",""5513""
","
","","","715.0999999999767","","","15","9764","4416","&#9776;","elianto","#3366ff99"," "," ","1","0","[1569.2999999999302]","1","0","1","","","","","","","",""
"pit-trial","24","348292","0.0-2.0-8.0-4.0","battery-v0.2","","""event"",""trial"",""time""
""fullscreenenter"",""1"",""5513""
","
","
","""event"",""trial"",""time""
""fullscreenenter"",""1"",""5513""
","
","","","371.5999999999767","","","15","9764","4416","&#9776;","elianto","#3366ff99"," "," ","1","+10","[1225.4000000000233]","1","0","1","","","","","","","",""
"pit-trial","25","351508","0.0-2.0-8.1-0.1","battery-v0.2","","""event"",""trial"",""time""
""fullscreenenter"",""1"",""5513""
","
","
","""event"",""trial"",""time""
""fullscreenenter"",""1"",""5513""
","
","","","356.5","","","15","9764","4416","&#9776;","elianto","#3366ff99"," "," ","1","+10","[1209.4000000000233]","1","0","1","","","","","","","",""
"pit-trial","26","354693","0.0-2.0-8.1-1.1","battery-v0.2","","""event"",""trial"",""time""
""fullscreenenter"",""1"",""5513""
","
","
","""event"",""trial"",""time""
""fullscreenenter"",""1"",""5513""
","
","","","324.30000000004657","","","15","9764","4416","&#9776;","elianto","#3366ff99"," "," ","1","+10","[1178.0999999999767]","1","0","1","","","","","","","",""
"pit-trial","27","357997","0.0-2.0-8.1-2.1","battery-v0.2","","""event"",""trial"",""time""
""fullscreenenter"",""1"",""5513""
","
","
","""event"",""trial"",""time""
""fullscreenenter"",""1"",""5513""
","
","","","445.0999999999767","","","15","9764","4416","&#9776;","elianto","#3366ff99"," "," ","1","+10","[1298.7000000000698]","1","0","1","","","","","","","",""
"pit-trial","28","361693","0.0-2.0-8.1-3.1","battery-v0.2","","""event"",""trial"",""time""
""fullscreenenter"",""1"",""5513""
","
","
","""event"",""trial"",""time""
""fullscreenenter"",""1"",""5513""
","
","","","838.1999999999534","","","15","9764","4416","&#9776;","elianto","#3366ff99"," "," ","1","0","[1691.9000000000233]","1","0","1","","","","","","","",""
"pit-trial","29","365172","0.0-2.0-8.1-4.1","battery-v0.2","","""event"",""trial"",""time""
""fullscreenenter"",""1"",""5513""
","
","
","""event"",""trial"",""time""
""fullscreenenter"",""1"",""5513""
","
","","","620.3000000000466","","","15","9764","4416","&#9776;","elianto","#3366ff99"," "," ","1","+10","[1470.4000000000233]","1","0","1","","","","","","","",""
"pit-trial","30","369277","0.0-2.0-8.2-0.2","battery-v0.2","","""event"",""trial"",""time""
""fullscreenenter"",""1"",""5513""
","
","
","""event"",""trial"",""time""
""fullscreenenter"",""1"",""5513""
","
","","","1243.4000000000233","","","15","9764","4416","&#9776;","elianto","#3366ff99"," "," ","1","+10","[2095.9000000000233]","1","0","1","","","","","","","",""
"pit-trial","31","372612","0.0-2.0-8.2-1.2","battery-v0.2","","""event"",""trial"",""time""
""fullscreenenter"",""1"",""5513""
","
","
","""event"",""trial"",""time""
""fullscreenenter"",""1"",""5513""
","
","","","478.5999999999767","","","15","9764","4416","&#9776;","elianto","#3366ff99"," "," ","1","+10","[1332.3000000000466]","1","0","1","","","","","","","",""
"pit-trial","32","375868","0.0-2.0-8.2-2.2","battery-v0.2","","""event"",""trial"",""time""
""fullscreenenter"",""1"",""5513""
","
","
","""event"",""trial"",""time""
""fullscreenenter"",""1"",""5513""
","
","","","394.20000000006985","","","15","9764","4416","&#9776;","elianto","#3366ff99"," "," ","1","+10","[1247]","1","0","1","","","","","","","",""
"pit-trial","33","379108","0.0-2.0-8.2-3.2","battery-v0.2","","""event"",""trial"",""time""
""fullscreenenter"",""1"",""5513""
","
","
","""event"",""trial"",""time""
""fullscreenenter"",""1"",""5513""
","
","","","379.5","","","15","9764","4416","&#9776;","elianto","#3366ff99"," "," ","1","0","[1233.1999999999534]","1","0","1","","","","","","","",""
"pit-trial","34","382388","0.0-2.0-8.2-4.2","battery-v0.2","","""event"",""trial"",""time""
""fullscreenenter"",""1"",""5513""
","
","
","""event"",""trial"",""time""
""fullscreenenter"",""1"",""5513""
","
","","","421.29999999993015","","","15","9764","4416","&#9776;","elianto","#3366ff99"," "," ","1","+10","[1271.6999999999534]","1","0","1","","","","","","","",""
"call-function","35","382390","0.0-2.0-9.0","battery-v0.2","","""event"",""trial"",""time""
""fullscreenenter"",""1"",""5513""
","
","
","""event"",""trial"",""time""
""fullscreenenter"",""1"",""5513""
","
","","","","","","","","","","","","","","","","","","","","","","","","","","",""
"pit-instructions","36","428679","0.0-2.0-10.0","battery-v0.2","","""event"",""trial"",""time""
""fullscreenenter"",""1"",""5513""
","
","
","""event"",""trial"",""time""
""fullscreenenter"",""1"",""5513""
","
","","[{""page_index"":0,""viewing_time"":6970.400000000023},{""page_index"":1,""viewing_time"":11133.900000000023},{""page_index"":2,""viewing_time"":9821.79999999993},{""page_index"":3,""viewing_time"":10504.900000000023},{""page_index"":4,""viewing_time"":7856.099999999977}]","46287.59999999998","","","","","","","","","","","","","","","","","","","","","","","",""
"pit-trial","37","431948","0.0-2.0-11.0-0.0","battery-v0.2","","""event"",""trial"",""time""
""fullscreenenter"",""1"",""5513""
","
","
","""event"",""trial"",""time""
""fullscreenenter"",""1"",""5513""
","
","","","408.10000000009313","","","15","9764","4416","&#9761;","elianto","#3366ff99","-1"," ","0","0","[1259.2000000000698]","1","0","2","","","","","","","",""
"pit-trial","38","434997","0.0-2.0-11.0-1.0","battery-v0.2","","""event"",""trial"",""time""
""fullscreenenter"",""1"",""5513""
","
","
","""event"",""trial"",""time""
""fullscreenenter"",""1"",""5513""
","
","","","186.40000000002328","","","15","9764","4416","&#9761;","elianto","#3366ff99","-1"," ","0","0","[1040.7999999999302]","1","0","2","","","","","","","",""
"pit-trial","39","438069","0.0-2.0-11.0-2.0","battery-v0.2","","""event"",""trial"",""time""
""fullscreenenter"",""1"",""5513""
","
","
","""event"",""trial"",""time""
""fullscreenenter"",""1"",""5513""
","
","","","212.70000000006985","","","15","9764","4416","&#9761;","elianto","#3366ff99","-1"," ","0","0","[1066.3000000000466]","1","0","2","","","","","","","",""
"pit-trial","40","441140","0.0-2.0-11.0-3.0","battery-v0.2","","""event"",""trial"",""time""
""fullscreenenter"",""1"",""5513""
","
","
","""event"",""trial"",""time""
""fullscreenenter"",""1"",""5513""
","
","","","211.69999999995343","","","15","9764","4416","&#9761;","elianto","#3366ff99","-1"," ","0","+10","[1065.2000000000698]","1","0","2","","","","","","","",""
"pit-trial","41","444157","0.0-2.0-11.0-4.0","battery-v0.2","","""event"",""trial"",""time""
""fullscreenenter"",""1"",""5513""
","
","
","""event"",""trial"",""time""
""fullscreenenter"",""1"",""5513""
","
","","","154.10000000009313","","","15","9764","4416","&#9761;","elianto","#3366ff99","-1"," ","0","0","[1007.5999999999767]","1","0","2","","","","","","","",""
"pit-trial","42","447229","0.0-2.0-11.1-0.1","battery-v0.2","","""event"",""trial"",""time""
""fullscreenenter"",""1"",""5513""
","
","
","""event"",""trial"",""time""
""fullscreenenter"",""1"",""5513""
","
","","","216.80000000004657","","","15","9764","4416","&#9761;","elianto","#3366ff99","-1"," ","0","0","[1067.5]","1","0","2","","","","","","","",""
"pit-trial","43","450748","0.0-2.0-11.1-1.1","battery-v0.2","","""event"",""trial"",""time""
""fullscreenenter"",""1"",""5513""
","
","
","""event"",""trial"",""time""
""fullscreenenter"",""1"",""5513""
","
","","","661.5","","","15","9764","4416","&#9761;","elianto","#3366ff99","-1"," ","0","0","[1515.5999999999767]","1","0","2","","","","","","","",""
"pit-trial","44","454012","0.0-2.0-11.1-2.1","battery-v0.2","","""event"",""trial"",""time""
""fullscreenenter"",""1"",""5513""
","
","
","""event"",""trial"",""time""
""fullscreenenter"",""1"",""5513""
","
","","","405.70000000006985","","","15","9764","4416","&#9761;","elianto","#3366ff99","-1"," ","0","0","[1258.8000000000466]","1","0","2","","","","","","","",""
"pit-trial","45","457084","0.0-2.0-11.1-3.1","battery-v0.2","","""event"",""trial"",""time""
""fullscreenenter"",""1"",""5513""
","
","
","""event"",""trial"",""time""
""fullscreenenter"",""1"",""5513""
","
","","","207.40000000002328","","","15","9764","4416","&#9761;","elianto","#3366ff99","-1"," ","0","+10","[1062.4000000000233]","1","0","2","","","","","","","",""
"pit-trial","46","460077","0.0-2.0-11.1-4.1","battery-v0.2","","""event"",""trial"",""time""
""fullscreenenter"",""1"",""5513""
","
","
","""event"",""trial"",""time""
""fullscreenenter"",""1"",""5513""
","
","","","131.09999999997672","","","15","9764","4416","&#9761;","elianto","#3366ff99","-1"," ","0","0","[984.8000000000466]","1","0","2","","","","","","","",""
"pit-trial","47","463156","0.0-2.0-11.2-0.2","battery-v0.2","","""event"",""trial"",""time""
""fullscreenenter"",""1"",""5513""
","
","
","""event"",""trial"",""time""
""fullscreenenter"",""1"",""5513""
","
","","","221.09999999997672","","","15","9764","4416","&#9761;","elianto","#3366ff99","-1"," ","0","0","[1073.1999999999534]","1","0","2","","","","","","","",""
"pit-trial","48","466172","0.0-2.0-11.2-1.2","battery-v0.2","","""event"",""trial"",""time""
""fullscreenenter"",""1"",""5513""
","
","
","""event"",""trial"",""time""
""fullscreenenter"",""1"",""5513""
","
","","","159.89999999990687","","","15","9764","4416","&#9761;","elianto","#3366ff99","-1"," ","0","0","[1013.0999999999767]","1","0","2","","","","","","","",""
"pit-trial","49","469213","0.0-2.0-11.2-2.2","battery-v0.2","","""event"",""trial"",""time""
""fullscreenenter"",""1"",""5513""
","
","
","""event"",""trial"",""time""
""fullscreenenter"",""1"",""5513""
","
","","","181","","","15","9764","4416","&#9761;","elianto","#3366ff99","-1"," ","0","0","[1033.0999999999767]","1","0","2","","","","","","","",""
"pit-trial","50","472292","0.0-2.0-11.2-3.2","battery-v0.2","","""event"",""trial"",""time""
""fullscreenenter"",""1"",""5513""
","
","
","""event"",""trial"",""time""
""fullscreenenter"",""1"",""5513""
","
","","","217","","","15","9764","4416","&#9761;","elianto","#3366ff99","-1"," ","0","+10","[1070.6999999999534]","1","0","2","","","","","","","",""
"pit-trial","51","475381","0.0-2.0-11.2-4.2","battery-v0.2","","""event"",""trial"",""time""
""fullscreenenter"",""1"",""5513""
","
","
","""event"",""trial"",""time""
""fullscreenenter"",""1"",""5513""
","
","","","227.09999999997672","","","15","9764","4416","&#9761;","elianto","#3366ff99","-1"," ","0","0","[1081]","1","0","2","","","","","","","",""
"pit-trial","52","478436","0.0-2.0-11.3-0.3","battery-v0.2","","""event"",""trial"",""time""
""fullscreenenter"",""1"",""5513""
","
","
","""event"",""trial"",""time""
""fullscreenenter"",""1"",""5513""
","
","","","200.69999999995343","","","15","9764","4416","&#9761;","elianto","#3366ff99","-1"," ","0","0","[1050.9000000000233]","1","0","2","","","","","","","",""
"pit-trial","53","481476","0.0-2.0-11.3-1.3","battery-v0.2","","""event"",""trial"",""time""
""fullscreenenter"",""1"",""5513""
","
","
","""event"",""trial"",""time""
""fullscreenenter"",""1"",""5513""
","
","","","177.5","","","15","9764","4416","&#9761;","elianto","#3366ff99","-1"," ","0","0","[1031.3999999999069]","1","0","2","","","","","","","",""
"pit-trial","54","484589","0.0-2.0-11.3-2.3","battery-v0.2","","""event"",""trial"",""time""
""fullscreenenter"",""1"",""5513""
","
","
","""event"",""trial"",""time""
""fullscreenenter"",""1"",""5513""
","
","","","248.80000000004657","","","15","9764","4416","&#9761;","elianto","#3366ff99","-1"," ","0","0","[1102.9000000000233]","1","0","2","","","","","","","",""
"pit-trial","55","487596","0.0-2.0-11.3-3.3","battery-v0.2","","""event"",""trial"",""time""
""fullscreenenter"",""1"",""5513""
","
","
","""event"",""trial"",""time""
""fullscreenenter"",""1"",""5513""
","
","","","148.20000000006985","","","15","9764","4416","&#9761;","elianto","#3366ff99","-1"," ","0","+10","[1001.9000000000233]","1","0","2","","","","","","","",""
"pit-trial","56","490620","0.0-2.0-11.3-4.3","battery-v0.2","","""event"",""trial"",""time""
""fullscreenenter"",""1"",""5513""
","
","
","""event"",""trial"",""time""
""fullscreenenter"",""1"",""5513""
","
","","","160.09999999997672","","","15","9764","4416","&#9761;","elianto","#3366ff99","-1"," ","0","0","[1015.4000000000233]","1","0","2","","","","","","","",""
"call-function","57","490623","0.0-2.0-12.0","battery-v0.2","","""event"",""trial"",""time""
""fullscreenenter"",""1"",""5513""
","
","
","""event"",""trial"",""time""
""fullscreenenter"",""1"",""5513""
","
","","","","","","","","","","","","","","","","","","","","","","","","","","",""
"pit-instructions","58","529523","0.0-2.0-13.0","battery-v0.2","","""event"",""trial"",""time""
""fullscreenenter"",""1"",""5513""
","
","
","""event"",""trial"",""time""
""fullscreenenter"",""1"",""5513""
","
","","[{""page_index"":0,""viewing_time"":6676.199999999953},{""page_index"":1,""viewing_time"":7989.5},{""page_index"":2,""viewing_time"":6090},{""page_index"":3,""viewing_time"":12345.099999999919},{""page_index"":4,""viewing_time"":5798.700000000186}]","38899.899999999965","","","","","","","","","","","","","","","","","","","","","","","",""
"pit-trial","59","532764","0.0-2.0-14.0-0.0","battery-v0.2","","""event"",""trial"",""time""
""fullscreenenter"",""1"",""5513""
","
","
","""event"",""trial"",""time""
""fullscreenenter"",""1"",""5513""
","
","","","384.9000000001397","","","15","9764","4416","&#9826;","elianto","#f73b6a7A","-1"," ","0","-10","[1238.3000000000466]","1","0","3","","","","","","","",""
"pit-trial","60","535773","0.0-2.0-14.0-1.0","battery-v0.2","","""event"",""trial"",""time""
""fullscreenenter"",""1"",""5513""
","
","
","""event"",""trial"",""time""
""fullscreenenter"",""1"",""5513""
","
","","","144.5","","","15","9764","4416","&#9826;","elianto","#f73b6a7A","-1"," ","0","-10","[998]","1","0","3","","","","","","","",""
"pit-trial","61","538781","0.0-2.0-14.0-2.0","battery-v0.2","","""event"",""trial"",""time""
""fullscreenenter"",""1"",""5513""
","
","
","""event"",""trial"",""time""
""fullscreenenter"",""1"",""5513""
","
","","","150.39999999990687","","","15","9764","4416","&#9826;","elianto","#f73b6a7A","-1"," ","0","-10","[1003.6999999999534]","1","0","3","","","","","","","",""
"pit-trial","62","543644","0.0-2.0-14.0-3.0","battery-v0.2","","""event"",""trial"",""time""
""fullscreenenter"",""1"",""5513""
","
","
","""event"",""trial"",""time""
""fullscreenenter"",""1"",""5513""
","
","","","-1","","","15","9764","4416","&#9826;","elianto","#f73b6a7A","-1","-1","1","-10","[]","0","0","3","","","","","","","",""
"pit-trial","63","548508","0.0-2.0-14.0-4.0","battery-v0.2","","""event"",""trial"",""time""
""fullscreenenter"",""1"",""5513""
","
","
","""event"",""trial"",""time""
""fullscreenenter"",""1"",""5513""
","
","","","-1","","","15","9764","4416","&#9826;","elianto","#f73b6a7A","-1","-1","1","0","[]","0","0","3","","","","","","","",""
"pit-trial","64","553372","0.0-2.0-14.1-0.1","battery-v0.2","","""event"",""trial"",""time""
""fullscreenenter"",""1"",""5513""
","
","
","""event"",""trial"",""time""
""fullscreenenter"",""1"",""5513""
","
","","","-1","","","15","9764","4416","&#9826;","elianto","#f73b6a7A","-1","-1","1","0","[]","0","0","3","","","","","","","",""
"pit-trial","65","558237","0.0-2.0-14.1-1.1","battery-v0.2","","""event"",""trial"",""time""
""fullscreenenter"",""1"",""5513""
","
","
","""event"",""trial"",""time""
""fullscreenenter"",""1"",""5513""
","
","","","-1","","","15","9764","4416","&#9826;","elianto","#f73b6a7A","-1","-1","1","0","[]","0","0","3","","","","","","","",""
"pit-trial","66","563100","0.0-2.0-14.1-2.1","battery-v0.2","","""event"",""trial"",""time""
""fullscreenenter"",""1"",""5513""
","
","
","""event"",""trial"",""time""
""fullscreenenter"",""1"",""5513""
","
","","","-1","","","15","9764","4416","&#9826;","elianto","#f73b6a7A","-1","-1","1","0","[]","0","0","3","","","","","","","",""
"pit-trial","67","567964","0.0-2.0-14.1-3.1","battery-v0.2","","""event"",""trial"",""time""
""fullscreenenter"",""1"",""5513""
","
","
","""event"",""trial"",""time""
""fullscreenenter"",""1"",""5513""
","
","","","-1","","","15","9764","4416","&#9826;","elianto","#f73b6a7A","-1","-1","1","-10","[]","0","0","3","","","","","","","",""
"pit-trial","68","572828","0.0-2.0-14.1-4.1","battery-v0.2","","""event"",""trial"",""time""
""fullscreenenter"",""1"",""5513""
","
","
","""event"",""trial"",""time""
""fullscreenenter"",""1"",""5513""
","
","","","-1","","","15","9764","4416","&#9826;","elianto","#f73b6a7A","-1","-1","1","0","[]","0","0","3","","","","","","","",""
"pit-trial","69","577693","0.0-2.0-14.2-0.2","battery-v0.2","","""event"",""trial"",""time""
""fullscreenenter"",""1"",""5513""
","
","
","""event"",""trial"",""time""
""fullscreenenter"",""1"",""5513""
","
","","","-1","","","15","9764","4416","&#9826;","elianto","#f73b6a7A","-1","-1","1","0","[]","0","0","3","","","","","","","",""
"pit-trial","70","582557","0.0-2.0-14.2-1.2","battery-v0.2","","""event"",""trial"",""time""
""fullscreenenter"",""1"",""5513""
","
","
","""event"",""trial"",""time""
""fullscreenenter"",""1"",""5513""
","
","","","-1","","","15","9764","4416","&#9826;","elianto","#f73b6a7A","-1","-1","1","0","[]","0","0","3","","","","","","","",""
"pit-trial","71","587420","0.0-2.0-14.2-2.2","battery-v0.2","","""event"",""trial"",""time""
""fullscreenenter"",""1"",""5513""
","
","
","""event"",""trial"",""time""
""fullscreenenter"",""1"",""5513""
","
","","","-1","","","15","9764","4416","&#9826;","elianto","#f73b6a7A","-1","-1","1","0","[]","0","0","3","","","","","","","",""
"pit-trial","72","592284","0.0-2.0-14.2-3.2","battery-v0.2","","""event"",""trial"",""time""
""fullscreenenter"",""1"",""5513""
","
","
","""event"",""trial"",""time""
""fullscreenenter"",""1"",""5513""
","
","","","-1","","","15","9764","4416","&#9826;","elianto","#f73b6a7A","-1","-1","1","-10","[]","0","0","3","","","","","","","",""
"pit-trial","73","597148","0.0-2.0-14.2-4.2","battery-v0.2","","""event"",""trial"",""time""
""fullscreenenter"",""1"",""5513""
","
","
","""event"",""trial"",""time""
""fullscreenenter"",""1"",""5513""
","
","","","-1","","","15","9764","4416","&#9826;","elianto","#f73b6a7A","-1","-1","1","0","[]","0","0","3","","","","","","","",""
"pit-trial","74","602012","0.0-2.0-14.3-0.3","battery-v0.2","","""event"",""trial"",""time""
""fullscreenenter"",""1"",""5513""
","
","
","""event"",""trial"",""time""
""fullscreenenter"",""1"",""5513""
","
","","","-1","","","15","9764","4416","&#9826;","elianto","#f73b6a7A","-1","-1","1","0","[]","0","0","3","","","","","","","",""
"pit-trial","75","606876","0.0-2.0-14.3-1.3","battery-v0.2","","""event"",""trial"",""time""
""fullscreenenter"",""1"",""5513""
","
","
","""event"",""trial"",""time""
""fullscreenenter"",""1"",""5513""
","
","","","-1","","","15","9764","4416","&#9826;","elianto","#f73b6a7A","-1","-1","1","0","[]","0","0","3","","","","","","","",""
"pit-trial","76","611740","0.0-2.0-14.3-2.3","battery-v0.2","","""event"",""trial"",""time""
""fullscreenenter"",""1"",""5513""
","
","
","""event"",""trial"",""time""
""fullscreenenter"",""1"",""5513""
","
","","","-1","","","15","9764","4416","&#9826;","elianto","#f73b6a7A","-1","-1","1","0","[]","0","0","3","","","","","","","",""
"pit-trial","77","616604","0.0-2.0-14.3-3.3","battery-v0.2","","""event"",""trial"",""time""
""fullscreenenter"",""1"",""5513""
","
","
","""event"",""trial"",""time""
""fullscreenenter"",""1"",""5513""
","
","","","-1","","","15","9764","4416","&#9826;","elianto","#f73b6a7A","-1","-1","1","-10","[]","0","0","3","","","","","","","",""
"pit-trial","78","621468","0.0-2.0-14.3-4.3","battery-v0.2","","""event"",""trial"",""time""
""fullscreenenter"",""1"",""5513""
","
","
","""event"",""trial"",""time""
""fullscreenenter"",""1"",""5513""
","
","","","-1","","","15","9764","4416","&#9826;","elianto","#f73b6a7A","-1","-1","1","0","[]","0","0","3","","","","","","","",""
"call-function","79","621470","0.0-2.0-15.0","battery-v0.2","","""event"",""trial"",""time""
""fullscreenenter"",""1"",""5513""
","
","
","""event"",""trial"",""time""
""fullscreenenter"",""1"",""5513""
","
","","","","","","","","","","","","","","","","","","","","","","","","","","",""
"pit-instructions","80","649205","0.0-2.0-16.0","battery-v0.2","","""event"",""trial"",""time""
""fullscreenenter"",""1"",""5513""
","
","
","""event"",""trial"",""time""
""fullscreenenter"",""1"",""5513""
","
","","[{""page_index"":0,""viewing_time"":7837.800000000047},{""page_index"":1,""viewing_time"":8488.399999999907},{""page_index"":2,""viewing_time"":5641.200000000186},{""page_index"":3,""viewing_time"":5765.799999999814}]","27734","","","","","","","","","","","","","","","","","","","","","","","",""
"pit-trial","81","654068","0.0-2.0-17.0-0.0","battery-v0.2","","""event"",""trial"",""time""
""fullscreenenter"",""1"",""5513""
","
","
","""event"",""trial"",""time""
""fullscreenenter"",""1"",""5513""
","
","","","-1","","","15","9764","4416","&#9789;","elianto","#f73b6a7A"," ","-1","0","-10","[]","0","0","4","","","","","","","",""
"pit-trial","82","657413","0.0-2.0-17.0-1.0","battery-v0.2","","""event"",""trial"",""time""
""fullscreenenter"",""1"",""5513""
","
","
","""event"",""trial"",""time""
""fullscreenenter"",""1"",""5513""
","
","","","488.5","","","15","9764","4416","&#9789;","elianto","#f73b6a7A"," "," ","1","0","[1340.8000000000466]","1","0","4","","","","","","","",""
"pit-trial","83","660612","0.0-2.0-17.0-2.0","battery-v0.2","","""event"",""trial"",""time""
""fullscreenenter"",""1"",""5513""
","
","
","""event"",""trial"",""time""
""fullscreenenter"",""1"",""5513""
","
","","","337.69999999995343","","","15","9764","4416","&#9789;","elianto","#f73b6a7A"," "," ","1","0","[1191.6000000000931]","1","0","4","","","","","","","",""
"pit-trial","84","663548","0.0-2.0-17.0-3.0","battery-v0.2","","""event"",""trial"",""time""
""fullscreenenter"",""1"",""5513""
","
","
","""event"",""trial"",""time""
""fullscreenenter"",""1"",""5513""
","
","","","78.5","","","15","9764","4416","&#9789;","elianto","#f73b6a7A"," "," ","1","-10","[929.3000000000466]","1","0","4","","","","","","","",""
"pit-trial","85","666525","0.0-2.0-17.0-4.0","battery-v0.2","","""event"",""trial"",""time""
""fullscreenenter"",""1"",""5513""
","
","
","""event"",""trial"",""time""
""fullscreenenter"",""1"",""5513""
","
","","","113.69999999995343","","","15","9764","4416","&#9789;","elianto","#f73b6a7A"," "," ","1","0","[967.7000000001863]","1","0","4","","","","","","","",""
"pit-trial","86","669421","0.0-2.0-17.1-0.1","battery-v0.2","","""event"",""trial"",""time""
""fullscreenenter"",""1"",""5513""
","
","
","""event"",""trial"",""time""
""fullscreenenter"",""1"",""5513""
","
","","","33.39999999990687","","","15","9764","4416","&#9789;","elianto","#f73b6a7A"," "," ","1","0","[886.2999999998137]","1","0","4","","","","","","","",""
"pit-trial","87","672484","0.0-2.0-17.1-1.1","battery-v0.2","","""event"",""trial"",""time""
""fullscreenenter"",""1"",""5513""
","
","
","""event"",""trial"",""time""
""fullscreenenter"",""1"",""5513""
","
","","","203.5","","","15","9764","4416","&#9789;","elianto","#f73b6a7A"," "," ","1","0","[1054]","1","0","4","","","","","","","",""
"pit-trial","88","677348","0.0-2.0-17.1-2.1","battery-v0.2","","""event"",""trial"",""time""
""fullscreenenter"",""1"",""5513""
","
","
","""event"",""trial"",""time""
""fullscreenenter"",""1"",""5513""
","
","","","-1","","","15","9764","4416","&#9789;","elianto","#f73b6a7A"," ","-1","0","-10","[]","0","0","4","","","","","","","",""
"pit-trial","89","682212","0.0-2.0-17.1-3.1","battery-v0.2","","""event"",""trial"",""time""
""fullscreenenter"",""1"",""5513""
","
","
","""event"",""trial"",""time""
""fullscreenenter"",""1"",""5513""
","
","","","-1","","","15","9764","4416","&#9789;","elianto","#f73b6a7A"," ","-1","0","0","[]","0","0","4","","","","","","","",""
"pit-trial","90","687076","0.0-2.0-17.1-4.1","battery-v0.2","","""event"",""trial"",""time""
""fullscreenenter"",""1"",""5513""
","
","
","""event"",""trial"",""time""
""fullscreenenter"",""1"",""5513""
","
","","","-1","","","15","9764","4416","&#9789;","elianto","#f73b6a7A"," ","-1","0","-10","[]","0","0","4","","","","","","","",""
"pit-trial","91","691940","0.0-2.0-17.2-0.2","battery-v0.2","","""event"",""trial"",""time""
""fullscreenenter"",""1"",""5513""
","
","
","""event"",""trial"",""time""
""fullscreenenter"",""1"",""5513""
","
","","","-1","","","15","9764","4416","&#9789;","elianto","#f73b6a7A"," ","-1","0","-10","[]","0","0","4","","","","","","","",""
"pit-trial","92","696805","0.0-2.0-17.2-1.2","battery-v0.2","","""event"",""trial"",""time""
""fullscreenenter"",""1"",""5513""
","
","
","""event"",""trial"",""time""
""fullscreenenter"",""1"",""5513""
","
","","","-1","","","15","9764","4416","&#9789;","elianto","#f73b6a7A"," ","-1","0","-10","[]","0","0","4","","","","","","","",""
"pit-trial","93","701669","0.0-2.0-17.2-2.2","battery-v0.2","","""event"",""trial"",""time""
""fullscreenenter"",""1"",""5513""
","
","
","""event"",""trial"",""time""
""fullscreenenter"",""1"",""5513""
","
","","","-1","","","15","9764","4416","&#9789;","elianto","#f73b6a7A"," ","-1","0","-10","[]","0","0","4","","","","","","","",""
"pit-trial","94","706532","0.0-2.0-17.2-3.2","battery-v0.2","","""event"",""trial"",""time""
""fullscreenenter"",""1"",""5513""
","
","
","""event"",""trial"",""time""
""fullscreenenter"",""1"",""5513""
","
","","","-1","","","15","9764","4416","&#9789;","elianto","#f73b6a7A"," ","-1","0","0","[]","0","0","4","","","","","","","",""
"pit-trial","95","711396","0.0-2.0-17.2-4.2","battery-v0.2","","""event"",""trial"",""time""
""fullscreenenter"",""1"",""5513""
","
","
","""event"",""trial"",""time""
""fullscreenenter"",""1"",""5513""
","
","","","-1","","","15","9764","4416","&#9789;","elianto","#f73b6a7A"," ","-1","0","-10","[]","0","0","4","","","","","","","",""
"pit-trial","96","716260","0.0-2.0-17.3-0.3","battery-v0.2","","""event"",""trial"",""time""
""fullscreenenter"",""1"",""5513""
","
","
","""event"",""trial"",""time""
""fullscreenenter"",""1"",""5513""
","
","","","-1","","","15","9764","4416","&#9789;","elianto","#f73b6a7A"," ","-1","0","-10","[]","0","0","4","","","","","","","",""
"pit-trial","97","719580","0.0-2.0-17.3-1.3","battery-v0.2","","""event"",""trial"",""time""
""fullscreenenter"",""1"",""5513""
","
","
","""event"",""trial"",""time""
""fullscreenenter"",""1"",""5513""
","
","","","462","","","15","9764","4416","&#9789;","elianto","#f73b6a7A"," "," ","1","0","[1315.8999999999069]","1","0","4","","","","","","","",""
"pit-trial","98","722612","0.0-2.0-17.3-2.3","battery-v0.2","","""event"",""trial"",""time""
""fullscreenenter"",""1"",""5513""
","
","
","""event"",""trial"",""time""
""fullscreenenter"",""1"",""5513""
","
","","","173.19999999995343","","","15","9764","4416","&#9789;","elianto","#f73b6a7A"," "," ","1","0","[1026.8999999999069]","1","0","4","","","","","","","",""
"pit-trial","99","725628","0.0-2.0-17.3-3.3","battery-v0.2","","""event"",""trial"",""time""
""fullscreenenter"",""1"",""5513""
","
","
","""event"",""trial"",""time""
""fullscreenenter"",""1"",""5513""
","
","","","154.69999999995343","","","15","9764","4416","&#9789;","elianto","#f73b6a7A"," "," ","1","-10","[1007.6999999999534]","1","0","4","","","","","","","",""
"pit-trial","100","728628","0.0-2.0-17.3-4.3","battery-v0.2","","""event"",""trial"",""time""
""fullscreenenter"",""1"",""5513""
","
","
","""event"",""trial"",""time""
""fullscreenenter"",""1"",""5513""
","
","","","145.5","","","15","9764","4416","&#9789;","elianto","#f73b6a7A"," "," ","1","0","[996.4000000001397]","1","0","4","","","","","","","",""
"call-function","101","728630","0.0-2.0-18.0","battery-v0.2","","""event"",""trial"",""time""
""fullscreenenter"",""1"",""5513""
","
","
","""event"",""trial"",""time""
""fullscreenenter"",""1"",""5513""
","
","","","","","","","","","","","","","","","","","","","","","","","","","","",""
"pit-instructions","102","804052","0.0-2.0-19.0","battery-v0.2","","""event"",""trial"",""time""
""fullscreenenter"",""1"",""5513""
","
","
","""event"",""trial"",""time""
""fullscreenenter"",""1"",""5513""
","
","","[{""page_index"":0,""viewing_time"":6881.5},{""page_index"":1,""viewing_time"":5942.5},{""page_index"":2,""viewing_time"":13751.300000000047},{""page_index"":3,""viewing_time"":8203.40000000014},{""page_index"":4,""viewing_time"":10289.399999999907},{""page_index"":5,""viewing_time"":9615},{""page_index"":6,""viewing_time"":8910.899999999907},{""page_index"":7,""viewing_time"":6932.300000000047},{""page_index"":8,""viewing_time"":4894}]","75421","","","","","","","","","","","","","","","","","","","","","","","",""
"pit-comprehension","103","809074","0.0-2.0-20.0-0.0","battery-v0.2","","""event"",""trial"",""time""
""fullscreenenter"",""1"",""5513""
","
","
","""event"",""trial"",""time""
""fullscreenenter"",""1"",""5513""
","
","","","5015.399999999907","[""SPACE""]","0","15","9764","4416","","","","","","","","","","","","","","","","","","",""
"pit-instructions","104","814677","0.0-2.0-20.0-1.0","battery-v0.2","","""event"",""trial"",""time""
""fullscreenenter"",""1"",""5513""
","
","
","""event"",""trial"",""time""
""fullscreenenter"",""1"",""5513""
","
","","[{""page_index"":0,""viewing_time"":5564.300000000047}]","5565.200000000186","","","","","","","","","","","","","","","","","","","","","","","",""
"pit-comprehension","105","828050","0.0-2.0-21.0-0.0","battery-v0.2","","""event"",""trial"",""time""
""fullscreenenter"",""1"",""5513""
","
","
","""event"",""trial"",""time""
""fullscreenenter"",""1"",""5513""
","
","","","13366.699999999953","[""10""]","0","15","9764","4416","","","","","","","","","","","","","","","","","","",""
"pit-instructions","106","830868","0.0-2.0-21.0-1.0","battery-v0.2","","""event"",""trial"",""time""
""fullscreenenter"",""1"",""5513""
","
","
","""event"",""trial"",""time""
""fullscreenenter"",""1"",""5513""
","
","","[{""page_index"":0,""viewing_time"":2779.3000000000466}]","2779.5999999998603","","","","","","","","","","","","","","","","","","","","","","","",""
"pit-comprehension","107","837405","0.0-2.0-22.0-0.0","battery-v0.2","","""event"",""trial"",""time""
""fullscreenenter"",""1"",""5513""
","
","
","""event"",""trial"",""time""
""fullscreenenter"",""1"",""5513""
","
","","","6532.899999999907","[""0""]","0","15","9764","4416","","","","","","","","","","","","","","","","","","",""
"pit-instructions","108","839388","0.0-2.0-22.0-1.0","battery-v0.2","","""event"",""trial"",""time""
""fullscreenenter"",""1"",""5513""
","
","
","""event"",""trial"",""time""
""fullscreenenter"",""1"",""5513""
","
","","[{""page_index"":0,""viewing_time"":1943.3999999999069}]","1943.7999999998137","","","","","","","","","","","","","","","","","","","","","","","",""
"pit-comprehension","109","864740","0.0-2.0-23.0-0.0","battery-v0.2","","""event"",""trial"",""time""
""fullscreenenter"",""1"",""5513""
","
","
","""event"",""trial"",""time""
""fullscreenenter"",""1"",""5513""
","
","","","25347.800000000047","[""False""]","1","15","9764","4416","","","","","","","","","","","","","","","","","","",""
"pit-instructions","110","870364","0.0-2.0-23.0-1.0","battery-v0.2","","""event"",""trial"",""time""
""fullscreenenter"",""1"",""5513""
","
","
","""event"",""trial"",""time""
""fullscreenenter"",""1"",""5513""
","
","","[{""page_index"":0,""viewing_time"":5581.100000000093}]","5581.5","","","","","","","","","","","","","","","","","","","","","","","",""
"pit-instructions","111","874773","0.0-2.0-23.0-2.0-0.0","battery-v0.2","","""event"",""trial"",""time""
""fullscreenenter"",""1"",""5513""
","
","
","""event"",""trial"",""time""
""fullscreenenter"",""1"",""5513""
","
","","[{""page_index"":0,""viewing_time"":4405.40000000014}]","4406","","","","","","","","","","","","","","","","","","","","","","","",""
"pit-comprehension","112","883261","0.0-2.0-23.1-0.1","battery-v0.2","","""event"",""trial"",""time""
""fullscreenenter"",""1"",""5513""
","
","
","""event"",""trial"",""time""
""fullscreenenter"",""1"",""5513""
","
","","","8484.899999999907","[""True""]","0","15","9764","4416","","","","","","","","","","","","","","","","","","",""
"pit-instructions","113","888349","0.0-2.0-23.1-1.1","battery-v0.2","","""event"",""trial"",""time""
""fullscreenenter"",""1"",""5513""
","
","
","""event"",""trial"",""time""
""fullscreenenter"",""1"",""5513""
","
","","[{""page_index"":0,""viewing_time"":5049}]","5049.699999999953","","","","","","","","","","","","","","","","","","","","","","","",""
"pit-comprehension","114","897281","0.0-2.0-24.0-0.0","battery-v0.2","","""event"",""trial"",""time""
""fullscreenenter"",""1"",""5513""
","
","
","""event"",""trial"",""time""
""fullscreenenter"",""1"",""5513""
","
","","","8925.09999999986","[""True""]","0","15","9764","4416","","","","","","","","","","","","","","","","","","",""
"pit-instructions","115","899134","0.0-2.0-24.0-1.0","battery-v0.2","","""event"",""trial"",""time""
""fullscreenenter"",""1"",""5513""
","
","
","""event"",""trial"",""time""
""fullscreenenter"",""1"",""5513""
","
","","[{""page_index"":0,""viewing_time"":1811.8000000000466}]","1812.3000000000466","","","","","","","","","","","","","","","","","","","","","","","",""
"pit-comprehension","116","906312","0.0-2.0-25.0-0.0","battery-v0.2","","""event"",""trial"",""time""
""fullscreenenter"",""1"",""5513""
","
","
","""event"",""trial"",""time""
""fullscreenenter"",""1"",""5513""
","
","","","7172.90000000014","[""True""]","0","15","9764","4416","","","","","","","","","","","","","","","","","","",""
"pit-instructions","117","908232","0.0-2.0-25.0-1.0","battery-v0.2","","""event"",""trial"",""time""
""fullscreenenter"",""1"",""5513""
","
","
","""event"",""trial"",""time""
""fullscreenenter"",""1"",""5513""
","
","","[{""page_index"":0,""viewing_time"":1877.5999999998603}]","1878.1999999999534","","","","","","","","","","","","","","","","","","","","","","","",""
"pit-comprehension","118","914514","0.0-2.0-26.0-0.0","battery-v0.2","","""event"",""trial"",""time""
""fullscreenenter"",""1"",""5513""
","
","
","""event"",""trial"",""time""
""fullscreenenter"",""1"",""5513""
","
","","","6275.90000000014","[""False""]","0","15","9764","4416","","","","","","","","","","","","","","","","","","",""
"pit-instructions","119","916339","0.0-2.0-26.0-1.0","battery-v0.2","","""event"",""trial"",""time""
""fullscreenenter"",""1"",""5513""
","
","
","""event"",""trial"",""time""
""fullscreenenter"",""1"",""5513""
","
","","[{""page_index"":0,""viewing_time"":1785}]","1785.3000000000466","","","","","","","","","","","","","","","","","","","","","","","",""
"pit-instructions","120","932440","0.0-3.0","battery-v0.2","","""event"",""trial"",""time""
""fullscreenenter"",""1"",""5513""
","
","
","""event"",""trial"",""time""
""fullscreenenter"",""1"",""5513""
","
","","[{""page_index"":0,""viewing_time"":3776.8000000000466},{""page_index"":1,""viewing_time"":5820.699999999953},{""page_index"":2,""viewing_time"":6500.40000000014}]","16098.300000000047","","","","","","","","","","","","","","","","","","","","","","","",""
"pit-trial","121","936341","0.0-4.0","battery-v0.2","","""event"",""trial"",""time""
""fullscreenenter"",""1"",""5513""
","
","
","""event"",""trial"",""time""
""fullscreenenter"",""1"",""5513""
","
","","","1038.0999999998603","","","15","9764","4416","&#9730;","elianto","#3366ff99"," "," ","1","+10","[1889.1000000000931]","1","1","","","9764","1","1","1","win","go","0"
"pit-trial","122","939804","0.0-5.0","battery-v0.2","","""event"",""trial"",""time""
""fullscreenenter"",""1"",""5513""
","
","
","""event"",""trial"",""time""
""fullscreenenter"",""1"",""5513""
","
","","","605.8999999999069","","","15","9764","4416","&#9733;","elianto","#3366ff99","-1"," ","0","0","[1459.4000000001397]","1","1","","","9764","2","2","2","win","no-go","0"
"pit-trial","123","942869","0.0-6.0","battery-v0.2","","""event"",""trial"",""time""
""fullscreenenter"",""1"",""5513""
","
","
","""event"",""trial"",""time""
""fullscreenenter"",""1"",""5513""
","
","","","201.80000000004657","","","15","9764","4416","&#9752;","elianto","#f73b6a7A"," "," ","1","0","[1055.4000000001397]","1","1","","","9764","3","3","3","lose","go","0"
"pit-trial","124","946381","0.0-7.0","battery-v0.2","","""event"",""trial"",""time""
""fullscreenenter"",""1"",""5513""
","
","
","""event"",""trial"",""time""
""fullscreenenter"",""1"",""5513""
","
","","","650.1999999999534","","","15","9764","4416","&#9728;","elianto","#f73b6a7A","-1"," ","0","0","[1503.5]","1","1","","","9764","4","0","4","lose","no-go","1"
"pit-trial","125","949653","0.0-8.0","battery-v0.2","","""event"",""trial"",""time""
""fullscreenenter"",""1"",""5513""
","
","
","""event"",""trial"",""time""
""fullscreenenter"",""1"",""5513""
","
","","","408.60000000009313","","","15","9764","4416","&#9730;","elianto","#3366ff99"," "," ","1","+10","[1262.0999999998603]","1","1","","","9764","5","1","1","win","go","0"
"pit-trial","126","952981","0.0-9.0","battery-v0.2","","""event"",""trial"",""time""
""fullscreenenter"",""1"",""5513""
","
","
","""event"",""trial"",""time""
""fullscreenenter"",""1"",""5513""
","
","","","469.80000000004657","","","15","9764","4416","&#9728;","elianto","#f73b6a7A","-1"," ","0","-10","[1323.0999999998603]","1","1","","","9764","6","0","4","lose","no-go","0"
"pit-trial","127","956380","0.0-10.0","battery-v0.2","","""event"",""trial"",""time""
""fullscreenenter"",""1"",""5513""
","
","
","""event"",""trial"",""time""
""fullscreenenter"",""1"",""5513""
","
","","","537.6000000000931","","","15","9764","4416","&#9733;","elianto","#3366ff99","-1"," ","0","0","[1391.5]","1","1","","","9764","7","2","2","win","no-go","0"
"pit-trial","128","961244","0.0-11.0","battery-v0.2","","""event"",""trial"",""time""
""fullscreenenter"",""1"",""5513""
","
","
","""event"",""trial"",""time""
""fullscreenenter"",""1"",""5513""
","
","","","-1","","","15","9764","4416","&#9752;","elianto","#f73b6a7A"," ","-1","0","-10","[]","0","1","","","9764","8","3","3","lose","go","0"
"pit-trial","129","964381","0.0-12.0","battery-v0.2","","""event"",""trial"",""time""
""fullscreenenter"",""1"",""5513""
","
","
","""event"",""trial"",""time""
""fullscreenenter"",""1"",""5513""
","
","","","281.10000000009313","","","15","9764","4416","&#9728;","elianto","#f73b6a7A","-1"," ","0","-10","[1132.1999999999534]","1","1","","","9764","9","0","4","lose","no-go","0"
"pit-trial","130","969244","0.0-13.0","battery-v0.2","","""event"",""trial"",""time""
""fullscreenenter"",""1"",""5513""
","
","
","""event"",""trial"",""time""
""fullscreenenter"",""1"",""5513""
","
","","","-1","","","15","9764","4416","&#9752;","elianto","#f73b6a7A"," ","-1","0","-10","[]","0","1","","","9764","10","3","3","lose","go","0"
"pit-trial","131","972821","0.0-14.0","battery-v0.2","","""event"",""trial"",""time""
""fullscreenenter"",""1"",""5513""
","
","
","""event"",""trial"",""time""
""fullscreenenter"",""1"",""5513""
","
","","","713.3000000000466","","","15","9764","4416","&#9730;","elianto","#3366ff99"," "," ","1","+10","[1567]","1","1","","","9764","11","1","1","win","go","0"
"pit-trial","132","976797","0.0-15.0","battery-v0.2","","""event"",""trial"",""time""
""fullscreenenter"",""1"",""5513""
","
","
","""event"",""trial"",""time""
""fullscreenenter"",""1"",""5513""
","
","","","1118.9000000001397","","","15","9764","4416","&#9733;","elianto","#3366ff99","-1"," ","0","0","[1972.3000000000466]","1","1","","","9764","12","2","2","win","no-go","0"
"pit-trial","133","980388","0.0-16.0","battery-v0.2","","""event"",""trial"",""time""
""fullscreenenter"",""1"",""5513""
","
","
","""event"",""trial"",""time""
""fullscreenenter"",""1"",""5513""
","
","","","733.5","","","15","9764","4416","&#9730;","elianto","#3366ff99"," "," ","1","+10","[1587]","1","1","","","9764","13","1","1","win","go","0"
"pit-trial","134","984548","0.0-17.0","battery-v0.2","","""event"",""trial"",""time""
""fullscreenenter"",""1"",""5513""
","
","
","""event"",""trial"",""time""
""fullscreenenter"",""1"",""5513""
","
","","","1300.3000000000466","","","15","9764","4416","&#9752;","elianto","#f73b6a7A"," "," ","1","0","[2154.0999999998603]","1","1","","","9764","14","3","3","lose","go","0"
"pit-trial","135","988244","0.0-18.0","battery-v0.2","","""event"",""trial"",""time""
""fullscreenenter"",""1"",""5513""
","
","
","""event"",""trial"",""time""
""fullscreenenter"",""1"",""5513""
","
","","","836.3000000000466","","","15","9764","4416","&#9728;","elianto","#f73b6a7A","-1"," ","0","-10","[1690.1000000000931]","1","1","","","9764","15","0","4","lose","no-go","0"
"pit-trial","136","991804","0.0-19.0","battery-v0.2","","""event"",""trial"",""time""
""fullscreenenter"",""1"",""5513""
","
","
","""event"",""trial"",""time""
""fullscreenenter"",""1"",""5513""
","
","","","695.3000000000466","","","15","9764","4416","&#9733;","elianto","#3366ff99","-1"," ","0","0","[1548.8999999999069]","1","1","","","9764","16","2","2","win","no-go","0"
"pit-trial","137","996669","0.0-20.0","battery-v0.2","","""event"",""trial"",""time""
""fullscreenenter"",""1"",""5513""
","
","
","""event"",""trial"",""time""
""fullscreenenter"",""1"",""5513""
","
","","","-1","","","15","9764","4416","&#9752;","elianto","#f73b6a7A"," ","-1","0","-10","[2921]","1","1","","","9764","17","3","3","lose","go","0"
"pit-trial","138","1001532","0.0-21.0","battery-v0.2","","""event"",""trial"",""time""
""fullscreenenter"",""1"",""5513""
","
","
","""event"",""trial"",""time""
""fullscreenenter"",""1"",""5513""
","
","","","-1","","","15","9764","4416","&#9730;","elianto","#3366ff99"," ","-1","0","+10","[]","0","1","","","9764","18","1","1","win","go","1"
"pit-trial","139","1004676","0.0-22.0","battery-v0.2","","""event"",""trial"",""time""
""fullscreenenter"",""1"",""5513""
","
","
","""event"",""trial"",""time""
""fullscreenenter"",""1"",""5513""
","
","","","284.5","","","15","9764","4416","&#9733;","elianto","#3366ff99","-1"," ","0","0","[1138]","1","1","","","9764","19","2","2","win","no-go","0"
"pit-trial","140","1009540","0.0-23.0","battery-v0.2","","""event"",""trial"",""time""
""fullscreenenter"",""1"",""5513""
","
","
","""event"",""trial"",""time""
""fullscreenenter"",""1"",""5513""
","
","","","-1","","","15","9764","4416","&#9728;","elianto","#f73b6a7A","-1","-1","1","0","[]","0","1","","","9764","20","0","4","lose","no-go","0"
"pit-instructions","141","1024559","0.0-24.0","battery-v0.2","","""event"",""trial"",""time""
""fullscreenenter"",""1"",""5513""
","
","
","""event"",""trial"",""time""
""fullscreenenter"",""1"",""5513""
","
","","[{""page_index"":0,""viewing_time"":7722.09999999986},{""page_index"":1,""viewing_time"":7294.40000000014}]","15016.899999999907","","","","","","","","","","","","","","","","","","","","","","","",""
"pit-trial","142","1028188","0.0-25.0","battery-v0.2","","""event"",""trial"",""time""
""fullscreenenter"",""1"",""5513""
","
","
","""event"",""trial"",""time""
""fullscreenenter"",""1"",""5513""
","
","","","768.0999999998603","","","15","9764","4416","a","elianto","#f73b6a7A","-1"," ","0","-10","[1623.5999999998603]","1","2","","","9764","21","2","4","lose","no-go","0"
"pit-trial","143","1032021","0.0-26.0","battery-v0.2","","""event"",""trial"",""time""
""fullscreenenter"",""1"",""5513""
","
","
","""event"",""trial"",""time""
""fullscreenenter"",""1"",""5513""
","
","","","969.5","","","15","9764","4416","l","elianto","#3366ff99"," "," ","1","+10","[1823.2999999998137]","1","2","","","9764","22","1","1","win","go","0"
"pit-trial","144","1036884","0.0-27.0","battery-v0.2","","""event"",""trial"",""time""
""fullscreenenter"",""1"",""5513""
","
","
","""event"",""trial"",""time""
""fullscreenenter"",""1"",""5513""
","
","","","-1","","","15","9764","4416","g","elianto","#f73b6a7A"," ","-1","0","0","[]","0","2","","","9764","23","3","3","lose","go","1"
"pit-trial","145","1040324","0.0-28.0","battery-v0.2","","""event"",""trial"",""time""
""fullscreenenter"",""1"",""5513""
","
","
","""event"",""trial"",""time""
""fullscreenenter"",""1"",""5513""
","
","","","578.3999999999069","","","15","9764","4416","u","elianto","#f73b6a7A","-1"," ","0","0","[1435.1000000000931]","1","2","","","9764","24","0","4","lose","no-go","1"
"pit-trial","146","1043700","0.0-29.0","battery-v0.2","","""event"",""trial"",""time""
""fullscreenenter"",""1"",""5513""
","
","
","""event"",""trial"",""time""
""fullscreenenter"",""1"",""5513""
","
","","","518.9000000001397","","","15","9764","4416","l","elianto","#3366ff99"," "," ","1","+10","[1373.1999999999534]","1","2","","","9764","25","1","1","win","go","0"
"pit-trial","147","1048565","0.0-30.0","battery-v0.2","","""event"",""trial"",""time""
""fullscreenenter"",""1"",""5513""
","
","
","""event"",""trial"",""time""
""fullscreenenter"",""1"",""5513""
","
","","","-1","","","15","9764","4416","a","elianto","#f73b6a7A","-1","-1","1","0","[]","0","2","","","9764","26","2","4","lose","no-go","0"
"pit-trial","148","1053429","0.0-31.0","battery-v0.2","","""event"",""trial"",""time""
""fullscreenenter"",""1"",""5513""
","
","
","""event"",""trial"",""time""
""fullscreenenter"",""1"",""5513""
","
","","","-1","","","15","9764","4416","u","elianto","#f73b6a7A","-1","-1","1","0","[]","0","2","","","9764","27","0","4","lose","no-go","0"
"pit-trial","149","1058292","0.0-32.0","battery-v0.2","","""event"",""trial"",""time""
""fullscreenenter"",""1"",""5513""
","
","
","""event"",""trial"",""time""
""fullscreenenter"",""1"",""5513""
","
","","","-1","","","15","9764","4416","g","elianto","#f73b6a7A"," ","-1","0","-10","[]","0","2","","","9764","28","3","3","lose","go","0"
"pit-trial","150","1063157","0.0-33.0","battery-v0.2","","""event"",""trial"",""time""
""fullscreenenter"",""1"",""5513""
","
","
","""event"",""trial"",""time""
""fullscreenenter"",""1"",""5513""
","
","","","-1","","","15","9764","4416","a","elianto","#f73b6a7A","-1","-1","1","0","[]","0","2","","","9764","29","2","4","lose","no-go","0"
"pit-trial","151","1067100","0.0-34.0","battery-v0.2","","""event"",""trial"",""time""
""fullscreenenter"",""1"",""5513""
","
","
","""event"",""trial"",""time""
""fullscreenenter"",""1"",""5513""
","
","","","1085.6000000000931","","","15","9764","4416","g","elianto","#f73b6a7A"," "," ","1","0","[1939.7999999998137]","1","2","","","9764","30","3","3","lose","go","0"
"pit-trial","152","1070661","0.0-35.0","battery-v0.2","","""event"",""trial"",""time""
""fullscreenenter"",""1"",""5513""
","
","
","""event"",""trial"",""time""
""fullscreenenter"",""1"",""5513""
","
","","","702.3000000000466","","","15","9764","4416","l","elianto","#3366ff99"," "," ","1","+10","[1555.8999999999069]","1","2","","","9764","31","1","1","win","go","0"
"pit-trial","153","1075524","0.0-36.0","battery-v0.2","","""event"",""trial"",""time""
""fullscreenenter"",""1"",""5513""
","
","
","""event"",""trial"",""time""
""fullscreenenter"",""1"",""5513""
","
","","","-1","","","15","9764","4416","u","elianto","#f73b6a7A","-1","-1","1","0","[]","0","2","","","9764","32","0","4","lose","no-go","0"
"pit-trial","154","1080388","0.0-37.0","battery-v0.2","","""event"",""trial"",""time""
""fullscreenenter"",""1"",""5513""
","
","
","""event"",""trial"",""time""
""fullscreenenter"",""1"",""5513""
","
","","","-1","","","15","9764","4416","a","elianto","#f73b6a7A","-1","-1","1","0","[]","0","2","","","9764","33","2","4","lose","no-go","0"
"pit-trial","155","1085253","0.0-38.0","battery-v0.2","","""event"",""trial"",""time""
""fullscreenenter"",""1"",""5513""
","
","
","""event"",""trial"",""time""
""fullscreenenter"",""1"",""5513""
","
","","","-1","","","15","9764","4416","u","elianto","#f73b6a7A","-1","-1","1","0","[]","0","2","","","9764","34","0","4","lose","no-go","0"
"pit-trial","156","1088613","0.0-39.0","battery-v0.2","","""event"",""trial"",""time""
""fullscreenenter"",""1"",""5513""
","
","
","""event"",""trial"",""time""
""fullscreenenter"",""1"",""5513""
","
","","","501.29999999981374","","","15","9764","4416","g","elianto","#f73b6a7A"," "," ","1","0","[1351.5]","1","2","","","9764","35","3","3","lose","go","0"
"pit-trial","157","1092093","0.0-40.0","battery-v0.2","","""event"",""trial"",""time""
""fullscreenenter"",""1"",""5513""
","
","
","""event"",""trial"",""time""
""fullscreenenter"",""1"",""5513""
","
","","","619.3000000000466","","","15","9764","4416","l","elianto","#3366ff99"," "," ","1","0","[1472.6999999999534]","1","2","","","9764","36","1","1","win","go","1"
"pit-trial","158","1095524","0.0-41.0","battery-v0.2","","""event"",""trial"",""time""
""fullscreenenter"",""1"",""5513""
","
","
","""event"",""trial"",""time""
""fullscreenenter"",""1"",""5513""
","
","","","568.0999999998603","","","15","9764","4416","l","elianto","#3366ff99"," "," ","1","+10","[1421.9000000001397]","1","2","","","9764","37","1","1","win","go","0"
"pit-trial","159","1100388","0.0-42.0","battery-v0.2","","""event"",""trial"",""time""
""fullscreenenter"",""1"",""5513""
","
","
","""event"",""trial"",""time""
""fullscreenenter"",""1"",""5513""
","
","","","-1","","","15","9764","4416","a","elianto","#f73b6a7A","-1","-1","1","-10","[]","0","2","","","9764","38","2","4","lose","no-go","1"
"pit-trial","160","1105252","0.0-43.0","battery-v0.2","","""event"",""trial"",""time""
""fullscreenenter"",""1"",""5513""
","
","
","""event"",""trial"",""time""
""fullscreenenter"",""1"",""5513""
","
","","","-1","","","15","9764","4416","u","elianto","#f73b6a7A","-1","-1","1","0","[]","0","2","","","9764","39","0","4","lose","no-go","0"
"pit-trial","161","1109045","0.0-44.0","battery-v0.2","","""event"",""trial"",""time""
""fullscreenenter"",""1"",""5513""
","
","
","""event"",""trial"",""time""
""fullscreenenter"",""1"",""5513""
","
","","","938.5","","","15","9764","4416","g","elianto","#f73b6a7A"," "," ","1","0","[1789]","1","2","","","9764","40","3","3","lose","go","0"
"pit-trial","162","1112413","0.0-45.0","battery-v0.2","","""event"",""trial"",""time""
""fullscreenenter"",""1"",""5513""
","
","
","""event"",""trial"",""time""
""fullscreenenter"",""1"",""5513""
","
","","","505.70000000018626","","","15","9764","4416","l","elianto","#3366ff99"," "," ","1","+10","[1359.3999999999069]","1","2","","","9764","41","1","1","win","go","0"
"pit-trial","163","1117276","0.0-46.0","battery-v0.2","","""event"",""trial"",""time""
""fullscreenenter"",""1"",""5513""
","
","
","""event"",""trial"",""time""
""fullscreenenter"",""1"",""5513""
","
","","","-1","","","15","9764","4416","u","elianto","#f73b6a7A","-1","-1","1","-10","[]","0","2","","","9764","42","0","4","lose","no-go","1"
"pit-trial","164","1122140","0.0-47.0","battery-v0.2","","""event"",""trial"",""time""
""fullscreenenter"",""1"",""5513""
","
","
","""event"",""trial"",""time""
""fullscreenenter"",""1"",""5513""
","
","","","-1","","","15","9764","4416","a","elianto","#f73b6a7A","-1","-1","1","-10","[]","0","2","","","9764","43","2","4","lose","no-go","1"
"pit-trial","165","1126188","0.0-48.0","battery-v0.2","","""event"",""trial"",""time""
""fullscreenenter"",""1"",""5513""
","
","
","""event"",""trial"",""time""
""fullscreenenter"",""1"",""5513""
","
","","","1184.4000000001397","","","15","9764","4416","g","elianto","#f73b6a7A"," "," ","1","0","[2037.8999999999069]","1","2","","","9764","44","3","3","lose","go","0"
"pit-trial","166","1131053","0.0-49.0","battery-v0.2","","""event"",""trial"",""time""
""fullscreenenter"",""1"",""5513""
","
","
","""event"",""trial"",""time""
""fullscreenenter"",""1"",""5513""
","
","","","-1","","","15","9764","4416","u","elianto","#f73b6a7A","-1","-1","1","0","[]","0","2","","","9764","45","0","4","lose","no-go","0"
"pit-trial","167","1135917","0.0-50.0","battery-v0.2","","""event"",""trial"",""time""
""fullscreenenter"",""1"",""5513""
","
","
","""event"",""trial"",""time""
""fullscreenenter"",""1"",""5513""
","
","","","-1","","","15","9764","4416","a","elianto","#f73b6a7A","-1","-1","1","0","[]","0","2","","","9764","46","2","4","lose","no-go","0"
"pit-trial","168","1139428","0.0-51.0","battery-v0.2","","""event"",""trial"",""time""
""fullscreenenter"",""1"",""5513""
","
","
","""event"",""trial"",""time""
""fullscreenenter"",""1"",""5513""
","
","","","651.5","","","15","9764","4416","g","elianto","#f73b6a7A"," "," ","1","-10","[1504.8999999999069]","1","2","","","9764","47","3","3","lose","go","1"
"pit-trial","169","1142948","0.0-52.0","battery-v0.2","","""event"",""trial"",""time""
""fullscreenenter"",""1"",""5513""
","
","
","""event"",""trial"",""time""
""fullscreenenter"",""1"",""5513""
","
","","","662.6999999999534","","","15","9764","4416","p","elianto","#3366ff99","-1"," ","0","+10","[1516.5999999998603]","1","2","","","9764","48","4","2","win","no-go","1"
"pit-trial","170","1146485","0.0-53.0","battery-v0.2","","""event"",""trial"",""time""
""fullscreenenter"",""1"",""5513""
","
","
","""event"",""trial"",""time""
""fullscreenenter"",""1"",""5513""
","
","","","681.8000000000466","","","15","9764","4416","p","elianto","#3366ff99","-1"," ","0","0","[1532.5]","1","2","","","9764","49","4","2","win","no-go","0"
"pit-trial","171","1150060","0.0-54.0","battery-v0.2","","""event"",""trial"",""time""
""fullscreenenter"",""1"",""5513""
","
","
","""event"",""trial"",""time""
""fullscreenenter"",""1"",""5513""
","
","","","717.1999999999534","","","15","9764","4416","l","elianto","#3366ff99"," "," ","1","0","[1570.7999999998137]","1","2","","","9764","50","1","1","win","go","1"
"pit-trial","172","1153669","0.0-55.0","battery-v0.2","","""event"",""trial"",""time""
""fullscreenenter"",""1"",""5513""
","
","
","""event"",""trial"",""time""
""fullscreenenter"",""1"",""5513""
","
","","","752.6999999999534","","","15","9764","4416","g","elianto","#f73b6a7A"," "," ","1","0","[1604.4000000001397]","1","2","","","9764","51","3","3","lose","go","0"
"pit-trial","173","1158532","0.0-56.0","battery-v0.2","","""event"",""trial"",""time""
""fullscreenenter"",""1"",""5513""
","
","
","""event"",""trial"",""time""
""fullscreenenter"",""1"",""5513""
","
","","","-1","","","15","9764","4416","u","elianto","#f73b6a7A","-1","-1","1","0","[]","0","2","","","9764","52","0","4","lose","no-go","0"
"pit-trial","174","1163396","0.0-57.0","battery-v0.2","","""event"",""trial"",""time""
""fullscreenenter"",""1"",""5513""
","
","
","""event"",""trial"",""time""
""fullscreenenter"",""1"",""5513""
","
","","","-1","","","15","9764","4416","a","elianto","#f73b6a7A","-1","-1","1","0","[]","0","2","","","9764","53","2","4","lose","no-go","0"
"pit-trial","175","1168012","0.0-58.0","battery-v0.2","","""event"",""trial"",""time""
""fullscreenenter"",""1"",""5513""
","
","
","""event"",""trial"",""time""
""fullscreenenter"",""1"",""5513""
","
","","","1755.8999999999069","","","15","9764","4416","p","elianto","#3366ff99","-1"," ","0","0","[2607.2999999998137]","1","2","","","9764","54","4","2","win","no-go","0"
"pit-trial","176","1172876","0.0-59.0","battery-v0.2","","""event"",""trial"",""time""
""fullscreenenter"",""1"",""5513""
","
","
","""event"",""trial"",""time""
""fullscreenenter"",""1"",""5513""
","
","","","-1","","","15","9764","4416","u","elianto","#f73b6a7A","-1","-1","1","0","[]","0","2","","","9764","55","0","4","lose","no-go","0"
"pit-trial","177","1177188","0.0-60.0","battery-v0.2","","""event"",""trial"",""time""
""fullscreenenter"",""1"",""5513""
","
","
","""event"",""trial"",""time""
""fullscreenenter"",""1"",""5513""
","
","","","1448.6000000000931","","","15","9764","4416","l","elianto","#3366ff99"," "," ","1","+10","[2302]","1","2","","","9764","56","1","1","win","go","0"
"pit-trial","178","1181004","0.0-61.0","battery-v0.2","","""event"",""trial"",""time""
""fullscreenenter"",""1"",""5513""
","
","
","""event"",""trial"",""time""
""fullscreenenter"",""1"",""5513""
","
","","","957.6999999999534","","","15","9764","4416","l","elianto","#3366ff99"," "," ","1","+10","[1811.1000000000931]","1","2","","","9764","57","1","1","win","go","0"
"pit-trial","179","1184812","0.0-62.0","battery-v0.2","","""event"",""trial"",""time""
""fullscreenenter"",""1"",""5513""
","
","
","""event"",""trial"",""time""
""fullscreenenter"",""1"",""5513""
","
","","","947.5","","","15","9764","4416","g","elianto","#f73b6a7A"," "," ","1","-10","[1801.0999999998603]","1","2","","","9764","58","3","3","lose","go","1"
"pit-trial","180","1189676","0.0-63.0","battery-v0.2","","""event"",""trial"",""time""
""fullscreenenter"",""1"",""5513""
","
","
","""event"",""trial"",""time""
""fullscreenenter"",""1"",""5513""
","
","","","-1","","","15","9764","4416","p","elianto","#3366ff99","-1","-1","1","+10","[]","0","2","","","9764","59","4","2","win","no-go","0"
"pit-trial","181","1194541","0.0-64.0","battery-v0.2","","""event"",""trial"",""time""
""fullscreenenter"",""1"",""5513""
","
","
","""event"",""trial"",""time""
""fullscreenenter"",""1"",""5513""
","
","","","-1","","","15","9764","4416","u","elianto","#f73b6a7A","-1","-1","1","0","[]","0","2","","","9764","60","0","4","lose","no-go","0"
"pit-trial","182","1199405","0.0-65.0","battery-v0.2","","""event"",""trial"",""time""
""fullscreenenter"",""1"",""5513""
","
","
","""event"",""trial"",""time""
""fullscreenenter"",""1"",""5513""
","
","","","-1","","","15","9764","4416","p","elianto","#3366ff99","-1","-1","1","+10","[]","0","2","","","9764","61","4","2","win","no-go","0"
"pit-trial","183","1203380","0.0-66.0","battery-v0.2","","""event"",""trial"",""time""
""fullscreenenter"",""1"",""5513""
","
","
","""event"",""trial"",""time""
""fullscreenenter"",""1"",""5513""
","
","","","1115.5","","","15","9764","4416","l","elianto","#3366ff99"," "," ","1","+10","[1969]","1","2","","","9764","62","1","1","win","go","0"
"pit-trial","184","1208244","0.0-67.0","battery-v0.2","","""event"",""trial"",""time""
""fullscreenenter"",""1"",""5513""
","
","
","""event"",""trial"",""time""
""fullscreenenter"",""1"",""5513""
","
","","","-1","","","15","9764","4416","a","elianto","#f73b6a7A","-1","-1","1","0","[]","0","2","","","9764","63","2","4","lose","no-go","0"
"pit-trial","185","1211981","0.0-68.0","battery-v0.2","","""event"",""trial"",""time""
""fullscreenenter"",""1"",""5513""
","
","
","""event"",""trial"",""time""
""fullscreenenter"",""1"",""5513""
","
","","","878.0999999998603","","","15","9764","4416","g","elianto","#f73b6a7A"," "," ","1","0","[1731.3999999999069]","1","2","","","9764","64","3","3","lose","go","0"
"pit-trial","186","1216845","0.0-69.0","battery-v0.2","","""event"",""trial"",""time""
""fullscreenenter"",""1"",""5513""
","
","
","""event"",""trial"",""time""
""fullscreenenter"",""1"",""5513""
","
","","","-1","","","15","9764","4416","a","elianto","#f73b6a7A","-1","-1","1","0","[]","0","2","","","9764","65","2","4","lose","no-go","0"
"pit-trial","187","1220197","0.0-70.0","battery-v0.2","","""event"",""trial"",""time""
""fullscreenenter"",""1"",""5513""
","
","
","""event"",""trial"",""time""
""fullscreenenter"",""1"",""5513""
","
","","","494.9000000001397","","","15","9764","4416","g","elianto","#f73b6a7A"," "," ","1","-10","[1345.3000000000466]","1","2","","","9764","66","3","3","lose","go","1"
"pit-trial","188","1223644","0.0-71.0","battery-v0.2","","""event"",""trial"",""time""
""fullscreenenter"",""1"",""5513""
","
","
","""event"",""trial"",""time""
""fullscreenenter"",""1"",""5513""
","
","","","591.1000000000931","","","15","9764","4416","l","elianto","#3366ff99"," "," ","1","0","[1444.3999999999069]","1","2","","","9764","67","1","1","win","go","1"
"pit-trial","189","1228508","0.0-72.0","battery-v0.2","","""event"",""trial"",""time""
""fullscreenenter"",""1"",""5513""
","
","
","""event"",""trial"",""time""
""fullscreenenter"",""1"",""5513""
","
","","","-1","","","15","9764","4416","p","elianto","#3366ff99","-1","-1","1","+10","[]","0","2","","","9764","68","4","2","win","no-go","0"
"pit-trial","190","1232613","0.0-73.0","battery-v0.2","","""event"",""trial"",""time""
""fullscreenenter"",""1"",""5513""
","
","
","""event"",""trial"",""time""
""fullscreenenter"",""1"",""5513""
","
","","","1240.2000000001863","","","15","9764","4416","g","elianto","#f73b6a7A"," "," ","1","0","[2094]","1","2","","","9764","69","3","3","lose","go","0"
"pit-trial","191","1236580","0.0-74.0","battery-v0.2","","""event"",""trial"",""time""
""fullscreenenter"",""1"",""5513""
","
","
","""event"",""trial"",""time""
""fullscreenenter"",""1"",""5513""
","
","","","1106.3000000000466","","","15","9764","4416","s","elianto","#3366ff99"," "," ","1","+10","[1956.8000000000466]","1","2","","","9764","70","5","1","win","go","0"
"pit-trial","192","1241444","0.0-75.0","battery-v0.2","","""event"",""trial"",""time""
""fullscreenenter"",""1"",""5513""
","
","
","""event"",""trial"",""time""
""fullscreenenter"",""1"",""5513""
","
","","","-1","","","15","9764","4416","p","elianto","#3366ff99","-1","-1","1","+10","[]","0","2","","","9764","71","4","2","win","no-go","0"
"pit-trial","193","1245028","0.0-76.0","battery-v0.2","","""event"",""trial"",""time""
""fullscreenenter"",""1"",""5513""
","
","
","""event"",""trial"",""time""
""fullscreenenter"",""1"",""5513""
","
","","","723.3999999999069","","","15","9764","4416","l","elianto","#3366ff99"," "," ","1","0","[1577.3999999999069]","1","2","","","9764","72","1","1","win","go","1"
"pit-trial","194","1248860","0.0-77.0","battery-v0.2","","""event"",""trial"",""time""
""fullscreenenter"",""1"",""5513""
","
","
","""event"",""trial"",""time""
""fullscreenenter"",""1"",""5513""
","
","","","973","","","15","9764","4416","g","elianto","#f73b6a7A"," "," ","1","0","[1828.5]","1","2","","","9764","73","3","3","lose","go","0"
"pit-trial","195","1252517","0.0-78.0","battery-v0.2","","""event"",""trial"",""time""
""fullscreenenter"",""1"",""5513""
","
","
","""event"",""trial"",""time""
""fullscreenenter"",""1"",""5513""
","
","","","792.6000000000931","","","15","9764","4416","s","elianto","#3366ff99"," "," ","1","+10","[1645.6000000000931]","1","2","","","9764","74","5","1","win","go","0"
"pit-trial","196","1255997","0.0-79.0","battery-v0.2","","""event"",""trial"",""time""
""fullscreenenter"",""1"",""5513""
","
","
","""event"",""trial"",""time""
""fullscreenenter"",""1"",""5513""
","
","","","620.6000000000931","","","15","9764","4416","l","elianto","#3366ff99"," "," ","1","+10","[1474.3000000000466]","1","2","","","9764","75","1","1","win","go","0"
"pit-trial","197","1260860","0.0-80.0","battery-v0.2","","""event"",""trial"",""time""
""fullscreenenter"",""1"",""5513""
","
","
","""event"",""trial"",""time""
""fullscreenenter"",""1"",""5513""
","
","","","-1","","","15","9764","4416","p","elianto","#3366ff99","-1","-1","1","+10","[]","0","2","","","9764","76","4","2","win","no-go","0"
"pit-trial","198","1265181","0.0-81.0","battery-v0.2","","""event"",""trial"",""time""
""fullscreenenter"",""1"",""5513""
","
","
","""event"",""trial"",""time""
""fullscreenenter"",""1"",""5513""
","
","","","1462.3000000000466","","","15","9764","4416","s","elianto","#3366ff99"," "," ","1","+10","[2315.9000000001397]","1","2","","","9764","77","5","1","win","go","0"
"pit-trial","199","1269125","0.0-82.0","battery-v0.2","","""event"",""trial"",""time""
""fullscreenenter"",""1"",""5513""
","
","
","""event"",""trial"",""time""
""fullscreenenter"",""1"",""5513""
","
","","","1089.3999999999069","","","15","9764","4416","g","elianto","#f73b6a7A"," "," ","1","0","[1940]","1","2","","","9764","78","3","3","lose","go","0"
"pit-trial","200","1273172","0.0-83.0","battery-v0.2","","""event"",""trial"",""time""
""fullscreenenter"",""1"",""5513""
","
","
","""event"",""trial"",""time""
""fullscreenenter"",""1"",""5513""
","
","","","1192.0999999998603","","","15","9764","4416","w","elianto","#f73b6a7A","-1"," ","0","-10","[2043.4000000001397]","1","2","","","9764","79","6","4","lose","no-go","0"
"pit-trial","201","1278036","0.0-84.0","battery-v0.2","","""event"",""trial"",""time""
""fullscreenenter"",""1"",""5513""
","
","
","""event"",""trial"",""time""
""fullscreenenter"",""1"",""5513""
","
","","","-1","","","15","9764","4416","p","elianto","#3366ff99","-1","-1","1","+10","[]","0","2","","","9764","80","4","2","win","no-go","0"
"pit-trial","202","1282901","0.0-85.0","battery-v0.2","","""event"",""trial"",""time""
""fullscreenenter"",""1"",""5513""
","
","
","""event"",""trial"",""time""
""fullscreenenter"",""1"",""5513""
","
","","","-1","","","15","9764","4416","w","elianto","#f73b6a7A","-1","-1","1","0","[]","0","2","","","9764","81","6","4","lose","no-go","0"
"pit-trial","203","1287764","0.0-86.0","battery-v0.2","","""event"",""trial"",""time""
""fullscreenenter"",""1"",""5513""
","
","
","""event"",""trial"",""time""
""fullscreenenter"",""1"",""5513""
","
","","","-1","","","15","9764","4416","s","elianto","#3366ff99"," ","-1","0","0","[]","0","2","","","9764","82","5","1","win","go","0"
"pit-trial","204","1292628","0.0-87.0","battery-v0.2","","""event"",""trial"",""time""
""fullscreenenter"",""1"",""5513""
","
","
","""event"",""trial"",""time""
""fullscreenenter"",""1"",""5513""
","
","","","-1","","","15","9764","4416","p","elianto","#3366ff99","-1","-1","1","+10","[]","0","2","","","9764","83","4","2","win","no-go","0"
"pit-trial","205","1296548","0.0-88.0","battery-v0.2","","""event"",""trial"",""time""
""fullscreenenter"",""1"",""5513""
","
","
","""event"",""trial"",""time""
""fullscreenenter"",""1"",""5513""
","
","","","1056.1999999999534","","","15","9764","4416","e","elianto","#f73b6a7A"," "," ","1","-10","[1909.6999999999534]","1","2","","","9764","84","7","3","lose","go","1"
"pit-trial","206","1300540","0.0-89.0","battery-v0.2","","""event"",""trial"",""time""
""fullscreenenter"",""1"",""5513""
","
","
","""event"",""trial"",""time""
""fullscreenenter"",""1"",""5513""
","
","","","1136.6999999999534","","","15","9764","4416","s","elianto","#3366ff99"," "," ","1","+10","[1987.8999999999069]","1","2","","","9764","85","5","1","win","go","0"
"pit-trial","207","1305404","0.0-90.0","battery-v0.2","","""event"",""trial"",""time""
""fullscreenenter"",""1"",""5513""
","
","
","""event"",""trial"",""time""
""fullscreenenter"",""1"",""5513""
","
","","","-1","","","15","9764","4416","p","elianto","#3366ff99","-1","-1","1","0","[]","0","2","","","9764","86","4","2","win","no-go","1"
"pit-trial","208","1309452","0.0-91.0","battery-v0.2","","""event"",""trial"",""time""
""fullscreenenter"",""1"",""5513""
","
","
","""event"",""trial"",""time""
""fullscreenenter"",""1"",""5513""
","
","","","1194.1000000000931","","","15","9764","4416","e","elianto","#f73b6a7A"," "," ","1","0","[2044.1999999999534]","1","2","","","9764","87","7","3","lose","go","0"
"pit-trial","209","1314316","0.0-92.0","battery-v0.2","","""event"",""trial"",""time""
""fullscreenenter"",""1"",""5513""
","
","
","""event"",""trial"",""time""
""fullscreenenter"",""1"",""5513""
","
","","","-1","","","15","9764","4416","w","elianto","#f73b6a7A","-1","-1","1","0","[2943.1999999999534]","1","2","","","9764","88","6","4","lose","no-go","0"
"pit-trial","210","1318140","0.0-93.0","battery-v0.2","","""event"",""trial"",""time""
""fullscreenenter"",""1"",""5513""
","
","
","""event"",""trial"",""time""
""fullscreenenter"",""1"",""5513""
","
","","","961.7999999998137","","","15","9764","4416","e","elianto","#f73b6a7A"," "," ","1","0","[1815.2999999998137]","1","2","","","9764","89","7","3","lose","go","0"
"pit-trial","211","1323004","0.0-94.0","battery-v0.2","","""event"",""trial"",""time""
""fullscreenenter"",""1"",""5513""
","
","
","""event"",""trial"",""time""
""fullscreenenter"",""1"",""5513""
","
","","","-1","","","15","9764","4416","p","elianto","#3366ff99","-1","-1","1","0","[]","0","2","","","9764","90","4","2","win","no-go","1"
"pit-trial","212","1326436","0.0-95.0","battery-v0.2","","""event"",""trial"",""time""
""fullscreenenter"",""1"",""5513""
","
","
","""event"",""trial"",""time""
""fullscreenenter"",""1"",""5513""
","
","","","569","","","15","9764","4416","s","elianto","#3366ff99"," "," ","1","+10","[1423.1999999999534]","1","2","","","9764","91","5","1","win","go","0"
"pit-trial","213","1330068","0.0-96.0","battery-v0.2","","""event"",""trial"",""time""
""fullscreenenter"",""1"",""5513""
","
","
","""event"",""trial"",""time""
""fullscreenenter"",""1"",""5513""
","
","","","771.1999999999534","","","15","9764","4416","w","elianto","#f73b6a7A","-1"," ","0","-10","[1622.1999999999534]","1","2","","","9764","92","6","4","lose","no-go","0"
"pit-trial","214","1333660","0.0-97.0","battery-v0.2","","""event"",""trial"",""time""
""fullscreenenter"",""1"",""5513""
","
","
","""event"",""trial"",""time""
""fullscreenenter"",""1"",""5513""
","
","","","733.0999999998603","","","15","9764","4416","w","elianto","#f73b6a7A","-1"," ","0","-10","[1586.5]","1","2","","","9764","93","6","4","lose","no-go","0"
"pit-trial","215","1338428","0.0-98.0","battery-v0.2","","""event"",""trial"",""time""
""fullscreenenter"",""1"",""5513""
","
","
","""event"",""trial"",""time""
""fullscreenenter"",""1"",""5513""
","
","","","1912.3000000000466","","","15","9764","4416","d","elianto","#3366ff99","-1"," ","0","0","[2763.9000000001397]","1","2","","","9764","94","8","2","win","no-go","0"
"pit-trial","216","1342420","0.0-99.0","battery-v0.2","","""event"",""trial"",""time""
""fullscreenenter"",""1"",""5513""
","
","
","""event"",""trial"",""time""
""fullscreenenter"",""1"",""5513""
","
","","","1128","","","15","9764","4416","e","elianto","#f73b6a7A"," "," ","1","-10","[1981.4000000001397]","1","2","","","9764","95","7","3","lose","go","1"
"pit-trial","217","1346404","0.0-100.0","battery-v0.2","","""event"",""trial"",""time""
""fullscreenenter"",""1"",""5513""
","
","
","""event"",""trial"",""time""
""fullscreenenter"",""1"",""5513""
","
","","","1127.6000000000931","","","15","9764","4416","s","elianto","#3366ff99"," "," ","1","0","[1981.3000000000466]","1","2","","","9764","96","5","1","win","go","1"
"pit-trial","218","1351268","0.0-101.0","battery-v0.2","","""event"",""trial"",""time""
""fullscreenenter"",""1"",""5513""
","
","
","""event"",""trial"",""time""
""fullscreenenter"",""1"",""5513""
","
","","","-1","","","15","9764","4416","d","elianto","#3366ff99","-1","-1","1","+10","[]","0","2","","","9764","97","8","2","win","no-go","0"
"pit-trial","219","1356132","0.0-102.0","battery-v0.2","","""event"",""trial"",""time""
""fullscreenenter"",""1"",""5513""
","
","
","""event"",""trial"",""time""
""fullscreenenter"",""1"",""5513""
","
","","","-1","","","15","9764","4416","w","elianto","#f73b6a7A","-1","-1","1","-10","[]","0","2","","","9764","98","6","4","lose","no-go","1"
"pit-trial","220","1360173","0.0-103.0","battery-v0.2","","""event"",""trial"",""time""
""fullscreenenter"",""1"",""5513""
","
","
","""event"",""trial"",""time""
""fullscreenenter"",""1"",""5513""
","
","","","1180.6000000000931","","","15","9764","4416","s","elianto","#3366ff99"," "," ","1","+10","[2034.1999999999534]","1","2","","","9764","99","5","1","win","go","0"
"pit-trial","221","1365036","0.0-104.0","battery-v0.2","","""event"",""trial"",""time""
""fullscreenenter"",""1"",""5513""
","
","
","""event"",""trial"",""time""
""fullscreenenter"",""1"",""5513""
","
","","","-1","","","15","9764","4416","e","elianto","#f73b6a7A"," ","-1","0","-10","[]","0","2","","","9764","100","7","3","lose","go","0"
"pit-trial","222","1369116","0.0-105.0","battery-v0.2","","""event"",""trial"",""time""
""fullscreenenter"",""1"",""5513""
","
","
","""event"",""trial"",""time""
""fullscreenenter"",""1"",""5513""
","
","","","1219.1999999999534","","","15","9764","4416","j","elianto","#3366ff99","-1"," ","0","0","[2072.8000000000466]","1","2","","","9764","101","9","2","win","no-go","0"
"pit-trial","223","1372940","0.0-106.0","battery-v0.2","","""event"",""trial"",""time""
""fullscreenenter"",""1"",""5513""
","
","
","""event"",""trial"",""time""
""fullscreenenter"",""1"",""5513""
","
","","","963.7000000001863","","","15","9764","4416","d","elianto","#3366ff99","-1"," ","0","0","[1817.1999999999534]","1","2","","","9764","102","8","2","win","no-go","0"
"pit-trial","224","1376861","0.0-107.0","battery-v0.2","","""event"",""trial"",""time""
""fullscreenenter"",""1"",""5513""
","
","
","""event"",""trial"",""time""
""fullscreenenter"",""1"",""5513""
","
","","","1062.1999999999534","","","15","9764","4416","s","elianto","#3366ff99"," "," ","1","+10","[1912.9000000001397]","1","2","","","9764","103","5","1","win","go","0"
"pit-trial","225","1381725","0.0-108.0","battery-v0.2","","""event"",""trial"",""time""
""fullscreenenter"",""1"",""5513""
","
","
","""event"",""trial"",""time""
""fullscreenenter"",""1"",""5513""
","
","","","-1","","","15","9764","4416","w","elianto","#f73b6a7A","-1","-1","1","0","[]","0","2","","","9764","104","6","4","lose","no-go","0"
"pit-trial","226","1386013","0.0-109.0","battery-v0.2","","""event"",""trial"",""time""
""fullscreenenter"",""1"",""5513""
","
","
","""event"",""trial"",""time""
""fullscreenenter"",""1"",""5513""
","
","","","1430","","","15","9764","4416","d","elianto","#3366ff99","-1"," ","0","+10","[2283.9000000001397]","1","2","","","9764","105","8","2","win","no-go","1"
"pit-trial","227","1389749","0.0-110.0","battery-v0.2","","""event"",""trial"",""time""
""fullscreenenter"",""1"",""5513""
","
","
","""event"",""trial"",""time""
""fullscreenenter"",""1"",""5513""
","
","","","875.5","","","15","9764","4416","s","elianto","#3366ff99"," "," ","1","+10","[1728.5]","1","2","","","9764","106","5","1","win","go","0"
"pit-trial","228","1394613","0.0-111.0","battery-v0.2","","""event"",""trial"",""time""
""fullscreenenter"",""1"",""5513""
","
","
","""event"",""trial"",""time""
""fullscreenenter"",""1"",""5513""
","
","","","-1","","","15","9764","4416","w","elianto","#f73b6a7A","-1","-1","1","0","[]","0","2","","","9764","107","6","4","lose","no-go","0"
"pit-trial","229","1399476","0.0-112.0","battery-v0.2","","""event"",""trial"",""time""
""fullscreenenter"",""1"",""5513""
","
","
","""event"",""trial"",""time""
""fullscreenenter"",""1"",""5513""
","
","","","-1","","","15","9764","4416","j","elianto","#3366ff99","-1","-1","1","+10","[]","0","2","","","9764","108","9","2","win","no-go","0"
"pit-trial","230","1403245","0.0-113.0","battery-v0.2","","""event"",""trial"",""time""
""fullscreenenter"",""1"",""5513""
","
","
","""event"",""trial"",""time""
""fullscreenenter"",""1"",""5513""
","
","","","904.8000000000466","","","15","9764","4416","s","elianto","#3366ff99"," "," ","1","+10","[1759.6999999999534]","1","2","","","9764","109","5","1","win","go","0"
"pit-trial","231","1406869","0.0-114.0","battery-v0.2","","""event"",""trial"",""time""
""fullscreenenter"",""1"",""5513""
","
","
","""event"",""trial"",""time""
""fullscreenenter"",""1"",""5513""
","
","","","766.6000000000931","","","15","9764","4416","d","elianto","#3366ff99","-1"," ","0","0","[1620]","1","2","","","9764","110","8","2","win","no-go","0"
"pit-trial","232","1411732","0.0-115.0","battery-v0.2","","""event"",""trial"",""time""
""fullscreenenter"",""1"",""5513""
","
","
","""event"",""trial"",""time""
""fullscreenenter"",""1"",""5513""
","
","","","-1","","","15","9764","4416","w","elianto","#f73b6a7A","-1","-1","1","0","[]","0","2","","","9764","111","6","4","lose","no-go","0"
"pit-trial","233","1416596","0.0-116.0","battery-v0.2","","""event"",""trial"",""time""
""fullscreenenter"",""1"",""5513""
","
","
","""event"",""trial"",""time""
""fullscreenenter"",""1"",""5513""
","
","","","-1","","","15","9764","4416","j","elianto","#3366ff99","-1","-1","1","0","[]","0","2","","","9764","112","9","2","win","no-go","1"
"pit-trial","234","1420268","0.0-117.0","battery-v0.2","","""event"",""trial"",""time""
""fullscreenenter"",""1"",""5513""
","
","
","""event"",""trial"",""time""
""fullscreenenter"",""1"",""5513""
","
","","","816.2000000001863","","","15","9764","4416","j","elianto","#3366ff99","-1"," ","0","0","[1668]","1","2","","","9764","113","9","2","win","no-go","0"
"pit-trial","235","1424004","0.0-118.0","battery-v0.2","","""event"",""trial"",""time""
""fullscreenenter"",""1"",""5513""
","
","
","""event"",""trial"",""time""
""fullscreenenter"",""1"",""5513""
","
","","","871.4000000001397","","","15","9764","4416","s","elianto","#3366ff99"," "," ","1","+10","[1725]","1","2","","","9764","114","5","1","win","go","0"
"pit-trial","236","1428869","0.0-119.0","battery-v0.2","","""event"",""trial"",""time""
""fullscreenenter"",""1"",""5513""
","
","
","""event"",""trial"",""time""
""fullscreenenter"",""1"",""5513""
","
","","","-1","","","15","9764","4416","e","elianto","#f73b6a7A"," ","-1","0","-10","[]","0","2","","","9764","115","7","3","lose","go","0"
"pit-trial","237","1432653","0.0-120.0","battery-v0.2","","""event"",""trial"",""time""
""fullscreenenter"",""1"",""5513""
","
","
","""event"",""trial"",""time""
""fullscreenenter"",""1"",""5513""
","
","","","922.5999999998603","","","15","9764","4416","d","elianto","#3366ff99","-1"," ","0","0","[1773.3000000000466]","1","2","","","9764","116","8","2","win","no-go","0"
"pit-trial","238","1436556","0.0-121.0","battery-v0.2","","""event"",""trial"",""time""
""fullscreenenter"",""1"",""5513""
","
","
","""event"",""trial"",""time""
""fullscreenenter"",""1"",""5513""
","
","","","1046.3000000000466","","","15","9764","4416","s","elianto","#3366ff99"," "," ","1","+10","[1899.8999999999069]","1","2","","","9764","117","5","1","win","go","0"
"pit-trial","239","1441421","0.0-122.0","battery-v0.2","","""event"",""trial"",""time""
""fullscreenenter"",""1"",""5513""
","
","
","""event"",""trial"",""time""
""fullscreenenter"",""1"",""5513""
","
","","","-1","","","15","9764","4416","w","elianto","#f73b6a7A","-1","-1","1","0","[]","0","2","","","9764","118","6","4","lose","no-go","0"
"pit-trial","240","1446284","0.0-123.0","battery-v0.2","","""event"",""trial"",""time""
""fullscreenenter"",""1"",""5513""
","
","
","""event"",""trial"",""time""
""fullscreenenter"",""1"",""5513""
","
","","","-1","","","15","9764","4416","d","elianto","#3366ff99","-1","-1","1","+10","[]","0","2","","","9764","119","8","2","win","no-go","0"
"pit-trial","241","1451148","0.0-124.0","battery-v0.2","","""event"",""trial"",""time""
""fullscreenenter"",""1"",""5513""
","
","
","""event"",""trial"",""time""
""fullscreenenter"",""1"",""5513""
","
","","","-1","","","15","9764","4416","j","elianto","#3366ff99","-1","-1","1","0","[]","0","2","","","9764","120","9","2","win","no-go","1"
"pit-trial","242","1456013","0.0-125.0","battery-v0.2","","""event"",""trial"",""time""
""fullscreenenter"",""1"",""5513""
","
","
","""event"",""trial"",""time""
""fullscreenenter"",""1"",""5513""
","
","","","-1","","","15","9764","4416","d","elianto","#3366ff99","-1","-1","1","+10","[]","0","2","","","9764","121","8","2","win","no-go","0"
"pit-trial","243","1460876","0.0-126.0","battery-v0.2","","""event"",""trial"",""time""
""fullscreenenter"",""1"",""5513""
","
","
","""event"",""trial"",""time""
""fullscreenenter"",""1"",""5513""
","
","","","-1","","","15","9764","4416","e","elianto","#f73b6a7A"," ","-1","0","-10","[]","0","2","","","9764","122","7","3","lose","go","0"
"pit-trial","244","1464453","0.0-127.0","battery-v0.2","","""event"",""trial"",""time""
""fullscreenenter"",""1"",""5513""
","
","
","""event"",""trial"",""time""
""fullscreenenter"",""1"",""5513""
","
","","","711.9000000001397","","","15","9764","4416","s","elianto","#3366ff99"," "," ","1","+10","[1565.6000000000931]","1","2","","","9764","123","5","1","win","go","0"
"pit-trial","245","1468036","0.0-128.0","battery-v0.2","","""event"",""trial"",""time""
""fullscreenenter"",""1"",""5513""
","
","
","""event"",""trial"",""time""
""fullscreenenter"",""1"",""5513""
","
","","","720","","","15","9764","4416","j","elianto","#3366ff99","-1"," ","0","0","[1573.4000000001397]","1","2","","","9764","124","9","2","win","no-go","0"
"pit-trial","246","1472901","0.0-129.0","battery-v0.2","","""event"",""trial"",""time""
""fullscreenenter"",""1"",""5513""
","
","
","""event"",""trial"",""time""
""fullscreenenter"",""1"",""5513""
","
","","","-1","","","15","9764","4416","w","elianto","#f73b6a7A","-1","-1","1","0","[]","0","2","","","9764","125","6","4","lose","no-go","0"
"pit-trial","247","1477764","0.0-130.0","battery-v0.2","","""event"",""trial"",""time""
""fullscreenenter"",""1"",""5513""
","
","
","""event"",""trial"",""time""
""fullscreenenter"",""1"",""5513""
","
","","","-1","","","15","9764","4416","j","elianto","#3366ff99","-1","-1","1","+10","[]","0","2","","","9764","126","9","2","win","no-go","0"
"pit-trial","248","1481324","0.0-131.0","battery-v0.2","","""event"",""trial"",""time""
""fullscreenenter"",""1"",""5513""
","
","
","""event"",""trial"",""time""
""fullscreenenter"",""1"",""5513""
","
","","","699.1000000000931","","","15","9764","4416","d","elianto","#3366ff99","-1"," ","0","0","[1554.8000000000466]","1","2","","","9764","127","8","2","win","no-go","0"
"pit-trial","249","1486188","0.0-132.0","battery-v0.2","","""event"",""trial"",""time""
""fullscreenenter"",""1"",""5513""
","
","
","""event"",""trial"",""time""
""fullscreenenter"",""1"",""5513""
","
","","","-1","","","15","9764","4416","e","elianto","#f73b6a7A"," ","-1","0","-10","[]","0","2","","","9764","128","7","3","lose","go","0"
"pit-trial","250","1489636","0.0-133.0","battery-v0.2","","""event"",""trial"",""time""
""fullscreenenter"",""1"",""5513""
","
","
","""event"",""trial"",""time""
""fullscreenenter"",""1"",""5513""
","
","","","588.3999999999069","","","15","9764","4416","e","elianto","#f73b6a7A"," "," ","1","-10","[1441.6999999999534]","1","2","","","9764","129","7","3","lose","go","1"
"pit-trial","251","1494220","0.0-134.0","battery-v0.2","","""event"",""trial"",""time""
""fullscreenenter"",""1"",""5513""
","
","
","""event"",""trial"",""time""
""fullscreenenter"",""1"",""5513""
","
","","","1724.8999999999069","","","15","9764","4416","d","elianto","#3366ff99","-1"," ","0","0","[2577]","1","2","","","9764","130","8","2","win","no-go","0"
"pit-trial","252","1499085","0.0-135.0","battery-v0.2","","""event"",""trial"",""time""
""fullscreenenter"",""1"",""5513""
","
","
","""event"",""trial"",""time""
""fullscreenenter"",""1"",""5513""
","
","","","-1","","","15","9764","4416","j","elianto","#3366ff99","-1","-1","1","+10","[]","0","2","","","9764","131","9","2","win","no-go","0"
"pit-trial","253","1503948","0.0-136.0","battery-v0.2","","""event"",""trial"",""time""
""fullscreenenter"",""1"",""5513""
","
","
","""event"",""trial"",""time""
""fullscreenenter"",""1"",""5513""
","
","","","-1","","","15","9764","4416","w","elianto","#f73b6a7A","-1","-1","1","0","[]","0","2","","","9764","132","6","4","lose","no-go","0"
"pit-trial","254","1508812","0.0-137.0","battery-v0.2","","""event"",""trial"",""time""
""fullscreenenter"",""1"",""5513""
","
","
","""event"",""trial"",""time""
""fullscreenenter"",""1"",""5513""
","
","","","-1","","","15","9764","4416","j","elianto","#3366ff99","-1","-1","1","0","[]","0","2","","","9764","133","9","2","win","no-go","1"
"pit-trial","255","1513677","0.0-138.0","battery-v0.2","","""event"",""trial"",""time""
""fullscreenenter"",""1"",""5513""
","
","
","""event"",""trial"",""time""
""fullscreenenter"",""1"",""5513""
","
","","","-1","","","15","9764","4416","d","elianto","#3366ff99","-1","-1","1","+10","[]","0","2","","","9764","134","8","2","win","no-go","0"
"pit-trial","256","1518540","0.0-139.0","battery-v0.2","","""event"",""trial"",""time""
""fullscreenenter"",""1"",""5513""
","
","
","""event"",""trial"",""time""
""fullscreenenter"",""1"",""5513""
","
","","","-1","","","15","9764","4416","w","elianto","#f73b6a7A","-1","-1","1","0","[]","0","2","","","9764","135","6","4","lose","no-go","0"
"pit-trial","257","1523405","0.0-140.0","battery-v0.2","","""event"",""trial"",""time""
""fullscreenenter"",""1"",""5513""
","
","
","""event"",""trial"",""time""
""fullscreenenter"",""1"",""5513""
","
","","","-1","","","15","9764","4416","e","elianto","#f73b6a7A"," ","-1","0","-10","[]","0","2","","","9764","136","7","3","lose","go","0"
"pit-trial","258","1528268","0.0-141.0","battery-v0.2","","""event"",""trial"",""time""
""fullscreenenter"",""1"",""5513""
","
","
","""event"",""trial"",""time""
""fullscreenenter"",""1"",""5513""
","
","","","-1","","","15","9764","4416","d","elianto","#3366ff99","-1","-1","1","+10","[]","0","2","","","9764","137","8","2","win","no-go","0"
"pit-trial","259","1533132","0.0-142.0","battery-v0.2","","""event"",""trial"",""time""
""fullscreenenter"",""1"",""5513""
","
","
","""event"",""trial"",""time""
""fullscreenenter"",""1"",""5513""
","
","","","-1","","","15","9764","4416","j","elianto","#3366ff99","-1","-1","1","+10","[]","0","2","","","9764","138","9","2","win","no-go","0"
"pit-trial","260","1537996","0.0-143.0","battery-v0.2","","""event"",""trial"",""time""
""fullscreenenter"",""1"",""5513""
","
","
","""event"",""trial"",""time""
""fullscreenenter"",""1"",""5513""
","
","","","-1","","","15","9764","4416","w","elianto","#f73b6a7A","-1","-1","1","0","[]","0","2","","","9764","139","6","4","lose","no-go","0"
"pit-trial","261","1541556","0.0-144.0","battery-v0.2","","""event"",""trial"",""time""
""fullscreenenter"",""1"",""5513""
","
","
","""event"",""trial"",""time""
""fullscreenenter"",""1"",""5513""
","
","","","696.0999999998603","","","15","9764","4416","e","elianto","#f73b6a7A"," "," ","1","-10","[1549.8999999999069]","1","2","","","9764","140","7","3","lose","go","1"
"pit-instructions","262","1559391","0.0-145.0","battery-v0.2","","""event"",""trial"",""time""
""fullscreenenter"",""1"",""5513""
","
","
","""event"",""trial"",""time""
""fullscreenenter"",""1"",""5513""
","
","","[{""page_index"":0,""viewing_time"":5945.5},{""page_index"":1,""viewing_time"":11886.59999999986}]","17832.5","","","","","","","","","","","","","","","","","","","","","","","",""
"pit-trial","263","1563116","0.0-146.0","battery-v0.2","","""event"",""trial"",""time""
""fullscreenenter"",""1"",""5513""
","
","
","""event"",""trial"",""time""
""fullscreenenter"",""1"",""5513""
","
","","","862.7000000001863","","","15","9764","4416","n","elianto","#f73b6a7A"," "," ","1","0","[1720.7000000001863]","1","3","","","9764","141","0","3","lose","go","0"
"pit-trial","264","1566549","0.0-147.0","battery-v0.2","","""event"",""trial"",""time""
""fullscreenenter"",""1"",""5513""
","
","
","""event"",""trial"",""time""
""fullscreenenter"",""1"",""5513""
","
","","","574.1000000000931","","","15","9764","4416","b","elianto","#f73b6a7A","-1"," ","0","-10","[1426]","1","3","","","9764","142","3","4","lose","no-go","0"
"pit-trial","265","1570981","0.0-148.0","battery-v0.2","","""event"",""trial"",""time""
""fullscreenenter"",""1"",""5513""
","
","
","""event"",""trial"",""time""
""fullscreenenter"",""1"",""5513""
","
","","","1573.6999999999534","","","15","9764","4416","t","elianto","#f73b6a7A"," "," ","1","0","[2426.8000000000466]","1","3","","","9764","143","2","3","lose","go","0"
"pit-trial","266","1574541","0.0-149.0","battery-v0.2","","""event"",""trial"",""time""
""fullscreenenter"",""1"",""5513""
","
","
","""event"",""trial"",""time""
""fullscreenenter"",""1"",""5513""
","
","","","703.6999999999534","","","15","9764","4416","f","elianto","#3366ff99","-1"," ","0","+10","[1556.6999999999534]","1","3","","","9764","144","1","2","win","no-go","1"
"pit-trial","267","1578164","0.0-150.0","battery-v0.2","","""event"",""trial"",""time""
