"trial_type","trial_index","time_elapsed","internal_node_id","task_version","subject_id","interactions","blur_events","focus_events","fullscreenenter_events","fullscreenexit_events","success","view_history","rt","responses","num_errors","age","subject","participantId","rune","rune_set","hex","correct","choice","accuracy","outcome","keys","total_keys","block","practice","value"
"pavlovia","0","42","0.0-0.0","battery-v0.2","","""event"",""trial"",""time""
""fullscreenenter"",""1"",""3091""
","
","
","""event"",""trial"",""time""
""fullscreenenter"",""1"",""3091""
","
","","","","","","","","","","","","","","","","","","","",""
"fullscreen","1","4079","0.0-1.0","battery-v0.2","","""event"",""trial"",""time""
""fullscreenenter"",""1"",""3091""
","
","
","""event"",""trial"",""time""
""fullscreenenter"",""1"",""3091""
","
","true","","","","","","","","","","","","","","","","","","",""
"pit-instructions","2","9991","0.0-2.0-0.0","battery-v0.2","","""event"",""trial"",""time""
""fullscreenenter"",""1"",""3091""
","
","
","""event"",""trial"",""time""
""fullscreenenter"",""1"",""3091""
","
","","[{""page_index"":0,""viewing_time"":5909.699999999255}]","5910.39999999851","","","","","","","","","","","","","","","","",""
"pit-comprehension","3","13130","0.0-2.0-1.0-0.0","battery-v0.2","","""event"",""trial"",""time""
""fullscreenenter"",""1"",""3091""
","
","
","""event"",""trial"",""time""
""fullscreenenter"",""1"",""3091""
","
","","","3136.0999999996275","[""shark""]","0","13","3002","2509","","","","","","","","","","","",""
"pit-instructions","4","16381","0.0-2.0-1.0-1.0","battery-v0.2","","""event"",""trial"",""time""
""fullscreenenter"",""1"",""3091""
","
","
","""event"",""trial"",""time""
""fullscreenenter"",""1"",""3091""
","
","","[{""page_index"":0,""viewing_time"":3244.89999999851}]","3245.199999999255","","","","","","","","","","","","","","","","",""
"pit-comprehension","5","19261","0.0-2.0-2.0-0.0","battery-v0.2","","""event"",""trial"",""time""
""fullscreenenter"",""1"",""3091""
","
","
","""event"",""trial"",""time""
""fullscreenenter"",""1"",""3091""
","
","","","2877.7999999988824","[""tiger""]","0","13","3002","2509","","","","","","","","","","","",""
"pit-instructions","6","20037","0.0-2.0-2.0-1.0","battery-v0.2","","""event"",""trial"",""time""
""fullscreenenter"",""1"",""3091""
""blur"",""7"",""35775""
""focus"",""7"",""42538""
","""event"",""trial"",""time""
""blur"",""7"",""35775""
","""event"",""trial"",""time""
""focus"",""7"",""42538""
","""event"",""trial"",""time""
""fullscreenenter"",""1"",""3091""
","
","","[{""page_index"":0,""viewing_time"":773.7999999988824}]","774.0999999996275","","","","","","","","","","","","","","","","",""
"pit-instructions","7","116216","0.0-2.0-3.0","battery-v0.2","","""event"",""trial"",""time""
""fullscreenenter"",""1"",""3091""
""blur"",""7"",""35775""
""focus"",""7"",""42538""
","""event"",""trial"",""time""
""blur"",""7"",""35775""
","""event"",""trial"",""time""
""focus"",""7"",""42538""
","""event"",""trial"",""time""
""fullscreenenter"",""1"",""3091""
","
","","[{""page_index"":0,""viewing_time"":7940.699999999255},{""page_index"":1,""viewing_time"":5940.4000000003725},{""page_index"":2,""viewing_time"":10440.400000000373},{""page_index"":3,""viewing_time"":5039.5999999996275},{""page_index"":4,""viewing_time"":5670.299999998882},{""page_index"":5,""viewing_time"":7346.4000000003725},{""page_index"":6,""viewing_time"":6671.4000000003725},{""page_index"":7,""viewing_time"":6525.4000000003725},{""page_index"":8,""viewing_time"":6142.5},{""page_index"":9,""viewing_time"":8010.299999998882},{""page_index"":10,""viewing_time"":7447.800000000745},{""page_index"":11,""viewing_time"":7110.199999999255},{""page_index"":12,""viewing_time"":7076.300000000745},{""page_index"":13,""viewing_time"":4815.0999999996275}]","96177.09999999963","","","","","","","","","","","","","","","","",""
"pit-trial","8","119424","0.0-2.0-4.0-0.0","battery-v0.2","","""event"",""trial"",""time""
""fullscreenenter"",""1"",""3091""
""blur"",""7"",""35775""
""focus"",""7"",""42538""
","""event"",""trial"",""time""
""blur"",""7"",""35775""
","""event"",""trial"",""time""
""focus"",""7"",""42538""
","""event"",""trial"",""time""
""fullscreenenter"",""1"",""3091""
","
","","","354.7999999988824","","","13","3002","2509","&#9784;","elianto","#FFFFF080"," "," ","1","&#10004","[1205.5]","1","0","0",""
"pit-trial","9","122692","0.0-2.0-4.1-0.1","battery-v0.2","","""event"",""trial"",""time""
""fullscreenenter"",""1"",""3091""
""blur"",""7"",""35775""
""focus"",""7"",""42538""
","""event"",""trial"",""time""
""blur"",""7"",""35775""
","""event"",""trial"",""time""
""focus"",""7"",""42538""
","""event"",""trial"",""time""
""fullscreenenter"",""1"",""3091""
","
","","","410.5","","","13","3002","2509","&#9784;","elianto","#FFFFF080"," "," ","1","&#10004","[1262]","1","0","0",""
"pit-trial","10","126128","0.0-2.0-4.2-0.2","battery-v0.2","","""event"",""trial"",""time""
""fullscreenenter"",""1"",""3091""
""blur"",""7"",""35775""
""focus"",""7"",""42538""
","""event"",""trial"",""time""
""blur"",""7"",""35775""
","""event"",""trial"",""time""
""focus"",""7"",""42538""
","""event"",""trial"",""time""
""fullscreenenter"",""1"",""3091""
","
","","","581.8000000007451","","","13","3002","2509","&#9784;","elianto","#FFFFF080"," "," ","1","&#10004","[1434]","1","0","0",""
"pit-trial","11","129327","0.0-2.0-4.3-0.3","battery-v0.2","","""event"",""trial"",""time""
""fullscreenenter"",""1"",""3091""
""blur"",""7"",""35775""
""focus"",""7"",""42538""
","""event"",""trial"",""time""
""blur"",""7"",""35775""
","""event"",""trial"",""time""
""focus"",""7"",""42538""
","""event"",""trial"",""time""
""fullscreenenter"",""1"",""3091""
","
","","","346.69999999925494","","","13","3002","2509","&#9784;","elianto","#FFFFF080"," "," ","1","&#10004","[1197.699999999255]","1","0","0",""
"pit-trial","12","132386","0.0-2.0-4.4-0.4","battery-v0.2","","""event"",""trial"",""time""
""fullscreenenter"",""1"",""3091""
""blur"",""7"",""35775""
""focus"",""7"",""42538""
","""event"",""trial"",""time""
""blur"",""7"",""35775""
","""event"",""trial"",""time""
""focus"",""7"",""42538""
","""event"",""trial"",""time""
""fullscreenenter"",""1"",""3091""
","
","","","202.59999999962747","","","13","3002","2509","&#9784;","elianto","#FFFFF080"," "," ","1","&#10004","[1054.7999999988824]","1","0","0",""
"pit-instructions","13","152724","0.0-2.0-5.0","battery-v0.2","","""event"",""trial"",""time""
""fullscreenenter"",""1"",""3091""
""blur"",""7"",""35775""
""focus"",""7"",""42538""
","""event"",""trial"",""time""
""blur"",""7"",""35775""
","""event"",""trial"",""time""
""focus"",""7"",""42538""
","""event"",""trial"",""time""
""fullscreenenter"",""1"",""3091""
","
","","[{""page_index"":0,""viewing_time"":4618.5999999996275},{""page_index"":1,""viewing_time"":5422.799999998882},{""page_index"":2,""viewing_time"":5163.60000000149},{""page_index"":3,""viewing_time"":5130.5}]","20335.699999999255","","","","","","","","","","","","","","","","",""
"pit-trial","14","157580","0.0-2.0-6.0-0.0","battery-v0.2","","""event"",""trial"",""time""
""fullscreenenter"",""1"",""3091""
""blur"",""7"",""35775""
""focus"",""7"",""42538""
","""event"",""trial"",""time""
""blur"",""7"",""35775""
","""event"",""trial"",""time""
""focus"",""7"",""42538""
","""event"",""trial"",""time""
""fullscreenenter"",""1"",""3091""
","
","","","-1","","","13","3002","2509","&#9854;","elianto","#FFFFF080","-1","-1","1","&#10004","[]","0","0","1",""
"pit-trial","15","162436","0.0-2.0-6.1-0.1","battery-v0.2","","""event"",""trial"",""time""
""fullscreenenter"",""1"",""3091""
""blur"",""7"",""35775""
""focus"",""7"",""42538""
","""event"",""trial"",""time""
""blur"",""7"",""35775""
","""event"",""trial"",""time""
""focus"",""7"",""42538""
","""event"",""trial"",""time""
""fullscreenenter"",""1"",""3091""
","
","","","-1","","","13","3002","2509","&#9854;","elianto","#FFFFF080","-1","-1","1","&#10004","[]","0","0","1",""
"pit-trial","16","167290","0.0-2.0-6.2-0.2","battery-v0.2","","""event"",""trial"",""time""
""fullscreenenter"",""1"",""3091""
""blur"",""7"",""35775""
""focus"",""7"",""42538""
","""event"",""trial"",""time""
""blur"",""7"",""35775""
","""event"",""trial"",""time""
""focus"",""7"",""42538""
","""event"",""trial"",""time""
""fullscreenenter"",""1"",""3091""
","
","","","-1","","","13","3002","2509","&#9854;","elianto","#FFFFF080","-1","-1","1","&#10004","[]","0","0","1",""
"pit-trial","17","172143","0.0-2.0-6.3-0.3","battery-v0.2","","""event"",""trial"",""time""
""fullscreenenter"",""1"",""3091""
""blur"",""7"",""35775""
""focus"",""7"",""42538""
","""event"",""trial"",""time""
""blur"",""7"",""35775""
","""event"",""trial"",""time""
""focus"",""7"",""42538""
","""event"",""trial"",""time""
""fullscreenenter"",""1"",""3091""
","
","","","-1","","","13","3002","2509","&#9854;","elianto","#FFFFF080","-1","-1","1","&#10004","[]","0","0","1",""
"pit-trial","18","176998","0.0-2.0-6.4-0.4","battery-v0.2","","""event"",""trial"",""time""
""fullscreenenter"",""1"",""3091""
""blur"",""7"",""35775""
""focus"",""7"",""42538""
","""event"",""trial"",""time""
""blur"",""7"",""35775""
","""event"",""trial"",""time""
""focus"",""7"",""42538""
","""event"",""trial"",""time""
""fullscreenenter"",""1"",""3091""
","
","","","-1","","","13","3002","2509","&#9854;","elianto","#FFFFF080","-1","-1","1","&#10004","[]","0","0","1",""
"pit-instructions","19","293825","0.0-2.0-7.0","battery-v0.2","","""event"",""trial"",""time""
""fullscreenenter"",""1"",""3091""
""blur"",""7"",""35775""
""focus"",""7"",""42538""
","""event"",""trial"",""time""
""blur"",""7"",""35775""
","""event"",""trial"",""time""
""focus"",""7"",""42538""
","""event"",""trial"",""time""
""fullscreenenter"",""1"",""3091""
","
","","[{""page_index"":0,""viewing_time"":5942.199999999255},{""page_index"":1,""viewing_time"":6412.700000001118},{""page_index"":2,""viewing_time"":5467.5},{""page_index"":3,""viewing_time"":5883.89999999851},{""page_index"":4,""viewing_time"":8089},{""page_index"":5,""viewing_time"":6300.200000001118},{""page_index"":6,""viewing_time"":5434.0999999996275},{""page_index"":7,""viewing_time"":7357.5},{""page_index"":8,""viewing_time"":6277.699999999255},{""page_index"":9,""viewing_time"":5895.5},{""page_index"":10,""viewing_time"":6974.9000000003725},{""page_index"":11,""viewing_time"":5377.9000000003725},{""page_index"":12,""viewing_time"":6569.800000000745},{""page_index"":13,""viewing_time"":6997.89999999851},{""page_index"":14,""viewing_time"":7358.9000000003725},{""page_index"":15,""viewing_time"":6951.5},{""page_index"":16,""viewing_time"":6052.5999999996275},{""page_index"":17,""viewing_time"":7481.60000000149}]","116825.59999999963","","","","","","","","","","","","","","","","",""
"pit-trial","20","297176","0.0-2.0-8.0-0.0","battery-v0.2","","""event"",""trial"",""time""
""fullscreenenter"",""1"",""3091""
""blur"",""7"",""35775""
""focus"",""7"",""42538""
","""event"",""trial"",""time""
""blur"",""7"",""35775""
","""event"",""trial"",""time""
""focus"",""7"",""42538""
","""event"",""trial"",""time""
""fullscreenenter"",""1"",""3091""
","
","","","499","","","13","3002","2509","&#9776;","elianto","#3366ff99"," "," ","1","+10","[1349.1000000014901]","1","0","1",""
"pit-trial","21","300673","0.0-2.0-8.0-1.0","battery-v0.2","","""event"",""trial"",""time""
""fullscreenenter"",""1"",""3091""
""blur"",""7"",""35775""
""focus"",""7"",""42538""
","""event"",""trial"",""time""
""blur"",""7"",""35775""
","""event"",""trial"",""time""
""focus"",""7"",""42538""
","""event"",""trial"",""time""
""fullscreenenter"",""1"",""3091""
","
","","","642.9000000003725","","","13","3002","2509","&#9776;","elianto","#3366ff99"," "," ","1","+10","[1494.5]","1","0","1",""
"pit-trial","22","304098","0.0-2.0-8.0-2.0","battery-v0.2","","""event"",""trial"",""time""
""fullscreenenter"",""1"",""3091""
""blur"",""7"",""35775""
""focus"",""7"",""42538""
","""event"",""trial"",""time""
""blur"",""7"",""35775""
","""event"",""trial"",""time""
""focus"",""7"",""42538""
","""event"",""trial"",""time""
""fullscreenenter"",""1"",""3091""
","
","","","570.7999999988824","","","13","3002","2509","&#9776;","elianto","#3366ff99"," "," ","1","+10","[1421.0999999996275]","1","0","1",""
"pit-trial","23","307505","0.0-2.0-8.0-3.0","battery-v0.2","","""event"",""trial"",""time""
""fullscreenenter"",""1"",""3091""
""blur"",""7"",""35775""
""focus"",""7"",""42538""
","""event"",""trial"",""time""
""blur"",""7"",""35775""
","""event"",""trial"",""time""
""focus"",""7"",""42538""
","""event"",""trial"",""time""
""fullscreenenter"",""1"",""3091""
","
","","","552","","","13","3002","2509","&#9776;","elianto","#3366ff99"," "," ","1","0","[1404.2999999988824]","1","0","1",""
"pit-trial","24","310744","0.0-2.0-8.0-4.0","battery-v0.2","","""event"",""trial"",""time""
""fullscreenenter"",""1"",""3091""
""blur"",""7"",""35775""
""focus"",""7"",""42538""
","""event"",""trial"",""time""
""blur"",""7"",""35775""
","""event"",""trial"",""time""
""focus"",""7"",""42538""
","""event"",""trial"",""time""
""fullscreenenter"",""1"",""3091""
","
","","","385.7000000011176","","","13","3002","2509","&#9776;","elianto","#3366ff99"," "," ","1","+10","[1236.9000000003725]","1","0","1",""
"call-function","25","310745","0.0-2.0-9.0","battery-v0.2","","""event"",""trial"",""time""
""fullscreenenter"",""1"",""3091""
""blur"",""7"",""35775""
""focus"",""7"",""42538""
","""event"",""trial"",""time""
""blur"",""7"",""35775""
","""event"",""trial"",""time""
""focus"",""7"",""42538""
","""event"",""trial"",""time""
""fullscreenenter"",""1"",""3091""
","
","","","","","","","","","","","","","","","","","","","",""
"pit-instructions","26","350358","0.0-2.0-10.0","battery-v0.2","","""event"",""trial"",""time""
""fullscreenenter"",""1"",""3091""
""blur"",""7"",""35775""
""focus"",""7"",""42538""
","""event"",""trial"",""time""
""blur"",""7"",""35775""
","""event"",""trial"",""time""
""focus"",""7"",""42538""
","""event"",""trial"",""time""
""fullscreenenter"",""1"",""3091""
","
","","[{""page_index"":0,""viewing_time"":5557.200000001118},{""page_index"":1,""viewing_time"":7684},{""page_index"":2,""viewing_time"":9360.39999999851},{""page_index"":3,""viewing_time"":8786.5},{""page_index"":4,""viewing_time"":8224}]","39612.300000000745","","","","","","","","","","","","","","","","",""
"pit-trial","27","353643","0.0-2.0-11.0-0.0","battery-v0.2","","""event"",""trial"",""time""
""fullscreenenter"",""1"",""3091""
""blur"",""7"",""35775""
""focus"",""7"",""42538""
","""event"",""trial"",""time""
""blur"",""7"",""35775""
","""event"",""trial"",""time""
""focus"",""7"",""42538""
","""event"",""trial"",""time""
""fullscreenenter"",""1"",""3091""
","
","","","428.30000000074506","","","13","3002","2509","&#9761;","elianto","#3366ff99","-1"," ","0","0","[1279.9000000003725]","1","0","2",""
"pit-trial","28","357041","0.0-2.0-11.0-1.0","battery-v0.2","","""event"",""trial"",""time""
""fullscreenenter"",""1"",""3091""
""blur"",""7"",""35775""
""focus"",""7"",""42538""
","""event"",""trial"",""time""
""blur"",""7"",""35775""
","""event"",""trial"",""time""
""focus"",""7"",""42538""
","""event"",""trial"",""time""
""fullscreenenter"",""1"",""3091""
","
","","","543.9000000003725","","","13","3002","2509","&#9761;","elianto","#3366ff99","-1"," ","0","0","[795.9000000003725,1394.5999999996275]","2","0","2",""
"pit-trial","29","361898","0.0-2.0-11.0-2.0","battery-v0.2","","""event"",""trial"",""time""
""fullscreenenter"",""1"",""3091""
""blur"",""7"",""35775""
""focus"",""7"",""42538""
","""event"",""trial"",""time""
""blur"",""7"",""35775""
","""event"",""trial"",""time""
""focus"",""7"",""42538""
","""event"",""trial"",""time""
""fullscreenenter"",""1"",""3091""
","
","","","-1","","","13","3002","2509","&#9761;","elianto","#3366ff99","-1","-1","1","+10","[]","0","0","2",""
"pit-trial","30","366757","0.0-2.0-11.0-3.0","battery-v0.2","","""event"",""trial"",""time""
""fullscreenenter"",""1"",""3091""
""blur"",""7"",""35775""
""focus"",""7"",""42538""
","""event"",""trial"",""time""
""blur"",""7"",""35775""
","""event"",""trial"",""time""
""focus"",""7"",""42538""
","""event"",""trial"",""time""
""fullscreenenter"",""1"",""3091""
","
","","","-1","","","13","3002","2509","&#9761;","elianto","#3366ff99","-1","-1","1","0","[]","0","0","2",""
"pit-trial","31","371616","0.0-2.0-11.0-4.0","battery-v0.2","","""event"",""trial"",""time""
""fullscreenenter"",""1"",""3091""
""blur"",""7"",""35775""
""focus"",""7"",""42538""
","""event"",""trial"",""time""
""blur"",""7"",""35775""
","""event"",""trial"",""time""
""focus"",""7"",""42538""
","""event"",""trial"",""time""
""fullscreenenter"",""1"",""3091""
","
","","","-1","","","13","3002","2509","&#9761;","elianto","#3366ff99","-1","-1","1","+10","[]","0","0","2",""
"pit-trial","32","375052","0.0-2.0-11.1-0.1","battery-v0.2","","""event"",""trial"",""time""
""fullscreenenter"",""1"",""3091""
""blur"",""7"",""35775""
""focus"",""7"",""42538""
","""event"",""trial"",""time""
""blur"",""7"",""35775""
","""event"",""trial"",""time""
""focus"",""7"",""42538""
","""event"",""trial"",""time""
""fullscreenenter"",""1"",""3091""
","
","","","578.2000000011176","","","13","3002","2509","&#9761;","elianto","#3366ff99","-1"," ","0","0","[1430]","1","0","2",""
"pit-trial","33","378831","0.0-2.0-11.1-1.1","battery-v0.2","","""event"",""trial"",""time""
""fullscreenenter"",""1"",""3091""
""blur"",""7"",""35775""
""focus"",""7"",""42538""
","""event"",""trial"",""time""
""blur"",""7"",""35775""
","""event"",""trial"",""time""
""focus"",""7"",""42538""
","""event"",""trial"",""time""
""fullscreenenter"",""1"",""3091""
","
","","","925.4000000003725","","","13","3002","2509","&#9761;","elianto","#3366ff99","-1"," ","0","0","[1777.5999999996275]","1","0","2",""
"pit-trial","34","382714","0.0-2.0-11.1-2.1","battery-v0.2","","""event"",""trial"",""time""
""fullscreenenter"",""1"",""3091""
""blur"",""7"",""35775""
""focus"",""7"",""42538""
","""event"",""trial"",""time""
""blur"",""7"",""35775""
","""event"",""trial"",""time""
""focus"",""7"",""42538""
","""event"",""trial"",""time""
""fullscreenenter"",""1"",""3091""
","
","","","1028.5","","","13","3002","2509","&#9761;","elianto","#3366ff99","-1"," ","0","0","[1878.5999999996275]","1","0","2",""
"pit-trial","35","387573","0.0-2.0-11.1-3.1","battery-v0.2","","""event"",""trial"",""time""
""fullscreenenter"",""1"",""3091""
""blur"",""7"",""35775""
""focus"",""7"",""42538""
","""event"",""trial"",""time""
""blur"",""7"",""35775""
","""event"",""trial"",""time""
""focus"",""7"",""42538""
","""event"",""trial"",""time""
""fullscreenenter"",""1"",""3091""
","
","","","-1","","","13","3002","2509","&#9761;","elianto","#3366ff99","-1","-1","1","0","[]","0","0","2",""
"pit-trial","36","392431","0.0-2.0-11.1-4.1","battery-v0.2","","""event"",""trial"",""time""
""fullscreenenter"",""1"",""3091""
""blur"",""7"",""35775""
""focus"",""7"",""42538""
","""event"",""trial"",""time""
""blur"",""7"",""35775""
","""event"",""trial"",""time""
""focus"",""7"",""42538""
","""event"",""trial"",""time""
""fullscreenenter"",""1"",""3091""
","
","","","-1","","","13","3002","2509","&#9761;","elianto","#3366ff99","-1","-1","1","+10","[]","0","0","2",""
"pit-trial","37","397290","0.0-2.0-11.2-0.2","battery-v0.2","","""event"",""trial"",""time""
""fullscreenenter"",""1"",""3091""
""blur"",""7"",""35775""
""focus"",""7"",""42538""
","""event"",""trial"",""time""
""blur"",""7"",""35775""
","""event"",""trial"",""time""
""focus"",""7"",""42538""
","""event"",""trial"",""time""
""fullscreenenter"",""1"",""3091""
","
","","","-1","","","13","3002","2509","&#9761;","elianto","#3366ff99","-1","-1","1","+10","[]","0","0","2",""
"pit-trial","38","401499","0.0-2.0-11.2-1.2","battery-v0.2","","""event"",""trial"",""time""
""fullscreenenter"",""1"",""3091""
""blur"",""7"",""35775""
""focus"",""7"",""42538""
","""event"",""trial"",""time""
""blur"",""7"",""35775""
","""event"",""trial"",""time""
""focus"",""7"",""42538""
","""event"",""trial"",""time""
""fullscreenenter"",""1"",""3091""
","
","","","1352.7000000011176","","","13","3002","2509","&#9761;","elianto","#3366ff99","-1"," ","0","0","[2203.9000000003725]","1","0","2",""
"pit-trial","39","406358","0.0-2.0-11.2-2.2","battery-v0.2","","""event"",""trial"",""time""
""fullscreenenter"",""1"",""3091""
""blur"",""7"",""35775""
""focus"",""7"",""42538""
","""event"",""trial"",""time""
""blur"",""7"",""35775""
","""event"",""trial"",""time""
""focus"",""7"",""42538""
","""event"",""trial"",""time""
""fullscreenenter"",""1"",""3091""
","
","","","-1","","","13","3002","2509","&#9761;","elianto","#3366ff99","-1","-1","1","+10","[]","0","0","2",""
"pit-trial","40","411036","0.0-2.0-11.2-3.2","battery-v0.2","","""event"",""trial"",""time""
""fullscreenenter"",""1"",""3091""
""blur"",""7"",""35775""
""focus"",""7"",""42538""
","""event"",""trial"",""time""
""blur"",""7"",""35775""
","""event"",""trial"",""time""
""focus"",""7"",""42538""
","""event"",""trial"",""time""
""fullscreenenter"",""1"",""3091""
","
","","","1821.2999999988824","","","13","3002","2509","&#9761;","elianto","#3366ff99","-1"," ","0","+10","[2672.2999999988824]","1","0","2",""
"pit-trial","41","415895","0.0-2.0-11.2-4.2","battery-v0.2","","""event"",""trial"",""time""
""fullscreenenter"",""1"",""3091""
""blur"",""7"",""35775""
""focus"",""7"",""42538""
","""event"",""trial"",""time""
""blur"",""7"",""35775""
","""event"",""trial"",""time""
""focus"",""7"",""42538""
","""event"",""trial"",""time""
""fullscreenenter"",""1"",""3091""
","
","","","-1","","","13","3002","2509","&#9761;","elianto","#3366ff99","-1","-1","1","+10","[]","0","0","2",""
"pit-trial","42","420754","0.0-2.0-11.3-0.3","battery-v0.2","","""event"",""trial"",""time""
""fullscreenenter"",""1"",""3091""
""blur"",""7"",""35775""
""focus"",""7"",""42538""
","""event"",""trial"",""time""
""blur"",""7"",""35775""
","""event"",""trial"",""time""
""focus"",""7"",""42538""
","""event"",""trial"",""time""
""fullscreenenter"",""1"",""3091""
","
","","","-1","","","13","3002","2509","&#9761;","elianto","#3366ff99","-1","-1","1","+10","[]","0","0","2",""
"pit-trial","43","424736","0.0-2.0-11.3-1.3","battery-v0.2","","""event"",""trial"",""time""
""fullscreenenter"",""1"",""3091""
""blur"",""7"",""35775""
""focus"",""7"",""42538""
","""event"",""trial"",""time""
""blur"",""7"",""35775""
","""event"",""trial"",""time""
""focus"",""7"",""42538""
","""event"",""trial"",""time""
""fullscreenenter"",""1"",""3091""
","
","","","1127.4000000003725","","","13","3002","2509","&#9761;","elianto","#3366ff99","-1"," ","0","0","[1979.7000000011176]","1","0","2",""
"pit-trial","44","429595","0.0-2.0-11.3-2.3","battery-v0.2","","""event"",""trial"",""time""
""fullscreenenter"",""1"",""3091""
""blur"",""7"",""35775""
""focus"",""7"",""42538""
","""event"",""trial"",""time""
""blur"",""7"",""35775""
","""event"",""trial"",""time""
""focus"",""7"",""42538""
","""event"",""trial"",""time""
""fullscreenenter"",""1"",""3091""
","
","","","-1","","","13","3002","2509","&#9761;","elianto","#3366ff99","-1","-1","1","+10","[]","0","0","2",""
"pit-trial","45","434454","0.0-2.0-11.3-3.3","battery-v0.2","","""event"",""trial"",""time""
""fullscreenenter"",""1"",""3091""
""blur"",""7"",""35775""
""focus"",""7"",""42538""
","""event"",""trial"",""time""
""blur"",""7"",""35775""
","""event"",""trial"",""time""
""focus"",""7"",""42538""
","""event"",""trial"",""time""
""fullscreenenter"",""1"",""3091""
","
","","","-1","","","13","3002","2509","&#9761;","elianto","#3366ff99","-1","-1","1","0","[]","0","0","2",""
"pit-trial","46","439312","0.0-2.0-11.3-4.3","battery-v0.2","","""event"",""trial"",""time""
""fullscreenenter"",""1"",""3091""
""blur"",""7"",""35775""
""focus"",""7"",""42538""
","""event"",""trial"",""time""
""blur"",""7"",""35775""
","""event"",""trial"",""time""
""focus"",""7"",""42538""
","""event"",""trial"",""time""
""fullscreenenter"",""1"",""3091""
","
","","","-1","","","13","3002","2509","&#9761;","elianto","#3366ff99","-1","-1","1","+10","[]","0","0","2",""
"pit-trial","47","444171","0.0-2.0-11.4-0.4","battery-v0.2","","""event"",""trial"",""time""
""fullscreenenter"",""1"",""3091""
""blur"",""7"",""35775""
""focus"",""7"",""42538""
","""event"",""trial"",""time""
""blur"",""7"",""35775""
","""event"",""trial"",""time""
""focus"",""7"",""42538""
","""event"",""trial"",""time""
""fullscreenenter"",""1"",""3091""
","
","","","-1","","","13","3002","2509","&#9761;","elianto","#3366ff99","-1","-1","1","+10","[2885.0999999996275]","1","0","2",""
"pit-trial","48","447915","0.0-2.0-11.4-1.4","battery-v0.2","","""event"",""trial"",""time""
""fullscreenenter"",""1"",""3091""
""blur"",""7"",""35775""
""focus"",""7"",""42538""
","""event"",""trial"",""time""
""blur"",""7"",""35775""
","""event"",""trial"",""time""
""focus"",""7"",""42538""
","""event"",""trial"",""time""
""fullscreenenter"",""1"",""3091""
","
","","","886.5","","","13","3002","2509","&#9761;","elianto","#3366ff99","-1"," ","0","0","[1738.699999999255]","1","0","2",""
"pit-trial","49","452774","0.0-2.0-11.4-2.4","battery-v0.2","","""event"",""trial"",""time""
""fullscreenenter"",""1"",""3091""
""blur"",""7"",""35775""
""focus"",""7"",""42538""
","""event"",""trial"",""time""
""blur"",""7"",""35775""
","""event"",""trial"",""time""
""focus"",""7"",""42538""
","""event"",""trial"",""time""
""fullscreenenter"",""1"",""3091""
","
","","","-1","","","13","3002","2509","&#9761;","elianto","#3366ff99","-1","-1","1","+10","[]","0","0","2",""
"pit-trial","50","457633","0.0-2.0-11.4-3.4","battery-v0.2","","""event"",""trial"",""time""
""fullscreenenter"",""1"",""3091""
""blur"",""7"",""35775""
""focus"",""7"",""42538""
","""event"",""trial"",""time""
""blur"",""7"",""35775""
","""event"",""trial"",""time""
""focus"",""7"",""42538""
","""event"",""trial"",""time""
""fullscreenenter"",""1"",""3091""
","
","","","-1","","","13","3002","2509","&#9761;","elianto","#3366ff99","-1","-1","1","0","[]","0","0","2",""
"pit-trial","51","462492","0.0-2.0-11.4-4.4","battery-v0.2","","""event"",""trial"",""time""
""fullscreenenter"",""1"",""3091""
""blur"",""7"",""35775""
""focus"",""7"",""42538""
","""event"",""trial"",""time""
""blur"",""7"",""35775""
","""event"",""trial"",""time""
""focus"",""7"",""42538""
","""event"",""trial"",""time""
""fullscreenenter"",""1"",""3091""
","
","","","-1","","","13","3002","2509","&#9761;","elianto","#3366ff99","-1","-1","1","+10","[]","0","0","2",""
"pit-instructions","52","489074","0.0-2.0-11.4-5.4-0.4","battery-v0.2","","""event"",""trial"",""time""
""fullscreenenter"",""1"",""3091""
""blur"",""7"",""35775""
""focus"",""7"",""42538""
","""event"",""trial"",""time""
""blur"",""7"",""35775""
","""event"",""trial"",""time""
""focus"",""7"",""42538""
","""event"",""trial"",""time""
""fullscreenenter"",""1"",""3091""
","
","","[{""page_index"":0,""viewing_time"":12091.400000000373},{""page_index"":1,""viewing_time"":6277.4000000003725},{""page_index"":2,""viewing_time"":8212.900000000373}]","26582","","","","","","","","","","","","","","","","",""
"pit-trial","53","492929","0.0-2.0-11.5-0.5","battery-v0.2","","""event"",""trial"",""time""
""fullscreenenter"",""1"",""3091""
""blur"",""7"",""35775""
""focus"",""7"",""42538""
","""event"",""trial"",""time""
""blur"",""7"",""35775""
","""event"",""trial"",""time""
""focus"",""7"",""42538""
","""event"",""trial"",""time""
""fullscreenenter"",""1"",""3091""
","
","","","998.8999999985099","","","13","3002","2509","&#9761;","elianto","#3366ff99","-1"," ","0","0","[1851.0999999996275]","1","0","2",""
"pit-trial","54","496976","0.0-2.0-11.5-1.5","battery-v0.2","","""event"",""trial"",""time""
""fullscreenenter"",""1"",""3091""
""blur"",""7"",""35775""
""focus"",""7"",""42538""
","""event"",""trial"",""time""
""blur"",""7"",""35775""
","""event"",""trial"",""time""
""focus"",""7"",""42538""
","""event"",""trial"",""time""
""fullscreenenter"",""1"",""3091""
","
","","","1193.9000000003725","","","13","3002","2509","&#9761;","elianto","#3366ff99","-1"," ","0","0","[2044.800000000745]","1","0","2",""
"pit-trial","55","500290","0.0-2.0-11.5-2.5","battery-v0.2","","""event"",""trial"",""time""
""fullscreenenter"",""1"",""3091""
""blur"",""7"",""35775""
""focus"",""7"",""42538""
","""event"",""trial"",""time""
""blur"",""7"",""35775""
","""event"",""trial"",""time""
""focus"",""7"",""42538""
","""event"",""trial"",""time""
""fullscreenenter"",""1"",""3091""
","
","","","458.19999999925494","","","13","3002","2509","&#9761;","elianto","#3366ff99","-1"," ","0","0","[1309.9000000003725]","1","0","2",""
"pit-trial","56","503667","0.0-2.0-11.5-3.5","battery-v0.2","","""event"",""trial"",""time""
""fullscreenenter"",""1"",""3091""
""blur"",""7"",""35775""
""focus"",""7"",""42538""
","""event"",""trial"",""time""
""blur"",""7"",""35775""
","""event"",""trial"",""time""
""focus"",""7"",""42538""
","""event"",""trial"",""time""
""fullscreenenter"",""1"",""3091""
","
","","","519.8000000007451","","","13","3002","2509","&#9761;","elianto","#3366ff99","-1"," ","0","+10","[76.90000000037253,1371.9000000003725]","2","0","2",""
"pit-trial","57","506739","0.0-2.0-11.5-4.5","battery-v0.2","","""event"",""trial"",""time""
""fullscreenenter"",""1"",""3091""
""blur"",""7"",""35775""
""focus"",""7"",""42538""
","""event"",""trial"",""time""
""blur"",""7"",""35775""
","""event"",""trial"",""time""
""focus"",""7"",""42538""
","""event"",""trial"",""time""
""fullscreenenter"",""1"",""3091""
","
","","","216.7999999988824","","","13","3002","2509","&#9761;","elianto","#3366ff99","-1"," ","0","0","[1067]","1","0","2",""
"pit-trial","58","509833","0.0-2.0-11.6-0.6","battery-v0.2","","""event"",""trial"",""time""
""fullscreenenter"",""1"",""3091""
""blur"",""7"",""35775""
""focus"",""7"",""42538""
","""event"",""trial"",""time""
""blur"",""7"",""35775""
","""event"",""trial"",""time""
""focus"",""7"",""42538""
","""event"",""trial"",""time""
""fullscreenenter"",""1"",""3091""
","
","","","240.09999999962747","","","13","3002","2509","&#9761;","elianto","#3366ff99","-1"," ","0","0","[1090.5999999996275]","1","0","2",""
"pit-trial","59","513159","0.0-2.0-11.6-1.6","battery-v0.2","","""event"",""trial"",""time""
""fullscreenenter"",""1"",""3091""
""blur"",""7"",""35775""
""focus"",""7"",""42538""
","""event"",""trial"",""time""
""blur"",""7"",""35775""
","""event"",""trial"",""time""
""focus"",""7"",""42538""
","""event"",""trial"",""time""
""fullscreenenter"",""1"",""3091""
","
","","","474.2999999988824","","","13","3002","2509","&#9761;","elianto","#3366ff99","-1"," ","0","0","[1324.7999999988824]","1","0","2",""
"pit-trial","60","516224","0.0-2.0-11.6-2.6","battery-v0.2","","""event"",""trial"",""time""
""fullscreenenter"",""1"",""3091""
""blur"",""7"",""35775""
""focus"",""7"",""42538""
","""event"",""trial"",""time""
""blur"",""7"",""35775""
","""event"",""trial"",""time""
""focus"",""7"",""42538""
","""event"",""trial"",""time""
""fullscreenenter"",""1"",""3091""
","
","","","211.2999999988824","","","13","3002","2509","&#9761;","elianto","#3366ff99","-1"," ","0","0","[1062.4000000003725]","1","0","2",""
"pit-trial","61","519876","0.0-2.0-11.6-3.6","battery-v0.2","","""event"",""trial"",""time""
""fullscreenenter"",""1"",""3091""
""blur"",""7"",""35775""
""focus"",""7"",""42538""
","""event"",""trial"",""time""
""blur"",""7"",""35775""
","""event"",""trial"",""time""
""focus"",""7"",""42538""
","""event"",""trial"",""time""
""fullscreenenter"",""1"",""3091""
","
","","","795.2999999988824","","","13","3002","2509","&#9761;","elianto","#3366ff99","-1"," ","0","+10","[1645.4000000003725]","1","0","2",""
"pit-trial","62","523284","0.0-2.0-11.6-4.6","battery-v0.2","","""event"",""trial"",""time""
""fullscreenenter"",""1"",""3091""
""blur"",""7"",""35775""
""focus"",""7"",""42538""
","""event"",""trial"",""time""
""blur"",""7"",""35775""
","""event"",""trial"",""time""
""focus"",""7"",""42538""
","""event"",""trial"",""time""
""fullscreenenter"",""1"",""3091""
","
","","","551.8000000007451","","","13","3002","2509","&#9761;","elianto","#3366ff99","-1"," ","0","0","[1401.800000000745]","1","0","2",""
"pit-trial","63","528143","0.0-2.0-11.7-0.7","battery-v0.2","","""event"",""trial"",""time""
""fullscreenenter"",""1"",""3091""
""blur"",""7"",""35775""
""focus"",""7"",""42538""
","""event"",""trial"",""time""
""blur"",""7"",""35775""
","""event"",""trial"",""time""
""focus"",""7"",""42538""
","""event"",""trial"",""time""
""fullscreenenter"",""1"",""3091""
","
","","","-1","","","13","3002","2509","&#9761;","elianto","#3366ff99","-1","-1","1","+10","[]","0","0","2",""
"pit-trial","64","531881","0.0-2.0-11.7-1.7","battery-v0.2","","""event"",""trial"",""time""
""fullscreenenter"",""1"",""3091""
""blur"",""7"",""35775""
""focus"",""7"",""42538""
","""event"",""trial"",""time""
""blur"",""7"",""35775""
","""event"",""trial"",""time""
""focus"",""7"",""42538""
","""event"",""trial"",""time""
""fullscreenenter"",""1"",""3091""
","
","","","884.8999999985099","","","13","3002","2509","&#9761;","elianto","#3366ff99","-1"," ","0","0","[1735]","1","0","2",""
"pit-trial","65","536740","0.0-2.0-11.7-2.7","battery-v0.2","","""event"",""trial"",""time""
""fullscreenenter"",""1"",""3091""
""blur"",""7"",""35775""
""focus"",""7"",""42538""
","""event"",""trial"",""time""
""blur"",""7"",""35775""
","""event"",""trial"",""time""
""focus"",""7"",""42538""
","""event"",""trial"",""time""
""fullscreenenter"",""1"",""3091""
","
","","","-1","","","13","3002","2509","&#9761;","elianto","#3366ff99","-1","-1","1","+10","[]","0","0","2",""
"pit-trial","66","540931","0.0-2.0-11.7-3.7","battery-v0.2","","""event"",""trial"",""time""
""fullscreenenter"",""1"",""3091""
""blur"",""7"",""35775""
""focus"",""7"",""42538""
","""event"",""trial"",""time""
""blur"",""7"",""35775""
","""event"",""trial"",""time""
""focus"",""7"",""42538""
","""event"",""trial"",""time""
""fullscreenenter"",""1"",""3091""
","
","","","1333.9000000003725","","","13","3002","2509","&#9761;","elianto","#3366ff99","-1"," ","0","+10","[2185.800000000745]","1","0","2",""
"pit-trial","67","545233","0.0-2.0-11.7-4.7","battery-v0.2","","""event"",""trial"",""time""
""fullscreenenter"",""1"",""3091""
""blur"",""7"",""35775""
""focus"",""7"",""42538""
","""event"",""trial"",""time""
""blur"",""7"",""35775""
","""event"",""trial"",""time""
""focus"",""7"",""42538""
","""event"",""trial"",""time""
""fullscreenenter"",""1"",""3091""
","
","","","1447.9000000003725","","","13","3002","2509","&#9761;","elianto","#3366ff99","-1"," ","0","0","[2298.39999999851]","1","0","2",""
"pit-trial","68","550092","0.0-2.0-11.8-0.8","battery-v0.2","","""event"",""trial"",""time""
""fullscreenenter"",""1"",""3091""
""blur"",""7"",""35775""
""focus"",""7"",""42538""
","""event"",""trial"",""time""
""blur"",""7"",""35775""
","""event"",""trial"",""time""
""focus"",""7"",""42538""
","""event"",""trial"",""time""
""fullscreenenter"",""1"",""3091""
","
","","","-1","","","13","3002","2509","&#9761;","elianto","#3366ff99","-1","-1","1","+10","[]","0","0","2",""
"pit-trial","69","554950","0.0-2.0-11.8-1.8","battery-v0.2","","""event"",""trial"",""time""
""fullscreenenter"",""1"",""3091""
""blur"",""7"",""35775""
""focus"",""7"",""42538""
","""event"",""trial"",""time""
""blur"",""7"",""35775""
","""event"",""trial"",""time""
""focus"",""7"",""42538""
","""event"",""trial"",""time""
""fullscreenenter"",""1"",""3091""
","
","","","-1","","","13","3002","2509","&#9761;","elianto","#3366ff99","-1","-1","1","+10","[]","0","0","2",""
"pit-trial","70","559809","0.0-2.0-11.8-2.8","battery-v0.2","","""event"",""trial"",""time""
""fullscreenenter"",""1"",""3091""
""blur"",""7"",""35775""
""focus"",""7"",""42538""
","""event"",""trial"",""time""
""blur"",""7"",""35775""
","""event"",""trial"",""time""
""focus"",""7"",""42538""
","""event"",""trial"",""time""
""fullscreenenter"",""1"",""3091""
","
","","","-1","","","13","3002","2509","&#9761;","elianto","#3366ff99","-1","-1","1","+10","[]","0","0","2",""
"pit-trial","71","564668","0.0-2.0-11.8-3.8","battery-v0.2","","""event"",""trial"",""time""
""fullscreenenter"",""1"",""3091""
""blur"",""7"",""35775""
""focus"",""7"",""42538""
","""event"",""trial"",""time""
""blur"",""7"",""35775""
","""event"",""trial"",""time""
""focus"",""7"",""42538""
","""event"",""trial"",""time""
""fullscreenenter"",""1"",""3091""
","
","","","-1","","","13","3002","2509","&#9761;","elianto","#3366ff99","-1","-1","1","0","[]","0","0","2",""
"pit-trial","72","567617","0.0-2.0-11.8-4.8","battery-v0.2","","""event"",""trial"",""time""
""fullscreenenter"",""1"",""3091""
""blur"",""7"",""35775""
""focus"",""7"",""42538""
","""event"",""trial"",""time""
""blur"",""7"",""35775""
","""event"",""trial"",""time""
""focus"",""7"",""42538""
","""event"",""trial"",""time""
""fullscreenenter"",""1"",""3091""
","
","","","95.79999999888241","","","13","3002","2509","&#9761;","elianto","#3366ff99","-1"," ","0","0","[18.200000001117587,945.9000000003725]","2","0","2",""
"pit-trial","73","570688","0.0-2.0-11.9-0.9","battery-v0.2","","""event"",""trial"",""time""
""fullscreenenter"",""1"",""3091""
""blur"",""7"",""35775""
""focus"",""7"",""42538""
","""event"",""trial"",""time""
""blur"",""7"",""35775""
","""event"",""trial"",""time""
""focus"",""7"",""42538""
","""event"",""trial"",""time""
""fullscreenenter"",""1"",""3091""
","
","","","218.59999999962747","","","13","3002","2509","&#9761;","elianto","#3366ff99","-1"," ","0","0","[1068.5999999996275]","1","0","2",""
"pit-trial","74","574002","0.0-2.0-11.9-1.9","battery-v0.2","","""event"",""trial"",""time""
""fullscreenenter"",""1"",""3091""
""blur"",""7"",""35775""
""focus"",""7"",""42538""
","""event"",""trial"",""time""
""blur"",""7"",""35775""
","""event"",""trial"",""time""
""focus"",""7"",""42538""
","""event"",""trial"",""time""
""fullscreenenter"",""1"",""3091""
","
","","","459.19999999925494","","","13","3002","2509","&#9761;","elianto","#3366ff99","-1"," ","0","0","[798,1309.9000000003725]","2","0","2",""
"pit-trial","75","577224","0.0-2.0-11.9-2.9","battery-v0.2","","""event"",""trial"",""time""
""fullscreenenter"",""1"",""3091""
""blur"",""7"",""35775""
""focus"",""7"",""42538""
","""event"",""trial"",""time""
""blur"",""7"",""35775""
","""event"",""trial"",""time""
""focus"",""7"",""42538""
","""event"",""trial"",""time""
""fullscreenenter"",""1"",""3091""
","
","","","367.59999999962747","","","13","3002","2509","&#9761;","elianto","#3366ff99","-1"," ","0","0","[1219.7000000011176]","1","0","2",""
"pit-trial","76","580289","0.0-2.0-11.9-3.9","battery-v0.2","","""event"",""trial"",""time""
""fullscreenenter"",""1"",""3091""
""blur"",""7"",""35775""
""focus"",""7"",""42538""
","""event"",""trial"",""time""
""blur"",""7"",""35775""
","""event"",""trial"",""time""
""focus"",""7"",""42538""
","""event"",""trial"",""time""
""fullscreenenter"",""1"",""3091""
","
","","","211.59999999962747","","","13","3002","2509","&#9761;","elianto","#3366ff99","-1"," ","0","+10","[1061.699999999255]","1","0","2",""
"pit-trial","77","583435","0.0-2.0-11.9-4.9","battery-v0.2","","""event"",""trial"",""time""
""fullscreenenter"",""1"",""3091""
""blur"",""7"",""35775""
""focus"",""7"",""42538""
","""event"",""trial"",""time""
""blur"",""7"",""35775""
","""event"",""trial"",""time""
""focus"",""7"",""42538""
","""event"",""trial"",""time""
""fullscreenenter"",""1"",""3091""
","
","","","290.6000000014901","","","13","3002","2509","&#9761;","elianto","#3366ff99","-1"," ","0","0","[1140.699999999255,2916.699999999255]","2","0","2",""
"pit-trial","78","586994","0.0-2.0-11.10-0.10","battery-v0.2","","""event"",""trial"",""time""
""fullscreenenter"",""1"",""3091""
""blur"",""7"",""35775""
""focus"",""7"",""42538""
","""event"",""trial"",""time""
""blur"",""7"",""35775""
","""event"",""trial"",""time""
""focus"",""7"",""42538""
","""event"",""trial"",""time""
""fullscreenenter"",""1"",""3091""
","
","","","701.5999999996275","","","13","3002","2509","&#9761;","elianto","#3366ff99","-1"," ","0","0","[1554.5]","1","0","2",""
"pit-trial","79","590123","0.0-2.0-11.10-1.10","battery-v0.2","","""event"",""trial"",""time""
""fullscreenenter"",""1"",""3091""
""blur"",""7"",""35775""
""focus"",""7"",""42538""
","""event"",""trial"",""time""
""blur"",""7"",""35775""
","""event"",""trial"",""time""
""focus"",""7"",""42538""
","""event"",""trial"",""time""
""fullscreenenter"",""1"",""3091""
","
","","","273.40000000037253","","","13","3002","2509","&#9761;","elianto","#3366ff99","-1"," ","0","0","[1124.2000000011176]","1","0","2",""
"pit-trial","80","593275","0.0-2.0-11.10-2.10","battery-v0.2","","""event"",""trial"",""time""
""fullscreenenter"",""1"",""3091""
""blur"",""7"",""35775""
""focus"",""7"",""42538""
","""event"",""trial"",""time""
""blur"",""7"",""35775""
","""event"",""trial"",""time""
""focus"",""7"",""42538""
","""event"",""trial"",""time""
""fullscreenenter"",""1"",""3091""
","
","","","294.30000000074506","","","13","3002","2509","&#9761;","elianto","#3366ff99","-1"," ","0","0","[1146.800000000745]","1","0","2",""
"pit-trial","81","596177","0.0-2.0-11.10-3.10","battery-v0.2","","""event"",""trial"",""time""
""fullscreenenter"",""1"",""3091""
""blur"",""7"",""35775""
""focus"",""7"",""42538""
","""event"",""trial"",""time""
""blur"",""7"",""35775""
","""event"",""trial"",""time""
""focus"",""7"",""42538""
","""event"",""trial"",""time""
""fullscreenenter"",""1"",""3091""
","
","","","47","","","13","3002","2509","&#9761;","elianto","#3366ff99","-1"," ","0","+10","[899.1000000014901,1330.800000000745]","2","0","2",""
"pit-trial","82","599692","0.0-2.0-11.10-4.10","battery-v0.2","","""event"",""trial"",""time""
""fullscreenenter"",""1"",""3091""
""blur"",""7"",""35775""
""focus"",""7"",""42538""
","""event"",""trial"",""time""
""blur"",""7"",""35775""
","""event"",""trial"",""time""
""focus"",""7"",""42538""
","""event"",""trial"",""time""
""fullscreenenter"",""1"",""3091""
","
","","","658.0999999996275","","","13","3002","2509","&#9761;","elianto","#3366ff99","-1"," ","0","0","[260.3999999985099,1508.2999999988824]","2","0","2",""
"pit-trial","83","602980","0.0-2.0-11.11-0.11","battery-v0.2","","""event"",""trial"",""time""
""fullscreenenter"",""1"",""3091""
""blur"",""7"",""35775""
""focus"",""7"",""42538""
","""event"",""trial"",""time""
""blur"",""7"",""35775""
","""event"",""trial"",""time""
""focus"",""7"",""42538""
","""event"",""trial"",""time""
""fullscreenenter"",""1"",""3091""
","
","","","429.09999999962747","","","13","3002","2509","&#9761;","elianto","#3366ff99","-1"," ","0","0","[1281.800000000745]","1","0","2",""
"pit-trial","84","606017","0.0-2.0-11.11-1.11","battery-v0.2","","""event"",""trial"",""time""
""fullscreenenter"",""1"",""3091""
""blur"",""7"",""35775""
""focus"",""7"",""42538""
","""event"",""trial"",""time""
""blur"",""7"",""35775""
","""event"",""trial"",""time""
""focus"",""7"",""42538""
","""event"",""trial"",""time""
""fullscreenenter"",""1"",""3091""
","
","","","182.2999999988824","","","13","3002","2509","&#9761;","elianto","#3366ff99","-1"," ","0","0","[1033.2999999988824]","1","0","2",""
"pit-trial","85","609244","0.0-2.0-11.11-2.11","battery-v0.2","","""event"",""trial"",""time""
""fullscreenenter"",""1"",""3091""
""blur"",""7"",""35775""
""focus"",""7"",""42538""
","""event"",""trial"",""time""
""blur"",""7"",""35775""
","""event"",""trial"",""time""
""focus"",""7"",""42538""
","""event"",""trial"",""time""
""fullscreenenter"",""1"",""3091""
","
","","","370.19999999925494","","","13","3002","2509","&#9761;","elianto","#3366ff99","-1"," ","0","0","[1220.699999999255]","1","0","2",""
"pit-trial","86","613168","0.0-2.0-11.11-3.11","battery-v0.2","","""event"",""trial"",""time""
""fullscreenenter"",""1"",""3091""
""blur"",""7"",""35775""
""focus"",""7"",""42538""
","""event"",""trial"",""time""
""blur"",""7"",""35775""
","""event"",""trial"",""time""
""focus"",""7"",""42538""
","""event"",""trial"",""time""
""fullscreenenter"",""1"",""3091""
","
","","","1069","","","13","3002","2509","&#9761;","elianto","#3366ff99","-1"," ","0","+10","[738.1999999992549,1921.9000000003725]","2","0","2",""
"pit-trial","87","618027","0.0-2.0-11.11-4.11","battery-v0.2","","""event"",""trial"",""time""
""fullscreenenter"",""1"",""3091""
""blur"",""7"",""35775""
""focus"",""7"",""42538""
","""event"",""trial"",""time""
""blur"",""7"",""35775""
","""event"",""trial"",""time""
""focus"",""7"",""42538""
","""event"",""trial"",""time""
""fullscreenenter"",""1"",""3091""
","
","","","-1","","","13","3002","2509","&#9761;","elianto","#3366ff99","-1","-1","1","+10","[]","0","0","2",""
"pit-trial","88","621468","0.0-2.0-11.12-0.12","battery-v0.2","","""event"",""trial"",""time""
""fullscreenenter"",""1"",""3091""
""blur"",""7"",""35775""
""focus"",""7"",""42538""
","""event"",""trial"",""time""
""blur"",""7"",""35775""
","""event"",""trial"",""time""
""focus"",""7"",""42538""
","""event"",""trial"",""time""
""fullscreenenter"",""1"",""3091""
","
","","","582.2000000011176","","","13","3002","2509","&#9761;","elianto","#3366ff99","-1"," ","0","0","[1434.300000000745]","1","0","2",""
"pit-trial","89","626323","0.0-2.0-11.12-1.12","battery-v0.2","","""event"",""trial"",""time""
""fullscreenenter"",""1"",""3091""
""blur"",""7"",""35775""
""focus"",""7"",""42538""
","""event"",""trial"",""time""
""blur"",""7"",""35775""
","""event"",""trial"",""time""
""focus"",""7"",""42538""
","""event"",""trial"",""time""
""fullscreenenter"",""1"",""3091""
","
","","","-1","","","13","3002","2509","&#9761;","elianto","#3366ff99","-1","-1","1","+10","[]","0","0","2",""
"pit-trial","90","630578","0.0-2.0-11.12-2.12","battery-v0.2","","""event"",""trial"",""time""
""fullscreenenter"",""1"",""3091""
""blur"",""7"",""35775""
""focus"",""7"",""42538""
","""event"",""trial"",""time""
""blur"",""7"",""35775""
","""event"",""trial"",""time""
""focus"",""7"",""42538""
","""event"",""trial"",""time""
""fullscreenenter"",""1"",""3091""
","
","","","1401.199999999255","","","13","3002","2509","&#9761;","elianto","#3366ff99","-1"," ","0","0","[2251.4000000003725]","1","0","2",""
"pit-trial","91","635436","0.0-2.0-11.12-3.12","battery-v0.2","","""event"",""trial"",""time""
""fullscreenenter"",""1"",""3091""
""blur"",""7"",""35775""
""focus"",""7"",""42538""
","""event"",""trial"",""time""
""blur"",""7"",""35775""
","""event"",""trial"",""time""
""focus"",""7"",""42538""
","""event"",""trial"",""time""
""fullscreenenter"",""1"",""3091""
","
","","","-1","","","13","3002","2509","&#9761;","elianto","#3366ff99","-1","-1","1","0","[]","0","0","2",""
"pit-trial","92","638919","0.0-2.0-11.12-4.12","battery-v0.2","","""event"",""trial"",""time""
""fullscreenenter"",""1"",""3091""
""blur"",""7"",""35775""
""focus"",""7"",""42538""
","""event"",""trial"",""time""
""blur"",""7"",""35775""
","""event"",""trial"",""time""
""focus"",""7"",""42538""
","""event"",""trial"",""time""
""fullscreenenter"",""1"",""3091""
","
","","","630.5","","","13","3002","2509","&#9761;","elianto","#3366ff99","-1"," ","0","0","[1481.5]","1","0","2",""
"call-function","93","638920","0.0-2.0-12.0","battery-v0.2","","""event"",""trial"",""time""
""fullscreenenter"",""1"",""3091""
""blur"",""7"",""35775""
""focus"",""7"",""42538""
""blur"",""94"",""659757""
""focus"",""94"",""659759""
""fullscreenexit"",""94"",""659762""
","""event"",""trial"",""time""
""blur"",""7"",""35775""
""blur"",""94"",""659757""
","""event"",""trial"",""time""
""focus"",""7"",""42538""
""focus"",""94"",""659759""
","""event"",""trial"",""time""
""fullscreenenter"",""1"",""3091""
","""event"",""trial"",""time""
""fullscreenexit"",""94"",""659762""
","","","","","","","","","","","","","","","","","","","",""
