"trial_type","trial_index","time_elapsed","internal_node_id","task_version","subject_id","interactions","blur_events","focus_events","fullscreenenter_events","fullscreenexit_events","success","view_history","rt","responses","num_errors","age","subject","participantId","rune","rune_set","hex","correct","choice","accuracy","outcome","keys","total_keys","block","practice","value","sub","trial","stimulus","robot","valence","action","sham"
"pavlovia","0","35","0.0-0.0","battery-v0.2","","""event"",""trial"",""time""
""fullscreenenter"",""1"",""4840""
","
","
","""event"",""trial"",""time""
""fullscreenenter"",""1"",""4840""
","
","","","","","","","","","","","","","","","","","","","","","","","","","","",""
"fullscreen","1","5711","0.0-1.0","battery-v0.2","","""event"",""trial"",""time""
""fullscreenenter"",""1"",""4840""
","
","
","""event"",""trial"",""time""
""fullscreenenter"",""1"",""4840""
","
","true","","","","","","","","","","","","","","","","","","","","","","","","","",""
"pit-instructions","2","9682","0.0-2.0-0.0","battery-v0.2","","""event"",""trial"",""time""
""fullscreenenter"",""1"",""4840""
","
","
","""event"",""trial"",""time""
""fullscreenenter"",""1"",""4840""
","
","","[{""page_index"":0,""viewing_time"":3965.600000000093}]","3965.8000000002794","","","","","","","","","","","","","","","","","","","","","","","",""
"pit-comprehension","3","12799","0.0-2.0-1.0-0.0","battery-v0.2","","""event"",""trial"",""time""
""fullscreenenter"",""1"",""4840""
","
","
","""event"",""trial"",""time""
""fullscreenenter"",""1"",""4840""
","
","","","3113.3000000002794","[""shark""]","0","16","13286","5715","","","","","","","","","","","","","","","","","","",""
"pit-instructions","4","14292","0.0-2.0-1.0-1.0","battery-v0.2","","""event"",""trial"",""time""
""fullscreenenter"",""1"",""4840""
","
","
","""event"",""trial"",""time""
""fullscreenenter"",""1"",""4840""
","
","","[{""page_index"":0,""viewing_time"":1378}]","1378.1999999997206","","","","","","","","","","","","","","","","","","","","","","","",""
"pit-comprehension","5","16993","0.0-2.0-2.0-0.0","battery-v0.2","","""event"",""trial"",""time""
""fullscreenenter"",""1"",""4840""
","
","
","""event"",""trial"",""time""
""fullscreenenter"",""1"",""4840""
","
","","","2698.6999999997206","[""tiger""]","0","16","13286","5715","","","","","","","","","","","","","","","","","","",""
"pit-instructions","6","18376","0.0-2.0-2.0-1.0","battery-v0.2","","""event"",""trial"",""time""
""fullscreenenter"",""1"",""4840""
","
","
","""event"",""trial"",""time""
""fullscreenenter"",""1"",""4840""
","
","","[{""page_index"":0,""viewing_time"":1380.2999999998137}]","1380.5","","","","","","","","","","","","","","","","","","","","","","","",""
"pit-instructions","7","138486","0.0-2.0-3.0","battery-v0.2","","""event"",""trial"",""time""
""fullscreenenter"",""1"",""4840""
","
","
","""event"",""trial"",""time""
""fullscreenenter"",""1"",""4840""
","
","","[{""page_index"":0,""viewing_time"":8113.299999999814},{""page_index"":1,""viewing_time"":8918.30000000028},{""page_index"":2,""viewing_time"":10751.099999999627},{""page_index"":3,""viewing_time"":8483.900000000373},{""page_index"":4,""viewing_time"":6901.0999999996275},{""page_index"":5,""viewing_time"":6348.4000000003725},{""page_index"":6,""viewing_time"":9300.799999999814},{""page_index"":7,""viewing_time"":14219.700000000186},{""page_index"":8,""viewing_time"":6898.0999999996275},{""page_index"":9,""viewing_time"":7751},{""page_index"":10,""viewing_time"":7416.700000000186},{""page_index"":11,""viewing_time"":9138.299999999814},{""page_index"":12,""viewing_time"":9164.600000000093},{""page_index"":13,""viewing_time"":6748.700000000186}]","120154.5","","","","","","","","","","","","","","","","","","","","","","","",""
"pit-trial","8","142382","0.0-2.0-4.0-0.0","battery-v0.2","","""event"",""trial"",""time""
""fullscreenenter"",""1"",""4840""
","
","
","""event"",""trial"",""time""
""fullscreenenter"",""1"",""4840""
","
","","","1037.2000000001863","","","16","13286","5715","&#9784;","elianto","#FFFFF080"," "," ","1","&#10004","[616.5,1888.3999999999069]","2","0","0","","","","","","","",""
"pit-trial","9","146995","0.0-2.0-4.1-0.1","battery-v0.2","","""event"",""trial"",""time""
""fullscreenenter"",""1"",""4840""
","
","
","""event"",""trial"",""time""
""fullscreenenter"",""1"",""4840""
","
","","","1749","","","16","13286","5715","&#9784;","elianto","#FFFFF080"," "," ","1","&#10004","[2602.0999999996275]","1","0","0","","","","","","","",""
"pit-trial","10","150358","0.0-2.0-4.2-0.2","battery-v0.2","","""event"",""trial"",""time""
""fullscreenenter"",""1"",""4840""
","
","
","""event"",""trial"",""time""
""fullscreenenter"",""1"",""4840""
","
","","","505.10000000009313","","","16","13286","5715","&#9784;","elianto","#FFFFF080"," "," ","1","&#10004","[1357.1999999997206]","1","0","0","","","","","","","",""
"pit-trial","11","153678","0.0-2.0-4.3-0.3","battery-v0.2","","""event"",""trial"",""time""
""fullscreenenter"",""1"",""4840""
","
","
","""event"",""trial"",""time""
""fullscreenenter"",""1"",""4840""
","
","","","467","","","16","13286","5715","&#9784;","elianto","#FFFFF080"," "," ","1","&#10004","[1317.6999999997206]","1","0","0","","","","","","","",""
"pit-trial","12","157105","0.0-2.0-4.4-0.4","battery-v0.2","","""event"",""trial"",""time""
""fullscreenenter"",""1"",""4840""
","
","
","""event"",""trial"",""time""
""fullscreenenter"",""1"",""4840""
","
","","","569.1999999997206","","","16","13286","5715","&#9784;","elianto","#FFFFF080"," "," ","1","&#10004","[1420.5]","1","0","0","","","","","","","",""
"pit-instructions","13","181872","0.0-2.0-5.0","battery-v0.2","","""event"",""trial"",""time""
""fullscreenenter"",""1"",""4840""
","
","
","""event"",""trial"",""time""
""fullscreenenter"",""1"",""4840""
","
","","[{""page_index"":0,""viewing_time"":5681.399999999907},{""page_index"":1,""viewing_time"":5948.700000000186},{""page_index"":2,""viewing_time"":7450.5999999996275},{""page_index"":3,""viewing_time"":5683.800000000279}]","24764.600000000093","","","","","","","","","","","","","","","","","","","","","","","",""
"pit-trial","14","186726","0.0-2.0-6.0-0.0","battery-v0.2","","""event"",""trial"",""time""
""fullscreenenter"",""1"",""4840""
","
","
","""event"",""trial"",""time""
""fullscreenenter"",""1"",""4840""
","
","","","-1","","","16","13286","5715","&#9854;","elianto","#FFFFF080","-1","-1","1","&#10004","[]","0","0","1","","","","","","","",""
"pit-trial","15","191585","0.0-2.0-6.1-0.1","battery-v0.2","","""event"",""trial"",""time""
""fullscreenenter"",""1"",""4840""
","
","
","""event"",""trial"",""time""
""fullscreenenter"",""1"",""4840""
","
","","","-1","","","16","13286","5715","&#9854;","elianto","#FFFFF080","-1","-1","1","&#10004","[]","0","0","1","","","","","","","",""
"pit-trial","16","196444","0.0-2.0-6.2-0.2","battery-v0.2","","""event"",""trial"",""time""
""fullscreenenter"",""1"",""4840""
","
","
","""event"",""trial"",""time""
""fullscreenenter"",""1"",""4840""
","
","","","-1","","","16","13286","5715","&#9854;","elianto","#FFFFF080","-1","-1","1","&#10004","[]","0","0","1","","","","","","","",""
"pit-trial","17","201303","0.0-2.0-6.3-0.3","battery-v0.2","","""event"",""trial"",""time""
""fullscreenenter"",""1"",""4840""
","
","
","""event"",""trial"",""time""
""fullscreenenter"",""1"",""4840""
","
","","","-1","","","16","13286","5715","&#9854;","elianto","#FFFFF080","-1","-1","1","&#10004","[]","0","0","1","","","","","","","",""
"pit-trial","18","206161","0.0-2.0-6.4-0.4","battery-v0.2","","""event"",""trial"",""time""
""fullscreenenter"",""1"",""4840""
","
","
","""event"",""trial"",""time""
""fullscreenenter"",""1"",""4840""
","
","","","-1","","","16","13286","5715","&#9854;","elianto","#FFFFF080","-1","-1","1","&#10004","[]","0","0","1","","","","","","","",""
"pit-instructions","19","326616","0.0-2.0-7.0","battery-v0.2","","""event"",""trial"",""time""
""fullscreenenter"",""1"",""4840""
","
","
","""event"",""trial"",""time""
""fullscreenenter"",""1"",""4840""
","
","","[{""page_index"":0,""viewing_time"":5709.600000000093},{""page_index"":1,""viewing_time"":7267.0999999996275},{""page_index"":2,""viewing_time"":6800.9000000003725},{""page_index"":3,""viewing_time"":6283.5999999996275},{""page_index"":4,""viewing_time"":6133.600000000093},{""page_index"":5,""viewing_time"":5567.800000000279},{""page_index"":6,""viewing_time"":4850.199999999721},{""page_index"":7,""viewing_time"":7849.800000000279},{""page_index"":8,""viewing_time"":6350.299999999814},{""page_index"":9,""viewing_time"":6164.600000000093},{""page_index"":10,""viewing_time"":6326.5},{""page_index"":11,""viewing_time"":4512.100000000093},{""page_index"":12,""viewing_time"":7982.399999999907},{""page_index"":13,""viewing_time"":8184.699999999721},{""page_index"":14,""viewing_time"":9217.30000000028},{""page_index"":15,""viewing_time"":6865.899999999907},{""page_index"":16,""viewing_time"":7284.5},{""page_index"":17,""viewing_time"":7100.399999999907}]","120451.6000000001","","","","","","","","","","","","","","","","","","","","","","","",""
"pit-trial","20","331473","0.0-2.0-8.0-0.0","battery-v0.2","","""event"",""trial"",""time""
""fullscreenenter"",""1"",""4840""
","
","
","""event"",""trial"",""time""
""fullscreenenter"",""1"",""4840""
","
","","","-1","","","16","13286","5715","&#9776;","elianto","#3366ff99"," ","-1","0","0","[]","0","0","1","","","","","","","",""
"pit-trial","21","334846","0.0-2.0-8.0-1.0","battery-v0.2","","""event"",""trial"",""time""
""fullscreenenter"",""1"",""4840""
","
","
","""event"",""trial"",""time""
""fullscreenenter"",""1"",""4840""
","
","","","515.3999999999069","","","16","13286","5715","&#9776;","elianto","#3366ff99"," "," ","1","+10","[1367.9000000003725]","1","0","1","","","","","","","",""
"pit-trial","22","338372","0.0-2.0-8.0-2.0","battery-v0.2","","""event"",""trial"",""time""
""fullscreenenter"",""1"",""4840""
","
","
","""event"",""trial"",""time""
""fullscreenenter"",""1"",""4840""
","
","","","669.7000000001863","","","16","13286","5715","&#9776;","elianto","#3366ff99"," "," ","1","+10","[1521.7999999998137]","1","0","1","","","","","","","",""
"pit-trial","23","341901","0.0-2.0-8.0-3.0","battery-v0.2","","""event"",""trial"",""time""
""fullscreenenter"",""1"",""4840""
","
","
","""event"",""trial"",""time""
""fullscreenenter"",""1"",""4840""
","
","","","671.8999999999069","","","16","13286","5715","&#9776;","elianto","#3366ff99"," "," ","1","0","[1522.3999999999069]","1","0","1","","","","","","","",""
"pit-trial","24","345379","0.0-2.0-8.0-4.0","battery-v0.2","","""event"",""trial"",""time""
""fullscreenenter"",""1"",""4840""
","
","
","""event"",""trial"",""time""
""fullscreenenter"",""1"",""4840""
","
","","","621.6000000000931","","","16","13286","5715","&#9776;","elianto","#3366ff99"," "," ","1","+10","[1475.2000000001863]","1","0","1","","","","","","","",""
"pit-trial","25","348830","0.0-2.0-8.1-0.1","battery-v0.2","","""event"",""trial"",""time""
""fullscreenenter"",""1"",""4840""
","
","
","""event"",""trial"",""time""
""fullscreenenter"",""1"",""4840""
","
","","","587.1000000000931","","","16","13286","5715","&#9776;","elianto","#3366ff99"," "," ","1","+10","[1437.3999999999069]","1","0","1","","","","","","","",""
"pit-trial","26","352322","0.0-2.0-8.1-1.1","battery-v0.2","","""event"",""trial"",""time""
""fullscreenenter"",""1"",""4840""
","
","
","""event"",""trial"",""time""
""fullscreenenter"",""1"",""4840""
","
","","","636.8999999999069","","","16","13286","5715","&#9776;","elianto","#3366ff99"," "," ","1","+10","[1489.2000000001863]","1","0","1","","","","","","","",""
"pit-trial","27","355767","0.0-2.0-8.1-2.1","battery-v0.2","","""event"",""trial"",""time""
""fullscreenenter"",""1"",""4840""
","
","
","""event"",""trial"",""time""
""fullscreenenter"",""1"",""4840""
","
","","","589.6000000000931","","","16","13286","5715","&#9776;","elianto","#3366ff99"," "," ","1","+10","[1440]","1","0","1","","","","","","","",""
"pit-trial","28","359106","0.0-2.0-8.1-3.1","battery-v0.2","","""event"",""trial"",""time""
""fullscreenenter"",""1"",""4840""
","
","
","""event"",""trial"",""time""
""fullscreenenter"",""1"",""4840""
","
","","","484.29999999981374","","","16","13286","5715","&#9776;","elianto","#3366ff99"," "," ","1","0","[1335]","1","0","1","","","","","","","",""
"pit-trial","29","362936","0.0-2.0-8.1-4.1","battery-v0.2","","""event"",""trial"",""time""
""fullscreenenter"",""1"",""4840""
","
","
","""event"",""trial"",""time""
""fullscreenenter"",""1"",""4840""
","
","","","972.2999999998137","","","16","13286","5715","&#9776;","elianto","#3366ff99"," "," ","1","+10","[1823.7999999998137]","1","0","1","","","","","","","",""
"pit-trial","30","366479","0.0-2.0-8.2-0.2","battery-v0.2","","""event"",""trial"",""time""
""fullscreenenter"",""1"",""4840""
","
","
","""event"",""trial"",""time""
""fullscreenenter"",""1"",""4840""
","
","","","679.0999999996275","","","16","13286","5715","&#9776;","elianto","#3366ff99"," "," ","1","+10","[1530.3999999999069]","1","0","1","","","","","","","",""
"pit-trial","31","369794","0.0-2.0-8.2-1.2","battery-v0.2","","""event"",""trial"",""time""
""fullscreenenter"",""1"",""4840""
","
","
","""event"",""trial"",""time""
""fullscreenenter"",""1"",""4840""
","
","","","463.29999999981374","","","16","13286","5715","&#9776;","elianto","#3366ff99"," "," ","1","+10","[1313.7999999998137]","1","0","1","","","","","","","",""
"pit-trial","32","373103","0.0-2.0-8.2-2.2","battery-v0.2","","""event"",""trial"",""time""
""fullscreenenter"",""1"",""4840""
","
","
","""event"",""trial"",""time""
""fullscreenenter"",""1"",""4840""
","
","","","453.5","","","16","13286","5715","&#9776;","elianto","#3366ff99"," "," ","1","+10","[1306.2000000001863]","1","0","1","","","","","","","",""
"pit-trial","33","376459","0.0-2.0-8.2-3.2","battery-v0.2","","""event"",""trial"",""time""
""fullscreenenter"",""1"",""4840""
","
","
","""event"",""trial"",""time""
""fullscreenenter"",""1"",""4840""
","
","","","499","","","16","13286","5715","&#9776;","elianto","#3366ff99"," "," ","1","0","[1351.3999999999069]","1","0","1","","","","","","","",""
"pit-trial","34","379714","0.0-2.0-8.2-4.2","battery-v0.2","","""event"",""trial"",""time""
""fullscreenenter"",""1"",""4840""
","
","
","""event"",""trial"",""time""
""fullscreenenter"",""1"",""4840""
","
","","","402.40000000037253","","","16","13286","5715","&#9776;","elianto","#3366ff99"," "," ","1","+10","[1252.9000000003725]","1","0","1","","","","","","","",""
"call-function","35","379716","0.0-2.0-9.0","battery-v0.2","","""event"",""trial"",""time""
""fullscreenenter"",""1"",""4840""
","
","
","""event"",""trial"",""time""
""fullscreenenter"",""1"",""4840""
","
","","","","","","","","","","","","","","","","","","","","","","","","","","",""
"pit-instructions","36","533980","0.0-2.0-10.0","battery-v0.2","","""event"",""trial"",""time""
""fullscreenenter"",""1"",""4840""
","
","
","""event"",""trial"",""time""
""fullscreenenter"",""1"",""4840""
","
","","[{""page_index"":0,""viewing_time"":8022.600000000093},{""page_index"":1,""viewing_time"":7514.799999999814},{""page_index"":2,""viewing_time"":11417.5},{""page_index"":3,""viewing_time"":118092.70000000019},{""page_index"":4,""viewing_time"":9216.099999999627}]","154264","","","","","","","","","","","","","","","","","","","","","","","",""
"pit-trial","37","538833","0.0-2.0-11.0-0.0","battery-v0.2","","""event"",""trial"",""time""
""fullscreenenter"",""1"",""4840""
","
","
","""event"",""trial"",""time""
""fullscreenenter"",""1"",""4840""
","
","","","-1","","","16","13286","5715","&#9761;","elianto","#3366ff99","-1","-1","1","+10","[]","0","0","2","","","","","","","",""
"pit-trial","38","543688","0.0-2.0-11.0-1.0","battery-v0.2","","""event"",""trial"",""time""
""fullscreenenter"",""1"",""4840""
","
","
","""event"",""trial"",""time""
""fullscreenenter"",""1"",""4840""
","
","","","-1","","","16","13286","5715","&#9761;","elianto","#3366ff99","-1","-1","1","+10","[]","0","0","2","","","","","","","",""
"pit-trial","39","548547","0.0-2.0-11.0-2.0","battery-v0.2","","""event"",""trial"",""time""
""fullscreenenter"",""1"",""4840""
","
","
","""event"",""trial"",""time""
""fullscreenenter"",""1"",""4840""
","
","","","-1","","","16","13286","5715","&#9761;","elianto","#3366ff99","-1","-1","1","+10","[]","0","0","2","","","","","","","",""
"pit-trial","40","553406","0.0-2.0-11.0-3.0","battery-v0.2","","""event"",""trial"",""time""
""fullscreenenter"",""1"",""4840""
","
","
","""event"",""trial"",""time""
""fullscreenenter"",""1"",""4840""
","
","","","-1","","","16","13286","5715","&#9761;","elianto","#3366ff99","-1","-1","1","0","[]","0","0","2","","","","","","","",""
"pit-trial","41","558266","0.0-2.0-11.0-4.0","battery-v0.2","","""event"",""trial"",""time""
""fullscreenenter"",""1"",""4840""
","
","
","""event"",""trial"",""time""
""fullscreenenter"",""1"",""4840""
","
","","","-1","","","16","13286","5715","&#9761;","elianto","#3366ff99","-1","-1","1","+10","[]","0","0","2","","","","","","","",""
"pit-trial","42","563133","0.0-2.0-11.1-0.1","battery-v0.2","","""event"",""trial"",""time""
""fullscreenenter"",""1"",""4840""
","
","
","""event"",""trial"",""time""
""fullscreenenter"",""1"",""4840""
","
","","","-1","","","16","13286","5715","&#9761;","elianto","#3366ff99","-1","-1","1","+10","[]","0","0","2","","","","","","","",""
"pit-trial","43","567988","0.0-2.0-11.1-1.1","battery-v0.2","","""event"",""trial"",""time""
""fullscreenenter"",""1"",""4840""
","
","
","""event"",""trial"",""time""
""fullscreenenter"",""1"",""4840""
","
","","","-1","","","16","13286","5715","&#9761;","elianto","#3366ff99","-1","-1","1","+10","[]","0","0","2","","","","","","","",""
"pit-trial","44","572847","0.0-2.0-11.1-2.1","battery-v0.2","","""event"",""trial"",""time""
""fullscreenenter"",""1"",""4840""
","
","
","""event"",""trial"",""time""
""fullscreenenter"",""1"",""4840""
","
","","","-1","","","16","13286","5715","&#9761;","elianto","#3366ff99","-1","-1","1","+10","[]","0","0","2","","","","","","","",""
"pit-trial","45","577701","0.0-2.0-11.1-3.1","battery-v0.2","","""event"",""trial"",""time""
""fullscreenenter"",""1"",""4840""
","
","
","""event"",""trial"",""time""
""fullscreenenter"",""1"",""4840""
","
","","","-1","","","16","13286","5715","&#9761;","elianto","#3366ff99","-1","-1","1","0","[]","0","0","2","","","","","","","",""
"pit-trial","46","582560","0.0-2.0-11.1-4.1","battery-v0.2","","""event"",""trial"",""time""
""fullscreenenter"",""1"",""4840""
","
","
","""event"",""trial"",""time""
""fullscreenenter"",""1"",""4840""
","
","","","-1","","","16","13286","5715","&#9761;","elianto","#3366ff99","-1","-1","1","+10","[]","0","0","2","","","","","","","",""
"pit-trial","47","587415","0.0-2.0-11.2-0.2","battery-v0.2","","""event"",""trial"",""time""
""fullscreenenter"",""1"",""4840""
","
","
","""event"",""trial"",""time""
""fullscreenenter"",""1"",""4840""
","
","","","-1","","","16","13286","5715","&#9761;","elianto","#3366ff99","-1","-1","1","+10","[]","0","0","2","","","","","","","",""
"pit-trial","48","592272","0.0-2.0-11.2-1.2","battery-v0.2","","""event"",""trial"",""time""
""fullscreenenter"",""1"",""4840""
","
","
","""event"",""trial"",""time""
""fullscreenenter"",""1"",""4840""
","
","","","-1","","","16","13286","5715","&#9761;","elianto","#3366ff99","-1","-1","1","+10","[]","0","0","2","","","","","","","",""
"pit-trial","49","597130","0.0-2.0-11.2-2.2","battery-v0.2","","""event"",""trial"",""time""
""fullscreenenter"",""1"",""4840""
","
","
","""event"",""trial"",""time""
""fullscreenenter"",""1"",""4840""
","
","","","-1","","","16","13286","5715","&#9761;","elianto","#3366ff99","-1","-1","1","+10","[]","0","0","2","","","","","","","",""
"pit-trial","50","601989","0.0-2.0-11.2-3.2","battery-v0.2","","""event"",""trial"",""time""
""fullscreenenter"",""1"",""4840""
","
","
","""event"",""trial"",""time""
""fullscreenenter"",""1"",""4840""
","
","","","-1","","","16","13286","5715","&#9761;","elianto","#3366ff99","-1","-1","1","0","[]","0","0","2","","","","","","","",""
"pit-trial","51","606848","0.0-2.0-11.2-4.2","battery-v0.2","","""event"",""trial"",""time""
""fullscreenenter"",""1"",""4840""
","
","
","""event"",""trial"",""time""
""fullscreenenter"",""1"",""4840""
","
","","","-1","","","16","13286","5715","&#9761;","elianto","#3366ff99","-1","-1","1","+10","[]","0","0","2","","","","","","","",""
"pit-trial","52","611706","0.0-2.0-11.3-0.3","battery-v0.2","","""event"",""trial"",""time""
""fullscreenenter"",""1"",""4840""
","
","
","""event"",""trial"",""time""
""fullscreenenter"",""1"",""4840""
","
","","","-1","","","16","13286","5715","&#9761;","elianto","#3366ff99","-1","-1","1","+10","[]","0","0","2","","","","","","","",""
"pit-trial","53","616561","0.0-2.0-11.3-1.3","battery-v0.2","","""event"",""trial"",""time""
""fullscreenenter"",""1"",""4840""
","
","
","""event"",""trial"",""time""
""fullscreenenter"",""1"",""4840""
","
","","","-1","","","16","13286","5715","&#9761;","elianto","#3366ff99","-1","-1","1","+10","[]","0","0","2","","","","","","","",""
"pit-trial","54","621413","0.0-2.0-11.3-2.3","battery-v0.2","","""event"",""trial"",""time""
""fullscreenenter"",""1"",""4840""
","
","
","""event"",""trial"",""time""
""fullscreenenter"",""1"",""4840""
","
","","","-1","","","16","13286","5715","&#9761;","elianto","#3366ff99","-1","-1","1","+10","[]","0","0","2","","","","","","","",""
"pit-trial","55","626271","0.0-2.0-11.3-3.3","battery-v0.2","","""event"",""trial"",""time""
""fullscreenenter"",""1"",""4840""
","
","
","""event"",""trial"",""time""
""fullscreenenter"",""1"",""4840""
","
","","","-1","","","16","13286","5715","&#9761;","elianto","#3366ff99","-1","-1","1","0","[]","0","0","2","","","","","","","",""
"pit-trial","56","631130","0.0-2.0-11.3-4.3","battery-v0.2","","""event"",""trial"",""time""
""fullscreenenter"",""1"",""4840""
","
","
","""event"",""trial"",""time""
""fullscreenenter"",""1"",""4840""
","
","","","-1","","","16","13286","5715","&#9761;","elianto","#3366ff99","-1","-1","1","+10","[]","0","0","2","","","","","","","",""
"call-function","57","631132","0.0-2.0-12.0","battery-v0.2","","""event"",""trial"",""time""
""fullscreenenter"",""1"",""4840""
","
","
","""event"",""trial"",""time""
""fullscreenenter"",""1"",""4840""
","
","","","","","","","","","","","","","","","","","","","","","","","","","","",""
"pit-instructions","58","678609","0.0-2.0-13.0","battery-v0.2","","""event"",""trial"",""time""
""fullscreenenter"",""1"",""4840""
","
","
","""event"",""trial"",""time""
""fullscreenenter"",""1"",""4840""
","
","","[{""page_index"":0,""viewing_time"":5439},{""page_index"":1,""viewing_time"":8283.399999999907},{""page_index"":2,""viewing_time"":4117.4000000003725},{""page_index"":3,""viewing_time"":10684.5},{""page_index"":4,""viewing_time"":18951}]","47475.89999999991","","","","","","","","","","","","","","","","","","","","","","","",""
"pit-trial","59","683471","0.0-2.0-14.0-0.0","battery-v0.2","","""event"",""trial"",""time""
""fullscreenenter"",""1"",""4840""
","
","
","""event"",""trial"",""time""
""fullscreenenter"",""1"",""4840""
","
","","","-1","","","16","13286","5715","&#9826;","elianto","#f73b6a7A","-1","-1","1","0","[]","0","0","3","","","","","","","",""
"pit-trial","60","688326","0.0-2.0-14.0-1.0","battery-v0.2","","""event"",""trial"",""time""
""fullscreenenter"",""1"",""4840""
","
","
","""event"",""trial"",""time""
""fullscreenenter"",""1"",""4840""
","
","","","-1","","","16","13286","5715","&#9826;","elianto","#f73b6a7A","-1","-1","1","0","[]","0","0","3","","","","","","","",""
"pit-trial","61","693185","0.0-2.0-14.0-2.0","battery-v0.2","","""event"",""trial"",""time""
""fullscreenenter"",""1"",""4840""
","
","
","""event"",""trial"",""time""
""fullscreenenter"",""1"",""4840""
","
","","","-1","","","16","13286","5715","&#9826;","elianto","#f73b6a7A","-1","-1","1","0","[]","0","0","3","","","","","","","",""
"pit-trial","62","698039","0.0-2.0-14.0-3.0","battery-v0.2","","""event"",""trial"",""time""
""fullscreenenter"",""1"",""4840""
","
","
","""event"",""trial"",""time""
""fullscreenenter"",""1"",""4840""
","
","","","-1","","","16","13286","5715","&#9826;","elianto","#f73b6a7A","-1","-1","1","-10","[]","0","0","3","","","","","","","",""
"pit-trial","63","701517","0.0-2.0-14.0-4.0","battery-v0.2","","""event"",""trial"",""time""
""fullscreenenter"",""1"",""4840""
","
","
","""event"",""trial"",""time""
""fullscreenenter"",""1"",""4840""
","
","","","621.6999999997206","","","16","13286","5715","&#9826;","elianto","#f73b6a7A","-1"," ","0","-10","[1474.5]","1","0","3","","","","","","","",""
"pit-trial","64","704986","0.0-2.0-14.1-0.1","battery-v0.2","","""event"",""trial"",""time""
""fullscreenenter"",""1"",""4840""
","
","
","""event"",""trial"",""time""
""fullscreenenter"",""1"",""4840""
","
","","","610.8999999999069","","","16","13286","5715","&#9826;","elianto","#f73b6a7A","-1"," ","0","-10","[1461.5]","1","0","3","","","","","","","",""
"pit-trial","65","709840","0.0-2.0-14.1-1.1","battery-v0.2","","""event"",""trial"",""time""
""fullscreenenter"",""1"",""4840""
","
","
","""event"",""trial"",""time""
""fullscreenenter"",""1"",""4840""
","
","","","-1","","","16","13286","5715","&#9826;","elianto","#f73b6a7A","-1","-1","1","0","[]","0","0","3","","","","","","","",""
"pit-trial","66","714694","0.0-2.0-14.1-2.1","battery-v0.2","","""event"",""trial"",""time""
""fullscreenenter"",""1"",""4840""
","
","
","""event"",""trial"",""time""
""fullscreenenter"",""1"",""4840""
","
","","","-1","","","16","13286","5715","&#9826;","elianto","#f73b6a7A","-1","-1","1","0","[]","0","0","3","","","","","","","",""
"pit-trial","67","719555","0.0-2.0-14.1-3.1","battery-v0.2","","""event"",""trial"",""time""
""fullscreenenter"",""1"",""4840""
","
","
","""event"",""trial"",""time""
""fullscreenenter"",""1"",""4840""
","
","","","-1","","","16","13286","5715","&#9826;","elianto","#f73b6a7A","-1","-1","1","-10","[]","0","0","3","","","","","","","",""
"pit-trial","68","724412","0.0-2.0-14.1-4.1","battery-v0.2","","""event"",""trial"",""time""
""fullscreenenter"",""1"",""4840""
","
","
","""event"",""trial"",""time""
""fullscreenenter"",""1"",""4840""
","
","","","-1","","","16","13286","5715","&#9826;","elianto","#f73b6a7A","-1","-1","1","0","[]","0","0","3","","","","","","","",""
"pit-trial","69","729271","0.0-2.0-14.2-0.2","battery-v0.2","","""event"",""trial"",""time""
""fullscreenenter"",""1"",""4840""
","
","
","""event"",""trial"",""time""
""fullscreenenter"",""1"",""4840""
","
","","","-1","","","16","13286","5715","&#9826;","elianto","#f73b6a7A","-1","-1","1","0","[]","0","0","3","","","","","","","",""
"pit-trial","70","734127","0.0-2.0-14.2-1.2","battery-v0.2","","""event"",""trial"",""time""
""fullscreenenter"",""1"",""4840""
","
","
","""event"",""trial"",""time""
""fullscreenenter"",""1"",""4840""
","
","","","-1","","","16","13286","5715","&#9826;","elianto","#f73b6a7A","-1","-1","1","0","[]","0","0","3","","","","","","","",""
"pit-trial","71","738983","0.0-2.0-14.2-2.2","battery-v0.2","","""event"",""trial"",""time""
""fullscreenenter"",""1"",""4840""
","
","
","""event"",""trial"",""time""
""fullscreenenter"",""1"",""4840""
","
","","","-1","","","16","13286","5715","&#9826;","elianto","#f73b6a7A","-1","-1","1","0","[]","0","0","3","","","","","","","",""
"pit-trial","72","743841","0.0-2.0-14.2-3.2","battery-v0.2","","""event"",""trial"",""time""
""fullscreenenter"",""1"",""4840""
","
","
","""event"",""trial"",""time""
""fullscreenenter"",""1"",""4840""
","
","","","-1","","","16","13286","5715","&#9826;","elianto","#f73b6a7A","-1","-1","1","-10","[]","0","0","3","","","","","","","",""
"pit-trial","73","748697","0.0-2.0-14.2-4.2","battery-v0.2","","""event"",""trial"",""time""
""fullscreenenter"",""1"",""4840""
","
","
","""event"",""trial"",""time""
""fullscreenenter"",""1"",""4840""
","
","","","-1","","","16","13286","5715","&#9826;","elianto","#f73b6a7A","-1","-1","1","0","[]","0","0","3","","","","","","","",""
"pit-trial","74","753559","0.0-2.0-14.3-0.3","battery-v0.2","","""event"",""trial"",""time""
""fullscreenenter"",""1"",""4840""
","
","
","""event"",""trial"",""time""
""fullscreenenter"",""1"",""4840""
","
","","","-1","","","16","13286","5715","&#9826;","elianto","#f73b6a7A","-1","-1","1","0","[]","0","0","3","","","","","","","",""
"pit-trial","75","758414","0.0-2.0-14.3-1.3","battery-v0.2","","""event"",""trial"",""time""
""fullscreenenter"",""1"",""4840""
","
","
","""event"",""trial"",""time""
""fullscreenenter"",""1"",""4840""
","
","","","-1","","","16","13286","5715","&#9826;","elianto","#f73b6a7A","-1","-1","1","0","[]","0","0","3","","","","","","","",""
"pit-trial","76","763271","0.0-2.0-14.3-2.3","battery-v0.2","","""event"",""trial"",""time""
""fullscreenenter"",""1"",""4840""
","
","
","""event"",""trial"",""time""
""fullscreenenter"",""1"",""4840""
","
","","","-1","","","16","13286","5715","&#9826;","elianto","#f73b6a7A","-1","-1","1","0","[]","0","0","3","","","","","","","",""
"pit-trial","77","768129","0.0-2.0-14.3-3.3","battery-v0.2","","""event"",""trial"",""time""
""fullscreenenter"",""1"",""4840""
","
","
","""event"",""trial"",""time""
""fullscreenenter"",""1"",""4840""
","
","","","-1","","","16","13286","5715","&#9826;","elianto","#f73b6a7A","-1","-1","1","-10","[]","0","0","3","","","","","","","",""
"pit-trial","78","772988","0.0-2.0-14.3-4.3","battery-v0.2","","""event"",""trial"",""time""
""fullscreenenter"",""1"",""4840""
","
","
","""event"",""trial"",""time""
""fullscreenenter"",""1"",""4840""
","
","","","-1","","","16","13286","5715","&#9826;","elianto","#f73b6a7A","-1","-1","1","0","[]","0","0","3","","","","","","","",""
"call-function","79","772990","0.0-2.0-15.0","battery-v0.2","","""event"",""trial"",""time""
""fullscreenenter"",""1"",""4840""
","
","
","""event"",""trial"",""time""
""fullscreenenter"",""1"",""4840""
","
","","","","","","","","","","","","","","","","","","","","","","","","","","",""
"pit-instructions","80","802651","0.0-2.0-16.0","battery-v0.2","","""event"",""trial"",""time""
""fullscreenenter"",""1"",""4840""
","
","
","""event"",""trial"",""time""
""fullscreenenter"",""1"",""4840""
","
","","[{""page_index"":0,""viewing_time"":9024.80000000028},{""page_index"":1,""viewing_time"":9100.69999999972},{""page_index"":2,""viewing_time"":6534.5},{""page_index"":3,""viewing_time"":4999.600000000093}]","29660.80000000028","","","","","","","","","","","","","","","","","","","","","","","",""
"pit-trial","81","805868","0.0-2.0-17.0-0.0","battery-v0.2","","""event"",""trial"",""time""
""fullscreenenter"",""1"",""4840""
","
","
","""event"",""trial"",""time""
""fullscreenenter"",""1"",""4840""
","
","","","359.39999999990687","","","16","13286","5715","&#9789;","elianto","#f73b6a7A"," "," ","1","0","[1209.5]","1","0","4","","","","","","","",""
"pit-trial","82","809004","0.0-2.0-17.0-1.0","battery-v0.2","","""event"",""trial"",""time""
""fullscreenenter"",""1"",""4840""
","
","
","""event"",""trial"",""time""
""fullscreenenter"",""1"",""4840""
","
","","","278","","","16","13286","5715","&#9789;","elianto","#f73b6a7A"," "," ","1","0","[1128.5]","1","0","4","","","","","","","",""
"pit-trial","83","812167","0.0-2.0-17.0-2.0","battery-v0.2","","""event"",""trial"",""time""
""fullscreenenter"",""1"",""4840""
","
","
","""event"",""trial"",""time""
""fullscreenenter"",""1"",""4840""
","
","","","311.10000000009313","","","16","13286","5715","&#9789;","elianto","#f73b6a7A"," "," ","1","0","[1161.5]","1","0","4","","","","","","","",""
"pit-trial","84","815401","0.0-2.0-17.0-3.0","battery-v0.2","","""event"",""trial"",""time""
""fullscreenenter"",""1"",""4840""
","
","
","""event"",""trial"",""time""
""fullscreenenter"",""1"",""4840""
","
","","","376.39999999990687","","","16","13286","5715","&#9789;","elianto","#f73b6a7A"," "," ","1","-10","[1230.1000000000931]","1","0","4","","","","","","","",""
"pit-trial","85","818814","0.0-2.0-17.0-4.0","battery-v0.2","","""event"",""trial"",""time""
""fullscreenenter"",""1"",""4840""
","
","
","""event"",""trial"",""time""
""fullscreenenter"",""1"",""4840""
","
","","","559.1999999997206","","","16","13286","5715","&#9789;","elianto","#f73b6a7A"," "," ","1","0","[1411.1999999997206]","1","0","4","","","","","","","",""
"pit-trial","86","822020","0.0-2.0-17.1-0.1","battery-v0.2","","""event"",""trial"",""time""
""fullscreenenter"",""1"",""4840""
","
","
","""event"",""trial"",""time""
""fullscreenenter"",""1"",""4840""
","
","","","351.10000000009313","","","16","13286","5715","&#9789;","elianto","#f73b6a7A"," "," ","1","0","[1202]","1","0","4","","","","","","","",""
"pit-trial","87","825229","0.0-2.0-17.1-1.1","battery-v0.2","","""event"",""trial"",""time""
""fullscreenenter"",""1"",""4840""
","
","
","""event"",""trial"",""time""
""fullscreenenter"",""1"",""4840""
","
","","","353.79999999981374","","","16","13286","5715","&#9789;","elianto","#f73b6a7A"," "," ","1","0","[1204.7999999998137]","1","0","4","","","","","","","",""
"pit-trial","88","828463","0.0-2.0-17.1-2.1","battery-v0.2","","""event"",""trial"",""time""
""fullscreenenter"",""1"",""4840""
","
","
","""event"",""trial"",""time""
""fullscreenenter"",""1"",""4840""
","
","","","375.39999999990687","","","16","13286","5715","&#9789;","elianto","#f73b6a7A"," "," ","1","0","[1226.7999999998137]","1","0","4","","","","","","","",""
"pit-trial","89","831694","0.0-2.0-17.1-3.1","battery-v0.2","","""event"",""trial"",""time""
""fullscreenenter"",""1"",""4840""
","
","
","""event"",""trial"",""time""
""fullscreenenter"",""1"",""4840""
","
","","","374.89999999990687","","","16","13286","5715","&#9789;","elianto","#f73b6a7A"," "," ","1","-10","[1225.6999999997206]","1","0","4","","","","","","","",""
"pit-trial","90","834797","0.0-2.0-17.1-4.1","battery-v0.2","","""event"",""trial"",""time""
""fullscreenenter"",""1"",""4840""
","
","
","""event"",""trial"",""time""
""fullscreenenter"",""1"",""4840""
","
","","","249.29999999981374","","","16","13286","5715","&#9789;","elianto","#f73b6a7A"," "," ","1","0","[1099.5]","1","0","4","","","","","","","",""
"pit-trial","91","837960","0.0-2.0-17.2-0.2","battery-v0.2","","""event"",""trial"",""time""
""fullscreenenter"",""1"",""4840""
","
","
","""event"",""trial"",""time""
""fullscreenenter"",""1"",""4840""
","
","","","306.39999999990687","","","16","13286","5715","&#9789;","elianto","#f73b6a7A"," "," ","1","0","[1157]","1","0","4","","","","","","","",""
"pit-trial","92","841016","0.0-2.0-17.2-1.2","battery-v0.2","","""event"",""trial"",""time""
""fullscreenenter"",""1"",""4840""
","
","
","""event"",""trial"",""time""
""fullscreenenter"",""1"",""4840""
","
","","","200.6999999997206","","","16","13286","5715","&#9789;","elianto","#f73b6a7A"," "," ","1","0","[1052.2999999998137]","1","0","4","","","","","","","",""
"pit-trial","93","843983","0.0-2.0-17.2-2.2","battery-v0.2","","""event"",""trial"",""time""
""fullscreenenter"",""1"",""4840""
","
","
","""event"",""trial"",""time""
""fullscreenenter"",""1"",""4840""
","
","","","109.5","","","16","13286","5715","&#9789;","elianto","#f73b6a7A"," "," ","1","0","[961]","1","0","4","","","","","","","",""
"pit-trial","94","846935","0.0-2.0-17.2-3.2","battery-v0.2","","""event"",""trial"",""time""
""fullscreenenter"",""1"",""4840""
","
","
","""event"",""trial"",""time""
""fullscreenenter"",""1"",""4840""
","
","","","95.70000000018626","","","16","13286","5715","&#9789;","elianto","#f73b6a7A"," "," ","1","-10","[949.6000000000931]","1","0","4","","","","","","","",""
"pit-trial","95","849977","0.0-2.0-17.2-4.2","battery-v0.2","","""event"",""trial"",""time""
""fullscreenenter"",""1"",""4840""
","
","
","""event"",""trial"",""time""
""fullscreenenter"",""1"",""4840""
","
","","","182.20000000018626","","","16","13286","5715","&#9789;","elianto","#f73b6a7A"," "," ","1","0","[1034.7999999998137]","1","0","4","","","","","","","",""
"pit-trial","96","853026","0.0-2.0-17.3-0.3","battery-v0.2","","""event"",""trial"",""time""
""fullscreenenter"",""1"",""4840""
","
","
","""event"",""trial"",""time""
""fullscreenenter"",""1"",""4840""
","
","","","194.5","","","16","13286","5715","&#9789;","elianto","#f73b6a7A"," "," ","1","0","[1044.6999999997206]","1","0","4","","","","","","","",""
"pit-trial","97","856112","0.0-2.0-17.3-1.3","battery-v0.2","","""event"",""trial"",""time""
""fullscreenenter"",""1"",""4840""
","
","
","""event"",""trial"",""time""
""fullscreenenter"",""1"",""4840""
","
","","","230.10000000009313","","","16","13286","5715","&#9789;","elianto","#f73b6a7A"," "," ","1","0","[1081.6000000000931]","1","0","4","","","","","","","",""
"pit-trial","98","859251","0.0-2.0-17.3-2.3","battery-v0.2","","""event"",""trial"",""time""
""fullscreenenter"",""1"",""4840""
","
","
","""event"",""trial"",""time""
""fullscreenenter"",""1"",""4840""
","
","","","285.89999999990687","","","16","13286","5715","&#9789;","elianto","#f73b6a7A"," "," ","1","0","[1137.3999999999069]","1","0","4","","","","","","","",""
"pit-trial","99","862283","0.0-2.0-17.3-3.3","battery-v0.2","","""event"",""trial"",""time""
""fullscreenenter"",""1"",""4840""
","
","
","""event"",""trial"",""time""
""fullscreenenter"",""1"",""4840""
","
","","","173.39999999990687","","","16","13286","5715","&#9789;","elianto","#f73b6a7A"," "," ","1","-10","[1026.8000000002794]","1","0","4","","","","","","","",""
"pit-trial","100","865467","0.0-2.0-17.3-4.3","battery-v0.2","","""event"",""trial"",""time""
""fullscreenenter"",""1"",""4840""
","
","
","""event"",""trial"",""time""
""fullscreenenter"",""1"",""4840""
","
","","","326.5","","","16","13286","5715","&#9789;","elianto","#f73b6a7A"," "," ","1","0","[1179.1000000000931]","1","0","4","","","","","","","",""
"call-function","101","865468","0.0-2.0-18.0","battery-v0.2","","""event"",""trial"",""time""
""fullscreenenter"",""1"",""4840""
","
","
","""event"",""trial"",""time""
""fullscreenenter"",""1"",""4840""
","
","","","","","","","","","","","","","","","","","","","","","","","","","","",""
"pit-instructions","102","936044","0.0-2.0-19.0","battery-v0.2","","""event"",""trial"",""time""
""fullscreenenter"",""1"",""4840""
","
","
","""event"",""trial"",""time""
""fullscreenenter"",""1"",""4840""
","
","","[{""page_index"":0,""viewing_time"":7269.4000000003725},{""page_index"":1,""viewing_time"":7234.299999999814},{""page_index"":2,""viewing_time"":13550.299999999814},{""page_index"":3,""viewing_time"":7167.600000000093},{""page_index"":4,""viewing_time"":8233.600000000093},{""page_index"":5,""viewing_time"":8417},{""page_index"":6,""viewing_time"":8367.700000000186},{""page_index"":7,""viewing_time"":6333.799999999814},{""page_index"":8,""viewing_time"":4001.100000000093}]","70575.20000000019","","","","","","","","","","","","","","","","","","","","","","","",""
"pit-comprehension","103","942762","0.0-2.0-20.0-0.0","battery-v0.2","","""event"",""trial"",""time""
""fullscreenenter"",""1"",""4840""
","
","
","""event"",""trial"",""time""
""fullscreenenter"",""1"",""4840""
","
","","","6710.199999999721","[""SPACE""]","0","16","13286","5715","","","","","","","","","","","","","","","","","","",""
"pit-instructions","104","945776","0.0-2.0-20.0-1.0","battery-v0.2","","""event"",""trial"",""time""
""fullscreenenter"",""1"",""4840""
","
","
","""event"",""trial"",""time""
""fullscreenenter"",""1"",""4840""
","
","","[{""page_index"":0,""viewing_time"":2972.100000000093}]","2972.3000000002794","","","","","","","","","","","","","","","","","","","","","","","",""
"pit-comprehension","105","951445","0.0-2.0-21.0-0.0","battery-v0.2","","""event"",""trial"",""time""
""fullscreenenter"",""1"",""4840""
","
","
","""event"",""trial"",""time""
""fullscreenenter"",""1"",""4840""
","
","","","5665.100000000093","[""10""]","0","16","13286","5715","","","","","","","","","","","","","","","","","","",""
"pit-instructions","106","955179","0.0-2.0-21.0-1.0","battery-v0.2","","""event"",""trial"",""time""
""fullscreenenter"",""1"",""4840""
","
","
","""event"",""trial"",""time""
""fullscreenenter"",""1"",""4840""
","
","","[{""page_index"":0,""viewing_time"":3700.5999999996275}]","3701.5999999996275","","","","","","","","","","","","","","","","","","","","","","","",""
"pit-comprehension","107","963414","0.0-2.0-22.0-0.0","battery-v0.2","","""event"",""trial"",""time""
""fullscreenenter"",""1"",""4840""
","
","
","""event"",""trial"",""time""
""fullscreenenter"",""1"",""4840""
","
","","","8230.200000000186","[""0""]","0","16","13286","5715","","","","","","","","","","","","","","","","","","",""
"pit-instructions","108","967412","0.0-2.0-22.0-1.0","battery-v0.2","","""event"",""trial"",""time""
""fullscreenenter"",""1"",""4840""
","
","
","""event"",""trial"",""time""
""fullscreenenter"",""1"",""4840""
","
","","[{""page_index"":0,""viewing_time"":3966}]","3966.3000000002794","","","","","","","","","","","","","","","","","","","","","","","",""
"pit-comprehension","109","977760","0.0-2.0-23.0-0.0","battery-v0.2","","""event"",""trial"",""time""
""fullscreenenter"",""1"",""4840""
","
","
","""event"",""trial"",""time""
""fullscreenenter"",""1"",""4840""
","
","","","10246.700000000186","[""True""]","0","16","13286","5715","","","","","","","","","","","","","","","","","","",""
"pit-instructions","110","980457","0.0-2.0-23.0-1.0","battery-v0.2","","""event"",""trial"",""time""
""fullscreenenter"",""1"",""4840""
","
","
","""event"",""trial"",""time""
""fullscreenenter"",""1"",""4840""
","
","","[{""page_index"":0,""viewing_time"":2663.3000000002794}]","2663.7000000001863","","","","","","","","","","","","","","","","","","","","","","","",""
"pit-comprehension","111","987974","0.0-2.0-24.0-0.0","battery-v0.2","","""event"",""trial"",""time""
""fullscreenenter"",""1"",""4840""
","
","
","""event"",""trial"",""time""
""fullscreenenter"",""1"",""4840""
","
","","","7514.0999999996275","[""True""]","0","16","13286","5715","","","","","","","","","","","","","","","","","","",""
"pit-instructions","112","992558","0.0-2.0-24.0-1.0","battery-v0.2","","""event"",""trial"",""time""
""fullscreenenter"",""1"",""4840""
","
","
","""event"",""trial"",""time""
""fullscreenenter"",""1"",""4840""
","
","","[{""page_index"":0,""viewing_time"":4549.200000000186}]","4549.4000000003725","","","","","","","","","","","","","","","","","","","","","","","",""
"pit-comprehension","113","999544","0.0-2.0-25.0-0.0","battery-v0.2","","""event"",""trial"",""time""
""fullscreenenter"",""1"",""4840""
","
","
","""event"",""trial"",""time""
""fullscreenenter"",""1"",""4840""
","
","","","6982.699999999255","[""True""]","0","16","13286","5715","","","","","","","","","","","","","","","","","","",""
"pit-instructions","114","1001476","0.0-2.0-25.0-1.0","battery-v0.2","","""event"",""trial"",""time""
""fullscreenenter"",""1"",""4840""
","
","
","""event"",""trial"",""time""
""fullscreenenter"",""1"",""4840""
","
","","[{""page_index"":0,""viewing_time"":1898.5999999996275}]","1899.0999999996275","","","","","","","","","","","","","","","","","","","","","","","",""
"pit-comprehension","115","1006261","0.0-2.0-26.0-0.0","battery-v0.2","","""event"",""trial"",""time""
""fullscreenenter"",""1"",""4840""
","
","
","""event"",""trial"",""time""
""fullscreenenter"",""1"",""4840""
","
","","","4778.799999999814","[""False""]","0","16","13286","5715","","","","","","","","","","","","","","","","","","",""
"pit-instructions","116","1008727","0.0-2.0-26.0-1.0","battery-v0.2","","""event"",""trial"",""time""
""fullscreenenter"",""1"",""4840""
","
","
","""event"",""trial"",""time""
""fullscreenenter"",""1"",""4840""
","
","","[{""page_index"":0,""viewing_time"":2429.199999999255}]","2429.5999999996275","","","","","","","","","","","","","","","","","","","","","","","",""
"pit-instructions","117","1025662","0.0-3.0","battery-v0.2","","""event"",""trial"",""time""
""fullscreenenter"",""1"",""4840""
","
","
","""event"",""trial"",""time""
""fullscreenenter"",""1"",""4840""
","
","","[{""page_index"":0,""viewing_time"":3730.7000000001863},{""page_index"":1,""viewing_time"":5849.899999999441},{""page_index"":2,""viewing_time"":7350.600000000559}]","16931.39999999944","","","","","","","","","","","","","","","","","","","","","","","",""
"pit-trial","118","1029000","0.0-4.0","battery-v0.2","","""event"",""trial"",""time""
""fullscreenenter"",""1"",""4840""
","
","
","""event"",""trial"",""time""
""fullscreenenter"",""1"",""4840""
","
","","","464.09999999962747","","","16","13286","5715","&#9733;","elianto","#3366ff99","-1"," ","0","0","[1314.6000000005588]","1","1","","","13286","1","2","2","win","no-go","0"
"pit-trial","119","1032628","0.0-5.0","battery-v0.2","","""event"",""trial"",""time""
""fullscreenenter"",""1"",""4840""
","
","
","""event"",""trial"",""time""
""fullscreenenter"",""1"",""4840""
","
","","","771.5","","","16","13286","5715","&#9752;","elianto","#f73b6a7A"," "," ","1","0","[1622.2999999998137]","1","1","","","13286","2","3","3","lose","go","0"
"pit-trial","120","1036558","0.0-6.0","battery-v0.2","","""event"",""trial"",""time""
""fullscreenenter"",""1"",""4840""
","
","
","""event"",""trial"",""time""
""fullscreenenter"",""1"",""4840""
","
","","","1070.2999999998137","","","16","13286","5715","&#9730;","elianto","#3366ff99"," "," ","1","+10","[1922.9000000003725]","1","1","","","13286","3","1","1","win","go","0"
"pit-trial","121","1041413","0.0-7.0","battery-v0.2","","""event"",""trial"",""time""
""fullscreenenter"",""1"",""4840""
","
","
","""event"",""trial"",""time""
""fullscreenenter"",""1"",""4840""
","
","","","-1","","","16","13286","5715","&#9728;","elianto","#f73b6a7A","-1","-1","1","0","[]","0","1","","","13286","4","0","4","lose","no-go","0"
"pit-trial","122","1045070","0.0-8.0","battery-v0.2","","""event"",""trial"",""time""
""fullscreenenter"",""1"",""4840""
","
","
","""event"",""trial"",""time""
""fullscreenenter"",""1"",""4840""
","
","","","800.5","","","16","13286","5715","&#9730;","elianto","#3366ff99"," "," ","1","+10","[1650.9000000003725]","1","1","","","13286","5","1","1","win","go","0"
"pit-trial","123","1048948","0.0-9.0","battery-v0.2","","""event"",""trial"",""time""
""fullscreenenter"",""1"",""4840""
","
","
","""event"",""trial"",""time""
""fullscreenenter"",""1"",""4840""
","
","","","1024.2000000001863","","","16","13286","5715","&#9733;","elianto","#3366ff99","-1"," ","0","+10","[1875]","1","1","","","13286","6","2","2","win","no-go","1"
"pit-trial","124","1053807","0.0-10.0","battery-v0.2","","""event"",""trial"",""time""
""fullscreenenter"",""1"",""4840""
","
","
","""event"",""trial"",""time""
""fullscreenenter"",""1"",""4840""
","
","","","-1","","","16","13286","5715","&#9728;","elianto","#f73b6a7A","-1","-1","1","0","[]","0","1","","","13286","7","0","4","lose","no-go","0"
"pit-trial","125","1058069","0.0-11.0","battery-v0.2","","""event"",""trial"",""time""
""fullscreenenter"",""1"",""4840""
","
","
","""event"",""trial"",""time""
""fullscreenenter"",""1"",""4840""
","
","","","1407.8999999994412","","","16","13286","5715","&#9752;","elianto","#f73b6a7A"," "," ","1","0","[2259.9000000003725]","1","1","","","13286","8","3","3","lose","go","0"
"pit-trial","126","1062229","0.0-12.0","battery-v0.2","","""event"",""trial"",""time""
""fullscreenenter"",""1"",""4840""
","
","
","""event"",""trial"",""time""
""fullscreenenter"",""1"",""4840""
","
","","","1305.3999999994412","","","16","13286","5715","&#9752;","elianto","#f73b6a7A"," "," ","1","0","[2156.5]","1","1","","","13286","9","3","3","lose","go","0"
"pit-trial","127","1065709","0.0-13.0","battery-v0.2","","""event"",""trial"",""time""
""fullscreenenter"",""1"",""4840""
","
","
","""event"",""trial"",""time""
""fullscreenenter"",""1"",""4840""
","
","","","623.3999999994412","","","16","13286","5715","&#9730;","elianto","#3366ff99"," "," ","1","0","[1476.2999999998137]","1","1","","","13286","10","1","1","win","go","1"
"pit-trial","128","1069244","0.0-14.0","battery-v0.2","","""event"",""trial"",""time""
""fullscreenenter"",""1"",""4840""
","
","
","""event"",""trial"",""time""
""fullscreenenter"",""1"",""4840""
","
","","","679.7999999998137","","","16","13286","5715","&#9733;","elianto","#3366ff99","-1"," ","0","0","[1532.2000000001863]","1","1","","","13286","11","2","2","win","no-go","0"
"pit-trial","129","1074102","0.0-15.0","battery-v0.2","","""event"",""trial"",""time""
""fullscreenenter"",""1"",""4840""
","
","
","""event"",""trial"",""time""
""fullscreenenter"",""1"",""4840""
","
","","","-1","","","16","13286","5715","&#9728;","elianto","#f73b6a7A","-1","-1","1","0","[]","0","1","","","13286","12","0","4","lose","no-go","0"
"pit-trial","130","1078960","0.0-16.0","battery-v0.2","","""event"",""trial"",""time""
""fullscreenenter"",""1"",""4840""
","
","
","""event"",""trial"",""time""
""fullscreenenter"",""1"",""4840""
","
","","","-1","","","16","13286","5715","&#9728;","elianto","#f73b6a7A","-1","-1","1","0","[]","0","1","","","13286","13","0","4","lose","no-go","0"
"pit-trial","131","1082801","0.0-17.0","battery-v0.2","","""event"",""trial"",""time""
""fullscreenenter"",""1"",""4840""
","
","
","""event"",""trial"",""time""
""fullscreenenter"",""1"",""4840""
","
","","","987.0999999996275","","","16","13286","5715","&#9752;","elianto","#f73b6a7A"," "," ","1","0","[1838]","1","1","","","13286","14","3","3","lose","go","0"
"pit-trial","132","1086524","0.0-18.0","battery-v0.2","","""event"",""trial"",""time""
""fullscreenenter"",""1"",""4840""
","
","
","""event"",""trial"",""time""
""fullscreenenter"",""1"",""4840""
","
","","","865.7000000001863","","","16","13286","5715","&#9733;","elianto","#3366ff99","-1"," ","0","0","[1716]","1","1","","","13286","15","2","2","win","no-go","0"
"pit-trial","133","1091380","0.0-19.0","battery-v0.2","","""event"",""trial"",""time""
""fullscreenenter"",""1"",""4840""
","
","
","""event"",""trial"",""time""
""fullscreenenter"",""1"",""4840""
","
","","","-1","","","16","13286","5715","&#9730;","elianto","#3366ff99"," ","-1","0","+10","[]","0","1","","","13286","16","1","1","win","go","1"
"pit-trial","134","1095418","0.0-20.0","battery-v0.2","","""event"",""trial"",""time""
""fullscreenenter"",""1"",""4840""
","
","
","""event"",""trial"",""time""
""fullscreenenter"",""1"",""4840""
","
","","","1183.5","","","16","13286","5715","&#9728;","elianto","#f73b6a7A","-1"," ","0","-10","[2035.1000000005588]","1","1","","","13286","17","0","4","lose","no-go","0"
"pit-trial","135","1099832","0.0-21.0","battery-v0.2","","""event"",""trial"",""time""
""fullscreenenter"",""1"",""4840""
","
","
","""event"",""trial"",""time""
""fullscreenenter"",""1"",""4840""
","
","","","1556.5","","","16","13286","5715","&#9733;","elianto","#3366ff99","-1"," ","0","+10","[2408.0999999996275]","1","1","","","13286","18","2","2","win","no-go","1"
"pit-trial","136","1104691","0.0-22.0","battery-v0.2","","""event"",""trial"",""time""
""fullscreenenter"",""1"",""4840""
","
","
","""event"",""trial"",""time""
""fullscreenenter"",""1"",""4840""
","
","","","-1","","","16","13286","5715","&#9730;","elianto","#3366ff99"," ","-1","0","0","[]","0","1","","","13286","19","1","1","win","go","0"
"pit-trial","137","1109551","0.0-23.0","battery-v0.2","","""event"",""trial"",""time""
""fullscreenenter"",""1"",""4840""
","
","
","""event"",""trial"",""time""
""fullscreenenter"",""1"",""4840""
","
","","","-1","","","16","13286","5715","&#9752;","elianto","#f73b6a7A"," ","-1","0","-10","[]","0","1","","","13286","20","3","3","lose","go","0"
"pit-instructions","138","1121622","0.0-24.0","battery-v0.2","","""event"",""trial"",""time""
""fullscreenenter"",""1"",""4840""
","
","
","""event"",""trial"",""time""
""fullscreenenter"",""1"",""4840""
","
","","[{""page_index"":0,""viewing_time"":5968.0999999996275},{""page_index"":1,""viewing_time"":6100.9000000003725}]","12069.199999999255","","","","","","","","","","","","","","","","","","","","","","","",""
"pit-trial","139","1125538","0.0-25.0","battery-v0.2","","""event"",""trial"",""time""
""fullscreenenter"",""1"",""4840""
","
","
","""event"",""trial"",""time""
""fullscreenenter"",""1"",""4840""
","
","","","1057.5","","","16","13286","5715","j","elianto","#f73b6a7A"," "," ","1","0","[1908.0999999996275]","1","2","","","13286","21","0","3","lose","go","0"
"pit-trial","140","1130397","0.0-26.0","battery-v0.2","","""event"",""trial"",""time""
""fullscreenenter"",""1"",""4840""
","
","
","""event"",""trial"",""time""
""fullscreenenter"",""1"",""4840""
","
","","","-1","","","16","13286","5715","w","elianto","#f73b6a7A","-1","-1","1","0","[]","0","2","","","13286","22","3","4","lose","no-go","0"
"pit-trial","141","1134499","0.0-27.0","battery-v0.2","","""event"",""trial"",""time""
""fullscreenenter"",""1"",""4840""
","
","
","""event"",""trial"",""time""
""fullscreenenter"",""1"",""4840""
","
","","","1245.7999999998137","","","16","13286","5715","e","elianto","#f73b6a7A"," "," ","1","0","[2097.7999999998137]","1","2","","","13286","23","2","3","lose","go","0"
"pit-trial","142","1138490","0.0-28.0","battery-v0.2","","""event"",""trial"",""time""
""fullscreenenter"",""1"",""4840""
","
","
","""event"",""trial"",""time""
""fullscreenenter"",""1"",""4840""
","
","","","1136.2999999998137","","","16","13286","5715","d","elianto","#3366ff99","-1"," ","0","+10","[1987.0999999996275]","1","2","","","13286","24","1","2","win","no-go","1"
"pit-trial","143","1143348","0.0-29.0","battery-v0.2","","""event"",""trial"",""time""
""fullscreenenter"",""1"",""4840""
","
","
","""event"",""trial"",""time""
""fullscreenenter"",""1"",""4840""
","
","","","-1","","","16","13286","5715","w","elianto","#f73b6a7A","-1","-1","1","0","[]","0","2","","","13286","25","3","4","lose","no-go","0"
"pit-trial","144","1146855","0.0-30.0","battery-v0.2","","""event"",""trial"",""time""
""fullscreenenter"",""1"",""4840""
","
","
","""event"",""trial"",""time""
""fullscreenenter"",""1"",""4840""
","
","","","649.1000000005588","","","16","13286","5715","j","elianto","#f73b6a7A"," "," ","1","0","[1501.6000000005588]","1","2","","","13286","26","0","3","lose","go","0"
"pit-trial","145","1150294","0.0-31.0","battery-v0.2","","""event"",""trial"",""time""
""fullscreenenter"",""1"",""4840""
","
","
","""event"",""trial"",""time""
""fullscreenenter"",""1"",""4840""
","
","","","580.4000000003725","","","16","13286","5715","e","elianto","#f73b6a7A"," "," ","1","-10","[1433.5]","1","2","","","13286","27","2","3","lose","go","1"
"pit-trial","146","1154188","0.0-32.0","battery-v0.2","","""event"",""trial"",""time""
""fullscreenenter"",""1"",""4840""
","
","
","""event"",""trial"",""time""
""fullscreenenter"",""1"",""4840""
","
","","","1035.300000000745","","","16","13286","5715","d","elianto","#3366ff99","-1"," ","0","0","[1886.300000000745]","1","2","","","13286","28","1","2","win","no-go","0"
"pit-trial","147","1159047","0.0-33.0","battery-v0.2","","""event"",""trial"",""time""
""fullscreenenter"",""1"",""4840""
","
","
","""event"",""trial"",""time""
""fullscreenenter"",""1"",""4840""
","
","","","-1","","","16","13286","5715","e","elianto","#f73b6a7A"," ","-1","0","-10","[]","0","2","","","13286","29","2","3","lose","go","0"
"pit-trial","148","1162460","0.0-34.0","battery-v0.2","","""event"",""trial"",""time""
""fullscreenenter"",""1"",""4840""
","
","
","""event"",""trial"",""time""
""fullscreenenter"",""1"",""4840""
","
","","","558.3000000007451","","","16","13286","5715","j","elianto","#f73b6a7A"," "," ","1","-10","[1409.1000000005588]","1","2","","","13286","30","0","3","lose","go","1"
"pit-trial","149","1166257","0.0-35.0","battery-v0.2","","""event"",""trial"",""time""
""fullscreenenter"",""1"",""4840""
","
","
","""event"",""trial"",""time""
""fullscreenenter"",""1"",""4840""
","
","","","942.2000000001863","","","16","13286","5715","d","elianto","#3366ff99","-1"," ","0","0","[1792.3999999994412]","1","2","","","13286","31","1","2","win","no-go","0"
"pit-trial","150","1171111","0.0-36.0","battery-v0.2","","""event"",""trial"",""time""
""fullscreenenter"",""1"",""4840""
","
","
","""event"",""trial"",""time""
""fullscreenenter"",""1"",""4840""
","
","","","-1","","","16","13286","5715","w","elianto","#f73b6a7A","-1","-1","1","0","[]","0","2","","","13286","32","3","4","lose","no-go","0"
"pit-trial","151","1175969","0.0-37.0","battery-v0.2","","""event"",""trial"",""time""
""fullscreenenter"",""1"",""4840""
","
","
","""event"",""trial"",""time""
""fullscreenenter"",""1"",""4840""
","
","","","-1","","","16","13286","5715","w","elianto","#f73b6a7A","-1","-1","1","0","[]","0","2","","","13286","33","3","4","lose","no-go","0"
"pit-trial","152","1179423","0.0-38.0","battery-v0.2","","""event"",""trial"",""time""
""fullscreenenter"",""1"",""4840""
","
","
","""event"",""trial"",""time""
""fullscreenenter"",""1"",""4840""
","
","","","599.5","","","16","13286","5715","d","elianto","#3366ff99","-1"," ","0","0","[1450.2999999998137]","1","2","","","13286","34","1","2","win","no-go","0"
"pit-trial","153","1184065","0.0-39.0","battery-v0.2","","""event"",""trial"",""time""
""fullscreenenter"",""1"",""4840""
","
","
","""event"",""trial"",""time""
""fullscreenenter"",""1"",""4840""
","
","","","1788.2000000001863","","","16","13286","5715","j","elianto","#f73b6a7A"," "," ","1","0","[2639.7000000001863]","1","2","","","13286","35","0","3","lose","go","0"
"pit-trial","154","1187492","0.0-40.0","battery-v0.2","","""event"",""trial"",""time""
""fullscreenenter"",""1"",""4840""
","
","
","""event"",""trial"",""time""
""fullscreenenter"",""1"",""4840""
","
","","","571.7000000001863","","","16","13286","5715","e","elianto","#f73b6a7A"," "," ","1","0","[1422.9000000003725]","1","2","","","13286","36","2","3","lose","go","0"
"pit-trial","155","1192346","0.0-41.0","battery-v0.2","","""event"",""trial"",""time""
""fullscreenenter"",""1"",""4840""
","
","
","""event"",""trial"",""time""
""fullscreenenter"",""1"",""4840""
","
","","","-1","","","16","13286","5715","d","elianto","#3366ff99","-1","-1","1","+10","[]","0","2","","","13286","37","1","2","win","no-go","0"
"pit-trial","156","1195930","0.0-42.0","battery-v0.2","","""event"",""trial"",""time""
""fullscreenenter"",""1"",""4840""
","
","
","""event"",""trial"",""time""
""fullscreenenter"",""1"",""4840""
","
","","","730.1000000005588","","","16","13286","5715","j","elianto","#f73b6a7A"," "," ","1","0","[1581.5]","1","2","","","13286","38","0","3","lose","go","0"
"pit-trial","157","1199260","0.0-43.0","battery-v0.2","","""event"",""trial"",""time""
""fullscreenenter"",""1"",""4840""
","
","
","""event"",""trial"",""time""
""fullscreenenter"",""1"",""4840""
","
","","","475.79999999981374","","","16","13286","5715","e","elianto","#f73b6a7A"," "," ","1","0","[1326.5999999996275]","1","2","","","13286","39","2","3","lose","go","0"
"pit-trial","158","1204113","0.0-44.0","battery-v0.2","","""event"",""trial"",""time""
""fullscreenenter"",""1"",""4840""
","
","
","""event"",""trial"",""time""
""fullscreenenter"",""1"",""4840""
","
","","","-1","","","16","13286","5715","w","elianto","#f73b6a7A","-1","-1","1","0","[]","0","2","","","13286","40","3","4","lose","no-go","0"
"pit-trial","159","1207695","0.0-45.0","battery-v0.2","","""event"",""trial"",""time""
""fullscreenenter"",""1"",""4840""
","
","
","""event"",""trial"",""time""
""fullscreenenter"",""1"",""4840""
","
","","","728.1000000005588","","","16","13286","5715","j","elianto","#f73b6a7A"," "," ","1","0","[1578.300000000745]","1","2","","","13286","41","0","3","lose","go","0"
"pit-trial","160","1211172","0.0-46.0","battery-v0.2","","""event"",""trial"",""time""
""fullscreenenter"",""1"",""4840""
","
","
","""event"",""trial"",""time""
""fullscreenenter"",""1"",""4840""
","
","","","617.6000000005588","","","16","13286","5715","e","elianto","#f73b6a7A"," "," ","1","0","[1469.2999999998137]","1","2","","","13286","42","2","3","lose","go","0"
"pit-trial","161","1216027","0.0-47.0","battery-v0.2","","""event"",""trial"",""time""
""fullscreenenter"",""1"",""4840""
","
","
","""event"",""trial"",""time""
""fullscreenenter"",""1"",""4840""
","
","","","-1","","","16","13286","5715","d","elianto","#3366ff99","-1","-1","1","0","[]","0","2","","","13286","43","1","2","win","no-go","1"
"pit-trial","162","1220883","0.0-48.0","battery-v0.2","","""event"",""trial"",""time""
""fullscreenenter"",""1"",""4840""
","
","
","""event"",""trial"",""time""
""fullscreenenter"",""1"",""4840""
","
","","","-1","","","16","13286","5715","w","elianto","#f73b6a7A","-1","-1","1","0","[]","0","2","","","13286","44","3","4","lose","no-go","0"
"pit-trial","163","1224229","0.0-49.0","battery-v0.2","","""event"",""trial"",""time""
""fullscreenenter"",""1"",""4840""
","
","
","""event"",""trial"",""time""
""fullscreenenter"",""1"",""4840""
","
","","","491.69999999925494","","","16","13286","5715","j","elianto","#f73b6a7A"," "," ","1","0","[1341.7999999998137]","1","2","","","13286","45","0","3","lose","go","0"
"pit-trial","164","1229087","0.0-50.0","battery-v0.2","","""event"",""trial"",""time""
""fullscreenenter"",""1"",""4840""
","
","
","""event"",""trial"",""time""
""fullscreenenter"",""1"",""4840""
","
","","","-1","","","16","13286","5715","w","elianto","#f73b6a7A","-1","-1","1","0","[]","0","2","","","13286","46","3","4","lose","no-go","0"
"pit-trial","165","1233164","0.0-51.0","battery-v0.2","","""event"",""trial"",""time""
""fullscreenenter"",""1"",""4840""
","
","
","""event"",""trial"",""time""
""fullscreenenter"",""1"",""4840""
","
","","","1223.7000000001863","","","16","13286","5715","d","elianto","#3366ff99","-1"," ","0","0","[2075]","1","2","","","13286","47","1","2","win","no-go","0"
"pit-trial","166","1236952","0.0-52.0","battery-v0.2","","""event"",""trial"",""time""
""fullscreenenter"",""1"",""4840""
","
","
","""event"",""trial"",""time""
""fullscreenenter"",""1"",""4840""
","
","","","935","","","16","13286","5715","e","elianto","#f73b6a7A"," "," ","1","0","[1785.6000000005588]","1","2","","","13286","48","2","3","lose","go","0"
"pit-trial","167","1240484","0.0-53.0","battery-v0.2","","""event"",""trial"",""time""
""fullscreenenter"",""1"",""4840""
","
","
","""event"",""trial"",""time""
""fullscreenenter"",""1"",""4840""
","
","","","677","","","16","13286","5715","e","elianto","#f73b6a7A"," "," ","1","0","[1528.0999999996275]","1","2","","","13286","49","2","3","lose","go","0"
"pit-trial","168","1245341","0.0-54.0","battery-v0.2","","""event"",""trial"",""time""
""fullscreenenter"",""1"",""4840""
","
","
","""event"",""trial"",""time""
""fullscreenenter"",""1"",""4840""
","
","","","-1","","","16","13286","5715","w","elianto","#f73b6a7A","-1","-1","1","-10","[]","0","2","","","13286","50","3","4","lose","no-go","1"
"pit-trial","169","1248847","0.0-55.0","battery-v0.2","","""event"",""trial"",""time""
""fullscreenenter"",""1"",""4840""
","
","
","""event"",""trial"",""time""
""fullscreenenter"",""1"",""4840""
","
","","","651.6000000005588","","","16","13286","5715","j","elianto","#f73b6a7A"," "," ","1","0","[1502]","1","2","","","13286","51","0","3","lose","go","0"
"pit-trial","170","1253700","0.0-56.0","battery-v0.2","","""event"",""trial"",""time""
""fullscreenenter"",""1"",""4840""
","
","
","""event"",""trial"",""time""
""fullscreenenter"",""1"",""4840""
","
","","","-1","","","16","13286","5715","d","elianto","#3366ff99","-1","-1","1","+10","[]","0","2","","","13286","52","1","2","win","no-go","0"
"pit-trial","171","1258559","0.0-57.0","battery-v0.2","","""event"",""trial"",""time""
""fullscreenenter"",""1"",""4840""
","
","
","""event"",""trial"",""time""
""fullscreenenter"",""1"",""4840""
","
","","","-1","","","16","13286","5715","w","elianto","#f73b6a7A","-1","-1","1","0","[]","0","2","","","13286","53","3","4","lose","no-go","0"
"pit-trial","172","1263417","0.0-58.0","battery-v0.2","","""event"",""trial"",""time""
""fullscreenenter"",""1"",""4840""
","
","
","""event"",""trial"",""time""
""fullscreenenter"",""1"",""4840""
","
","","","-1","","","16","13286","5715","d","elianto","#3366ff99","-1","-1","1","+10","[]","0","2","","","13286","54","1","2","win","no-go","0"
"pit-trial","173","1266833","0.0-59.0","battery-v0.2","","""event"",""trial"",""time""
""fullscreenenter"",""1"",""4840""
","
","
","""event"",""trial"",""time""
""fullscreenenter"",""1"",""4840""
","
","","","560.7999999998137","","","16","13286","5715","j","elianto","#f73b6a7A"," "," ","1","0","[1413.5999999996275]","1","2","","","13286","55","0","3","lose","go","0"
"pit-trial","174","1270195","0.0-60.0","battery-v0.2","","""event"",""trial"",""time""
""fullscreenenter"",""1"",""4840""
","
","
","""event"",""trial"",""time""
""fullscreenenter"",""1"",""4840""
","
","","","507.20000000018626","","","16","13286","5715","e","elianto","#f73b6a7A"," "," ","1","0","[1358.6000000005588]","1","2","","","13286","56","2","3","lose","go","0"
"pit-trial","175","1274605","0.0-61.0","battery-v0.2","","""event"",""trial"",""time""
""fullscreenenter"",""1"",""4840""
","
","
","""event"",""trial"",""time""
""fullscreenenter"",""1"",""4840""
","
","","","1555.5999999996275","","","16","13286","5715","s","elianto","#3366ff99"," "," ","1","+10","[2407]","1","2","","","13286","57","4","1","win","go","0"
"pit-trial","176","1278007","0.0-62.0","battery-v0.2","","""event"",""trial"",""time""
""fullscreenenter"",""1"",""4840""
","
","
","""event"",""trial"",""time""
""fullscreenenter"",""1"",""4840""
","
","","","548","","","16","13286","5715","j","elianto","#f73b6a7A"," "," ","1","0","[1398.5999999996275]","1","2","","","13286","58","0","3","lose","go","0"
"pit-trial","177","1282867","0.0-63.0","battery-v0.2","","""event"",""trial"",""time""
""fullscreenenter"",""1"",""4840""
","
","
","""event"",""trial"",""time""
""fullscreenenter"",""1"",""4840""
","
","","","-1","","","16","13286","5715","w","elianto","#f73b6a7A","-1","-1","1","-10","[]","0","2","","","13286","59","3","4","lose","no-go","1"
"pit-trial","178","1286378","0.0-64.0","battery-v0.2","","""event"",""trial"",""time""
""fullscreenenter"",""1"",""4840""
","
","
","""event"",""trial"",""time""
""fullscreenenter"",""1"",""4840""
","
","","","656","","","16","13286","5715","e","elianto","#f73b6a7A"," "," ","1","0","[1507.2000000001863]","1","2","","","13286","60","2","3","lose","go","0"
"pit-trial","179","1291237","0.0-65.0","battery-v0.2","","""event"",""trial"",""time""
""fullscreenenter"",""1"",""4840""
","
","
","""event"",""trial"",""time""
""fullscreenenter"",""1"",""4840""
","
","","","-1","","","16","13286","5715","d","elianto","#3366ff99","-1","-1","1","0","[]","0","2","","","13286","61","1","2","win","no-go","1"
"pit-trial","180","1295146","0.0-66.0","battery-v0.2","","""event"",""trial"",""time""
""fullscreenenter"",""1"",""4840""
","
","
","""event"",""trial"",""time""
""fullscreenenter"",""1"",""4840""
","
","","","1054.2000000001863","","","16","13286","5715","s","elianto","#3366ff99"," "," ","1","+10","[1907.4000000003725]","1","2","","","13286","62","4","1","win","go","0"
"pit-trial","181","1298637","0.0-67.0","battery-v0.2","","""event"",""trial"",""time""
""fullscreenenter"",""1"",""4840""
","
","
","""event"",""trial"",""time""
""fullscreenenter"",""1"",""4840""
","
","","","633.3999999994412","","","16","13286","5715","e","elianto","#f73b6a7A"," "," ","1","0","[1485.2000000001863]","1","2","","","13286","63","2","3","lose","go","0"
"pit-trial","182","1303491","0.0-68.0","battery-v0.2","","""event"",""trial"",""time""
""fullscreenenter"",""1"",""4840""
","
","
","""event"",""trial"",""time""
""fullscreenenter"",""1"",""4840""
","
","","","-1","","","16","13286","5715","w","elianto","#f73b6a7A","-1","-1","1","0","[]","0","2","","","13286","64","3","4","lose","no-go","0"
"pit-trial","183","1308350","0.0-69.0","battery-v0.2","","""event"",""trial"",""time""
""fullscreenenter"",""1"",""4840""
","
","
","""event"",""trial"",""time""
""fullscreenenter"",""1"",""4840""
","
","","","-1","","","16","13286","5715","w","elianto","#f73b6a7A","-1","-1","1","0","[]","0","2","","","13286","65","3","4","lose","no-go","0"
"pit-trial","184","1312901","0.0-70.0","battery-v0.2","","""event"",""trial"",""time""
""fullscreenenter"",""1"",""4840""
","
","
","""event"",""trial"",""time""
""fullscreenenter"",""1"",""4840""
","
","","","1696.2999999998137","","","16","13286","5715","p","elianto","#3366ff99","-1"," ","0","0","[2547.4000000003725]","1","2","","","13286","66","5","2","win","no-go","0"
"pit-trial","185","1316699","0.0-71.0","battery-v0.2","","""event"",""trial"",""time""
""fullscreenenter"",""1"",""4840""
","
","
","""event"",""trial"",""time""
""fullscreenenter"",""1"",""4840""
","
","","","941.8999999994412","","","16","13286","5715","s","elianto","#3366ff99"," "," ","1","+10","[1793.8999999994412]","1","2","","","13286","67","4","1","win","go","0"
"pit-trial","186","1321555","0.0-72.0","battery-v0.2","","""event"",""trial"",""time""
""fullscreenenter"",""1"",""4840""
","
","
","""event"",""trial"",""time""
""fullscreenenter"",""1"",""4840""
","
","","","-1","","","16","13286","5715","d","elianto","#3366ff99","-1","-1","1","+10","[]","0","2","","","13286","68","1","2","win","no-go","0"
"pit-trial","187","1324982","0.0-73.0","battery-v0.2","","""event"",""trial"",""time""
""fullscreenenter"",""1"",""4840""
","
","
","""event"",""trial"",""time""
""fullscreenenter"",""1"",""4840""
","
","","","561.2999999998137","","","16","13286","5715","e","elianto","#f73b6a7A"," "," ","1","0","[1419.9000000003725]","1","2","","","13286","69","2","3","lose","go","0"
"pit-trial","188","1328546","0.0-74.0","battery-v0.2","","""event"",""trial"",""time""
""fullscreenenter"",""1"",""4840""
","
","
","""event"",""trial"",""time""
""fullscreenenter"",""1"",""4840""
","
","","","709.3000000007451","","","16","13286","5715","s","elianto","#3366ff99"," "," ","1","+10","[1560.7999999998137]","1","2","","","13286","70","4","1","win","go","0"
"pit-trial","189","1333405","0.0-75.0","battery-v0.2","","""event"",""trial"",""time""
""fullscreenenter"",""1"",""4840""
","
","
","""event"",""trial"",""time""
""fullscreenenter"",""1"",""4840""
","
","","","-1","","","16","13286","5715","p","elianto","#3366ff99","-1","-1","1","+10","[]","0","2","","","13286","71","5","2","win","no-go","0"
"pit-trial","190","1338264","0.0-76.0","battery-v0.2","","""event"",""trial"",""time""
""fullscreenenter"",""1"",""4840""
","
","
","""event"",""trial"",""time""
""fullscreenenter"",""1"",""4840""
","
","","","-1","","","16","13286","5715","d","elianto","#3366ff99","-1","-1","1","+10","[]","0","2","","","13286","72","1","2","win","no-go","0"
"pit-trial","191","1343119","0.0-77.0","battery-v0.2","","""event"",""trial"",""time""
""fullscreenenter"",""1"",""4840""
","
","
","""event"",""trial"",""time""
""fullscreenenter"",""1"",""4840""
","
","","","-1","","","16","13286","5715","d","elianto","#3366ff99","-1","-1","1","+10","[]","0","2","","","13286","73","1","2","win","no-go","0"
"pit-trial","192","1347976","0.0-78.0","battery-v0.2","","""event"",""trial"",""time""
""fullscreenenter"",""1"",""4840""
","
","
","""event"",""trial"",""time""
""fullscreenenter"",""1"",""4840""
","
","","","-1","","","16","13286","5715","p","elianto","#3366ff99","-1","-1","1","+10","[]","0","2","","","13286","74","5","2","win","no-go","0"
"pit-trial","193","1351574","0.0-79.0","battery-v0.2","","""event"",""trial"",""time""
""fullscreenenter"",""1"",""4840""
","
","
","""event"",""trial"",""time""
""fullscreenenter"",""1"",""4840""
","
","","","741.2999999998137","","","16","13286","5715","s","elianto","#3366ff99"," "," ","1","+10","[1593.199999999255]","1","2","","","13286","75","4","1","win","go","0"
"pit-trial","194","1356431","0.0-80.0","battery-v0.2","","""event"",""trial"",""time""
""fullscreenenter"",""1"",""4840""
","
","
","""event"",""trial"",""time""
""fullscreenenter"",""1"",""4840""
","
","","","-1","","","16","13286","5715","w","elianto","#f73b6a7A","-1","-1","1","-10","[]","0","2","","","13286","76","3","4","lose","no-go","1"
"pit-trial","195","1359883","0.0-81.0","battery-v0.2","","""event"",""trial"",""time""
""fullscreenenter"",""1"",""4840""
","
","
","""event"",""trial"",""time""
""fullscreenenter"",""1"",""4840""
","
","","","598.2999999998137","","","16","13286","5715","s","elianto","#3366ff99"," "," ","1","+10","[1449.3999999994412]","1","2","","","13286","77","4","1","win","go","0"
"pit-trial","196","1364742","0.0-82.0","battery-v0.2","","""event"",""trial"",""time""
""fullscreenenter"",""1"",""4840""
","
","
","""event"",""trial"",""time""
""fullscreenenter"",""1"",""4840""
","
","","","-1","","","16","13286","5715","p","elianto","#3366ff99","-1","-1","1","+10","[]","0","2","","","13286","78","5","2","win","no-go","0"
"pit-trial","197","1369599","0.0-83.0","battery-v0.2","","""event"",""trial"",""time""
""fullscreenenter"",""1"",""4840""
","
","
","""event"",""trial"",""time""
""fullscreenenter"",""1"",""4840""
","
","","","-1","","","16","13286","5715","w","elianto","#f73b6a7A","-1","-1","1","0","[]","0","2","","","13286","79","3","4","lose","no-go","0"
"pit-trial","198","1373095","0.0-84.0","battery-v0.2","","""event"",""trial"",""time""
""fullscreenenter"",""1"",""4840""
","
","
","""event"",""trial"",""time""
""fullscreenenter"",""1"",""4840""
","
","","","639.2999999998137","","","16","13286","5715","s","elianto","#3366ff99"," "," ","1","+10","[1490]","1","2","","","13286","80","4","1","win","go","0"
"pit-trial","199","1376509","0.0-85.0","battery-v0.2","","""event"",""trial"",""time""
""fullscreenenter"",""1"",""4840""
","
","
","""event"",""trial"",""time""
""fullscreenenter"",""1"",""4840""
","
","","","559.7000000001863","","","16","13286","5715","s","elianto","#3366ff99"," "," ","1","+10","[1410.5]","1","2","","","13286","81","4","1","win","go","0"
"pit-trial","200","1381364","0.0-86.0","battery-v0.2","","""event"",""trial"",""time""
""fullscreenenter"",""1"",""4840""
","
","
","""event"",""trial"",""time""
""fullscreenenter"",""1"",""4840""
","
","","","-1","","","16","13286","5715","w","elianto","#f73b6a7A","-1","-1","1","0","[]","0","2","","","13286","82","3","4","lose","no-go","0"
"pit-trial","201","1386221","0.0-87.0","battery-v0.2","","""event"",""trial"",""time""
""fullscreenenter"",""1"",""4840""
","
","
","""event"",""trial"",""time""
""fullscreenenter"",""1"",""4840""
","
","","","-1","","","16","13286","5715","p","elianto","#3366ff99","-1","-1","1","+10","[]","0","2","","","13286","83","5","2","win","no-go","0"
"pit-trial","202","1391080","0.0-88.0","battery-v0.2","","""event"",""trial"",""time""
""fullscreenenter"",""1"",""4840""
","
","
","""event"",""trial"",""time""
""fullscreenenter"",""1"",""4840""
","
","","","-1","","","16","13286","5715","a","elianto","#f73b6a7A","-1","-1","1","0","[]","0","2","","","13286","84","7","4","lose","no-go","0"
"pit-trial","203","1395419","0.0-89.0","battery-v0.2","","""event"",""trial"",""time""
""fullscreenenter"",""1"",""4840""
","
","
","""event"",""trial"",""time""
""fullscreenenter"",""1"",""4840""
","
","","","1486.2000000001863","","","16","13286","5715","g","elianto","#f73b6a7A"," "," ","1","0","[2336.5999999996275]","1","2","","","13286","85","6","3","lose","go","0"
"pit-trial","204","1400275","0.0-90.0","battery-v0.2","","""event"",""trial"",""time""
""fullscreenenter"",""1"",""4840""
","
","
","""event"",""trial"",""time""
""fullscreenenter"",""1"",""4840""
","
","","","-1","","","16","13286","5715","p","elianto","#3366ff99","-1","-1","1","+10","[]","0","2","","","13286","86","5","2","win","no-go","0"
"pit-trial","205","1403688","0.0-91.0","battery-v0.2","","""event"",""trial"",""time""
""fullscreenenter"",""1"",""4840""
","
","
","""event"",""trial"",""time""
""fullscreenenter"",""1"",""4840""
","
","","","559.9000000003725","","","16","13286","5715","s","elianto","#3366ff99"," "," ","1","+10","[1410.5]","1","2","","","13286","87","4","1","win","go","0"
"pit-trial","206","1408546","0.0-92.0","battery-v0.2","","""event"",""trial"",""time""
""fullscreenenter"",""1"",""4840""
","
","
","""event"",""trial"",""time""
""fullscreenenter"",""1"",""4840""
","
","","","-1","","","16","13286","5715","a","elianto","#f73b6a7A","-1","-1","1","0","[]","0","2","","","13286","88","7","4","lose","no-go","0"
"pit-trial","207","1413405","0.0-93.0","battery-v0.2","","""event"",""trial"",""time""
""fullscreenenter"",""1"",""4840""
","
","
","""event"",""trial"",""time""
""fullscreenenter"",""1"",""4840""
","
","","","-1","","","16","13286","5715","p","elianto","#3366ff99","-1","-1","1","+10","[]","0","2","","","13286","89","5","2","win","no-go","0"
"pit-trial","208","1417619","0.0-94.0","battery-v0.2","","""event"",""trial"",""time""
""fullscreenenter"",""1"",""4840""
","
","
","""event"",""trial"",""time""
""fullscreenenter"",""1"",""4840""
","
","","","1361.699999999255","","","16","13286","5715","g","elianto","#f73b6a7A"," "," ","1","0","[2212.5]","1","2","","","13286","90","6","3","lose","go","0"
"pit-trial","209","1422480","0.0-95.0","battery-v0.2","","""event"",""trial"",""time""
""fullscreenenter"",""1"",""4840""
","
","
","""event"",""trial"",""time""
""fullscreenenter"",""1"",""4840""
","
","","","-1","","","16","13286","5715","a","elianto","#f73b6a7A","-1","-1","1","0","[]","0","2","","","13286","91","7","4","lose","no-go","0"
"pit-trial","210","1426042","0.0-96.0","battery-v0.2","","""event"",""trial"",""time""
""fullscreenenter"",""1"",""4840""
","
","
","""event"",""trial"",""time""
""fullscreenenter"",""1"",""4840""
","
","","","709","","","16","13286","5715","s","elianto","#3366ff99"," "," ","1","+10","[1560]","1","2","","","13286","92","4","1","win","go","0"
"pit-trial","211","1430897","0.0-97.0","battery-v0.2","","""event"",""trial"",""time""
""fullscreenenter"",""1"",""4840""
","
","
","""event"",""trial"",""time""
""fullscreenenter"",""1"",""4840""
","
","","","-1","","","16","13286","5715","p","elianto","#3366ff99","-1","-1","1","+10","[]","0","2","","","13286","93","5","2","win","no-go","0"
"pit-trial","212","1434717","0.0-98.0","battery-v0.2","","""event"",""trial"",""time""
""fullscreenenter"",""1"",""4840""
","
","
","""event"",""trial"",""time""
""fullscreenenter"",""1"",""4840""
","
","","","965.5","","","16","13286","5715","g","elianto","#f73b6a7A"," "," ","1","0","[1816]","1","2","","","13286","94","6","3","lose","go","0"
"pit-trial","213","1439576","0.0-99.0","battery-v0.2","","""event"",""trial"",""time""
""fullscreenenter"",""1"",""4840""
","
","
","""event"",""trial"",""time""
""fullscreenenter"",""1"",""4840""
","
","","","-1","","","16","13286","5715","a","elianto","#f73b6a7A","-1","-1","1","0","[]","0","2","","","13286","95","7","4","lose","no-go","0"
"pit-trial","214","1443611","0.0-100.0","battery-v0.2","","""event"",""trial"",""time""
""fullscreenenter"",""1"",""4840""
","
","
","""event"",""trial"",""time""
""fullscreenenter"",""1"",""4840""
","
","","","1181.5999999996275","","","16","13286","5715","l","elianto","#3366ff99"," "," ","1","+10","[2032.2999999998137]","1","2","","","13286","96","8","1","win","go","0"
"pit-trial","215","1447372","0.0-101.0","battery-v0.2","","""event"",""trial"",""time""
""fullscreenenter"",""1"",""4840""
","
","
","""event"",""trial"",""time""
""fullscreenenter"",""1"",""4840""
","
","","","904.4000000003725","","","16","13286","5715","g","elianto","#f73b6a7A"," "," ","1","0","[1755.1000000005588]","1","2","","","13286","97","6","3","lose","go","0"
"pit-trial","216","1451022","0.0-102.0","battery-v0.2","","""event"",""trial"",""time""
""fullscreenenter"",""1"",""4840""
","
","
","""event"",""trial"",""time""
""fullscreenenter"",""1"",""4840""
","
","","","796.4000000003725","","","16","13286","5715","l","elianto","#3366ff99"," "," ","1","+10","[1647.300000000745]","1","2","","","13286","98","8","1","win","go","0"
"pit-trial","217","1455876","0.0-103.0","battery-v0.2","","""event"",""trial"",""time""
""fullscreenenter"",""1"",""4840""
","
","
","""event"",""trial"",""time""
""fullscreenenter"",""1"",""4840""
","
","","","-1","","","16","13286","5715","p","elianto","#3366ff99","-1","-1","1","+10","[]","0","2","","","13286","99","5","2","win","no-go","0"
"pit-trial","218","1460730","0.0-104.0","battery-v0.2","","""event"",""trial"",""time""
""fullscreenenter"",""1"",""4840""
","
","
","""event"",""trial"",""time""
""fullscreenenter"",""1"",""4840""
","
","","","-1","","","16","13286","5715","a","elianto","#f73b6a7A","-1","-1","1","0","[]","0","2","","","13286","100","7","4","lose","no-go","0"
"pit-trial","219","1464573","0.0-105.0","battery-v0.2","","""event"",""trial"",""time""
""fullscreenenter"",""1"",""4840""
","
","
","""event"",""trial"",""time""
""fullscreenenter"",""1"",""4840""
","
","","","988.7000000001863","","","16","13286","5715","l","elianto","#3366ff99"," "," ","1","+10","[1840.2000000001863]","1","2","","","13286","101","8","1","win","go","0"
"pit-trial","220","1469428","0.0-106.0","battery-v0.2","","""event"",""trial"",""time""
""fullscreenenter"",""1"",""4840""
","
","
","""event"",""trial"",""time""
""fullscreenenter"",""1"",""4840""
","
","","","-1","","","16","13286","5715","a","elianto","#f73b6a7A","-1","-1","1","-10","[]","0","2","","","13286","102","7","4","lose","no-go","1"
"pit-trial","221","1474285","0.0-107.0","battery-v0.2","","""event"",""trial"",""time""
""fullscreenenter"",""1"",""4840""
","
","
","""event"",""trial"",""time""
""fullscreenenter"",""1"",""4840""
","
","","","-1","","","16","13286","5715","p","elianto","#3366ff99","-1","-1","1","+10","[]","0","2","","","13286","103","5","2","win","no-go","0"
"pit-trial","222","1478247","0.0-108.0","battery-v0.2","","""event"",""trial"",""time""
""fullscreenenter"",""1"",""4840""
","
","
","""event"",""trial"",""time""
""fullscreenenter"",""1"",""4840""
","
","","","1107.2000000001863","","","16","13286","5715","u","elianto","#3366ff99"," "," ","1","+10","[1959.9000000003725]","1","2","","","13286","104","9","1","win","go","0"
"pit-trial","223","1481675","0.0-109.0","battery-v0.2","","""event"",""trial"",""time""
""fullscreenenter"",""1"",""4840""
","
","
","""event"",""trial"",""time""
""fullscreenenter"",""1"",""4840""
","
","","","571.0999999996275","","","16","13286","5715","u","elianto","#3366ff99"," "," ","1","+10","[1422.5]","1","2","","","13286","105","9","1","win","go","0"
"pit-trial","224","1485361","0.0-110.0","battery-v0.2","","""event"",""trial"",""time""
""fullscreenenter"",""1"",""4840""
","
","
","""event"",""trial"",""time""
""fullscreenenter"",""1"",""4840""
","
","","","830.7999999998137","","","16","13286","5715","g","elianto","#f73b6a7A"," "," ","1","-10","[1682.6000000005588]","1","2","","","13286","106","6","3","lose","go","1"
"pit-trial","225","1489001","0.0-111.0","battery-v0.2","","""event"",""trial"",""time""
""fullscreenenter"",""1"",""4840""
","
","
","""event"",""trial"",""time""
""fullscreenenter"",""1"",""4840""
","
","","","783.1999999992549","","","16","13286","5715","s","elianto","#3366ff99"," "," ","1","0","[1634.0999999996275]","1","2","","","13286","107","4","1","win","go","1"
"pit-trial","226","1492530","0.0-112.0","battery-v0.2","","""event"",""trial"",""time""
""fullscreenenter"",""1"",""4840""
","
","
","""event"",""trial"",""time""
""fullscreenenter"",""1"",""4840""
","
","","","674.0999999996275","","","16","13286","5715","l","elianto","#3366ff99"," "," ","1","+10","[1524.7999999998137]","1","2","","","13286","108","8","1","win","go","0"
"pit-trial","227","1497390","0.0-113.0","battery-v0.2","","""event"",""trial"",""time""
""fullscreenenter"",""1"",""4840""
","
","
","""event"",""trial"",""time""
""fullscreenenter"",""1"",""4840""
","
","","","-1","","","16","13286","5715","p","elianto","#3366ff99","-1","-1","1","+10","[]","0","2","","","13286","109","5","2","win","no-go","0"
"pit-trial","228","1500981","0.0-114.0","battery-v0.2","","""event"",""trial"",""time""
""fullscreenenter"",""1"",""4840""
","
","
","""event"",""trial"",""time""
""fullscreenenter"",""1"",""4840""
","
","","","734.0999999996275","","","16","13286","5715","g","elianto","#f73b6a7A"," "," ","1","0","[1585.5]","1","2","","","13286","110","6","3","lose","go","0"
"pit-trial","229","1505836","0.0-115.0","battery-v0.2","","""event"",""trial"",""time""
""fullscreenenter"",""1"",""4840""
","
","
","""event"",""trial"",""time""
""fullscreenenter"",""1"",""4840""
","
","","","-1","","","16","13286","5715","u","elianto","#3366ff99"," ","-1","0","+10","[]","0","2","","","13286","111","9","1","win","go","1"
"pit-trial","230","1509284","0.0-116.0","battery-v0.2","","""event"",""trial"",""time""
""fullscreenenter"",""1"",""4840""
","
","
","""event"",""trial"",""time""
""fullscreenenter"",""1"",""4840""
","
","","","589.3999999994412","","","16","13286","5715","l","elianto","#3366ff99"," "," ","1","0","[1439.8999999994412]","1","2","","","13286","112","8","1","win","go","1"
"pit-trial","231","1514141","0.0-117.0","battery-v0.2","","""event"",""trial"",""time""
""fullscreenenter"",""1"",""4840""
","
","
","""event"",""trial"",""time""
""fullscreenenter"",""1"",""4840""
","
","","","-1","","","16","13286","5715","u","elianto","#3366ff99"," ","-1","0","0","[]","0","2","","","13286","113","9","1","win","go","0"
"pit-trial","232","1517535","0.0-118.0","battery-v0.2","","""event"",""trial"",""time""
""fullscreenenter"",""1"",""4840""
","
","
","""event"",""trial"",""time""
""fullscreenenter"",""1"",""4840""
","
","","","540","","","16","13286","5715","l","elianto","#3366ff99"," "," ","1","0","[1391.0999999996275]","1","2","","","13286","114","8","1","win","go","1"
"pit-trial","233","1521196","0.0-119.0","battery-v0.2","","""event"",""trial"",""time""
""fullscreenenter"",""1"",""4840""
","
","
","""event"",""trial"",""time""
""fullscreenenter"",""1"",""4840""
","
","","","807.5999999996275","","","16","13286","5715","g","elianto","#f73b6a7A"," "," ","1","0","[1658.7999999998137]","1","2","","","13286","115","6","3","lose","go","0"
"pit-trial","234","1526053","0.0-120.0","battery-v0.2","","""event"",""trial"",""time""
""fullscreenenter"",""1"",""4840""
","
","
","""event"",""trial"",""time""
""fullscreenenter"",""1"",""4840""
","
","","","-1","","","16","13286","5715","p","elianto","#3366ff99","-1","-1","1","0","[]","0","2","","","13286","116","5","2","win","no-go","1"
"pit-trial","235","1529536","0.0-121.0","battery-v0.2","","""event"",""trial"",""time""
""fullscreenenter"",""1"",""4840""
","
","
","""event"",""trial"",""time""
""fullscreenenter"",""1"",""4840""
","
","","","625.5999999996275","","","16","13286","5715","l","elianto","#3366ff99"," "," ","1","+10","[1477.0999999996275]","1","2","","","13286","117","8","1","win","go","0"
"pit-trial","236","1534391","0.0-122.0","battery-v0.2","","""event"",""trial"",""time""
""fullscreenenter"",""1"",""4840""
","
","
","""event"",""trial"",""time""
""fullscreenenter"",""1"",""4840""
","
","","","-1","","","16","13286","5715","u","elianto","#3366ff99"," ","-1","0","+10","[]","0","2","","","13286","118","9","1","win","go","1"
"pit-trial","237","1537985","0.0-123.0","battery-v0.2","","""event"",""trial"",""time""
""fullscreenenter"",""1"",""4840""
","
","
","""event"",""trial"",""time""
""fullscreenenter"",""1"",""4840""
","
","","","738.4000000003725","","","16","13286","5715","g","elianto","#f73b6a7A"," "," ","1","0","[1590.2000000001863]","1","2","","","13286","119","6","3","lose","go","0"
"pit-trial","238","1542844","0.0-124.0","battery-v0.2","","""event"",""trial"",""time""
""fullscreenenter"",""1"",""4840""
","
","
","""event"",""trial"",""time""
""fullscreenenter"",""1"",""4840""
","
","","","-1","","","16","13286","5715","p","elianto","#3366ff99","-1","-1","1","+10","[]","0","2","","","13286","120","5","2","win","no-go","0"
"pit-trial","239","1547703","0.0-125.0","battery-v0.2","","""event"",""trial"",""time""
""fullscreenenter"",""1"",""4840""
","
","
","""event"",""trial"",""time""
""fullscreenenter"",""1"",""4840""
","
","","","-1","","","16","13286","5715","u","elianto","#3366ff99"," ","-1","0","0","[]","0","2","","","13286","121","9","1","win","go","0"
"pit-trial","240","1552560","0.0-126.0","battery-v0.2","","""event"",""trial"",""time""
""fullscreenenter"",""1"",""4840""
","
","
","""event"",""trial"",""time""
""fullscreenenter"",""1"",""4840""
","
","","","-1","","","16","13286","5715","a","elianto","#f73b6a7A","-1","-1","1","0","[]","0","2","","","13286","122","7","4","lose","no-go","0"
"pit-trial","241","1555967","0.0-127.0","battery-v0.2","","""event"",""trial"",""time""
""fullscreenenter"",""1"",""4840""
","
","
","""event"",""trial"",""time""
""fullscreenenter"",""1"",""4840""
","
","","","550.0999999996275","","","16","13286","5715","l","elianto","#3366ff99"," "," ","1","+10","[1402]","1","2","","","13286","123","8","1","win","go","0"
"pit-trial","242","1559501","0.0-128.0","battery-v0.2","","""event"",""trial"",""time""
""fullscreenenter"",""1"",""4840""
","
","
","""event"",""trial"",""time""
""fullscreenenter"",""1"",""4840""
","
","","","679.7000000001863","","","16","13286","5715","g","elianto","#f73b6a7A"," "," ","1","0","[1530.6000000005588]","1","2","","","13286","124","6","3","lose","go","0"
"pit-trial","243","1563051","0.0-129.0","battery-v0.2","","""event"",""trial"",""time""
""fullscreenenter"",""1"",""4840""
","
","
","""event"",""trial"",""time""
""fullscreenenter"",""1"",""4840""
","
","","","694.2999999998137","","","16","13286","5715","g","elianto","#f73b6a7A"," "," ","1","0","[1544.5]","1","2","","","13286","125","6","3","lose","go","0"
"pit-trial","244","1567913","0.0-130.0","battery-v0.2","","""event"",""trial"",""time""
""fullscreenenter"",""1"",""4840""
","
","
","""event"",""trial"",""time""
""fullscreenenter"",""1"",""4840""
","
","","","-1","","","16","13286","5715","u","elianto","#3366ff99"," ","-1","0","0","[]","0","2","","","13286","126","9","1","win","go","0"
"pit-trial","245","1572769","0.0-131.0","battery-v0.2","","""event"",""trial"",""time""
""fullscreenenter"",""1"",""4840""
","
","
","""event"",""trial"",""time""
""fullscreenenter"",""1"",""4840""
","
","","","-1","","","16","13286","5715","a","elianto","#f73b6a7A","-1","-1","1","-10","[]","0","2","","","13286","127","7","4","lose","no-go","1"
"pit-trial","246","1576724","0.0-132.0","battery-v0.2","","""event"",""trial"",""time""
""fullscreenenter"",""1"",""4840""
","
","
","""event"",""trial"",""time""
""fullscreenenter"",""1"",""4840""
","
","","","1100.5","","","16","13286","5715","l","elianto","#3366ff99"," "," ","1","+10","[1951]","1","2","","","13286","128","8","1","win","go","0"
"pit-trial","247","1581582","0.0-133.0","battery-v0.2","","""event"",""trial"",""time""
""fullscreenenter"",""1"",""4840""
","
","
","""event"",""trial"",""time""
""fullscreenenter"",""1"",""4840""
","
","","","-1","","","16","13286","5715","a","elianto","#f73b6a7A","-1","-1","1","0","[]","0","2","","","13286","129","7","4","lose","no-go","0"
"pit-trial","248","1585163","0.0-134.0","battery-v0.2","","""event"",""trial"",""time""
""fullscreenenter"",""1"",""4840""
","
","
","""event"",""trial"",""time""
""fullscreenenter"",""1"",""4840""
","
","","","724.3999999994412","","","16","13286","5715","g","elianto","#f73b6a7A"," "," ","1","-10","[1575.7999999998137]","1","2","","","13286","130","6","3","lose","go","1"
"pit-trial","249","1588684","0.0-135.0","battery-v0.2","","""event"",""trial"",""time""
""fullscreenenter"",""1"",""4840""
","
","
","""event"",""trial"",""time""
""fullscreenenter"",""1"",""4840""
","
","","","665.0999999996275","","","16","13286","5715","l","elianto","#3366ff99"," "," ","1","+10","[1518]","1","2","","","13286","131","8","1","win","go","0"
"pit-trial","250","1593538","0.0-136.0","battery-v0.2","","""event"",""trial"",""time""
""fullscreenenter"",""1"",""4840""
","
","
","""event"",""trial"",""time""
""fullscreenenter"",""1"",""4840""
","
","","","-1","","","16","13286","5715","u","elianto","#3366ff99"," ","-1","0","0","[]","0","2","","","13286","132","9","1","win","go","0"
"pit-trial","251","1598393","0.0-137.0","battery-v0.2","","""event"",""trial"",""time""
""fullscreenenter"",""1"",""4840""
","
","
","""event"",""trial"",""time""
""fullscreenenter"",""1"",""4840""
","
","","","-1","","","16","13286","5715","u","elianto","#3366ff99"," ","-1","0","0","[]","0","2","","","13286","133","9","1","win","go","0"
"pit-trial","252","1601889","0.0-138.0","battery-v0.2","","""event"",""trial"",""time""
""fullscreenenter"",""1"",""4840""
","
","
","""event"",""trial"",""time""
""fullscreenenter"",""1"",""4840""
","
","","","642.2999999998137","","","16","13286","5715","l","elianto","#3366ff99"," "," ","1","+10","[1493.4000000003725]","1","2","","","13286","134","8","1","win","go","0"
"pit-trial","253","1605389","0.0-139.0","battery-v0.2","","""event"",""trial"",""time""
""fullscreenenter"",""1"",""4840""
","
","
","""event"",""trial"",""time""
""fullscreenenter"",""1"",""4840""
","
","","","646.2999999998137","","","16","13286","5715","g","elianto","#f73b6a7A"," "," ","1","0","[1497.3999999994412]","1","2","","","13286","135","6","3","lose","go","0"
"pit-trial","254","1610247","0.0-140.0","battery-v0.2","","""event"",""trial"",""time""
""fullscreenenter"",""1"",""4840""
","
","
","""event"",""trial"",""time""
""fullscreenenter"",""1"",""4840""
","
","","","-1","","","16","13286","5715","a","elianto","#f73b6a7A","-1","-1","1","0","[]","0","2","","","13286","136","7","4","lose","no-go","0"
"pit-trial","255","1615104","0.0-141.0","battery-v0.2","","""event"",""trial"",""time""
""fullscreenenter"",""1"",""4840""
","
","
","""event"",""trial"",""time""
""fullscreenenter"",""1"",""4840""
","
","","","-1","","","16","13286","5715","a","elianto","#f73b6a7A","-1","-1","1","0","[]","0","2","","","13286","137","7","4","lose","no-go","0"
"pit-trial","256","1618541","0.0-142.0","battery-v0.2","","""event"",""trial"",""time""
""fullscreenenter"",""1"",""4840""
","
","
","""event"",""trial"",""time""
""fullscreenenter"",""1"",""4840""
","
","","","581.5","","","16","13286","5715","l","elianto","#3366ff99"," "," ","1","+10","[1432.5999999996275]","1","2","","","13286","138","8","1","win","go","0"
"pit-trial","257","1621999","0.0-143.0","battery-v0.2","","""event"",""trial"",""time""
""fullscreenenter"",""1"",""4840""
","
","
","""event"",""trial"",""time""
""fullscreenenter"",""1"",""4840""
","
","","","602","","","16","13286","5715","u","elianto","#3366ff99"," "," ","1","+10","[1453.5]","1","2","","","13286","139","9","1","win","go","0"
"pit-trial","258","1625579","0.0-144.0","battery-v0.2","","""event"",""trial"",""time""
""fullscreenenter"",""1"",""4840""
","
","
","""event"",""trial"",""time""
""fullscreenenter"",""1"",""4840""
","
","","","725.5999999996275","","","16","13286","5715","g","elianto","#f73b6a7A"," "," ","1","0","[1576.7999999998137]","1","2","","","13286","140","6","3","lose","go","0"
"pit-instructions","259","1640106","0.0-145.0","battery-v0.2","","""event"",""trial"",""time""
""fullscreenenter"",""1"",""4840""
","
","
","""event"",""trial"",""time""
""fullscreenenter"",""1"",""4840""
","
","","[{""page_index"":0,""viewing_time"":5873.300000000745},{""page_index"":1,""viewing_time"":8651.699999999255}]","14525.400000000373","","","","","","","","","","","","","","","","","","","","","","","",""
"pit-trial","260","1643627","0.0-146.0","battery-v0.2","","""event"",""trial"",""time""
""fullscreenenter"",""1"",""4840""
","
","
","""event"",""trial"",""time""
""fullscreenenter"",""1"",""4840""
","
","","","661.5","","","16","13286","5715","m","elianto","#f73b6a7A","-1"," ","0","-10","[1512.3999999994412]","1","3","","","13286","141","0","4","lose","no-go","0"
"pit-trial","261","1647067","0.0-147.0","battery-v0.2","","""event"",""trial"",""time""
""fullscreenenter"",""1"",""4840""
","
","
","""event"",""trial"",""time""
""fullscreenenter"",""1"",""4840""
","
","","","582.4000000003725","","","16","13286","5715","y","elianto","#f73b6a7A","-1"," ","0","-10","[1433.6000000005588]","1","3","","","13286","142","2","4","lose","no-go","0"
"pit-trial","262","1650471","0.0-148.0","battery-v0.2","","""event"",""trial"",""time""
""fullscreenenter"",""1"",""4840""
","
","
","""event"",""trial"",""time""
""fullscreenenter"",""1"",""4840""
","
","","","548","","","16","13286","5715","r","elianto","#3366ff99"," "," ","1","+10","[1399.2000000001863]","1","3","","","13286","143","1","1","win","go","0"
"pit-trial","263","1654633","0.0-149.0","battery-v0.2","","""event"",""trial"",""time""
""fullscreenenter"",""1"",""4840""
","
","
","""event"",""trial"",""time""
""fullscreenenter"",""1"",""4840""
","
","","","1306.5","","","16","13286","5715","h","elianto","#f73b6a7A"," "," ","1","-10","[2157.100000000559]","1","3","","","13286","144","3","3","lose","go","1"
"pit-trial","264","1659490","0.0-150.0","battery-v0.2","","""event"",""trial"",""time""
""fullscreenenter"",""1"",""4840""
","
","
","""event"",""trial"",""time""
""fullscreenenter"",""1"",""4840""
","
","","","-1","","","16","13286","5715","h","elianto","#f73b6a7A"," ","-1","0","-10","[]","0","3","","","13286","145","3","3","lose","go","0"
"pit-trial","265","1663491","0.0-151.0","battery-v0.2","","""event"",""trial"",""time""
""fullscreenenter"",""1"",""4840""
","
","
","""event"",""trial"",""time""
""fullscreenenter"",""1"",""4840""
","
","","","1146.9000000003725","","","16","13286","5715","m","elianto","#f73b6a7A","-1"," ","0","-10","[1996.7999999998137]","1","3","","","13286","146","0","4","lose","no-go","0"
"pit-trial","266","1667118","0.0-152.0","battery-v0.2","","""event"",""trial"",""time""
""fullscreenenter"",""1"",""4840""
","
","
","""event"",""trial"",""time""
""fullscreenenter"",""1"",""4840""
","
","","","768.9000000003725","","","16","13286","5715","y","elianto","#f73b6a7A","-1"," ","0","-10","[1620.5]","1","3","","","13286","147","2","4","lose","no-go","0"
"pit-trial","267","1670532","0.0-153.0","battery-v0.2","","""event"",""trial"",""time""