"trial_type","trial_index","time_elapsed","internal_node_id","task_version","subject_id","interactions","blur_events","focus_events","fullscreenenter_events","fullscreenexit_events","success","view_history","rt","responses","num_errors","age","subject","participantId","rune","rune_set","hex","correct","choice","accuracy","outcome","keys","total_keys","block","practice","value","sub","trial","stimulus","robot","valence","action","sham"
"pavlovia","0","7","0.0-0.0","battery-v0.2","","""event"",""trial"",""time""
""fullscreenenter"",""1"",""2175""
","
","
","""event"",""trial"",""time""
""fullscreenenter"",""1"",""2175""
","
","","","","","","","","","","","","","","","","","","","","","","","","","","",""
"fullscreen","1","3122","0.0-1.0","battery-v0.2","","""event"",""trial"",""time""
""fullscreenenter"",""1"",""2175""
","
","
","""event"",""trial"",""time""
""fullscreenenter"",""1"",""2175""
","
","true","","","","","","","","","","","","","","","","","","","","","","","","","",""
"pit-instructions","2","7099","0.0-2.0-0.0","battery-v0.2","","""event"",""trial"",""time""
""fullscreenenter"",""1"",""2175""
","
","
","""event"",""trial"",""time""
""fullscreenenter"",""1"",""2175""
","
","","[{""page_index"":0,""viewing_time"":3970.4000000059605}]","3971.0999999940395","","","","","","","","","","","","","","","","","","","","","","","",""
"pit-comprehension","3","12713","0.0-2.0-1.0-0.0","battery-v0.2","","""event"",""trial"",""time""
""fullscreenenter"",""1"",""2175""
","
","
","""event"",""trial"",""time""
""fullscreenenter"",""1"",""2175""
","
","","","5607","[""shark""]","0","11","14679","5172","","","","","","","","","","","","","","","","","","",""
"pit-instructions","4","16308","0.0-2.0-1.0-1.0","battery-v0.2","","""event"",""trial"",""time""
""fullscreenenter"",""1"",""2175""
","
","
","""event"",""trial"",""time""
""fullscreenenter"",""1"",""2175""
","
","","[{""page_index"":0,""viewing_time"":3566.7999999821186}]","3567.2999999821186","","","","","","","","","","","","","","","","","","","","","","","",""
"pit-comprehension","5","23083","0.0-2.0-2.0-0.0","battery-v0.2","","""event"",""trial"",""time""
""fullscreenenter"",""1"",""2175""
","
","
","""event"",""trial"",""time""
""fullscreenenter"",""1"",""2175""
","
","","","6768.9000000059605","[""tiger""]","0","11","14679","5172","","","","","","","","","","","","","","","","","","",""
"pit-instructions","6","25509","0.0-2.0-2.0-1.0","battery-v0.2","","""event"",""trial"",""time""
""fullscreenenter"",""1"",""2175""
","
","
","""event"",""trial"",""time""
""fullscreenenter"",""1"",""2175""
","
","","[{""page_index"":0,""viewing_time"":2417.899999976158}]","2418.399999976158","","","","","","","","","","","","","","","","","","","","","","","",""
"pit-instructions","7","175427","0.0-2.0-3.0","battery-v0.2","","""event"",""trial"",""time""
""fullscreenenter"",""1"",""2175""
","
","
","""event"",""trial"",""time""
""fullscreenenter"",""1"",""2175""
","
","","[{""page_index"":0,""viewing_time"":38558.10000002384},{""page_index"":1,""viewing_time"":8794.799999982119},{""page_index"":2,""viewing_time"":12864.90000000596},{""page_index"":3,""viewing_time"":9671.40000000596},{""page_index"":4,""viewing_time"":17214.5},{""page_index"":5,""viewing_time"":7845},{""page_index"":6,""viewing_time"":6136.5},{""page_index"":7,""viewing_time"":2388},{""page_index"":6,""viewing_time"":3619.2999999821186},{""page_index"":7,""viewing_time"":1424.800000011921},{""page_index"":8,""viewing_time"":8633.5},{""page_index"":9,""viewing_time"":6287.800000011921},{""page_index"":10,""viewing_time"":7162.899999976158},{""page_index"":11,""viewing_time"":8865.300000011921},{""page_index"":12,""viewing_time"":6175.9000000059605},{""page_index"":13,""viewing_time"":4269}]","149912.30000001192","","","","","","","","","","","","","","","","","","","","","","","",""
"pit-trial","8","178361","0.0-2.0-4.0-0.0","battery-v0.2","","""event"",""trial"",""time""
""fullscreenenter"",""1"",""2175""
","
","
","""event"",""trial"",""time""
""fullscreenenter"",""1"",""2175""
","
","","","73.10000002384186","","","11","14679","5172","&#9784;","elianto","#FFFFF080"," "," ","1","&#10004","[196.2999999821186,476.40000000596046,924.6999999880791,1433.5]","4","0","0","","","","","","","",""
"pit-trial","9","181320","0.0-2.0-4.1-0.1","battery-v0.2","","""event"",""trial"",""time""
""fullscreenenter"",""1"",""2175""
","
","
","""event"",""trial"",""time""
""fullscreenenter"",""1"",""2175""
","
","","","95.80000001192093","","","11","14679","5172","&#9784;","elianto","#FFFFF080"," "," ","1","&#10004","[946]","1","0","0","","","","","","","",""
"pit-trial","10","184258","0.0-2.0-4.2-0.2","battery-v0.2","","""event"",""trial"",""time""
""fullscreenenter"",""1"",""2175""
","
","
","""event"",""trial"",""time""
""fullscreenenter"",""1"",""2175""
","
","","","71.69999998807907","","","11","14679","5172","&#9784;","elianto","#FFFFF080"," "," ","1","&#10004","[923,2325.2000000178814,2593.9000000059605,2839.5]","4","0","0","","","","","","","",""
"pit-trial","11","187273","0.0-2.0-4.3-0.3","battery-v0.2","","""event"",""trial"",""time""
""fullscreenenter"",""1"",""2175""
","
","
","""event"",""trial"",""time""
""fullscreenenter"",""1"",""2175""
","
","","","148","","","11","14679","5172","&#9784;","elianto","#FFFFF080"," "," ","1","&#10004","[125.7000000178814,353.60000002384186,576.2000000178814,785.7000000178814,999.1000000238419,1220,1446.6000000238419,1673.300000011921,1890.5,2154.800000011921,2371.9000000059605,2837.9000000059605]","12","0","0","","","","","","","",""
"pit-trial","12","190146","0.0-2.0-4.4-0.4","battery-v0.2","","""event"",""trial"",""time""
""fullscreenenter"",""1"",""2175""
","
","
","""event"",""trial"",""time""
""fullscreenenter"",""1"",""2175""
","
","","","12.800000011920929","","","11","14679","5172","&#9784;","elianto","#FFFFF080"," "," ","1","&#10004","[54.20000001788139,311.60000002384186,590.6000000238419,863.8000000119209,1104.6000000238419,1366.9000000059605,1584.800000011921,1845.300000011921,2080.7000000178814,2282.2000000178814,2487.800000011921,2668.800000011921,2820.9000000059605]","13","0","0","","","","","","","",""
"pit-instructions","13","221089","0.0-2.0-5.0","battery-v0.2","","""event"",""trial"",""time""
""fullscreenenter"",""1"",""2175""
","
","
","""event"",""trial"",""time""
""fullscreenenter"",""1"",""2175""
","
","","[{""page_index"":0,""viewing_time"":9403.90000000596},{""page_index"":1,""viewing_time"":9490.199999988079},{""page_index"":2,""viewing_time"":6868.600000023842},{""page_index"":3,""viewing_time"":5175.199999988079}]","30938.40000000596","","","","","","","","","","","","","","","","","","","","","","","",""
"pit-trial","14","225859","0.0-2.0-6.0-0.0","battery-v0.2","","""event"",""trial"",""time""
""fullscreenenter"",""1"",""2175""
","
","
","""event"",""trial"",""time""
""fullscreenenter"",""1"",""2175""
","
","","","1905.9000000059605","","","11","14679","5172","&#9854;","elianto","#FFFFF080","-1"," ","0","&#10060","[2758.800000011921]","1","0","1","","","","","","","",""
"pit-trial","15","230726","0.0-2.0-6.1-0.1","battery-v0.2","","""event"",""trial"",""time""
""fullscreenenter"",""1"",""2175""
","
","
","""event"",""trial"",""time""
""fullscreenenter"",""1"",""2175""
","
","","","-1","","","11","14679","5172","&#9854;","elianto","#FFFFF080","-1","-1","1","&#10004","[]","0","0","1","","","","","","","",""
"pit-trial","16","235584","0.0-2.0-6.2-0.2","battery-v0.2","","""event"",""trial"",""time""
""fullscreenenter"",""1"",""2175""
","
","
","""event"",""trial"",""time""
""fullscreenenter"",""1"",""2175""
","
","","","-1","","","11","14679","5172","&#9854;","elianto","#FFFFF080","-1","-1","1","&#10004","[]","0","0","1","","","","","","","",""
"pit-trial","17","240441","0.0-2.0-6.3-0.3","battery-v0.2","","""event"",""trial"",""time""
""fullscreenenter"",""1"",""2175""
","
","
","""event"",""trial"",""time""
""fullscreenenter"",""1"",""2175""
","
","","","-1","","","11","14679","5172","&#9854;","elianto","#FFFFF080","-1","-1","1","&#10004","[]","0","0","1","","","","","","","",""
"pit-trial","18","245310","0.0-2.0-6.4-0.4","battery-v0.2","","""event"",""trial"",""time""
""fullscreenenter"",""1"",""2175""
","
","
","""event"",""trial"",""time""
""fullscreenenter"",""1"",""2175""
","
","","","-1","","","11","14679","5172","&#9854;","elianto","#FFFFF080","-1","-1","1","&#10004","[]","0","0","1","","","","","","","",""
"pit-instructions","19","407246","0.0-2.0-7.0","battery-v0.2","","""event"",""trial"",""time""
""fullscreenenter"",""1"",""2175""
","
","
","""event"",""trial"",""time""
""fullscreenenter"",""1"",""2175""
","
","","[{""page_index"":0,""viewing_time"":9361.09999999404},{""page_index"":1,""viewing_time"":9641.299999982119},{""page_index"":2,""viewing_time"":7268.700000017881},{""page_index"":3,""viewing_time"":7034.5999999940395},{""page_index"":4,""viewing_time"":6087.199999988079},{""page_index"":5,""viewing_time"":5419.5},{""page_index"":6,""viewing_time"":15382.200000017881},{""page_index"":7,""viewing_time"":14121.40000000596},{""page_index"":8,""viewing_time"":7883.299999982119},{""page_index"":9,""viewing_time"":9850},{""page_index"":10,""viewing_time"":8850.90000000596},{""page_index"":11,""viewing_time"":5753.0999999940395},{""page_index"":12,""viewing_time"":8657.40000000596},{""page_index"":13,""viewing_time"":13318.90000000596},{""page_index"":14,""viewing_time"":11037.699999988079},{""page_index"":15,""viewing_time"":6089.9000000059605},{""page_index"":16,""viewing_time"":9458},{""page_index"":17,""viewing_time"":6716}]","161931.39999997616","","","","","","","","","","","","","","","","","","","","","","","",""
"pit-trial","20","412116","0.0-2.0-8.0-0.0","battery-v0.2","","""event"",""trial"",""time""
""fullscreenenter"",""1"",""2175""
","
","
","""event"",""trial"",""time""
""fullscreenenter"",""1"",""2175""
","
","","","-1","","","11","14679","5172","&#9776;","elianto","#3366ff99"," ","-1","0","0","[]","0","0","1","","","","","","","",""
"pit-trial","21","416979","0.0-2.0-8.0-1.0","battery-v0.2","","""event"",""trial"",""time""
""fullscreenenter"",""1"",""2175""
","
","
","""event"",""trial"",""time""
""fullscreenenter"",""1"",""2175""
","
","","","-1","","","11","14679","5172","&#9776;","elianto","#3366ff99"," ","-1","0","0","[]","0","0","1","","","","","","","",""
"pit-trial","22","421852","0.0-2.0-8.0-2.0","battery-v0.2","","""event"",""trial"",""time""
""fullscreenenter"",""1"",""2175""
","
","
","""event"",""trial"",""time""
""fullscreenenter"",""1"",""2175""
","
","","","-1","","","11","14679","5172","&#9776;","elianto","#3366ff99"," ","-1","0","0","[]","0","0","1","","","","","","","",""
"pit-trial","23","425602","0.0-2.0-8.0-3.0","battery-v0.2","","""event"",""trial"",""time""
""fullscreenenter"",""1"",""2175""
","
","
","""event"",""trial"",""time""
""fullscreenenter"",""1"",""2175""
","
","","","893.7000000178814","","","11","14679","5172","&#9776;","elianto","#3366ff99"," "," ","1","0","[1744.4000000059605,2467.7999999821186,2829.4000000059605,3155.9000000059605,3561.2999999821186]","5","0","1","","","","","","","",""
"pit-trial","24","429009","0.0-2.0-8.0-4.0","battery-v0.2","","""event"",""trial"",""time""
""fullscreenenter"",""1"",""2175""
","
","
","""event"",""trial"",""time""
""fullscreenenter"",""1"",""2175""
","
","","","543.0999999940395","","","11","14679","5172","&#9776;","elianto","#3366ff99"," "," ","1","+10","[1393.0999999940395,3141.0999999940395]","2","0","1","","","","","","","",""
"pit-trial","25","432367","0.0-2.0-8.1-0.1","battery-v0.2","","""event"",""trial"",""time""
""fullscreenenter"",""1"",""2175""
","
","
","""event"",""trial"",""time""
""fullscreenenter"",""1"",""2175""
","
","","","492","","","11","14679","5172","&#9776;","elianto","#3366ff99"," "," ","1","+10","[394.69999998807907,1342.2999999821186,1937.3999999761581,2889.699999988079]","4","0","1","","","","","","","",""
"pit-trial","26","435495","0.0-2.0-8.1-1.1","battery-v0.2","","""event"",""trial"",""time""
""fullscreenenter"",""1"",""2175""
","
","
","""event"",""trial"",""time""
""fullscreenenter"",""1"",""2175""
","
","","","259","","","11","14679","5172","&#9776;","elianto","#3366ff99"," "," ","1","+10","[90.7999999821186,1113.199999988079]","2","0","1","","","","","","","",""
"pit-trial","27","438806","0.0-2.0-8.1-2.1","battery-v0.2","","""event"",""trial"",""time""
""fullscreenenter"",""1"",""2175""
","
","
","""event"",""trial"",""time""
""fullscreenenter"",""1"",""2175""
","
","","","456.5","","","11","14679","5172","&#9776;","elianto","#3366ff99"," "," ","1","+10","[1307.699999988079]","1","0","1","","","","","","","",""
"pit-trial","28","442019","0.0-2.0-8.1-3.1","battery-v0.2","","""event"",""trial"",""time""
""fullscreenenter"",""1"",""2175""
","
","
","""event"",""trial"",""time""
""fullscreenenter"",""1"",""2175""
","
","","","359.40000000596046","","","11","14679","5172","&#9776;","elianto","#3366ff99"," "," ","1","0","[1210.199999988079,1961.7999999821186,2361.4000000059605,2951.2999999821186]","4","0","1","","","","","","","",""
"pit-trial","29","445686","0.0-2.0-8.1-4.1","battery-v0.2","","""event"",""trial"",""time""
""fullscreenenter"",""1"",""2175""
","
","
","""event"",""trial"",""time""
""fullscreenenter"",""1"",""2175""
","
","","","813.4000000059605","","","11","14679","5172","&#9776;","elianto","#3366ff99"," "," ","1","+10","[189,1664]","2","0","1","","","","","","","",""
"pit-trial","30","449258","0.0-2.0-8.2-0.2","battery-v0.2","","""event"",""trial"",""time""
""fullscreenenter"",""1"",""2175""
","
","
","""event"",""trial"",""time""
""fullscreenenter"",""1"",""2175""
","
","","","717.5","","","11","14679","5172","&#9776;","elianto","#3366ff99"," "," ","1","+10","[1567.5999999940395]","1","0","1","","","","","","","",""
"pit-trial","31","452711","0.0-2.0-8.2-1.2","battery-v0.2","","""event"",""trial"",""time""
""fullscreenenter"",""1"",""2175""
","
","
","""event"",""trial"",""time""
""fullscreenenter"",""1"",""2175""
","
","","","599.0999999940395","","","11","14679","5172","&#9776;","elianto","#3366ff99"," "," ","1","+10","[1450.4000000059605]","1","0","1","","","","","","","",""
"pit-trial","32","455775","0.0-2.0-8.2-2.2","battery-v0.2","","""event"",""trial"",""time""
""fullscreenenter"",""1"",""2175""
","
","
","""event"",""trial"",""time""
""fullscreenenter"",""1"",""2175""
","
","","","210.5","","","11","14679","5172","&#9776;","elianto","#3366ff99"," "," ","1","+10","[137,751.0999999940395,1060.800000011921]","3","0","1","","","","","","","",""
"pit-trial","33","458962","0.0-2.0-8.2-3.2","battery-v0.2","","""event"",""trial"",""time""
""fullscreenenter"",""1"",""2175""
","
","
","""event"",""trial"",""time""
""fullscreenenter"",""1"",""2175""
","
","","","334.40000000596046","","","11","14679","5172","&#9776;","elianto","#3366ff99"," "," ","1","0","[250.90000000596046,688.5,1185.1000000238419]","3","0","1","","","","","","","",""
"pit-trial","34","462083","0.0-2.0-8.2-4.2","battery-v0.2","","""event"",""trial"",""time""
""fullscreenenter"",""1"",""2175""
","
","
","""event"",""trial"",""time""
""fullscreenenter"",""1"",""2175""
","
","","","268.5","","","11","14679","5172","&#9776;","elianto","#3366ff99"," "," ","1","+10","[431.10000002384186,785.6000000238419,1118.800000011921,1668]","4","0","1","","","","","","","",""
"call-function","35","462086","0.0-2.0-9.0","battery-v0.2","","""event"",""trial"",""time""
""fullscreenenter"",""1"",""2175""
","
","
","""event"",""trial"",""time""
""fullscreenenter"",""1"",""2175""
","
","","","","","","","","","","","","","","","","","","","","","","","","","","",""
"pit-instructions","36","514790","0.0-2.0-10.0","battery-v0.2","","""event"",""trial"",""time""
""fullscreenenter"",""1"",""2175""
","
","
","""event"",""trial"",""time""
""fullscreenenter"",""1"",""2175""
","
","","[{""page_index"":0,""viewing_time"":6010.700000017881},{""page_index"":1,""viewing_time"":12030.09999999404},{""page_index"":2,""viewing_time"":14197.59999999404},{""page_index"":3,""viewing_time"":10915.90000000596},{""page_index"":4,""viewing_time"":9547.699999988079}]","52702.5","","","","","","","","","","","","","","","","","","","","","","","",""
"pit-trial","37","518474","0.0-2.0-11.0-0.0","battery-v0.2","","""event"",""trial"",""time""
""fullscreenenter"",""1"",""2175""
","
","
","""event"",""trial"",""time""
""fullscreenenter"",""1"",""2175""
","
","","","827.6000000238419","","","11","14679","5172","&#9761;","elianto","#3366ff99","-1"," ","0","0","[1680.300000011921]","1","0","2","","","","","","","",""
"pit-trial","38","521862","0.0-2.0-11.0-1.0","battery-v0.2","","""event"",""trial"",""time""
""fullscreenenter"",""1"",""2175""
","
","
","""event"",""trial"",""time""
""fullscreenenter"",""1"",""2175""
","
","","","530.0999999940395","","","11","14679","5172","&#9761;","elianto","#3366ff99","-1"," ","0","0","[80.09999999403954,1381.199999988079,2052.5]","3","0","2","","","","","","","",""
"pit-trial","39","524943","0.0-2.0-11.0-2.0","battery-v0.2","","""event"",""trial"",""time""
""fullscreenenter"",""1"",""2175""
","
","
","""event"",""trial"",""time""
""fullscreenenter"",""1"",""2175""
","
","","","218.09999999403954","","","11","14679","5172","&#9761;","elianto","#3366ff99","-1"," ","0","0","[1068.4000000059605]","1","0","2","","","","","","","",""
"pit-trial","40","529813","0.0-2.0-11.0-3.0","battery-v0.2","","""event"",""trial"",""time""
""fullscreenenter"",""1"",""2175""
","
","
","""event"",""trial"",""time""
""fullscreenenter"",""1"",""2175""
","
","","","-1","","","11","14679","5172","&#9761;","elianto","#3366ff99","-1","-1","1","0","[]","0","0","2","","","","","","","",""
"pit-trial","41","534683","0.0-2.0-11.0-4.0","battery-v0.2","","""event"",""trial"",""time""
""fullscreenenter"",""1"",""2175""
","
","
","""event"",""trial"",""time""
""fullscreenenter"",""1"",""2175""
","
","","","-1","","","11","14679","5172","&#9761;","elianto","#3366ff99","-1","-1","1","+10","[]","0","0","2","","","","","","","",""
"pit-trial","42","539545","0.0-2.0-11.1-0.1","battery-v0.2","","""event"",""trial"",""time""
""fullscreenenter"",""1"",""2175""
","
","
","""event"",""trial"",""time""
""fullscreenenter"",""1"",""2175""
","
","","","-1","","","11","14679","5172","&#9761;","elianto","#3366ff99","-1","-1","1","+10","[]","0","0","2","","","","","","","",""
"pit-trial","43","544400","0.0-2.0-11.1-1.1","battery-v0.2","","""event"",""trial"",""time""
""fullscreenenter"",""1"",""2175""
","
","
","""event"",""trial"",""time""
""fullscreenenter"",""1"",""2175""
","
","","","-1","","","11","14679","5172","&#9761;","elianto","#3366ff99","-1","-1","1","+10","[]","0","0","2","","","","","","","",""
"pit-trial","44","549253","0.0-2.0-11.1-2.1","battery-v0.2","","""event"",""trial"",""time""
""fullscreenenter"",""1"",""2175""
","
","
","""event"",""trial"",""time""
""fullscreenenter"",""1"",""2175""
","
","","","-1","","","11","14679","5172","&#9761;","elianto","#3366ff99","-1","-1","1","+10","[]","0","0","2","","","","","","","",""
"pit-trial","45","554114","0.0-2.0-11.1-3.1","battery-v0.2","","""event"",""trial"",""time""
""fullscreenenter"",""1"",""2175""
","
","
","""event"",""trial"",""time""
""fullscreenenter"",""1"",""2175""
","
","","","-1","","","11","14679","5172","&#9761;","elianto","#3366ff99","-1","-1","1","0","[]","0","0","2","","","","","","","",""
"pit-trial","46","558967","0.0-2.0-11.1-4.1","battery-v0.2","","""event"",""trial"",""time""
""fullscreenenter"",""1"",""2175""
","
","
","""event"",""trial"",""time""
""fullscreenenter"",""1"",""2175""
","
","","","-1","","","11","14679","5172","&#9761;","elianto","#3366ff99","-1","-1","1","+10","[]","0","0","2","","","","","","","",""
"pit-trial","47","563823","0.0-2.0-11.2-0.2","battery-v0.2","","""event"",""trial"",""time""
""fullscreenenter"",""1"",""2175""
","
","
","""event"",""trial"",""time""
""fullscreenenter"",""1"",""2175""
","
","","","-1","","","11","14679","5172","&#9761;","elianto","#3366ff99","-1","-1","1","+10","[]","0","0","2","","","","","","","",""
"pit-trial","48","568676","0.0-2.0-11.2-1.2","battery-v0.2","","""event"",""trial"",""time""
""fullscreenenter"",""1"",""2175""
","
","
","""event"",""trial"",""time""
""fullscreenenter"",""1"",""2175""
","
","","","-1","","","11","14679","5172","&#9761;","elianto","#3366ff99","-1","-1","1","+10","[]","0","0","2","","","","","","","",""
"pit-trial","49","573530","0.0-2.0-11.2-2.2","battery-v0.2","","""event"",""trial"",""time""
""fullscreenenter"",""1"",""2175""
","
","
","""event"",""trial"",""time""
""fullscreenenter"",""1"",""2175""
","
","","","-1","","","11","14679","5172","&#9761;","elianto","#3366ff99","-1","-1","1","+10","[]","0","0","2","","","","","","","",""
"pit-trial","50","578384","0.0-2.0-11.2-3.2","battery-v0.2","","""event"",""trial"",""time""
""fullscreenenter"",""1"",""2175""
","
","
","""event"",""trial"",""time""
""fullscreenenter"",""1"",""2175""
","
","","","-1","","","11","14679","5172","&#9761;","elianto","#3366ff99","-1","-1","1","0","[]","0","0","2","","","","","","","",""
"pit-trial","51","583238","0.0-2.0-11.2-4.2","battery-v0.2","","""event"",""trial"",""time""
""fullscreenenter"",""1"",""2175""
","
","
","""event"",""trial"",""time""
""fullscreenenter"",""1"",""2175""
","
","","","-1","","","11","14679","5172","&#9761;","elianto","#3366ff99","-1","-1","1","+10","[]","0","0","2","","","","","","","",""
"pit-trial","52","588093","0.0-2.0-11.3-0.3","battery-v0.2","","""event"",""trial"",""time""
""fullscreenenter"",""1"",""2175""
","
","
","""event"",""trial"",""time""
""fullscreenenter"",""1"",""2175""
","
","","","-1","","","11","14679","5172","&#9761;","elianto","#3366ff99","-1","-1","1","+10","[]","0","0","2","","","","","","","",""
"pit-trial","53","592947","0.0-2.0-11.3-1.3","battery-v0.2","","""event"",""trial"",""time""
""fullscreenenter"",""1"",""2175""
","
","
","""event"",""trial"",""time""
""fullscreenenter"",""1"",""2175""
","
","","","-1","","","11","14679","5172","&#9761;","elianto","#3366ff99","-1","-1","1","+10","[]","0","0","2","","","","","","","",""
"pit-trial","54","597801","0.0-2.0-11.3-2.3","battery-v0.2","","""event"",""trial"",""time""
""fullscreenenter"",""1"",""2175""
","
","
","""event"",""trial"",""time""
""fullscreenenter"",""1"",""2175""
","
","","","-1","","","11","14679","5172","&#9761;","elianto","#3366ff99","-1","-1","1","+10","[]","0","0","2","","","","","","","",""
"pit-trial","55","602655","0.0-2.0-11.3-3.3","battery-v0.2","","""event"",""trial"",""time""
""fullscreenenter"",""1"",""2175""
","
","
","""event"",""trial"",""time""
""fullscreenenter"",""1"",""2175""
","
","","","-1","","","11","14679","5172","&#9761;","elianto","#3366ff99","-1","-1","1","0","[]","0","0","2","","","","","","","",""
"pit-trial","56","607509","0.0-2.0-11.3-4.3","battery-v0.2","","""event"",""trial"",""time""
""fullscreenenter"",""1"",""2175""
","
","
","""event"",""trial"",""time""
""fullscreenenter"",""1"",""2175""
","
","","","-1","","","11","14679","5172","&#9761;","elianto","#3366ff99","-1","-1","1","+10","[]","0","0","2","","","","","","","",""
"call-function","57","607512","0.0-2.0-12.0","battery-v0.2","","""event"",""trial"",""time""
""fullscreenenter"",""1"",""2175""
","
","
","""event"",""trial"",""time""
""fullscreenenter"",""1"",""2175""
","
","","","","","","","","","","","","","","","","","","","","","","","","","","",""
"pit-instructions","58","714026","0.0-2.0-13.0","battery-v0.2","","""event"",""trial"",""time""
""fullscreenenter"",""1"",""2175""
","
","
","""event"",""trial"",""time""
""fullscreenenter"",""1"",""2175""
","
","","[{""page_index"":0,""viewing_time"":22344.30000001192},{""page_index"":1,""viewing_time"":24320.19999998808},{""page_index"":2,""viewing_time"":24436.30000001192},{""page_index"":3,""viewing_time"":26601.59999999404},{""page_index"":4,""viewing_time"":8810.199999988079}]","106513.09999999404","","","","","","","","","","","","","","","","","","","","","","","",""
"pit-trial","59","718890","0.0-2.0-14.0-0.0","battery-v0.2","","""event"",""trial"",""time""
""fullscreenenter"",""1"",""2175""
","
","
","""event"",""trial"",""time""
""fullscreenenter"",""1"",""2175""
","
","","","-1","","","11","14679","5172","&#9826;","elianto","#f73b6a7A","-1","-1","1","0","[]","0","0","3","","","","","","","",""
"pit-trial","60","723758","0.0-2.0-14.0-1.0","battery-v0.2","","""event"",""trial"",""time""
""fullscreenenter"",""1"",""2175""
","
","
","""event"",""trial"",""time""
""fullscreenenter"",""1"",""2175""
","
","","","-1","","","11","14679","5172","&#9826;","elianto","#f73b6a7A","-1","-1","1","0","[]","0","0","3","","","","","","","",""
"pit-trial","61","728630","0.0-2.0-14.0-2.0","battery-v0.2","","""event"",""trial"",""time""
""fullscreenenter"",""1"",""2175""
","
","
","""event"",""trial"",""time""
""fullscreenenter"",""1"",""2175""
","
","","","-1","","","11","14679","5172","&#9826;","elianto","#f73b6a7A","-1","-1","1","0","[]","0","0","3","","","","","","","",""
"pit-trial","62","733492","0.0-2.0-14.0-3.0","battery-v0.2","","""event"",""trial"",""time""
""fullscreenenter"",""1"",""2175""
","
","
","""event"",""trial"",""time""
""fullscreenenter"",""1"",""2175""
","
","","","-1","","","11","14679","5172","&#9826;","elianto","#f73b6a7A","-1","-1","1","-10","[]","0","0","3","","","","","","","",""
"pit-trial","63","738359","0.0-2.0-14.0-4.0","battery-v0.2","","""event"",""trial"",""time""
""fullscreenenter"",""1"",""2175""
","
","
","""event"",""trial"",""time""
""fullscreenenter"",""1"",""2175""
","
","","","-1","","","11","14679","5172","&#9826;","elianto","#f73b6a7A","-1","-1","1","0","[]","0","0","3","","","","","","","",""
"pit-trial","64","743213","0.0-2.0-14.1-0.1","battery-v0.2","","""event"",""trial"",""time""
""fullscreenenter"",""1"",""2175""
","
","
","""event"",""trial"",""time""
""fullscreenenter"",""1"",""2175""
","
","","","-1","","","11","14679","5172","&#9826;","elianto","#f73b6a7A","-1","-1","1","0","[]","0","0","3","","","","","","","",""
"pit-trial","65","748067","0.0-2.0-14.1-1.1","battery-v0.2","","""event"",""trial"",""time""
""fullscreenenter"",""1"",""2175""
","
","
","""event"",""trial"",""time""
""fullscreenenter"",""1"",""2175""
","
","","","-1","","","11","14679","5172","&#9826;","elianto","#f73b6a7A","-1","-1","1","0","[]","0","0","3","","","","","","","",""
"pit-trial","66","752920","0.0-2.0-14.1-2.1","battery-v0.2","","""event"",""trial"",""time""
""fullscreenenter"",""1"",""2175""
","
","
","""event"",""trial"",""time""
""fullscreenenter"",""1"",""2175""
","
","","","-1","","","11","14679","5172","&#9826;","elianto","#f73b6a7A","-1","-1","1","0","[]","0","0","3","","","","","","","",""
"pit-trial","67","757774","0.0-2.0-14.1-3.1","battery-v0.2","","""event"",""trial"",""time""
""fullscreenenter"",""1"",""2175""
","
","
","""event"",""trial"",""time""
""fullscreenenter"",""1"",""2175""
","
","","","-1","","","11","14679","5172","&#9826;","elianto","#f73b6a7A","-1","-1","1","-10","[3695.399999976158,4070.699999988079,4424.0999999940395]","3","0","3","","","","","","","",""
"pit-trial","68","760787","0.0-2.0-14.1-4.1","battery-v0.2","","""event"",""trial"",""time""
""fullscreenenter"",""1"",""2175""
","
","
","""event"",""trial"",""time""
""fullscreenenter"",""1"",""2175""
","
","","","159.09999999403954","","","11","14679","5172","&#9826;","elianto","#f73b6a7A","-1"," ","0","-10","[91.19999998807907,534.6999999880791,1009.5999999940395,1822.199999988079,2291.0999999940395]","5","0","3","","","","","","","",""
"pit-trial","69","764457","0.0-2.0-14.2-0.2","battery-v0.2","","""event"",""trial"",""time""
""fullscreenenter"",""1"",""2175""
","
","
","""event"",""trial"",""time""
""fullscreenenter"",""1"",""2175""
","
","","","814.1999999880791","","","11","14679","5172","&#9826;","elianto","#f73b6a7A","-1"," ","0","-10","[221.80000001192093,663.7000000178814,1665,2661.4000000059605,3355.0999999940395]","5","0","3","","","","","","","",""
"pit-trial","70","768395","0.0-2.0-14.2-1.2","battery-v0.2","","""event"",""trial"",""time""
""fullscreenenter"",""1"",""2175""
","
","
","""event"",""trial"",""time""
""fullscreenenter"",""1"",""2175""
","
","","","1084.6000000238419","","","11","14679","5172","&#9826;","elianto","#f73b6a7A","-1"," ","0","-10","[1936.5,2256.5,2569,3220.7999999821186,3490.7999999821186,3795.2999999821186]","6","0","3","","","","","","","",""
"pit-trial","71","773250","0.0-2.0-14.2-2.2","battery-v0.2","","""event"",""trial"",""time""
""fullscreenenter"",""1"",""2175""
","
","
","""event"",""trial"",""time""
""fullscreenenter"",""1"",""2175""
","
","","","-1","","","11","14679","5172","&#9826;","elianto","#f73b6a7A","-1","-1","1","0","[]","0","0","3","","","","","","","",""
"pit-trial","72","778103","0.0-2.0-14.2-3.2","battery-v0.2","","""event"",""trial"",""time""
""fullscreenenter"",""1"",""2175""
","
","
","""event"",""trial"",""time""
""fullscreenenter"",""1"",""2175""
","
","","","-1","","","11","14679","5172","&#9826;","elianto","#f73b6a7A","-1","-1","1","-10","[]","0","0","3","","","","","","","",""
"pit-trial","73","782957","0.0-2.0-14.2-4.2","battery-v0.2","","""event"",""trial"",""time""
""fullscreenenter"",""1"",""2175""
","
","
","""event"",""trial"",""time""
""fullscreenenter"",""1"",""2175""
","
","","","-1","","","11","14679","5172","&#9826;","elianto","#f73b6a7A","-1","-1","1","0","[]","0","0","3","","","","","","","",""
"pit-trial","74","787814","0.0-2.0-14.3-0.3","battery-v0.2","","""event"",""trial"",""time""
""fullscreenenter"",""1"",""2175""
","
","
","""event"",""trial"",""time""
""fullscreenenter"",""1"",""2175""
","
","","","-1","","","11","14679","5172","&#9826;","elianto","#f73b6a7A","-1","-1","1","0","[]","0","0","3","","","","","","","",""
"pit-trial","75","792668","0.0-2.0-14.3-1.3","battery-v0.2","","""event"",""trial"",""time""
""fullscreenenter"",""1"",""2175""
","
","
","""event"",""trial"",""time""
""fullscreenenter"",""1"",""2175""
","
","","","-1","","","11","14679","5172","&#9826;","elianto","#f73b6a7A","-1","-1","1","0","[]","0","0","3","","","","","","","",""
"pit-trial","76","797524","0.0-2.0-14.3-2.3","battery-v0.2","","""event"",""trial"",""time""
""fullscreenenter"",""1"",""2175""
","
","
","""event"",""trial"",""time""
""fullscreenenter"",""1"",""2175""
","
","","","-1","","","11","14679","5172","&#9826;","elianto","#f73b6a7A","-1","-1","1","0","[]","0","0","3","","","","","","","",""
"pit-trial","77","802377","0.0-2.0-14.3-3.3","battery-v0.2","","""event"",""trial"",""time""
""fullscreenenter"",""1"",""2175""
","
","
","""event"",""trial"",""time""
""fullscreenenter"",""1"",""2175""
","
","","","-1","","","11","14679","5172","&#9826;","elianto","#f73b6a7A","-1","-1","1","-10","[]","0","0","3","","","","","","","",""
"pit-trial","78","807229","0.0-2.0-14.3-4.3","battery-v0.2","","""event"",""trial"",""time""
""fullscreenenter"",""1"",""2175""
","
","
","""event"",""trial"",""time""
""fullscreenenter"",""1"",""2175""
","
","","","-1","","","11","14679","5172","&#9826;","elianto","#f73b6a7A","-1","-1","1","0","[]","0","0","3","","","","","","","",""
"call-function","79","807233","0.0-2.0-15.0","battery-v0.2","","""event"",""trial"",""time""
""fullscreenenter"",""1"",""2175""
","
","
","""event"",""trial"",""time""
""fullscreenenter"",""1"",""2175""
","
","","","","","","","","","","","","","","","","","","","","","","","","","","",""
"pit-instructions","80","888753","0.0-2.0-16.0","battery-v0.2","","""event"",""trial"",""time""
""fullscreenenter"",""1"",""2175""
","
","
","""event"",""trial"",""time""
""fullscreenenter"",""1"",""2175""
","
","","[{""page_index"":0,""viewing_time"":48281.90000000596},{""page_index"":1,""viewing_time"":14335.09999999404},{""page_index"":2,""viewing_time"":11500.90000000596},{""page_index"":3,""viewing_time"":7401.0999999940395}]","81519.60000002384","","","","","","","","","","","","","","","","","","","","","","","",""
"pit-trial","81","893622","0.0-2.0-17.0-0.0","battery-v0.2","","""event"",""trial"",""time""
""fullscreenenter"",""1"",""2175""
","
","
","""event"",""trial"",""time""
""fullscreenenter"",""1"",""2175""
","
","","","-1","","","11","14679","5172","&#9789;","elianto","#f73b6a7A"," ","-1","0","-10","[]","0","0","4","","","","","","","",""
"pit-trial","82","898486","0.0-2.0-17.0-1.0","battery-v0.2","","""event"",""trial"",""time""
""fullscreenenter"",""1"",""2175""
","
","
","""event"",""trial"",""time""
""fullscreenenter"",""1"",""2175""
","
","","","-1","","","11","14679","5172","&#9789;","elianto","#f73b6a7A"," ","-1","0","-10","[]","0","0","4","","","","","","","",""
"pit-trial","83","903365","0.0-2.0-17.0-2.0","battery-v0.2","","""event"",""trial"",""time""
""fullscreenenter"",""1"",""2175""
","
","
","""event"",""trial"",""time""
""fullscreenenter"",""1"",""2175""
","
","","","-1","","","11","14679","5172","&#9789;","elianto","#f73b6a7A"," ","-1","0","-10","[]","0","0","4","","","","","","","",""
"pit-trial","84","908223","0.0-2.0-17.0-3.0","battery-v0.2","","""event"",""trial"",""time""
""fullscreenenter"",""1"",""2175""
","
","
","""event"",""trial"",""time""
""fullscreenenter"",""1"",""2175""
","
","","","-1","","","11","14679","5172","&#9789;","elianto","#f73b6a7A"," ","-1","0","0","[]","0","0","4","","","","","","","",""
"pit-trial","85","913089","0.0-2.0-17.0-4.0","battery-v0.2","","""event"",""trial"",""time""
""fullscreenenter"",""1"",""2175""
","
","
","""event"",""trial"",""time""
""fullscreenenter"",""1"",""2175""
","
","","","-1","","","11","14679","5172","&#9789;","elianto","#f73b6a7A"," ","-1","0","-10","[]","0","0","4","","","","","","","",""
"pit-trial","86","917952","0.0-2.0-17.1-0.1","battery-v0.2","","""event"",""trial"",""time""
""fullscreenenter"",""1"",""2175""
","
","
","""event"",""trial"",""time""
""fullscreenenter"",""1"",""2175""
","
","","","-1","","","11","14679","5172","&#9789;","elianto","#f73b6a7A"," ","-1","0","-10","[]","0","0","4","","","","","","","",""
"pit-trial","87","922807","0.0-2.0-17.1-1.1","battery-v0.2","","""event"",""trial"",""time""
""fullscreenenter"",""1"",""2175""
","
","
","""event"",""trial"",""time""
""fullscreenenter"",""1"",""2175""
","
","","","-1","","","11","14679","5172","&#9789;","elianto","#f73b6a7A"," ","-1","0","-10","[]","0","0","4","","","","","","","",""
"pit-trial","88","927661","0.0-2.0-17.1-2.1","battery-v0.2","","""event"",""trial"",""time""
""fullscreenenter"",""1"",""2175""
","
","
","""event"",""trial"",""time""
""fullscreenenter"",""1"",""2175""
","
","","","-1","","","11","14679","5172","&#9789;","elianto","#f73b6a7A"," ","-1","0","-10","[]","0","0","4","","","","","","","",""
"pit-trial","89","932515","0.0-2.0-17.1-3.1","battery-v0.2","","""event"",""trial"",""time""
""fullscreenenter"",""1"",""2175""
","
","
","""event"",""trial"",""time""
""fullscreenenter"",""1"",""2175""
","
","","","-1","","","11","14679","5172","&#9789;","elianto","#f73b6a7A"," ","-1","0","0","[]","0","0","4","","","","","","","",""
"pit-trial","90","937370","0.0-2.0-17.1-4.1","battery-v0.2","","""event"",""trial"",""time""
""fullscreenenter"",""1"",""2175""
","
","
","""event"",""trial"",""time""
""fullscreenenter"",""1"",""2175""
","
","","","-1","","","11","14679","5172","&#9789;","elianto","#f73b6a7A"," ","-1","0","-10","[]","0","0","4","","","","","","","",""
"pit-trial","91","942225","0.0-2.0-17.2-0.2","battery-v0.2","","""event"",""trial"",""time""
""fullscreenenter"",""1"",""2175""
","
","
","""event"",""trial"",""time""
""fullscreenenter"",""1"",""2175""
","
","","","-1","","","11","14679","5172","&#9789;","elianto","#f73b6a7A"," ","-1","0","-10","[]","0","0","4","","","","","","","",""
"pit-trial","92","947079","0.0-2.0-17.2-1.2","battery-v0.2","","""event"",""trial"",""time""
""fullscreenenter"",""1"",""2175""
","
","
","""event"",""trial"",""time""
""fullscreenenter"",""1"",""2175""
","
","","","-1","","","11","14679","5172","&#9789;","elianto","#f73b6a7A"," ","-1","0","-10","[]","0","0","4","","","","","","","",""
"pit-trial","93","951932","0.0-2.0-17.2-2.2","battery-v0.2","","""event"",""trial"",""time""
""fullscreenenter"",""1"",""2175""
","
","
","""event"",""trial"",""time""
""fullscreenenter"",""1"",""2175""
","
","","","-1","","","11","14679","5172","&#9789;","elianto","#f73b6a7A"," ","-1","0","-10","[]","0","0","4","","","","","","","",""
"pit-trial","94","956787","0.0-2.0-17.2-3.2","battery-v0.2","","""event"",""trial"",""time""
""fullscreenenter"",""1"",""2175""
","
","
","""event"",""trial"",""time""
""fullscreenenter"",""1"",""2175""
","
","","","-1","","","11","14679","5172","&#9789;","elianto","#f73b6a7A"," ","-1","0","0","[]","0","0","4","","","","","","","",""
"pit-trial","95","961641","0.0-2.0-17.2-4.2","battery-v0.2","","""event"",""trial"",""time""
""fullscreenenter"",""1"",""2175""
","
","
","""event"",""trial"",""time""
""fullscreenenter"",""1"",""2175""
","
","","","-1","","","11","14679","5172","&#9789;","elianto","#f73b6a7A"," ","-1","0","-10","[]","0","0","4","","","","","","","",""
"pit-trial","96","966499","0.0-2.0-17.3-0.3","battery-v0.2","","""event"",""trial"",""time""
""fullscreenenter"",""1"",""2175""
","
","
","""event"",""trial"",""time""
""fullscreenenter"",""1"",""2175""
","
","","","-1","","","11","14679","5172","&#9789;","elianto","#f73b6a7A"," ","-1","0","-10","[]","0","0","4","","","","","","","",""
"pit-trial","97","971353","0.0-2.0-17.3-1.3","battery-v0.2","","""event"",""trial"",""time""
""fullscreenenter"",""1"",""2175""
","
","
","""event"",""trial"",""time""
""fullscreenenter"",""1"",""2175""
","
","","","-1","","","11","14679","5172","&#9789;","elianto","#f73b6a7A"," ","-1","0","-10","[]","0","0","4","","","","","","","",""
"pit-trial","98","976207","0.0-2.0-17.3-2.3","battery-v0.2","","""event"",""trial"",""time""
""fullscreenenter"",""1"",""2175""
","
","
","""event"",""trial"",""time""
""fullscreenenter"",""1"",""2175""
","
","","","-1","","","11","14679","5172","&#9789;","elianto","#f73b6a7A"," ","-1","0","-10","[]","0","0","4","","","","","","","",""
"pit-trial","99","981061","0.0-2.0-17.3-3.3","battery-v0.2","","""event"",""trial"",""time""
""fullscreenenter"",""1"",""2175""
","
","
","""event"",""trial"",""time""
""fullscreenenter"",""1"",""2175""
","
","","","-1","","","11","14679","5172","&#9789;","elianto","#f73b6a7A"," ","-1","0","0","[]","0","0","4","","","","","","","",""
"pit-trial","100","985916","0.0-2.0-17.3-4.3","battery-v0.2","","""event"",""trial"",""time""
""fullscreenenter"",""1"",""2175""
","
","
","""event"",""trial"",""time""
""fullscreenenter"",""1"",""2175""
","
","","","-1","","","11","14679","5172","&#9789;","elianto","#f73b6a7A"," ","-1","0","-10","[]","0","0","4","","","","","","","",""
"call-function","101","985918","0.0-2.0-18.0","battery-v0.2","","""event"",""trial"",""time""
""fullscreenenter"",""1"",""2175""
","
","
","""event"",""trial"",""time""
""fullscreenenter"",""1"",""2175""
","
","","","","","","","","","","","","","","","","","","","","","","","","","","",""
"pit-instructions","102","1050123","0.0-2.0-19.0","battery-v0.2","","""event"",""trial"",""time""
""fullscreenenter"",""1"",""2175""
","
","
","""event"",""trial"",""time""
""fullscreenenter"",""1"",""2175""
","
","","[{""page_index"":0,""viewing_time"":8046.4000000059605},{""page_index"":1,""viewing_time"":5289.799999982119},{""page_index"":2,""viewing_time"":15764},{""page_index"":3,""viewing_time"":4823.5999999940395},{""page_index"":4,""viewing_time"":6171.4000000059605},{""page_index"":5,""viewing_time"":9351.700000017881},{""page_index"":6,""viewing_time"":4017.5999999940395},{""page_index"":7,""viewing_time"":4055.5},{""page_index"":8,""viewing_time"":6683.5999999940395}]","64203.79999998212","","","","","","","","","","","","","","","","","","","","","","","",""
"pit-comprehension","103","1060950","0.0-2.0-20.0-0.0","battery-v0.2","","""event"",""trial"",""time""
""fullscreenenter"",""1"",""2175""
","
","
","""event"",""trial"",""time""
""fullscreenenter"",""1"",""2175""
","
","","","10825.299999982119","[""SPACE""]","0","11","14679","5172","","","","","","","","","","","","","","","","","","",""
"pit-instructions","104","1072421","0.0-2.0-20.0-1.0","battery-v0.2","","""event"",""trial"",""time""
""fullscreenenter"",""1"",""2175""
","
","
","""event"",""trial"",""time""
""fullscreenenter"",""1"",""2175""
","
","","[{""page_index"":0,""viewing_time"":11444}]","11444.700000017881","","","","","","","","","","","","","","","","","","","","","","","",""
"pit-comprehension","105","1078200","0.0-2.0-21.0-0.0","battery-v0.2","","""event"",""trial"",""time""
""fullscreenenter"",""1"",""2175""
","
","
","""event"",""trial"",""time""
""fullscreenenter"",""1"",""2175""
","
","","","5773.799999982119","[""10""]","0","11","14679","5172","","","","","","","","","","","","","","","","","","",""
"pit-instructions","106","1079509","0.0-2.0-21.0-1.0","battery-v0.2","","""event"",""trial"",""time""
""fullscreenenter"",""1"",""2175""
","
","
","""event"",""trial"",""time""
""fullscreenenter"",""1"",""2175""
","
","","[{""page_index"":0,""viewing_time"":1283.7999999821186}]","1284.4000000059605","","","","","","","","","","","","","","","","","","","","","","","",""
"pit-comprehension","107","1091712","0.0-2.0-22.0-0.0","battery-v0.2","","""event"",""trial"",""time""
""fullscreenenter"",""1"",""2175""
","
","
","""event"",""trial"",""time""
""fullscreenenter"",""1"",""2175""
","
","","","12197.300000011921","[""0""]","0","11","14679","5172","","","","","","","","","","","","","","","","","","",""
"pit-instructions","108","1100320","0.0-2.0-22.0-1.0","battery-v0.2","","""event"",""trial"",""time""
""fullscreenenter"",""1"",""2175""
","
","
","""event"",""trial"",""time""
""fullscreenenter"",""1"",""2175""
","
","","[{""page_index"":0,""viewing_time"":8585.59999999404}]","8586.09999999404","","","","","","","","","","","","","","","","","","","","","","","",""
"pit-comprehension","109","1113830","0.0-2.0-23.0-0.0","battery-v0.2","","""event"",""trial"",""time""
""fullscreenenter"",""1"",""2175""
","
","
","""event"",""trial"",""time""
""fullscreenenter"",""1"",""2175""
","
","","","13506","[""False""]","1","11","14679","5172","","","","","","","","","","","","","","","","","","",""
"pit-instructions","110","1124866","0.0-2.0-23.0-1.0","battery-v0.2","","""event"",""trial"",""time""
""fullscreenenter"",""1"",""2175""
","
","
","""event"",""trial"",""time""
""fullscreenenter"",""1"",""2175""
","
","","[{""page_index"":0,""viewing_time"":11014.40000000596}]","11014.90000000596","","","","","","","","","","","","","","","","","","","","","","","",""
"pit-instructions","111","1125836","0.0-2.0-23.0-2.0-0.0","battery-v0.2","","""event"",""trial"",""time""
""fullscreenenter"",""1"",""2175""
","
","
","""event"",""trial"",""time""
""fullscreenenter"",""1"",""2175""
","
","","[{""page_index"":0,""viewing_time"":966}]","966.5999999940395","","","","","","","","","","","","","","","","","","","","","","","",""
"pit-comprehension","112","1134071","0.0-2.0-23.1-0.1","battery-v0.2","","""event"",""trial"",""time""
""fullscreenenter"",""1"",""2175""
","
","
","""event"",""trial"",""time""
""fullscreenenter"",""1"",""2175""
","
","","","8230","[""True""]","0","11","14679","5172","","","","","","","","","","","","","","","","","","",""
"pit-instructions","113","1135394","0.0-2.0-23.1-1.1","battery-v0.2","","""event"",""trial"",""time""
""fullscreenenter"",""1"",""2175""
","
","
","""event"",""trial"",""time""
""fullscreenenter"",""1"",""2175""
","
","","[{""page_index"":0,""viewing_time"":1280.2000000178814}]","1280.800000011921","","","","","","","","","","","","","","","","","","","","","","","",""
"pit-comprehension","114","1150768","0.0-2.0-24.0-0.0","battery-v0.2","","""event"",""trial"",""time""
""fullscreenenter"",""1"",""2175""
","
","
","""event"",""trial"",""time""
""fullscreenenter"",""1"",""2175""
","
","","","15368","[""False""]","1","11","14679","5172","","","","","","","","","","","","","","","","","","",""
"pit-instructions","115","1161867","0.0-2.0-24.0-1.0","battery-v0.2","","""event"",""trial"",""time""
""fullscreenenter"",""1"",""2175""
","
","
","""event"",""trial"",""time""
""fullscreenenter"",""1"",""2175""
","
","","[{""page_index"":0,""viewing_time"":11070.899999976158}]","11071.299999982119","","","","","","","","","","","","","","","","","","","","","","","",""
"pit-instructions","116","1163663","0.0-2.0-24.0-2.0-0.0","battery-v0.2","","""event"",""trial"",""time""
""fullscreenenter"",""1"",""2175""
","
","
","""event"",""trial"",""time""
""fullscreenenter"",""1"",""2175""
","
","","[{""page_index"":0,""viewing_time"":1791.199999988079}]","1791.699999988079","","","","","","","","","","","","","","","","","","","","","","","",""
"pit-comprehension","117","1171014","0.0-2.0-24.1-0.1","battery-v0.2","","""event"",""trial"",""time""
""fullscreenenter"",""1"",""2175""
","
","
","""event"",""trial"",""time""
""fullscreenenter"",""1"",""2175""
","
","","","7346.4000000059605","[""True""]","0","11","14679","5172","","","","","","","","","","","","","","","","","","",""
"pit-instructions","118","1179607","0.0-2.0-24.1-1.1","battery-v0.2","","""event"",""trial"",""time""
""fullscreenenter"",""1"",""2175""
","
","
","""event"",""trial"",""time""
""fullscreenenter"",""1"",""2175""
","
","","[{""page_index"":0,""viewing_time"":8551.09999999404}]","8551.699999988079","","","","","","","","","","","","","","","","","","","","","","","",""
"pit-comprehension","119","1186305","0.0-2.0-25.0-0.0","battery-v0.2","","""event"",""trial"",""time""
""fullscreenenter"",""1"",""2175""
","
","
","""event"",""trial"",""time""
""fullscreenenter"",""1"",""2175""
","
","","","6692.5","[""True""]","0","11","14679","5172","","","","","","","","","","","","","","","","","","",""
"pit-instructions","120","1189329","0.0-2.0-25.0-1.0","battery-v0.2","","""event"",""trial"",""time""
""fullscreenenter"",""1"",""2175""
","
","
","""event"",""trial"",""time""
""fullscreenenter"",""1"",""2175""
","
","","[{""page_index"":0,""viewing_time"":2998.699999988079}]","2999","","","","","","","","","","","","","","","","","","","","","","","",""
"pit-comprehension","121","1194970","0.0-2.0-26.0-0.0","battery-v0.2","","""event"",""trial"",""time""
""fullscreenenter"",""1"",""2175""
","
","
","""event"",""trial"",""time""
""fullscreenenter"",""1"",""2175""
","
","","","5637.799999982119","[""False""]","0","11","14679","5172","","","","","","","","","","","","","","","","","","",""
"pit-instructions","122","1203441","0.0-2.0-26.0-1.0","battery-v0.2","","""event"",""trial"",""time""
""fullscreenenter"",""1"",""2175""
","
","
","""event"",""trial"",""time""
""fullscreenenter"",""1"",""2175""
","
","","[{""page_index"":0,""viewing_time"":8447.300000011921}]","8447.90000000596","","","","","","","","","","","","","","","","","","","","","","","",""
"pit-instructions","123","1243680","0.0-3.0","battery-v0.2","","""event"",""trial"",""time""
""fullscreenenter"",""1"",""2175""
","
","
","""event"",""trial"",""time""
""fullscreenenter"",""1"",""2175""
","
","","[{""page_index"":0,""viewing_time"":5585.5999999940395},{""page_index"":1,""viewing_time"":19130.69999998808},{""page_index"":2,""viewing_time"":15518}]","40234.90000000596","","","","","","","","","","","","","","","","","","","","","","","",""
"pit-trial","124","1248545","0.0-4.0","battery-v0.2","","""event"",""trial"",""time""
""fullscreenenter"",""1"",""2175""
","
","
","""event"",""trial"",""time""
""fullscreenenter"",""1"",""2175""
","
","","","-1","","","11","14679","5172","&#9728;","elianto","#f73b6a7A","-1","-1","1","0","[]","0","1","","","14679","1","0","4","lose","no-go","0"
"pit-trial","125","1253410","0.0-5.0","battery-v0.2","","""event"",""trial"",""time""
""fullscreenenter"",""1"",""2175""
","
","
","""event"",""trial"",""time""
""fullscreenenter"",""1"",""2175""
","
","","","-1","","","11","14679","5172","&#9733;","elianto","#3366ff99","-1","-1","1","0","[]","0","1","","","14679","2","2","2","win","no-go","1"
"pit-trial","126","1257424","0.0-6.0","battery-v0.2","","""event"",""trial"",""time""
""fullscreenenter"",""1"",""2175""
","
","
","""event"",""trial"",""time""
""fullscreenenter"",""1"",""2175""
","
","","","1145.800000011921","","","11","14679","5172","&#9752;","elianto","#f73b6a7A"," "," ","1","0","[2000.3999999761581,2198.2999999821186,2343.7999999821186,2495.199999988079,2633.899999976158]","5","1","","","14679","3","3","3","lose","go","0"
"pit-trial","127","1262301","0.0-7.0","battery-v0.2","","""event"",""trial"",""time""
""fullscreenenter"",""1"",""2175""
","
","
","""event"",""trial"",""time""
""fullscreenenter"",""1"",""2175""
","
","","","-1","","","11","14679","5172","&#9730;","elianto","#3366ff99"," ","-1","0","0","[2921.300000011921,3168.300000011921,3728,4332.199999988079]","4","1","","","14679","4","1","1","win","go","0"
"pit-trial","128","1265821","0.0-8.0","battery-v0.2","","""event"",""trial"",""time""
""fullscreenenter"",""1"",""2175""
","
","
","""event"",""trial"",""time""
""fullscreenenter"",""1"",""2175""
","
","","","664","","","11","14679","5172","&#9733;","elianto","#3366ff99","-1"," ","0","0","[114.90000000596046,846,1515.4000000059605,2221.699999988079,2958.199999988079]","5","1","","","14679","5","2","2","win","no-go","0"
"pit-trial","129","1270674","0.0-9.0","battery-v0.2","","""event"",""trial"",""time""
""fullscreenenter"",""1"",""2175""
","
","
","""event"",""trial"",""time""
""fullscreenenter"",""1"",""2175""
","
","","","-1","","","11","14679","5172","&#9730;","elianto","#3366ff99"," ","-1","0","0","[28.700000017881393,4116.200000017881,4477.5999999940395,4787.4000000059605]","4","1","","","14679","6","1","1","win","go","0"
"pit-trial","130","1275527","0.0-10.0","battery-v0.2","","""event"",""trial"",""time""
""fullscreenenter"",""1"",""2175""
","
","
","""event"",""trial"",""time""
""fullscreenenter"",""1"",""2175""
","
","","","-1","","","11","14679","5172","&#9728;","elianto","#f73b6a7A","-1","-1","1","0","[200.90000000596046,524.7999999821186]","2","1","","","14679","7","0","4","lose","no-go","0"
"pit-trial","131","1278441","0.0-11.0","battery-v0.2","","""event"",""trial"",""time""
""fullscreenenter"",""1"",""2175""
","
","
","""event"",""trial"",""time""
""fullscreenenter"",""1"",""2175""
","
","","","59.5","","","11","14679","5172","&#9752;","elianto","#f73b6a7A"," "," ","1","-10","[27.599999994039536,443.40000000596046,910,1253.699999988079]","4","1","","","14679","8","3","3","lose","go","1"
"pit-trial","132","1281787","0.0-12.0","battery-v0.2","","""event"",""trial"",""time""
""fullscreenenter"",""1"",""2175""
","
","
","""event"",""trial"",""time""
""fullscreenenter"",""1"",""2175""
","
","","","492.7000000178814","","","11","14679","5172","&#9752;","elianto","#f73b6a7A"," "," ","1","0","[1344.3999999761581,2366.5]","2","1","","","14679","9","3","3","lose","go","0"
"pit-trial","133","1285772","0.0-13.0","battery-v0.2","","""event"",""trial"",""time""
""fullscreenenter"",""1"",""2175""
","
","
","""event"",""trial"",""time""
""fullscreenenter"",""1"",""2175""
","
","","","1129.5","","","11","14679","5172","&#9730;","elianto","#3366ff99"," "," ","1","+10","[1980.2000000178814]","1","1","","","14679","10","1","1","win","go","0"
"pit-trial","134","1289383","0.0-14.0","battery-v0.2","","""event"",""trial"",""time""
""fullscreenenter"",""1"",""2175""
","
","
","""event"",""trial"",""time""
""fullscreenenter"",""1"",""2175""
","
","","","756.1999999880791","","","11","14679","5172","&#9733;","elianto","#3366ff99","-1"," ","0","0","[1608]","1","1","","","14679","11","2","2","win","no-go","0"
"pit-trial","135","1294237","0.0-15.0","battery-v0.2","","""event"",""trial"",""time""
""fullscreenenter"",""1"",""2175""
","
","
","""event"",""trial"",""time""
""fullscreenenter"",""1"",""2175""
","
","","","-1","","","11","14679","5172","&#9728;","elianto","#f73b6a7A","-1","-1","1","0","[]","0","1","","","14679","12","0","4","lose","no-go","0"
"pit-trial","136","1297518","0.0-16.0","battery-v0.2","","""event"",""trial"",""time""
""fullscreenenter"",""1"",""2175""
","
","
","""event"",""trial"",""time""
""fullscreenenter"",""1"",""2175""
","
","","","426.40000000596046","","","11","14679","5172","&#9730;","elianto","#3366ff99"," "," ","1","+10","[1277]","1","1","","","14679","13","1","1","win","go","0"
"pit-trial","137","1302373","0.0-17.0","battery-v0.2","","""event"",""trial"",""time""
""fullscreenenter"",""1"",""2175""
","
","
","""event"",""trial"",""time""
""fullscreenenter"",""1"",""2175""
","
","","","-1","","","11","14679","5172","&#9752;","elianto","#f73b6a7A"," ","-1","0","-10","[]","0","1","","","14679","14","3","3","lose","go","0"
"pit-trial","138","1307227","0.0-18.0","battery-v0.2","","""event"",""trial"",""time""
""fullscreenenter"",""1"",""2175""
","
","
","""event"",""trial"",""time""
""fullscreenenter"",""1"",""2175""
","
","","","-1","","","11","14679","5172","&#9728;","elianto","#f73b6a7A","-1","-1","1","0","[]","0","1","","","14679","15","0","4","lose","no-go","0"
"pit-trial","139","1311856","0.0-19.0","battery-v0.2","","""event"",""trial"",""time""
""fullscreenenter"",""1"",""2175""
","
","
","""event"",""trial"",""time""
""fullscreenenter"",""1"",""2175""
","
","","","1775.699999988079","","","11","14679","5172","&#9733;","elianto","#3366ff99","-1"," ","0","0","[2625.9000000059605,4392.4000000059605]","2","1","","","14679","16","2","2","win","no-go","0"
"pit-trial","140","1314855","0.0-20.0","battery-v0.2","","""event"",""trial"",""time""
""fullscreenenter"",""1"",""2175""
","
","
","""event"",""trial"",""time""
""fullscreenenter"",""1"",""2175""
","
","","","144","","","11","14679","5172","&#9728;","elianto","#f73b6a7A","-1"," ","0","-10","[995.5999999940395,1465.199999988079,1817.199999988079,2124.2999999821186,2486.4000000059605]","5","1","","","14679","17","0","4","lose","no-go","0"
"pit-trial","141","1318363","0.0-21.0","battery-v0.2","","""event"",""trial"",""time""
""fullscreenenter"",""1"",""2175""
","
","
","""event"",""trial"",""time""
""fullscreenenter"",""1"",""2175""
","
","","","652.4000000059605","","","11","14679","5172","&#9752;","elianto","#f73b6a7A"," "," ","1","0","[1503.4000000059605]","1","1","","","14679","18","3","3","lose","go","0"
"pit-trial","142","1321439","0.0-22.0","battery-v0.2","","""event"",""trial"",""time""
""fullscreenenter"",""1"",""2175""
","
","
","""event"",""trial"",""time""
""fullscreenenter"",""1"",""2175""
","
","","","222.89999997615814","","","11","14679","5172","&#9730;","elianto","#3366ff99"," "," ","1","0","[452,1073.199999988079]","2","1","","","14679","19","1","1","win","go","1"
"pit-trial","143","1324818","0.0-23.0","battery-v0.2","","""event"",""trial"",""time""
""fullscreenenter"",""1"",""2175""
","
","
","""event"",""trial"",""time""
""fullscreenenter"",""1"",""2175""
","
","","","524.6999999880791","","","11","14679","5172","&#9733;","elianto","#3366ff99","-1"," ","0","+10","[354.39999997615814,1375.7999999821186,2503.399999976158,2775.2999999821186,2996.399999976158,3268.5]","6","1","","","14679","20","2","2","win","no-go","1"
"pit-instructions","144","1355513","0.0-24.0","battery-v0.2","","""event"",""trial"",""time""
""fullscreenenter"",""1"",""2175""
","
","
","""event"",""trial"",""time""
""fullscreenenter"",""1"",""2175""
","
","","[{""page_index"":0,""viewing_time"":9997.699999988079},{""page_index"":1,""viewing_time"":20694.09999999404}]","30692.29999998212","","","","","","","","","","","","","","","","","","","","","","","",""
"pit-trial","145","1360377","0.0-25.0","battery-v0.2","","""event"",""trial"",""time""
""fullscreenenter"",""1"",""2175""
","
","
","""event"",""trial"",""time""
""fullscreenenter"",""1"",""2175""
","
","","","-1","","","11","14679","5172","h","elianto","#f73b6a7A"," ","-1","0","-10","[]","0","2","","","14679","21","3","3","lose","go","0"
"pit-trial","146","1365246","0.0-26.0","battery-v0.2","","""event"",""trial"",""time""
""fullscreenenter"",""1"",""2175""
","
","
","""event"",""trial"",""time""
""fullscreenenter"",""1"",""2175""
","
","","","-1","","","11","14679","5172","m","elianto","#f73b6a7A","-1","-1","1","0","[]","0","2","","","14679","22","0","4","lose","no-go","0"
"pit-trial","147","1368569","0.0-27.0","battery-v0.2","","""event"",""trial"",""time""
""fullscreenenter"",""1"",""2175""
","
","
","""event"",""trial"",""time""
""fullscreenenter"",""1"",""2175""
","
","","","459.30000001192093","","","11","14679","5172","r","elianto","#3366ff99"," "," ","1","+10","[1312]","1","2","","","14679","23","1","1","win","go","0"
"pit-trial","148","1373431","0.0-28.0","battery-v0.2","","""event"",""trial"",""time""
""fullscreenenter"",""1"",""2175""
","
","
","""event"",""trial"",""time""
""fullscreenenter"",""1"",""2175""
","
","","","-1","","","11","14679","5172","y","elianto","#f73b6a7A","-1","-1","1","0","[]","0","2","","","14679","24","2","4","lose","no-go","0"
"pit-trial","149","1378286","0.0-29.0","battery-v0.2","","""event"",""trial"",""time""
""fullscreenenter"",""1"",""2175""
","
","
","""event"",""trial"",""time""
""fullscreenenter"",""1"",""2175""
","
","","","-1","","","11","14679","5172","y","elianto","#f73b6a7A","-1","-1","1","0","[]","0","2","","","14679","25","2","4","lose","no-go","0"
"pit-trial","150","1381663","0.0-30.0","battery-v0.2","","""event"",""trial"",""time""
""fullscreenenter"",""1"",""2175""
","
","
","""event"",""trial"",""time""
""fullscreenenter"",""1"",""2175""
","
","","","523.5","","","11","14679","5172","r","elianto","#3366ff99"," "," ","1","+10","[1373.7000000178814,2193.7000000178814,2563.0999999940395,3080.5]","4","2","","","14679","26","1","1","win","go","0"
"pit-trial","151","1386517","0.0-31.0","battery-v0.2","","""event"",""trial"",""time""
""fullscreenenter"",""1"",""2175""
","
","
","""event"",""trial"",""time""
""fullscreenenter"",""1"",""2175""
","
","","","-1","","","11","14679","5172","m","elianto","#f73b6a7A","-1","-1","1","0","[]","0","2","","","14679","27","0","4","lose","no-go","0"
"pit-trial","152","1389678","0.0-32.0","battery-v0.2","","""event"",""trial"",""time""
""fullscreenenter"",""1"",""2175""
","
","
","""event"",""trial"",""time""
""fullscreenenter"",""1"",""2175""
","
","","","306.7000000178814","","","11","14679","5172","h","elianto","#f73b6a7A"," "," ","1","0","[1157.3999999761581]","1","2","","","14679","28","3","3","lose","go","0"
"pit-trial","153","1394533","0.0-33.0","battery-v0.2","","""event"",""trial"",""time""
""fullscreenenter"",""1"",""2175""
","
","
","""event"",""trial"",""time""
""fullscreenenter"",""1"",""2175""
","
","","","-1","","","11","14679","5172","m","elianto","#f73b6a7A","-1","-1","1","0","[]","0","2","","","14679","29","0","4","lose","no-go","0"
"pit-trial","154","1399388","0.0-34.0","battery-v0.2","","""event"",""trial"",""time""
""fullscreenenter"",""1"",""2175""
","
","
","""event"",""trial"",""time""
""fullscreenenter"",""1"",""2175""
","
","","","-1","","","11","14679","5172","y","elianto","#f73b6a7A","-1","-1","1","0","[]","0","2","","","14679","30","2","4","lose","no-go","0"
"pit-trial","155","1402746","0.0-35.0","battery-v0.2","","""event"",""trial"",""time""
""fullscreenenter"",""1"",""2175""
","
","
","""event"",""trial"",""time""
""fullscreenenter"",""1"",""2175""
","
","","","503.19999998807907","","","11","14679","5172","r","elianto","#3366ff99"," "," ","1","0","[1353.4000000059605,2200.5,2511.9000000059605]","3","2","","","14679","31","1","1","win","go","1"
"pit-trial","156","1407602","0.0-36.0","battery-v0.2","","""event"",""trial"",""time""
""fullscreenenter"",""1"",""2175""
","
","
","""event"",""trial"",""time""
""fullscreenenter"",""1"",""2175""
","
","","","-1","","","11","14679","5172","h","elianto","#f73b6a7A"," ","-1","0","-10","[]","0","2","","","14679","32","3","3","lose","go","0"
"pit-trial","157","1410931","0.0-37.0","battery-v0.2","","""event"",""trial"",""time""
""fullscreenenter"",""1"",""2175""
","
","
","""event"",""trial"",""time""
""fullscreenenter"",""1"",""2175""
","
","","","474.60000002384186","","","11","14679","5172","r","elianto","#3366ff99"," "," ","1","+10","[1325.4000000059605]","1","2","","","14679","33","1","1","win","go","0"
"pit-trial","158","1415785","0.0-38.0","battery-v0.2","","""event"",""trial"",""time""
""fullscreenenter"",""1"",""2175""
","
","
","""event"",""trial"",""time""
""fullscreenenter"",""1"",""2175""
","
","","","-1","","","11","14679","5172","y","elianto","#f73b6a7A","-1","-1","1","0","[]","0","2","","","14679","34","2","4","lose","no-go","0"
"pit-trial","159","1420638","0.0-39.0","battery-v0.2","","""event"",""trial"",""time""
""fullscreenenter"",""1"",""2175""
","
","
","""event"",""trial"",""time""
""fullscreenenter"",""1"",""2175""
","
","","","-1","","","11","14679","5172","h","elianto","#f73b6a7A"," ","-1","0","-10","[]","0","2","","","14679","35","3","3","lose","go","0"
"pit-trial","160","1425494","0.0-40.0","battery-v0.2","","""event"",""trial"",""time""
""fullscreenenter"",""1"",""2175""
","
","
","""event"",""trial"",""time""
""fullscreenenter"",""1"",""2175""
","
","","","-1","","","11","14679","5172","m","elianto","#f73b6a7A","-1","-1","1","-10","[]","0","2","","","14679","36","0","4","lose","no-go","1"
"pit-trial","161","1430349","0.0-41.0","battery-v0.2","","""event"",""trial"",""time""
""fullscreenenter"",""1"",""2175""
","
","
","""event"",""trial"",""time""
""fullscreenenter"",""1"",""2175""
","
","","","-1","","","11","14679","5172","h","elianto","#f73b6a7A"," ","-1","0","-10","[]","0","2","","","14679","37","3","3","lose","go","0"
"pit-trial","162","1435203","0.0-42.0","battery-v0.2","","""event"",""trial"",""time""
""fullscreenenter"",""1"",""2175""
","
","
","""event"",""trial"",""time""
""fullscreenenter"",""1"",""2175""
","
","","","-1","","","11","14679","5172","y","elianto","#f73b6a7A","-1","-1","1","0","[]","0","2","","","14679","38","2","4","lose","no-go","0"
"pit-trial","163","1440058","0.0-43.0","battery-v0.2","","""event"",""trial"",""time""
""fullscreenenter"",""1"",""2175""
","
","
","""event"",""trial"",""time""
""fullscreenenter"",""1"",""2175""
","
","","","-1","","","11","14679","5172","m","elianto","#f73b6a7A","-1","-1","1","0","[]","0","2","","","14679","39","0","4","lose","no-go","0"
"pit-trial","164","1443714","0.0-44.0","battery-v0.2","","""event"",""trial"",""time""
""fullscreenenter"",""1"",""2175""
","
","
","""event"",""trial"",""time""
""fullscreenenter"",""1"",""2175""
","
","","","801.0999999940395","","","11","14679","5172","r","elianto","#3366ff99"," "," ","1","0","[1651.800000011921,3553.300000011921]","2","2","","","14679","40","1","1","win","go","1"
"pit-trial","165","1446957","0.0-45.0","battery-v0.2","","""event"",""trial"",""time""
""fullscreenenter"",""1"",""2175""
","
","
","""event"",""trial"",""time""
""fullscreenenter"",""1"",""2175""
","
","","","389.69999998807907","","","11","14679","5172","r","elianto","#3366ff99"," "," ","1","+10","[1239.7000000178814]","1","2","","","14679","41","1","1","win","go","0"
"pit-trial","166","1451811","0.0-46.0","battery-v0.2","","""event"",""trial"",""time""
""fullscreenenter"",""1"",""2175""
","
","
","""event"",""trial"",""time""
""fullscreenenter"",""1"",""2175""
","
","","","-1","","","11","14679","5172","y","elianto","#f73b6a7A","-1","-1","1","0","[3334.300000011921,4083.9000000059605,4332.199999988079]","3","2","","","14679","42","2","4","lose","no-go","0"
"pit-trial","167","1456665","0.0-47.0","battery-v0.2","","""event"",""trial"",""time""
""fullscreenenter"",""1"",""2175""
","
","
","""event"",""trial"",""time""
""fullscreenenter"",""1"",""2175""
","
","","","-1","","","11","14679","5172","m","elianto","#f73b6a7A","-1","-1","1","-10","[]","0","2","","","14679","43","0","4","lose","no-go","1"
"pit-trial","168","1461519","0.0-48.0","battery-v0.2","","""event"",""trial"",""time""
""fullscreenenter"",""1"",""2175""
","
","
","""event"",""trial"",""time""
""fullscreenenter"",""1"",""2175""
","
","","","-1","","","11","14679","5172","h","elianto","#f73b6a7A"," ","-1","0","-10","[]","0","2","","","14679","44","3","3","lose","go","0"
"pit-trial","169","1466373","0.0-49.0","battery-v0.2","","""event"",""trial"",""time""
""fullscreenenter"",""1"",""2175""
","
","
","""event"",""trial"",""time""
""fullscreenenter"",""1"",""2175""
","
","","","-1","","","11","14679","5172","y","elianto","#f73b6a7A","-1","-1","1","0","[]","0","2","","","14679","45","2","4","lose","no-go","0"
"pit-trial","170","1471226","0.0-50.0","battery-v0.2","","""event"",""trial"",""time""
""fullscreenenter"",""1"",""2175""
","
","
","""event"",""trial"",""time""
""fullscreenenter"",""1"",""2175""
","
","","","-1","","","11","14679","5172","h","elianto","#f73b6a7A"," ","-1","0","-10","[]","0","2","","","14679","46","3","3","lose","go","0"
"pit-trial","171","1476080","0.0-51.0","battery-v0.2","","""event"",""trial"",""time""
""fullscreenenter"",""1"",""2175""
","
","
","""event"",""trial"",""time""
""fullscreenenter"",""1"",""2175""
","
","","","-1","","","11","14679","5172","m","elianto","#f73b6a7A","-1","-1","1","0","[]","0","2","","","14679","47","0","4","lose","no-go","0"
"pit-trial","172","1479958","0.0-52.0","battery-v0.2","","""event"",""trial"",""time""
""fullscreenenter"",""1"",""2175""
","
","
","""event"",""trial"",""time""
""fullscreenenter"",""1"",""2175""
","
","","","1023","","","11","14679","5172","z","elianto","#3366ff99","-1"," ","0","0","[1874.5999999940395]","1","2","","","14679","48","4","2","win","no-go","0"
"pit-trial","173","1484157","0.0-53.0","battery-v0.2","","""event"",""trial"",""time""
""fullscreenenter"",""1"",""2175""
","
","
","""event"",""trial"",""time""
""fullscreenenter"",""1"",""2175""
","
","","","1346.5","","","11","14679","5172","z","elianto","#3366ff99","-1"," ","0","+10","[2196.5]","1","2","","","14679","49","4","2","win","no-go","1"
"pit-trial","174","1489011","0.0-54.0","battery-v0.2","","""event"",""trial"",""time""
""fullscreenenter"",""1"",""2175""
","
","
","""event"",""trial"",""time""
""fullscreenenter"",""1"",""2175""
","
","","","-1","","","11","14679","5172","r","elianto","#3366ff99"," ","-1","0","0","[]","0","2","","","14679","50","1","1","win","go","0"
"pit-trial","175","1493865","0.0-55.0","battery-v0.2","","""event"",""trial"",""time""
""fullscreenenter"",""1"",""2175""
","
","
","""event"",""trial"",""time""
""fullscreenenter"",""1"",""2175""
","
","","","-1","","","11","14679","5172","h","elianto","#f73b6a7A"," ","-1","0","0","[]","0","2","","","14679","51","3","3","lose","go","1"
"pit-trial","176","1498720","0.0-56.0","battery-v0.2","","""event"",""trial"",""time""
""fullscreenenter"",""1"",""2175""
","
","
","""event"",""trial"",""time""
""fullscreenenter"",""1"",""2175""
","
","","","-1","","","11","14679","5172","m","elianto","#f73b6a7A","-1","-1","1","0","[]","0","2","","","14679","52","0","4","lose","no-go","0"
"pit-trial","177","1503574","0.0-57.0","battery-v0.2","","""event"",""trial"",""time""
""fullscreenenter"",""1"",""2175""
","
","
","""event"",""trial"",""time""
""fullscreenenter"",""1"",""2175""
","
","","","-1","","","11","14679","5172","r","elianto","#3366ff99"," ","-1","0","0","[]","0","2","","","14679","53","1","1","win","go","0"
"pit-trial","178","1508428","0.0-58.0","battery-v0.2","","""event"",""trial"",""time""
""fullscreenenter"",""1"",""2175""
","
","
","""event"",""trial"",""time""
""fullscreenenter"",""1"",""2175""
","
","","","-1","","","11","14679","5172","y","elianto","#f73b6a7A","-1","-1","1","0","[]","0","2","","","14679","54","2","4","lose","no-go","0"
"pit-trial","179","1513282","0.0-59.0","battery-v0.2","","""event"",""trial"",""time""
""fullscreenenter"",""1"",""2175""
","
","
","""event"",""trial"",""time""
""fullscreenenter"",""1"",""2175""
","
","","","-1","","","11","14679","5172","m","elianto","#f73b6a7A","-1","-1","1","0","[]","0","2","","","14679","55","0","4","lose","no-go","0"
"pit-trial","180","1517029","0.0-60.0","battery-v0.2","","""event"",""trial"",""time""
""fullscreenenter"",""1"",""2175""
","
","
","""event"",""trial"",""time""
""fullscreenenter"",""1"",""2175""
","
","","","894","","","11","14679","5172","z","elianto","#3366ff99","-1"," ","0","0","[1744.0999999940395]","1","2","","","14679","56","4","2","win","no-go","0"
"pit-trial","181","1521884","0.0-61.0","battery-v0.2","","""event"",""trial"",""time""
""fullscreenenter"",""1"",""2175""
","
","
","""event"",""trial"",""time""
""fullscreenenter"",""1"",""2175""
","
","","","-1","","","11","14679","5172","h","elianto","#f73b6a7A"," ","-1","0","0","[]","0","2","","","14679","57","3","3","lose","go","1"
"pit-trial","182","1525215","0.0-62.0","battery-v0.2","","""event"",""trial"",""time""
""fullscreenenter"",""1"",""2175""
","
","
","""event"",""trial"",""time""
""fullscreenenter"",""1"",""2175""
","
","","","475.69999998807907","","","11","14679","5172","r","elianto","#3366ff99"," "," ","1","+10","[1327.4000000059605]","1","2","","","14679","58","1","1","win","go","0"
"pit-trial","183","1528464","0.0-63.0","battery-v0.2","","""event"",""trial"",""time""
""fullscreenenter"",""1"",""2175""
","
","
","""event"",""trial"",""time""
""fullscreenenter"",""1"",""2175""
","
","","","396.39999997615814","","","11","14679","5172","z","elianto","#3366ff99","-1"," ","0","0","[1246.699999988079]","1","2","","","14679","59","4","2","win","no-go","0"
"pit-trial","184","1533318","0.0-64.0","battery-v0.2","","""event"",""trial"",""time""
""fullscreenenter"",""1"",""2175""
","
","
","""event"",""trial"",""time""
""fullscreenenter"",""1"",""2175""
","
","","","-1","","","11","14679","5172","m","elianto","#f73b6a7A","-1","-1","1","0","[3616.100000023842]","1","2","","","14679","60","0","4","lose","no-go","0"
"pit-trial","185","1538173","0.0-65.0","battery-v0.2","","""event"",""trial"",""time""
""fullscreenenter"",""1"",""2175""
","
","
","""event"",""trial"",""time""
""fullscreenenter"",""1"",""2175""
","
","","","-1","","","11","14679","5172","h","elianto","#f73b6a7A"," ","-1","0","-10","[]","0","2","","","14679","61","3","3","lose","go","0"
"pit-trial","186","1543027","0.0-66.0","battery-v0.2","","""event"",""trial"",""time""
""fullscreenenter"",""1"",""2175""
","
","
","""event"",""trial"",""time""
""fullscreenenter"",""1"",""2175""
","
","","","-1","","","11","14679","5172","y","elianto","#f73b6a7A","-1","-1","1","0","[3037]","1","2","","","14679","62","2","4","lose","no-go","0"
"pit-trial","187","1547197","0.0-67.0","battery-v0.2","","""event"",""trial"",""time""
""fullscreenenter"",""1"",""2175""
","
","
","""event"",""trial"",""time""
""fullscreenenter"",""1"",""2175""
","
","","","1315.800000011921","","","11","14679","5172","z","elianto","#3366ff99","-1"," ","0","0","[2166.600000023842,2406.5]","2","2","","","14679","63","4","2","win","no-go","0"
"pit-trial","188","1551802","0.0-68.0","battery-v0.2","","""event"",""trial"",""time""
""fullscreenenter"",""1"",""2175""
","
","
","""event"",""trial"",""time""
""fullscreenenter"",""1"",""2175""
","
","","","1750.3999999761581","","","11","14679","5172","r","elianto","#3366ff99"," "," ","1","+10","[2601.2999999821186,3706.5,4239.9000000059605]","3","2","","","14679","64","1","1","win","go","0"
"pit-trial","189","1555156","0.0-69.0","battery-v0.2","","""event"",""trial"",""time""
""fullscreenenter"",""1"",""2175""
","
","
","""event"",""trial"",""time""
""fullscreenenter"",""1"",""2175""
","
","","","500.69999998807907","","","11","14679","5172","z","elianto","#3366ff99","-1"," ","0","0","[1351.0999999940395,2172.5999999940395]","2","2","","","14679","65","4","2","win","no-go","0"
"pit-trial","190","1560011","0.0-70.0","battery-v0.2","","""event"",""trial"",""time""
""fullscreenenter"",""1"",""2175""
","
","
","""event"",""trial"",""time""
""fullscreenenter"",""1"",""2175""
","
","","","-1","","","11","14679","5172","y","elianto","#f73b6a7A","-1","-1","1","0","[]","0","2","","","14679","66","2","4","lose","no-go","0"
"pit-trial","191","1562883","0.0-71.0","battery-v0.2","","""event"",""trial"",""time""
""fullscreenenter"",""1"",""2175""
","
","
","""event"",""trial"",""time""
""fullscreenenter"",""1"",""2175""
","
","","","13.5","","","11","14679","5172","h","elianto","#f73b6a7A"," "," ","1","0","[573.8999999761581,724.8999999761581,864.2999999821186,998.5,1132.8999999761581]","5","2","","","14679","67","3","3","lose","go","0"
"pit-trial","192","1566592","0.0-72.0","battery-v0.2","","""event"",""trial"",""time""
""fullscreenenter"",""1"",""2175""
","
","
","""event"",""trial"",""time""
""fullscreenenter"",""1"",""2175""
","
","","","855.8000000119209","","","11","14679","5172","r","elianto","#3366ff99"," "," ","1","0","[1706.5]","1","2","","","14679","68","1","1","win","go","1"
"pit-trial","193","1571447","0.0-73.0","battery-v0.2","","""event"",""trial"",""time""
""fullscreenenter"",""1"",""2175""
","
","
","""event"",""trial"",""time""
""fullscreenenter"",""1"",""2175""
","
","","","-1","","","11","14679","5172","h","elianto","#f73b6a7A"," ","-1","0","-10","[]","0","2","","","14679","69","3","3","lose","go","0"
"pit-trial","194","1574882","0.0-74.0","battery-v0.2","","""event"",""trial"",""time""
""fullscreenenter"",""1"",""2175""
","
","
","""event"",""trial"",""time""
""fullscreenenter"",""1"",""2175""
","
","","","581.1999999880791","","","11","14679","5172","z","elianto","#3366ff99","-1"," ","0","0","[1433.2999999821186,2093.7999999821186,3084.5999999940395]","3","2","","","14679","70","4","2","win","no-go","0"
"pit-trial","195","1578308","0.0-75.0","battery-v0.2","","""event"",""trial"",""time""
""fullscreenenter"",""1"",""2175""
","
","
","""event"",""trial"",""time""
""fullscreenenter"",""1"",""2175""
","
","","","572.2000000178814","","","11","14679","5172","r","elianto","#3366ff99"," "," ","1","+10","[87.69999998807907,1422.800000011921]","2","2","","","14679","71","1","1","win","go","0"
"pit-trial","196","1581640","0.0-76.0","battery-v0.2","","""event"",""trial"",""time""
""fullscreenenter"",""1"",""2175""
","
","
","""event"",""trial"",""time""
""fullscreenenter"",""1"",""2175""
","
","","","477.80000001192093","","","11","14679","5172","c","elianto","#3366ff99"," "," ","1","+10","[1328.5999999940395]","1","2","","","14679","72","5","1","win","go","0"
"pit-trial","197","1585054","0.0-77.0","battery-v0.2","","""event"",""trial"",""time""
""fullscreenenter"",""1"",""2175""
","
","
","""event"",""trial"",""time""
""fullscreenenter"",""1"",""2175""
","
","","","560.4000000059605","","","11","14679","5172","h","elianto","#f73b6a7A"," "," ","1","-10","[1410.5999999940395]","1","2","","","14679","73","3","3","lose","go","1"
"pit-trial","198","1588457","0.0-78.0","battery-v0.2","","""event"",""trial"",""time""
""fullscreenenter"",""1"",""2175""
","
","
","""event"",""trial"",""time""
""fullscreenenter"",""1"",""2175""
","
","","","549.8000000119209","","","11","14679","5172","z","elianto","#3366ff99","-1"," ","0","0","[1400.5]","1","2","","","14679","74","4","2","win","no-go","0"
"pit-trial","199","1591723","0.0-79.0","battery-v0.2","","""event"",""trial"",""time""
""fullscreenenter"",""1"",""2175""
","
","
","""event"",""trial"",""time""
""fullscreenenter"",""1"",""2175""
","
","","","410.7000000178814","","","11","14679","5172","c","elianto","#3366ff99"," "," ","1","+10","[1262.4000000059605]","1","2","","","14679","75","5","1","win","go","0"
"pit-trial","200","1595004","0.0-80.0","battery-v0.2","","""event"",""trial"",""time""
""fullscreenenter"",""1"",""2175""
","
","
","""event"",""trial"",""time""
""fullscreenenter"",""1"",""2175""
","
","","","424.69999998807907","","","11","14679","5172","r","elianto","#3366ff99"," "," ","1","+10","[1276.5999999940395]","1","2","","","14679","76","1","1","win","go","0"
"pit-trial","201","1599043","0.0-81.0","battery-v0.2","","""event"",""trial"",""time""
""fullscreenenter"",""1"",""2175""
","
","
","""event"",""trial"",""time""
""fullscreenenter"",""1"",""2175""
","
","","","1185.2000000178814","","","11","14679","5172","h","elianto","#f73b6a7A"," "," ","1","0","[757.6000000238419,2036.1000000238419]","2","2","","","14679","77","3","3","lose","go","0"
"pit-trial","202","1602441","0.0-82.0","battery-v0.2","","""event"",""trial"",""time""
""fullscreenenter"",""1"",""2175""
","
","
","""event"",""trial"",""time""
""fullscreenenter"",""1"",""2175""
","
","","","543.2000000178814","","","11","14679","5172","c","elianto","#3366ff99"," "," ","1","+10","[840,1394.800000011921]","2","2","","","14679","78","5","1","win","go","0"
"pit-trial","203","1605738","0.0-83.0","battery-v0.2","","""event"",""trial"",""time""
""fullscreenenter"",""1"",""2175""
","
","
","""event"",""trial"",""time""
""fullscreenenter"",""1"",""2175""
","
","","","443.59999999403954","","","11","14679","5172","z","elianto","#3366ff99","-1"," ","0","+10","[1293.7999999821186]","1","2","","","14679","79","4","2","win","no-go","1"
"pit-trial","204","1610493","0.0-84.0","battery-v0.2","","""event"",""trial"",""time""
""fullscreenenter"",""1"",""2175""
","
","
","""event"",""trial"",""time""
""fullscreenenter"",""1"",""2175""
","
","","","1900","","","11","14679","5172","b","elianto","#f73b6a7A","-1"," ","0","-10","[227.40000000596046,2750.5999999940395]","2","2","","","14679","80","6","4","lose","no-go","0"
"pit-trial","205","1613988","0.0-85.0","battery-v0.2","","""event"",""trial"",""time""
""fullscreenenter"",""1"",""2175""
","
","
","""event"",""trial"",""time""
""fullscreenenter"",""1"",""2175""
","
","","","642","","","11","14679","5172","c","elianto","#3366ff99"," "," ","1","0","[1492.0999999940395,2441.5999999940395,2776.300000011921,3284.2000000178814]","4","2","","","14679","81","5","1","win","go","1"
"pit-trial","206","1618840","0.0-86.0","battery-v0.2","","""event"",""trial"",""time""
""fullscreenenter"",""1"",""2175""
","
","
","""event"",""trial"",""time""
""fullscreenenter"",""1"",""2175""
","
","","","-1","","","11","14679","5172","t","elianto","#f73b6a7A"," ","-1","0","-10","[131.7000000178814]","1","2","","","14679","82","7","3","lose","go","0"
"pit-trial","207","1621995","0.0-87.0","battery-v0.2","","""event"",""trial"",""time""
""fullscreenenter"",""1"",""2175""
","
","
","""event"",""trial"",""time""
""fullscreenenter"",""1"",""2175""
","
","","","302.60000002384186","","","11","14679","5172","b","elianto","#f73b6a7A","-1"," ","0","-10","[1153]","1","2","","","14679","83","6","4","lose","no-go","0"
"pit-trial","208","1625395","0.0-88.0","battery-v0.2","","""event"",""trial"",""time""
""fullscreenenter"",""1"",""2175""
","
","
","""event"",""trial"",""time""
""fullscreenenter"",""1"",""2175""
","
","","","545.0999999940395","","","11","14679","5172","z","elianto","#3366ff99","-1"," ","0","0","[1395.800000011921,2168.800000011921,2656.0999999940395]","3","2","","","14679","84","4","2","win","no-go","0"
"pit-trial","209","1630250","0.0-89.0","battery-v0.2","","""event"",""trial"",""time""
""fullscreenenter"",""1"",""2175""
","
","
","""event"",""trial"",""time""
""fullscreenenter"",""1"",""2175""
","
","","","-1","","","11","14679","5172","t","elianto","#f73b6a7A"," ","-1","0","0","[50.400000005960464,404.40000000596046]","2","2","","","14679","85","7","3","lose","go","1"
"pit-trial","210","1633304","0.0-90.0","battery-v0.2","","""event"",""trial"",""time""
""fullscreenenter"",""1"",""2175""
","
","
","""event"",""trial"",""time""
""fullscreenenter"",""1"",""2175""
","
","","","199.59999999403954","","","11","14679","5172","c","elianto","#3366ff99"," "," ","1","+10","[243.69999998807907,1050.699999988079]","2","2","","","14679","86","5","1","win","go","0"
"pit-trial","211","1637200","0.0-91.0","battery-v0.2","","""event"",""trial"",""time""
""fullscreenenter"",""1"",""2175""
","
","
","""event"",""trial"",""time""
""fullscreenenter"",""1"",""2175""
","
","","","1040.199999988079","","","11","14679","5172","b","elianto","#f73b6a7A","-1"," ","0","-10","[1892.199999988079]","1","2","","","14679","87","6","4","lose","no-go","0"
"pit-trial","212","1641284","0.0-92.0","battery-v0.2","","""event"",""trial"",""time""
""fullscreenenter"",""1"",""2175""
","
","
","""event"",""trial"",""time""
""fullscreenenter"",""1"",""2175""
","
","","","1230.199999988079","","","11","14679","5172","z","elianto","#3366ff99","-1"," ","0","0","[2080.399999976158,2915.199999988079,3276.399999976158]","3","2","","","14679","88","4","2","win","no-go","0"
"pit-trial","213","1644231","0.0-93.0","battery-v0.2","","""event"",""trial"",""time""
""fullscreenenter"",""1"",""2175""
","
","
","""event"",""trial"",""time""
""fullscreenenter"",""1"",""2175""
","
","","","92.69999998807907","","","11","14679","5172","t","elianto","#f73b6a7A"," "," ","1","-10","[611.9000000059605,943.0999999940395,2205.699999988079]","3","2","","","14679","89","7","3","lose","go","1"
"pit-trial","214","1649085","0.0-94.0","battery-v0.2","","""event"",""trial"",""time""
""fullscreenenter"",""1"",""2175""
","
","
","""event"",""trial"",""time""
""fullscreenenter"",""1"",""2175""
","
","","","-1","","","11","14679","5172","b","elianto","#f73b6a7A","-1","-1","1","0","[]","0","2","","","14679","90","6","4","lose","no-go","0"
"pit-trial","215","1653939","0.0-95.0","battery-v0.2","","""event"",""trial"",""time""
""fullscreenenter"",""1"",""2175""
","
","
","""event"",""trial"",""time""
""fullscreenenter"",""1"",""2175""
","
","","","-1","","","11","14679","5172","c","elianto","#3366ff99"," ","-1","0","0","[2952.7000000178814]","1","2","","","14679","91","5","1","win","go","0"
"pit-trial","216","1658675","0.0-96.0","battery-v0.2","","""event"",""trial"",""time""
""fullscreenenter"",""1"",""2175""
","
","
","""event"",""trial"",""time""
""fullscreenenter"",""1"",""2175""
","
","","","1882.5","","","11","14679","5172","z","elianto","#3366ff99","-1"," ","0","0","[2733.9000000059605,3214.5]","2","2","","","14679","92","4","2","win","no-go","0"
"pit-trial","217","1662732","0.0-97.0","battery-v0.2","","""event"",""trial"",""time""
""fullscreenenter"",""1"",""2175""
","
","
","""event"",""trial"",""time""
""fullscreenenter"",""1"",""2175""
","
","","","1203.5999999940395","","","11","14679","5172","f","elianto","#3366ff99","-1"," ","0","0","[2054]","1","2","","","14679","93","8","2","win","no-go","0"
"pit-trial","218","1666669","0.0-98.0","battery-v0.2","","""event"",""trial"",""time""
""fullscreenenter"",""1"",""2175""
","
","
","""event"",""trial"",""time""
""fullscreenenter"",""1"",""2175""
","
","","","1083.699999988079","","","11","14679","5172","c","elianto","#3366ff99"," "," ","1","+10","[1934.5,2084.9000000059605]","2","2","","","14679","94","5","1","win","go","0"
"pit-trial","219","1670206","0.0-99.0","battery-v0.2","","""event"",""trial"",""time""
""fullscreenenter"",""1"",""2175""
","
","
","""event"",""trial"",""time""
""fullscreenenter"",""1"",""2175""
","
","","","684.7000000178814","","","11","14679","5172","b","elianto","#f73b6a7A","-1"," ","0","-10","[1535]","1","2","","","14679","95","6","4","lose","no-go","0"
"pit-trial","220","1675059","0.0-100.0","battery-v0.2","","""event"",""trial"",""time""
""fullscreenenter"",""1"",""2175""
","
","
","""event"",""trial"",""time""
""fullscreenenter"",""1"",""2175""
","
","","","-1","","","11","14679","5172","t","elianto","#f73b6a7A"," ","-1","0","-10","[]","0","2","","","14679","96","7","3","lose","go","0"
"pit-trial","221","1679913","0.0-101.0","battery-v0.2","","""event"",""trial"",""time""
""fullscreenenter"",""1"",""2175""
","
","
","""event"",""trial"",""time""
""fullscreenenter"",""1"",""2175""
","
","","","-1","","","11","14679","5172","f","elianto","#3366ff99","-1","-1","1","+10","[]","0","2","","","14679","97","8","2","win","no-go","0"
"pit-trial","222","1684767","0.0-102.0","battery-v0.2","","""event"",""trial"",""time""
""fullscreenenter"",""1"",""2175""
","
","
","""event"",""trial"",""time""
""fullscreenenter"",""1"",""2175""
","
","","","-1","","","11","14679","5172","t","elianto","#f73b6a7A"," ","-1","0","-10","[]","0","2","","","14679","98","7","3","lose","go","0"
"pit-trial","223","1689622","0.0-103.0","battery-v0.2","","""event"",""trial"",""time""
""fullscreenenter"",""1"",""2175""
","
","
","""event"",""trial"",""time""
""fullscreenenter"",""1"",""2175""
","
","","","-1","","","11","14679","5172","b","elianto","#f73b6a7A","-1","-1","1","0","[]","0","2","","","14679","99","6","4","lose","no-go","0"
"pit-trial","224","1692961","0.0-104.0","battery-v0.2","","""event"",""trial"",""time""
""fullscreenenter"",""1"",""2175""
","
","
","""event"",""trial"",""time""
""fullscreenenter"",""1"",""2175""
","
","","","484.69999998807907","","","11","14679","5172","c","elianto","#3366ff99"," "," ","1","0","[1335.5]","1","2","","","14679","100","5","1","win","go","1"
"pit-trial","225","1696578","0.0-105.0","battery-v0.2","","""event"",""trial"",""time""
""fullscreenenter"",""1"",""2175""
","
","
","""event"",""trial"",""time""
""fullscreenenter"",""1"",""2175""
","
","","","763.2999999821186","","","11","14679","5172","c","elianto","#3366ff99"," "," ","1","+10","[1613.9000000059605]","1","2","","","14679","101","5","1","win","go","0"
"pit-trial","226","1701433","0.0-106.0","battery-v0.2","","""event"",""trial"",""time""
""fullscreenenter"",""1"",""2175""
","
","
","""event"",""trial"",""time""
""fullscreenenter"",""1"",""2175""
","
","","","-1","","","11","14679","5172","b","elianto","#f73b6a7A","-1","-1","1","0","[]","0","2","","","14679","102","6","4","lose","no-go","0"
"pit-trial","227","1704858","0.0-107.0","battery-v0.2","","""event"",""trial"",""time""
""fullscreenenter"",""1"",""2175""
","
","
","""event"",""trial"",""time""
""fullscreenenter"",""1"",""2175""
","
","","","570.2000000178814","","","11","14679","5172","n","elianto","#3366ff99","-1"," ","0","0","[1421.5]","1","2","","","14679","103","9","2","win","no-go","0"
"pit-trial","228","1708317","0.0-108.0","battery-v0.2","","""event"",""trial"",""time""
""fullscreenenter"",""1"",""2175""
","
","
","""event"",""trial"",""time""
""fullscreenenter"",""1"",""2175""
","
","","","605.4000000059605","","","11","14679","5172","f","elianto","#3366ff99","-1"," ","0","+10","[1456.4000000059605]","1","2","","","14679","104","8","2","win","no-go","1"
"pit-trial","229","1713169","0.0-109.0","battery-v0.2","","""event"",""trial"",""time""
""fullscreenenter"",""1"",""2175""
","
","
","""event"",""trial"",""time""
""fullscreenenter"",""1"",""2175""
","
","","","-1","","","11","14679","5172","b","elianto","#f73b6a7A","-1","-1","1","0","[]","0","2","","","14679","105","6","4","lose","no-go","0"
"pit-trial","230","1716471","0.0-110.0","battery-v0.2","","""event"",""trial"",""time""
""fullscreenenter"",""1"",""2175""
","
","
","""event"",""trial"",""time""
""fullscreenenter"",""1"",""2175""
","
","","","448.2999999821186","","","11","14679","5172","c","elianto","#3366ff99"," "," ","1","+10","[1298.699999988079]","1","2","","","14679","106","5","1","win","go","0"
"pit-trial","231","1720424","0.0-111.0","battery-v0.2","","""event"",""trial"",""time""
""fullscreenenter"",""1"",""2175""
","
","
","""event"",""trial"",""time""
""fullscreenenter"",""1"",""2175""
","
","","","1100.9000000059605","","","11","14679","5172","f","elianto","#3366ff99","-1"," ","0","0","[1951.5]","1","2","","","14679","107","8","2","win","no-go","0"
"pit-trial","232","1723935","0.0-112.0","battery-v0.2","","""event"",""trial"",""time""
""fullscreenenter"",""1"",""2175""
","
","
","""event"",""trial"",""time""
""fullscreenenter"",""1"",""2175""
","
","","","657.3999999761581","","","11","14679","5172","n","elianto","#3366ff99","-1"," ","0","+10","[1507.7999999821186]","1","2","","","14679","108","9","2","win","no-go","1"
"pit-trial","233","1727239","0.0-113.0","battery-v0.2","","""event"",""trial"",""time""
""fullscreenenter"",""1"",""2175""
","
","
","""event"",""trial"",""time""
""fullscreenenter"",""1"",""2175""
","
","","","449.2000000178814","","","11","14679","5172","f","elianto","#3366ff99","-1"," ","0","0","[1300.800000011921]","1","2","","","14679","109","8","2","win","no-go","0"
"pit-trial","234","1730716","0.0-114.0","battery-v0.2","","""event"",""trial"",""time""
""fullscreenenter"",""1"",""2175""
","
","
","""event"",""trial"",""time""
""fullscreenenter"",""1"",""2175""
","
","","","622","","","11","14679","5172","n","elianto","#3366ff99","-1"," ","0","0","[1473]","1","2","","","14679","110","9","2","win","no-go","0"
"pit-trial","235","1734132","0.0-115.0","battery-v0.2","","""event"",""trial"",""time""
""fullscreenenter"",""1"",""2175""
","
","
","""event"",""trial"",""time""
""fullscreenenter"",""1"",""2175""
","
","","","562.5999999940395","","","11","14679","5172","c","elianto","#3366ff99"," "," ","1","+10","[1413]","1","2","","","14679","111","5","1","win","go","0"
"pit-trial","236","1738986","0.0-116.0","battery-v0.2","","""event"",""trial"",""time""
""fullscreenenter"",""1"",""2175""
","
","
","""event"",""trial"",""time""
""fullscreenenter"",""1"",""2175""
","
","","","-1","","","11","14679","5172","b","elianto","#f73b6a7A","-1","-1","1","0","[]","0","2","","","14679","112","6","4","lose","no-go","0"
"pit-trial","237","1742154","0.0-117.0","battery-v0.2","","""event"",""trial"",""time""
""fullscreenenter"",""1"",""2175""
","
","
","""event"",""trial"",""time""
""fullscreenenter"",""1"",""2175""
","
","","","314.90000000596046","","","11","14679","5172","n","elianto","#3366ff99","-1"," ","0","0","[1165]","1","2","","","14679","113","9","2","win","no-go","0"
"pit-trial","238","1745452","0.0-118.0","battery-v0.2","","""event"",""trial"",""time""
""fullscreenenter"",""1"",""2175""
","
","
","""event"",""trial"",""time""
""fullscreenenter"",""1"",""2175""
","
","","","442.09999999403954","","","11","14679","5172","c","elianto","#3366ff99"," "," ","1","+10","[1293.699999988079]","1","2","","","14679","114","5","1","win","go","0"
"pit-trial","239","1748732","0.0-119.0","battery-v0.2","","""event"",""trial"",""time""
""fullscreenenter"",""1"",""2175""
","
","
","""event"",""trial"",""time""
""fullscreenenter"",""1"",""2175""
","
","","","426.90000000596046","","","11","14679","5172","f","elianto","#3366ff99","-1"," ","0","0","[1277.0999999940395]","1","2","","","14679","115","8","2","win","no-go","0"
"pit-trial","240","1753588","0.0-120.0","battery-v0.2","","""event"",""trial"",""time""
""fullscreenenter"",""1"",""2175""
","
","
","""event"",""trial"",""time""
""fullscreenenter"",""1"",""2175""
","
","","","-1","","","11","14679","5172","t","elianto","#f73b6a7A"," ","-1","0","-10","[]","0","2","","","14679","116","7","3","lose","go","0"
"pit-trial","241","1758442","0.0-121.0","battery-v0.2","","""event"",""trial"",""time""
""fullscreenenter"",""1"",""2175""
","
","
","""event"",""trial"",""time""
""fullscreenenter"",""1"",""2175""
","
","","","-1","","","11","14679","5172","b","elianto","#f73b6a7A","-1","-1","1","0","[]","0","2","","","14679","117","6","4","lose","no-go","0"
"pit-trial","242","1761705","0.0-122.0","battery-v0.2","","""event"",""trial"",""time""
""fullscreenenter"",""1"",""2175""
","
","
","""event"",""trial"",""time""
""fullscreenenter"",""1"",""2175""
","
","","","408.7000000178814","","","11","14679","5172","c","elianto","#3366ff99"," "," ","1","+10","[1259.2000000178814]","1","2","","","14679","118","5","1","win","go","0"
"pit-trial","243","1765624","0.0-123.0","battery-v0.2","","""event"",""trial"",""time""
""fullscreenenter"",""1"",""2175""
","
","
","""event"",""trial"",""time""
""fullscreenenter"",""1"",""2175""
","
","","","1065.5999999940395","","","11","14679","5172","n","elianto","#3366ff99","-1"," ","0","0","[1916.0999999940395]","1","2","","","14679","119","9","2","win","no-go","0"
"pit-trial","244","1768934","0.0-124.0","battery-v0.2","","""event"",""trial"",""time""
""fullscreenenter"",""1"",""2175""
","
","
","""event"",""trial"",""time""
""fullscreenenter"",""1"",""2175""
","
","","","456.90000000596046","","","11","14679","5172","f","elianto","#3366ff99","-1"," ","0","0","[1307.5]","1","2","","","14679","120","8","2","win","no-go","0"
"pit-trial","245","1773789","0.0-125.0","battery-v0.2","","""event"",""trial"",""time""
""fullscreenenter"",""1"",""2175""
","
","
","""event"",""trial"",""time""
""fullscreenenter"",""1"",""2175""
","
","","","-1","","","11","14679","5172","n","elianto","#3366ff99","-1","-1","1","+10","[]","0","2","","","14679","121","9","2","win","no-go","0"
"pit-trial","246","1778645","0.0-126.0","battery-v0.2","","""event"",""trial"",""time""
""fullscreenenter"",""1"",""2175""
","
","
","""event"",""trial"",""time""
""fullscreenenter"",""1"",""2175""
","
","","","-1","","","11","14679","5172","c","elianto","#3366ff99"," ","-1","0","0","[]","0","2","","","14679","122","5","1","win","go","0"
"pit-trial","247","1781718","0.0-127.0","battery-v0.2","","""event"",""trial"",""time""
""fullscreenenter"",""1"",""2175""
","
","
","""event"",""trial"",""time""
""fullscreenenter"",""1"",""2175""
","
","","","218.59999999403954","","","11","14679","5172","t","elianto","#f73b6a7A"," "," ","1","0","[1069.5999999940395]","1","2","","","14679","123","7","3","lose","go","0"
"pit-trial","248","1785052","0.0-128.0","battery-v0.2","","""event"",""trial"",""time""
""fullscreenenter"",""1"",""2175""
","
","
","""event"",""trial"",""time""
""fullscreenenter"",""1"",""2175""
","
","","","478.89999997615814","","","11","14679","5172","f","elianto","#3366ff99","-1"," ","0","0","[1330.199999988079]","1","2","","","14679","124","8","2","win","no-go","0"
"pit-trial","249","1789906","0.0-129.0","battery-v0.2","","""event"",""trial"",""time""
""fullscreenenter"",""1"",""2175""
","
","
","""event"",""trial"",""time""
""fullscreenenter"",""1"",""2175""
","
","","","-1","","","11","14679","5172","t","elianto","#f73b6a7A"," ","-1","0","-10","[]","0","2","","","14679","125","7","3","lose","go","0"
"pit-trial","250","1794759","0.0-130.0","battery-v0.2","","""event"",""trial"",""time""
""fullscreenenter"",""1"",""2175""
","
","
","""event"",""trial"",""time""
""fullscreenenter"",""1"",""2175""
","
","","","-1","","","11","14679","5172","b","elianto","#f73b6a7A","-1","-1","1","0","[]","0","2","","","14679","126","6","4","lose","no-go","0"
"pit-trial","251","1798286","0.0-131.0","battery-v0.2","","""event"",""trial"",""time""
""fullscreenenter"",""1"",""2175""
","
","
","""event"",""trial"",""time""
""fullscreenenter"",""1"",""2175""
","
","","","672.6999999880791","","","11","14679","5172","f","elianto","#3366ff99","-1"," ","0","+10","[1523.2999999821186,2792.0999999940395,3306]","3","2","","","14679","127","8","2","win","no-go","1"
"pit-trial","252","1801773","0.0-132.0","battery-v0.2","","""event"",""trial"",""time""
""fullscreenenter"",""1"",""2175""
","
","
","""event"",""trial"",""time""
""fullscreenenter"",""1"",""2175""
","
","","","630.4000000059605","","","11","14679","5172","n","elianto","#3366ff99","-1"," ","0","0","[146.2999999821186,1482.0999999940395,2210.0999999940395,2726.5,3257.899999976158]","5","2","","","14679","128","9","2","win","no-go","0"
"pit-trial","253","1805117","0.0-133.0","battery-v0.2","","""event"",""trial"",""time""
""fullscreenenter"",""1"",""2175""
","
","
","""event"",""trial"",""time""
""fullscreenenter"",""1"",""2175""
","
","","","489.90000000596046","","","11","14679","5172","n","elianto","#3366ff99","-1"," ","0","0","[210.2999999821186,1340.199999988079]","2","2","","","14679","129","9","2","win","no-go","0"
"pit-trial","254","1809971","0.0-134.0","battery-v0.2","","""event"",""trial"",""time""
""fullscreenenter"",""1"",""2175""
","
","
","""event"",""trial"",""time""
""fullscreenenter"",""1"",""2175""
","
","","","-1","","","11","14679","5172","b","elianto","#f73b6a7A","-1","-1","1","0","[]","0","2","","","14679","130","6","4","lose","no-go","0"
"pit-trial","255","1813220","0.0-135.0","battery-v0.2","","""event"",""trial"",""time""
""fullscreenenter"",""1"",""2175""
","
","
","""event"",""trial"",""time""
""fullscreenenter"",""1"",""2175""
","
","","","394.7999999821186","","","11","14679","5172","f","elianto","#3366ff99","-1"," ","0","0","[1245.2999999821186]","1","2","","","14679","131","8","2","win","no-go","0"
"pit-trial","256","1818073","0.0-136.0","battery-v0.2","","""event"",""trial"",""time""
""fullscreenenter"",""1"",""2175""
","
","
","""event"",""trial"",""time""
""fullscreenenter"",""1"",""2175""
","
","","","-1","","","11","14679","5172","t","elianto","#f73b6a7A"," ","-1","0","-10","[]","0","2","","","14679","132","7","3","lose","go","0"
"pit-trial","257","1821254","0.0-137.0","battery-v0.2","","""event"",""trial"",""time""
""fullscreenenter"",""1"",""2175""
","
","
","""event"",""trial"",""time""
""fullscreenenter"",""1"",""2175""
","
","","","327.19999998807907","","","11","14679","5172","t","elianto","#f73b6a7A"," "," ","1","0","[1178.4000000059605]","1","2","","","14679","133","7","3","lose","go","0"
"pit-trial","258","1825195","0.0-138.0","battery-v0.2","","""event"",""trial"",""time""
""fullscreenenter"",""1"",""2175""
","
","
","""event"",""trial"",""time""
""fullscreenenter"",""1"",""2175""
","
","","","1088.1000000238419","","","11","14679","5172","n","elianto","#3366ff99","-1"," ","0","0","[1938.2000000178814,3078.7000000178814,3644.5]","3","2","","","14679","134","9","2","win","no-go","0"
"pit-trial","259","1829014","0.0-139.0","battery-v0.2","","""event"",""trial"",""time""
""fullscreenenter"",""1"",""2175""
","
","
","""event"",""trial"",""time""
""fullscreenenter"",""1"",""2175""
","
","","","965","","","11","14679","5172","f","elianto","#3366ff99","-1"," ","0","+10","[1815.300000011921]","1","2","","","14679","135","8","2","win","no-go","1"
"pit-trial","260","1833867","0.0-140.0","battery-v0.2","","""event"",""trial"",""time""
""fullscreenenter"",""1"",""2175""
","
","
","""event"",""trial"",""time""
""fullscreenenter"",""1"",""2175""
","
","","","-1","","","11","14679","5172","b","elianto","#f73b6a7A","-1","-1","1","0","[]","0","2","","","14679","136","6","4","lose","no-go","0"
"pit-trial","261","1838721","0.0-141.0","battery-v0.2","","""event"",""trial"",""time""
""fullscreenenter"",""1"",""2175""
","
","
","""event"",""trial"",""time""
""fullscreenenter"",""1"",""2175""
","
