"trial_type","trial_index","time_elapsed","internal_node_id","task_version","subject_id","interactions","blur_events","focus_events","fullscreenenter_events","fullscreenexit_events","success","view_history","rt","responses","num_errors","age","subject","participantId","rune","rune_set","hex","correct","choice","accuracy","outcome","keys","total_keys","block","practice","value","sub","trial","stimulus","robot","valence","action","sham"
"pavlovia","0","23","0.0-0.0","battery-v0.2","","""event"",""trial"",""time""
""fullscreenenter"",""1"",""6409""
","
","
","""event"",""trial"",""time""
""fullscreenenter"",""1"",""6409""
","
","","","","","","","","","","","","","","","","","","","","","","","","","","",""
"fullscreen","1","7395","0.0-1.0","battery-v0.2","","""event"",""trial"",""time""
""fullscreenenter"",""1"",""6409""
","
","
","""event"",""trial"",""time""
""fullscreenenter"",""1"",""6409""
","
","true","","","","","","","","","","","","","","","","","","","","","","","","","",""
"pit-instructions","2","12462","0.0-2.0-0.0","battery-v0.2","","""event"",""trial"",""time""
""fullscreenenter"",""1"",""6409""
","
","
","""event"",""trial"",""time""
""fullscreenenter"",""1"",""6409""
","
","","[{""page_index"":0,""viewing_time"":5059.099999997765}]","5059.699999999255","","","","","","","","","","","","","","","","","","","","","","","",""
"pit-comprehension","3","16941","0.0-2.0-1.0-0.0","battery-v0.2","","""event"",""trial"",""time""
""fullscreenenter"",""1"",""6409""
","
","
","""event"",""trial"",""time""
""fullscreenenter"",""1"",""6409""
","
","","","4472.099999997765","[""shark""]","0","18","10005","4687","","","","","","","","","","","","","","","","","","",""
"pit-instructions","4","18512","0.0-2.0-1.0-1.0","battery-v0.2","","""event"",""trial"",""time""
""fullscreenenter"",""1"",""6409""
","
","
","""event"",""trial"",""time""
""fullscreenenter"",""1"",""6409""
","
","","[{""page_index"":0,""viewing_time"":1560.199999999255}]","1560.5999999977648","","","","","","","","","","","","","","","","","","","","","","","",""
"pit-comprehension","5","21229","0.0-2.0-2.0-0.0","battery-v0.2","","""event"",""trial"",""time""
""fullscreenenter"",""1"",""6409""
","
","
","""event"",""trial"",""time""
""fullscreenenter"",""1"",""6409""
","
","","","2711.300000000745","[""tiger""]","0","18","10005","4687","","","","","","","","","","","","","","","","","","",""
"pit-instructions","6","22514","0.0-2.0-2.0-1.0","battery-v0.2","","""event"",""trial"",""time""
""fullscreenenter"",""1"",""6409""
","
","
","""event"",""trial"",""time""
""fullscreenenter"",""1"",""6409""
","
","","[{""page_index"":0,""viewing_time"":1280.5}]","1281.1000000014901","","","","","","","","","","","","","","","","","","","","","","","",""
"pit-instructions","7","123065","0.0-2.0-3.0","battery-v0.2","","""event"",""trial"",""time""
""fullscreenenter"",""1"",""6409""
","
","
","""event"",""trial"",""time""
""fullscreenenter"",""1"",""6409""
","
","","[{""page_index"":0,""viewing_time"":10073.699999999255},{""page_index"":1,""viewing_time"":6779.800000000745},{""page_index"":2,""viewing_time"":6723.800000000745},{""page_index"":3,""viewing_time"":6371.800000000745},{""page_index"":4,""viewing_time"":5601.79999999702},{""page_index"":5,""viewing_time"":5398.900000002235},{""page_index"":6,""viewing_time"":7184.5},{""page_index"":7,""viewing_time"":6769.699999999255},{""page_index"":8,""viewing_time"":6727.60000000149},{""page_index"":9,""viewing_time"":9357.199999999255},{""page_index"":10,""viewing_time"":8483.699999999255},{""page_index"":11,""viewing_time"":7865.199999999255},{""page_index"":12,""viewing_time"":7571.60000000149},{""page_index"":13,""viewing_time"":5634}]","100544.19999999925","","","","","","","","","","","","","","","","","","","","","","","",""
"pit-trial","8","127007","0.0-2.0-4.0-0.0","battery-v0.2","","""event"",""trial"",""time""
""fullscreenenter"",""1"",""6409""
","
","
","""event"",""trial"",""time""
""fullscreenenter"",""1"",""6409""
","
","","","1082.7000000029802","","","18","10005","4687","&#9784;","elianto","#FFFFF080"," "," ","1","&#10004","[1934.5]","1","0","0","","","","","","","",""
"pit-trial","9","130816","0.0-2.0-4.1-0.1","battery-v0.2","","""event"",""trial"",""time""
""fullscreenenter"",""1"",""6409""
","
","
","""event"",""trial"",""time""
""fullscreenenter"",""1"",""6409""
","
","","","943.3000000007451","","","18","10005","4687","&#9784;","elianto","#FFFFF080"," "," ","1","&#10004","[1798.7999999970198]","1","0","0","","","","","","","",""
"pit-trial","10","134230","0.0-2.0-4.2-0.2","battery-v0.2","","""event"",""trial"",""time""
""fullscreenenter"",""1"",""6409""
","
","
","""event"",""trial"",""time""
""fullscreenenter"",""1"",""6409""
","
","","","543.3000000007451","","","18","10005","4687","&#9784;","elianto","#FFFFF080"," "," ","1","&#10004","[1404]","1","0","0","","","","","","","",""
"pit-trial","11","137759","0.0-2.0-4.3-0.3","battery-v0.2","","""event"",""trial"",""time""
""fullscreenenter"",""1"",""6409""
","
","
","""event"",""trial"",""time""
""fullscreenenter"",""1"",""6409""
","
","","","667.6000000014901","","","18","10005","4687","&#9784;","elianto","#FFFFF080"," "," ","1","&#10004","[1518.8999999985099]","1","0","0","","","","","","","",""
"pit-trial","12","141352","0.0-2.0-4.4-0.4","battery-v0.2","","""event"",""trial"",""time""
""fullscreenenter"",""1"",""6409""
","
","
","""event"",""trial"",""time""
""fullscreenenter"",""1"",""6409""
","
","","","729.8000000007451","","","18","10005","4687","&#9784;","elianto","#FFFFF080"," "," ","1","&#10004","[1582.800000000745]","1","0","0","","","","","","","",""
"pit-instructions","13","162924","0.0-2.0-5.0","battery-v0.2","","""event"",""trial"",""time""
""fullscreenenter"",""1"",""6409""
","
","
","""event"",""trial"",""time""
""fullscreenenter"",""1"",""6409""
","
","","[{""page_index"":0,""viewing_time"":5301},{""page_index"":1,""viewing_time"":5752.89999999851},{""page_index"":2,""viewing_time"":4726.60000000149},{""page_index"":3,""viewing_time"":5784.89999999851}]","21566","","","","","","","","","","","","","","","","","","","","","","","",""
"pit-trial","14","167795","0.0-2.0-6.0-0.0","battery-v0.2","","""event"",""trial"",""time""
""fullscreenenter"",""1"",""6409""
","
","
","""event"",""trial"",""time""
""fullscreenenter"",""1"",""6409""
","
","","","-1","","","18","10005","4687","&#9854;","elianto","#FFFFF080","-1","-1","1","&#10004","[]","0","0","1","","","","","","","",""
"pit-trial","15","172665","0.0-2.0-6.1-0.1","battery-v0.2","","""event"",""trial"",""time""
""fullscreenenter"",""1"",""6409""
","
","
","""event"",""trial"",""time""
""fullscreenenter"",""1"",""6409""
","
","","","-1","","","18","10005","4687","&#9854;","elianto","#FFFFF080","-1","-1","1","&#10004","[]","0","0","1","","","","","","","",""
"pit-trial","16","177532","0.0-2.0-6.2-0.2","battery-v0.2","","""event"",""trial"",""time""
""fullscreenenter"",""1"",""6409""
","
","
","""event"",""trial"",""time""
""fullscreenenter"",""1"",""6409""
","
","","","-1","","","18","10005","4687","&#9854;","elianto","#FFFFF080","-1","-1","1","&#10004","[]","0","0","1","","","","","","","",""
"pit-trial","17","182400","0.0-2.0-6.3-0.3","battery-v0.2","","""event"",""trial"",""time""
""fullscreenenter"",""1"",""6409""
","
","
","""event"",""trial"",""time""
""fullscreenenter"",""1"",""6409""
","
","","","-1","","","18","10005","4687","&#9854;","elianto","#FFFFF080","-1","-1","1","&#10004","[]","0","0","1","","","","","","","",""
"pit-trial","18","187265","0.0-2.0-6.4-0.4","battery-v0.2","","""event"",""trial"",""time""
""fullscreenenter"",""1"",""6409""
","
","
","""event"",""trial"",""time""
""fullscreenenter"",""1"",""6409""
","
","","","-1","","","18","10005","4687","&#9854;","elianto","#FFFFF080","-1","-1","1","&#10004","[]","0","0","1","","","","","","","",""
"pit-instructions","19","325653","0.0-2.0-7.0","battery-v0.2","","""event"",""trial"",""time""
""fullscreenenter"",""1"",""6409""
","
","
","""event"",""trial"",""time""
""fullscreenenter"",""1"",""6409""
","
","","[{""page_index"":0,""viewing_time"":8212.29999999702},{""page_index"":1,""viewing_time"":9973.5},{""page_index"":2,""viewing_time"":6784.900000002235},{""page_index"":3,""viewing_time"":7501.89999999851},{""page_index"":4,""viewing_time"":7073},{""page_index"":5,""viewing_time"":8414.699999999255},{""page_index"":6,""viewing_time"":7690.800000000745},{""page_index"":7,""viewing_time"":7985.5},{""page_index"":8,""viewing_time"":7902},{""page_index"":9,""viewing_time"":6956.10000000149},{""page_index"":10,""viewing_time"":8053.5},{""page_index"":11,""viewing_time"":6065.699999999255},{""page_index"":12,""viewing_time"":9354.5},{""page_index"":13,""viewing_time"":7201.800000000745},{""page_index"":14,""viewing_time"":7586.300000000745},{""page_index"":15,""viewing_time"":7052.5},{""page_index"":16,""viewing_time"":7636.099999997765},{""page_index"":17,""viewing_time"":6933.900000002235}]","138379.5","","","","","","","","","","","","","","","","","","","","","","","",""
"pit-trial","20","330518","0.0-2.0-8.0-0.0","battery-v0.2","","""event"",""trial"",""time""
""fullscreenenter"",""1"",""6409""
","
","
","""event"",""trial"",""time""
""fullscreenenter"",""1"",""6409""
","
","","","-1","","","18","10005","4687","&#9776;","elianto","#3366ff99"," ","-1","0","0","[2936.39999999851]","1","0","1","","","","","","","",""
"pit-trial","21","334133","0.0-2.0-8.0-1.0","battery-v0.2","","""event"",""trial"",""time""
""fullscreenenter"",""1"",""6409""
","
","
","""event"",""trial"",""time""
""fullscreenenter"",""1"",""6409""
","
","","","752.5999999977648","","","18","10005","4687","&#9776;","elianto","#3366ff99"," "," ","1","+10","[1603.3999999985099]","1","0","1","","","","","","","",""
"pit-trial","22","337703","0.0-2.0-8.0-2.0","battery-v0.2","","""event"",""trial"",""time""
""fullscreenenter"",""1"",""6409""
","
","
","""event"",""trial"",""time""
""fullscreenenter"",""1"",""6409""
","
","","","708.9000000022352","","","18","10005","4687","&#9776;","elianto","#3366ff99"," "," ","1","+10","[1561.5]","1","0","1","","","","","","","",""
"pit-trial","23","341256","0.0-2.0-8.0-3.0","battery-v0.2","","""event"",""trial"",""time""
""fullscreenenter"",""1"",""6409""
","
","
","""event"",""trial"",""time""
""fullscreenenter"",""1"",""6409""
","
","","","691","","","18","10005","4687","&#9776;","elianto","#3366ff99"," "," ","1","0","[1543.800000000745]","1","0","1","","","","","","","",""
"pit-trial","24","344872","0.0-2.0-8.0-4.0","battery-v0.2","","""event"",""trial"",""time""
""fullscreenenter"",""1"",""6409""
","
","
","""event"",""trial"",""time""
""fullscreenenter"",""1"",""6409""
","
","","","753.8999999985099","","","18","10005","4687","&#9776;","elianto","#3366ff99"," "," ","1","+10","[1604.1000000014901]","1","0","1","","","","","","","",""
"pit-trial","25","348286","0.0-2.0-8.1-0.1","battery-v0.2","","""event"",""trial"",""time""
""fullscreenenter"",""1"",""6409""
","
","
","""event"",""trial"",""time""
""fullscreenenter"",""1"",""6409""
","
","","","547.1999999992549","","","18","10005","4687","&#9776;","elianto","#3366ff99"," "," ","1","+10","[1406.1000000014901]","1","0","1","","","","","","","",""
"pit-trial","26","351782","0.0-2.0-8.1-1.1","battery-v0.2","","""event"",""trial"",""time""
""fullscreenenter"",""1"",""6409""
","
","
","""event"",""trial"",""time""
""fullscreenenter"",""1"",""6409""
","
","","","639.6000000014901","","","18","10005","4687","&#9776;","elianto","#3366ff99"," "," ","1","+10","[1491.6000000014901]","1","0","1","","","","","","","",""
"pit-trial","27","355538","0.0-2.0-8.1-2.1","battery-v0.2","","""event"",""trial"",""time""
""fullscreenenter"",""1"",""6409""
","
","
","""event"",""trial"",""time""
""fullscreenenter"",""1"",""6409""
","
","","","886.1999999992549","","","18","10005","4687","&#9776;","elianto","#3366ff99"," "," ","1","+10","[1740.800000000745]","1","0","1","","","","","","","",""
"pit-trial","28","359450","0.0-2.0-8.1-3.1","battery-v0.2","","""event"",""trial"",""time""
""fullscreenenter"",""1"",""6409""
","
","
","""event"",""trial"",""time""
""fullscreenenter"",""1"",""6409""
","
","","","1052.2999999970198","","","18","10005","4687","&#9776;","elianto","#3366ff99"," "," ","1","0","[1903.3999999985099]","1","0","1","","","","","","","",""
"pit-trial","29","362850","0.0-2.0-8.1-4.1","battery-v0.2","","""event"",""trial"",""time""
""fullscreenenter"",""1"",""6409""
","
","
","""event"",""trial"",""time""
""fullscreenenter"",""1"",""6409""
","
","","","538.3000000007451","","","18","10005","4687","&#9776;","elianto","#3366ff99"," "," ","1","+10","[1388.5]","1","0","1","","","","","","","",""
"pit-trial","30","366250","0.0-2.0-8.2-0.2","battery-v0.2","","""event"",""trial"",""time""
""fullscreenenter"",""1"",""6409""
","
","
","""event"",""trial"",""time""
""fullscreenenter"",""1"",""6409""
","
","","","536.5","","","18","10005","4687","&#9776;","elianto","#3366ff99"," "," ","1","+10","[1388.8999999985099]","1","0","1","","","","","","","",""
"pit-trial","31","369577","0.0-2.0-8.2-1.2","battery-v0.2","","""event"",""trial"",""time""
""fullscreenenter"",""1"",""6409""
","
","
","""event"",""trial"",""time""
""fullscreenenter"",""1"",""6409""
","
","","","460.69999999925494","","","18","10005","4687","&#9776;","elianto","#3366ff99"," "," ","1","+10","[1312.0999999977648]","1","0","1","","","","","","","",""
"pit-trial","32","372961","0.0-2.0-8.2-2.2","battery-v0.2","","""event"",""trial"",""time""
""fullscreenenter"",""1"",""6409""
","
","
","""event"",""trial"",""time""
""fullscreenenter"",""1"",""6409""
","
","","","522.8000000007451","","","18","10005","4687","&#9776;","elianto","#3366ff99"," "," ","1","+10","[1374.1000000014901]","1","0","1","","","","","","","",""
"pit-trial","33","376334","0.0-2.0-8.2-3.2","battery-v0.2","","""event"",""trial"",""time""
""fullscreenenter"",""1"",""6409""
","
","
","""event"",""trial"",""time""
""fullscreenenter"",""1"",""6409""
","
","","","501.0999999977648","","","18","10005","4687","&#9776;","elianto","#3366ff99"," "," ","1","0","[1361.800000000745]","1","0","1","","","","","","","",""
"pit-trial","34","379624","0.0-2.0-8.2-4.2","battery-v0.2","","""event"",""trial"",""time""
""fullscreenenter"",""1"",""6409""
","
","
","""event"",""trial"",""time""
""fullscreenenter"",""1"",""6409""
","
","","","425.70000000298023","","","18","10005","4687","&#9776;","elianto","#3366ff99"," "," ","1","+10","[1279]","1","0","1","","","","","","","",""
"call-function","35","379626","0.0-2.0-9.0","battery-v0.2","","""event"",""trial"",""time""
""fullscreenenter"",""1"",""6409""
","
","
","""event"",""trial"",""time""
""fullscreenenter"",""1"",""6409""
","
","","","","","","","","","","","","","","","","","","","","","","","","","","",""
"pit-instructions","36","420121","0.0-2.0-10.0","battery-v0.2","","""event"",""trial"",""time""
""fullscreenenter"",""1"",""6409""
","
","
","""event"",""trial"",""time""
""fullscreenenter"",""1"",""6409""
","
","","[{""page_index"":0,""viewing_time"":5757.29999999702},{""page_index"":1,""viewing_time"":6664.10000000149},{""page_index"":2,""viewing_time"":10328.300000000745},{""page_index"":3,""viewing_time"":10333},{""page_index"":4,""viewing_time"":7409.89999999851}]","40493","","","","","","","","","","","","","","","","","","","","","","","",""
"pit-trial","37","423947","0.0-2.0-11.0-0.0","battery-v0.2","","""event"",""trial"",""time""
""fullscreenenter"",""1"",""6409""
","
","
","""event"",""trial"",""time""
""fullscreenenter"",""1"",""6409""
","
","","","961.8000000007451","","","18","10005","4687","&#9761;","elianto","#3366ff99","-1"," ","0","0","[1812.699999999255]","1","0","2","","","","","","","",""
"pit-trial","38","427308","0.0-2.0-11.0-1.0","battery-v0.2","","""event"",""trial"",""time""
""fullscreenenter"",""1"",""6409""
","
","
","""event"",""trial"",""time""
""fullscreenenter"",""1"",""6409""
","
","","","495.1000000014901","","","18","10005","4687","&#9761;","elianto","#3366ff99","-1"," ","0","0","[1349.5]","1","0","2","","","","","","","",""
"pit-trial","39","432178","0.0-2.0-11.0-2.0","battery-v0.2","","""event"",""trial"",""time""
""fullscreenenter"",""1"",""6409""
","
","
","""event"",""trial"",""time""
""fullscreenenter"",""1"",""6409""
","
","","","-1","","","18","10005","4687","&#9761;","elianto","#3366ff99","-1","-1","1","+10","[]","0","0","2","","","","","","","",""
"pit-trial","40","437049","0.0-2.0-11.0-3.0","battery-v0.2","","""event"",""trial"",""time""
""fullscreenenter"",""1"",""6409""
","
","
","""event"",""trial"",""time""
""fullscreenenter"",""1"",""6409""
","
","","","-1","","","18","10005","4687","&#9761;","elianto","#3366ff99","-1","-1","1","0","[]","0","0","2","","","","","","","",""
"pit-trial","41","441914","0.0-2.0-11.0-4.0","battery-v0.2","","""event"",""trial"",""time""
""fullscreenenter"",""1"",""6409""
","
","
","""event"",""trial"",""time""
""fullscreenenter"",""1"",""6409""
","
","","","-1","","","18","10005","4687","&#9761;","elianto","#3366ff99","-1","-1","1","+10","[]","0","0","2","","","","","","","",""
"pit-trial","42","446786","0.0-2.0-11.1-0.1","battery-v0.2","","""event"",""trial"",""time""
""fullscreenenter"",""1"",""6409""
","
","
","""event"",""trial"",""time""
""fullscreenenter"",""1"",""6409""
","
","","","-1","","","18","10005","4687","&#9761;","elianto","#3366ff99","-1","-1","1","+10","[]","0","0","2","","","","","","","",""
"pit-trial","43","451652","0.0-2.0-11.1-1.1","battery-v0.2","","""event"",""trial"",""time""
""fullscreenenter"",""1"",""6409""
","
","
","""event"",""trial"",""time""
""fullscreenenter"",""1"",""6409""
","
","","","-1","","","18","10005","4687","&#9761;","elianto","#3366ff99","-1","-1","1","+10","[]","0","0","2","","","","","","","",""
"pit-trial","44","456520","0.0-2.0-11.1-2.1","battery-v0.2","","""event"",""trial"",""time""
""fullscreenenter"",""1"",""6409""
","
","
","""event"",""trial"",""time""
""fullscreenenter"",""1"",""6409""
","
","","","-1","","","18","10005","4687","&#9761;","elianto","#3366ff99","-1","-1","1","+10","[]","0","0","2","","","","","","","",""
"pit-trial","45","461386","0.0-2.0-11.1-3.1","battery-v0.2","","""event"",""trial"",""time""
""fullscreenenter"",""1"",""6409""
","
","
","""event"",""trial"",""time""
""fullscreenenter"",""1"",""6409""
","
","","","-1","","","18","10005","4687","&#9761;","elianto","#3366ff99","-1","-1","1","0","[]","0","0","2","","","","","","","",""
"pit-trial","46","466251","0.0-2.0-11.1-4.1","battery-v0.2","","""event"",""trial"",""time""
""fullscreenenter"",""1"",""6409""
","
","
","""event"",""trial"",""time""
""fullscreenenter"",""1"",""6409""
","
","","","-1","","","18","10005","4687","&#9761;","elianto","#3366ff99","-1","-1","1","+10","[]","0","0","2","","","","","","","",""
"pit-trial","47","471121","0.0-2.0-11.2-0.2","battery-v0.2","","""event"",""trial"",""time""
""fullscreenenter"",""1"",""6409""
","
","
","""event"",""trial"",""time""
""fullscreenenter"",""1"",""6409""
","
","","","-1","","","18","10005","4687","&#9761;","elianto","#3366ff99","-1","-1","1","+10","[]","0","0","2","","","","","","","",""
"pit-trial","48","475987","0.0-2.0-11.2-1.2","battery-v0.2","","""event"",""trial"",""time""
""fullscreenenter"",""1"",""6409""
","
","
","""event"",""trial"",""time""
""fullscreenenter"",""1"",""6409""
","
","","","-1","","","18","10005","4687","&#9761;","elianto","#3366ff99","-1","-1","1","+10","[]","0","0","2","","","","","","","",""
"pit-trial","49","480853","0.0-2.0-11.2-2.2","battery-v0.2","","""event"",""trial"",""time""
""fullscreenenter"",""1"",""6409""
","
","
","""event"",""trial"",""time""
""fullscreenenter"",""1"",""6409""
","
","","","-1","","","18","10005","4687","&#9761;","elianto","#3366ff99","-1","-1","1","+10","[]","0","0","2","","","","","","","",""
"pit-trial","50","485721","0.0-2.0-11.2-3.2","battery-v0.2","","""event"",""trial"",""time""
""fullscreenenter"",""1"",""6409""
","
","
","""event"",""trial"",""time""
""fullscreenenter"",""1"",""6409""
","
","","","-1","","","18","10005","4687","&#9761;","elianto","#3366ff99","-1","-1","1","0","[]","0","0","2","","","","","","","",""
"pit-trial","51","490586","0.0-2.0-11.2-4.2","battery-v0.2","","""event"",""trial"",""time""
""fullscreenenter"",""1"",""6409""
","
","
","""event"",""trial"",""time""
""fullscreenenter"",""1"",""6409""
","
","","","-1","","","18","10005","4687","&#9761;","elianto","#3366ff99","-1","-1","1","+10","[]","0","0","2","","","","","","","",""
"pit-trial","52","495449","0.0-2.0-11.3-0.3","battery-v0.2","","""event"",""trial"",""time""
""fullscreenenter"",""1"",""6409""
","
","
","""event"",""trial"",""time""
""fullscreenenter"",""1"",""6409""
","
","","","-1","","","18","10005","4687","&#9761;","elianto","#3366ff99","-1","-1","1","+10","[]","0","0","2","","","","","","","",""
"pit-trial","53","500314","0.0-2.0-11.3-1.3","battery-v0.2","","""event"",""trial"",""time""
""fullscreenenter"",""1"",""6409""
","
","
","""event"",""trial"",""time""
""fullscreenenter"",""1"",""6409""
","
","","","-1","","","18","10005","4687","&#9761;","elianto","#3366ff99","-1","-1","1","+10","[]","0","0","2","","","","","","","",""
"pit-trial","54","505180","0.0-2.0-11.3-2.3","battery-v0.2","","""event"",""trial"",""time""
""fullscreenenter"",""1"",""6409""
","
","
","""event"",""trial"",""time""
""fullscreenenter"",""1"",""6409""
","
","","","-1","","","18","10005","4687","&#9761;","elianto","#3366ff99","-1","-1","1","+10","[]","0","0","2","","","","","","","",""
"pit-trial","55","510051","0.0-2.0-11.3-3.3","battery-v0.2","","""event"",""trial"",""time""
""fullscreenenter"",""1"",""6409""
","
","
","""event"",""trial"",""time""
""fullscreenenter"",""1"",""6409""
","
","","","-1","","","18","10005","4687","&#9761;","elianto","#3366ff99","-1","-1","1","0","[]","0","0","2","","","","","","","",""
"pit-trial","56","514916","0.0-2.0-11.3-4.3","battery-v0.2","","""event"",""trial"",""time""
""fullscreenenter"",""1"",""6409""
","
","
","""event"",""trial"",""time""
""fullscreenenter"",""1"",""6409""
","
","","","-1","","","18","10005","4687","&#9761;","elianto","#3366ff99","-1","-1","1","+10","[]","0","0","2","","","","","","","",""
"call-function","57","514918","0.0-2.0-12.0","battery-v0.2","","""event"",""trial"",""time""
""fullscreenenter"",""1"",""6409""
","
","
","""event"",""trial"",""time""
""fullscreenenter"",""1"",""6409""
","
","","","","","","","","","","","","","","","","","","","","","","","","","","",""
"pit-instructions","58","554044","0.0-2.0-13.0","battery-v0.2","","""event"",""trial"",""time""
""fullscreenenter"",""1"",""6409""
","
","
","""event"",""trial"",""time""
""fullscreenenter"",""1"",""6409""
","
","","[{""page_index"":0,""viewing_time"":6230.60000000149},{""page_index"":1,""viewing_time"":7911.599999997765},{""page_index"":2,""viewing_time"":7419.400000002235},{""page_index"":3,""viewing_time"":12449.699999999255},{""page_index"":4,""viewing_time"":5112.599999997765}]","39124.199999999255","","","","","","","","","","","","","","","","","","","","","","","",""
"pit-trial","59","557515","0.0-2.0-14.0-0.0","battery-v0.2","","""event"",""trial"",""time""
""fullscreenenter"",""1"",""6409""
","
","
","""event"",""trial"",""time""
""fullscreenenter"",""1"",""6409""
","
","","","615.1000000014901","","","18","10005","4687","&#9826;","elianto","#f73b6a7A","-1"," ","0","-10","[1465]","1","0","3","","","","","","","",""
"pit-trial","60","562380","0.0-2.0-14.0-1.0","battery-v0.2","","""event"",""trial"",""time""
""fullscreenenter"",""1"",""6409""
","
","
","""event"",""trial"",""time""
""fullscreenenter"",""1"",""6409""
","
","","","-1","","","18","10005","4687","&#9826;","elianto","#f73b6a7A","-1","-1","1","0","[]","0","0","3","","","","","","","",""
"pit-trial","61","567244","0.0-2.0-14.0-2.0","battery-v0.2","","""event"",""trial"",""time""
""fullscreenenter"",""1"",""6409""
","
","
","""event"",""trial"",""time""
""fullscreenenter"",""1"",""6409""
","
","","","-1","","","18","10005","4687","&#9826;","elianto","#f73b6a7A","-1","-1","1","0","[]","0","0","3","","","","","","","",""
"pit-trial","62","572109","0.0-2.0-14.0-3.0","battery-v0.2","","""event"",""trial"",""time""
""fullscreenenter"",""1"",""6409""
","
","
","""event"",""trial"",""time""
""fullscreenenter"",""1"",""6409""
","
","","","-1","","","18","10005","4687","&#9826;","elianto","#f73b6a7A","-1","-1","1","-10","[]","0","0","3","","","","","","","",""
"pit-trial","63","576973","0.0-2.0-14.0-4.0","battery-v0.2","","""event"",""trial"",""time""
""fullscreenenter"",""1"",""6409""
","
","
","""event"",""trial"",""time""
""fullscreenenter"",""1"",""6409""
","
","","","-1","","","18","10005","4687","&#9826;","elianto","#f73b6a7A","-1","-1","1","0","[]","0","0","3","","","","","","","",""
"pit-trial","64","581844","0.0-2.0-14.1-0.1","battery-v0.2","","""event"",""trial"",""time""
""fullscreenenter"",""1"",""6409""
","
","
","""event"",""trial"",""time""
""fullscreenenter"",""1"",""6409""
","
","","","-1","","","18","10005","4687","&#9826;","elianto","#f73b6a7A","-1","-1","1","0","[]","0","0","3","","","","","","","",""
"pit-trial","65","586710","0.0-2.0-14.1-1.1","battery-v0.2","","""event"",""trial"",""time""
""fullscreenenter"",""1"",""6409""
","
","
","""event"",""trial"",""time""
""fullscreenenter"",""1"",""6409""
","
","","","-1","","","18","10005","4687","&#9826;","elianto","#f73b6a7A","-1","-1","1","0","[]","0","0","3","","","","","","","",""
"pit-trial","66","591575","0.0-2.0-14.1-2.1","battery-v0.2","","""event"",""trial"",""time""
""fullscreenenter"",""1"",""6409""
","
","
","""event"",""trial"",""time""
""fullscreenenter"",""1"",""6409""
","
","","","-1","","","18","10005","4687","&#9826;","elianto","#f73b6a7A","-1","-1","1","0","[]","0","0","3","","","","","","","",""
"pit-trial","67","596446","0.0-2.0-14.1-3.1","battery-v0.2","","""event"",""trial"",""time""
""fullscreenenter"",""1"",""6409""
","
","
","""event"",""trial"",""time""
""fullscreenenter"",""1"",""6409""
","
","","","-1","","","18","10005","4687","&#9826;","elianto","#f73b6a7A","-1","-1","1","-10","[]","0","0","3","","","","","","","",""
"pit-trial","68","601310","0.0-2.0-14.1-4.1","battery-v0.2","","""event"",""trial"",""time""
""fullscreenenter"",""1"",""6409""
","
","
","""event"",""trial"",""time""
""fullscreenenter"",""1"",""6409""
","
","","","-1","","","18","10005","4687","&#9826;","elianto","#f73b6a7A","-1","-1","1","0","[]","0","0","3","","","","","","","",""
"pit-trial","69","606175","0.0-2.0-14.2-0.2","battery-v0.2","","""event"",""trial"",""time""
""fullscreenenter"",""1"",""6409""
","
","
","""event"",""trial"",""time""
""fullscreenenter"",""1"",""6409""
","
","","","-1","","","18","10005","4687","&#9826;","elianto","#f73b6a7A","-1","-1","1","0","[]","0","0","3","","","","","","","",""
"pit-trial","70","611040","0.0-2.0-14.2-1.2","battery-v0.2","","""event"",""trial"",""time""
""fullscreenenter"",""1"",""6409""
","
","
","""event"",""trial"",""time""
""fullscreenenter"",""1"",""6409""
","
","","","-1","","","18","10005","4687","&#9826;","elianto","#f73b6a7A","-1","-1","1","0","[]","0","0","3","","","","","","","",""
"pit-trial","71","615910","0.0-2.0-14.2-2.2","battery-v0.2","","""event"",""trial"",""time""
""fullscreenenter"",""1"",""6409""
","
","
","""event"",""trial"",""time""
""fullscreenenter"",""1"",""6409""
","
","","","-1","","","18","10005","4687","&#9826;","elianto","#f73b6a7A","-1","-1","1","0","[]","0","0","3","","","","","","","",""
"pit-trial","72","620775","0.0-2.0-14.2-3.2","battery-v0.2","","""event"",""trial"",""time""
""fullscreenenter"",""1"",""6409""
","
","
","""event"",""trial"",""time""
""fullscreenenter"",""1"",""6409""
","
","","","-1","","","18","10005","4687","&#9826;","elianto","#f73b6a7A","-1","-1","1","-10","[]","0","0","3","","","","","","","",""
"pit-trial","73","625640","0.0-2.0-14.2-4.2","battery-v0.2","","""event"",""trial"",""time""
""fullscreenenter"",""1"",""6409""
","
","
","""event"",""trial"",""time""
""fullscreenenter"",""1"",""6409""
","
","","","-1","","","18","10005","4687","&#9826;","elianto","#f73b6a7A","-1","-1","1","0","[]","0","0","3","","","","","","","",""
"pit-trial","74","630513","0.0-2.0-14.3-0.3","battery-v0.2","","""event"",""trial"",""time""
""fullscreenenter"",""1"",""6409""
","
","
","""event"",""trial"",""time""
""fullscreenenter"",""1"",""6409""
","
","","","-1","","","18","10005","4687","&#9826;","elianto","#f73b6a7A","-1","-1","1","0","[]","0","0","3","","","","","","","",""
"pit-trial","75","635386","0.0-2.0-14.3-1.3","battery-v0.2","","""event"",""trial"",""time""
""fullscreenenter"",""1"",""6409""
","
","
","""event"",""trial"",""time""
""fullscreenenter"",""1"",""6409""
","
","","","-1","","","18","10005","4687","&#9826;","elianto","#f73b6a7A","-1","-1","1","0","[]","0","0","3","","","","","","","",""
"pit-trial","76","640258","0.0-2.0-14.3-2.3","battery-v0.2","","""event"",""trial"",""time""
""fullscreenenter"",""1"",""6409""
","
","
","""event"",""trial"",""time""
""fullscreenenter"",""1"",""6409""
","
","","","-1","","","18","10005","4687","&#9826;","elianto","#f73b6a7A","-1","-1","1","0","[]","0","0","3","","","","","","","",""
"pit-trial","77","645128","0.0-2.0-14.3-3.3","battery-v0.2","","""event"",""trial"",""time""
""fullscreenenter"",""1"",""6409""
","
","
","""event"",""trial"",""time""
""fullscreenenter"",""1"",""6409""
","
","","","-1","","","18","10005","4687","&#9826;","elianto","#f73b6a7A","-1","-1","1","-10","[]","0","0","3","","","","","","","",""
"pit-trial","78","649992","0.0-2.0-14.3-4.3","battery-v0.2","","""event"",""trial"",""time""
""fullscreenenter"",""1"",""6409""
","
","
","""event"",""trial"",""time""
""fullscreenenter"",""1"",""6409""
","
","","","-1","","","18","10005","4687","&#9826;","elianto","#f73b6a7A","-1","-1","1","0","[]","0","0","3","","","","","","","",""
"call-function","79","649995","0.0-2.0-15.0","battery-v0.2","","""event"",""trial"",""time""
""fullscreenenter"",""1"",""6409""
","
","
","""event"",""trial"",""time""
""fullscreenenter"",""1"",""6409""
","
","","","","","","","","","","","","","","","","","","","","","","","","","","",""
"pit-instructions","80","681929","0.0-2.0-16.0","battery-v0.2","","""event"",""trial"",""time""
""fullscreenenter"",""1"",""6409""
","
","
","""event"",""trial"",""time""
""fullscreenenter"",""1"",""6409""
","
","","[{""page_index"":0,""viewing_time"":7193.699999999255},{""page_index"":1,""viewing_time"":13270.400000002235},{""page_index"":2,""viewing_time"":5417.5},{""page_index"":3,""viewing_time"":6050}]","31932.199999999255","","","","","","","","","","","","","","","","","","","","","","","",""
"pit-trial","81","686034","0.0-2.0-17.0-0.0","battery-v0.2","","""event"",""trial"",""time""
""fullscreenenter"",""1"",""6409""
","
","
","""event"",""trial"",""time""
""fullscreenenter"",""1"",""6409""
","
","","","1231.3999999985099","","","18","10005","4687","&#9789;","elianto","#f73b6a7A"," "," ","1","0","[2093.2000000029802]","1","0","4","","","","","","","",""
"pit-trial","82","689424","0.0-2.0-17.0-1.0","battery-v0.2","","""event"",""trial"",""time""
""fullscreenenter"",""1"",""6409""
","
","
","""event"",""trial"",""time""
""fullscreenenter"",""1"",""6409""
","
","","","528.5","","","18","10005","4687","&#9789;","elianto","#f73b6a7A"," "," ","1","0","[1379.6000000014901]","1","0","4","","","","","","","",""
"pit-trial","83","692762","0.0-2.0-17.0-2.0","battery-v0.2","","""event"",""trial"",""time""
""fullscreenenter"",""1"",""6409""
","
","
","""event"",""trial"",""time""
""fullscreenenter"",""1"",""6409""
","
","","","470.19999999925494","","","18","10005","4687","&#9789;","elianto","#f73b6a7A"," "," ","1","0","[1325.7999999970198]","1","0","4","","","","","","","",""
"pit-trial","84","696123","0.0-2.0-17.0-3.0","battery-v0.2","","""event"",""trial"",""time""
""fullscreenenter"",""1"",""6409""
","
","
","""event"",""trial"",""time""
""fullscreenenter"",""1"",""6409""
","
","","","503.0999999977648","","","18","10005","4687","&#9789;","elianto","#f73b6a7A"," "," ","1","-10","[1353.800000000745]","1","0","4","","","","","","","",""
"pit-trial","85","699391","0.0-2.0-17.0-4.0","battery-v0.2","","""event"",""trial"",""time""
""fullscreenenter"",""1"",""6409""
","
","
","""event"",""trial"",""time""
""fullscreenenter"",""1"",""6409""
","
","","","403.4000000022352","","","18","10005","4687","&#9789;","elianto","#f73b6a7A"," "," ","1","0","[1259]","1","0","4","","","","","","","",""
"pit-trial","86","702682","0.0-2.0-17.1-0.1","battery-v0.2","","""event"",""trial"",""time""
""fullscreenenter"",""1"",""6409""
","
","
","""event"",""trial"",""time""
""fullscreenenter"",""1"",""6409""
","
","","","430.9000000022352","","","18","10005","4687","&#9789;","elianto","#f73b6a7A"," "," ","1","0","[1281.1000000014901]","1","0","4","","","","","","","",""
"pit-trial","87","705864","0.0-2.0-17.1-1.1","battery-v0.2","","""event"",""trial"",""time""
""fullscreenenter"",""1"",""6409""
","
","
","""event"",""trial"",""time""
""fullscreenenter"",""1"",""6409""
","
","","","311.6000000014901","","","18","10005","4687","&#9789;","elianto","#f73b6a7A"," "," ","1","0","[1171.9000000022352]","1","0","4","","","","","","","",""
"pit-trial","88","709044","0.0-2.0-17.1-2.1","battery-v0.2","","""event"",""trial"",""time""
""fullscreenenter"",""1"",""6409""
","
","
","""event"",""trial"",""time""
""fullscreenenter"",""1"",""6409""
","
","","","312.1000000014901","","","18","10005","4687","&#9789;","elianto","#f73b6a7A"," "," ","1","0","[1165.8999999985099]","1","0","4","","","","","","","",""
"pit-trial","89","712164","0.0-2.0-17.1-3.1","battery-v0.2","","""event"",""trial"",""time""
""fullscreenenter"",""1"",""6409""
","
","
","""event"",""trial"",""time""
""fullscreenenter"",""1"",""6409""
","
","","","251.60000000149012","","","18","10005","4687","&#9789;","elianto","#f73b6a7A"," "," ","1","-10","[1108.699999999255]","1","0","4","","","","","","","",""
"pit-trial","90","715460","0.0-2.0-17.1-4.1","battery-v0.2","","""event"",""trial"",""time""
""fullscreenenter"",""1"",""6409""
","
","
","""event"",""trial"",""time""
""fullscreenenter"",""1"",""6409""
","
","","","429.69999999925494","","","18","10005","4687","&#9789;","elianto","#f73b6a7A"," "," ","1","0","[1287.800000000745]","1","0","4","","","","","","","",""
"pit-trial","91","718689","0.0-2.0-17.2-0.2","battery-v0.2","","""event"",""trial"",""time""
""fullscreenenter"",""1"",""6409""
","
","
","""event"",""trial"",""time""
""fullscreenenter"",""1"",""6409""
","
","","","366.5999999977648","","","18","10005","4687","&#9789;","elianto","#f73b6a7A"," "," ","1","0","[1217.7000000029802]","1","0","4","","","","","","","",""
"pit-trial","92","721905","0.0-2.0-17.2-1.2","battery-v0.2","","""event"",""trial"",""time""
""fullscreenenter"",""1"",""6409""
","
","
","""event"",""trial"",""time""
""fullscreenenter"",""1"",""6409""
","
","","","350.19999999925494","","","18","10005","4687","&#9789;","elianto","#f73b6a7A"," "," ","1","0","[1209.8999999985099]","1","0","4","","","","","","","",""
"pit-trial","93","725260","0.0-2.0-17.2-2.2","battery-v0.2","","""event"",""trial"",""time""
""fullscreenenter"",""1"",""6409""
","
","
","""event"",""trial"",""time""
""fullscreenenter"",""1"",""6409""
","
","","","493.70000000298023","","","18","10005","4687","&#9789;","elianto","#f73b6a7A"," "," ","1","0","[1344.800000000745]","1","0","4","","","","","","","",""
"pit-trial","94","728211","0.0-2.0-17.2-3.2","battery-v0.2","","""event"",""trial"",""time""
""fullscreenenter"",""1"",""6409""
","
","
","""event"",""trial"",""time""
""fullscreenenter"",""1"",""6409""
","
","","","92.39999999850988","","","18","10005","4687","&#9789;","elianto","#f73b6a7A"," "," ","1","-10","[943.3999999985099]","1","0","4","","","","","","","",""
"pit-trial","95","731553","0.0-2.0-17.2-4.2","battery-v0.2","","""event"",""trial"",""time""
""fullscreenenter"",""1"",""6409""
","
","
","""event"",""trial"",""time""
""fullscreenenter"",""1"",""6409""
","
","","","481.1000000014901","","","18","10005","4687","&#9789;","elianto","#f73b6a7A"," "," ","1","0","[1332.9000000022352]","1","0","4","","","","","","","",""
"pit-trial","96","734973","0.0-2.0-17.3-0.3","battery-v0.2","","""event"",""trial"",""time""
""fullscreenenter"",""1"",""6409""
","
","
","""event"",""trial"",""time""
""fullscreenenter"",""1"",""6409""
","
","","","550.8000000007451","","","18","10005","4687","&#9789;","elianto","#f73b6a7A"," "," ","1","0","[1404.3999999985099]","1","0","4","","","","","","","",""
"pit-trial","97","738554","0.0-2.0-17.3-1.3","battery-v0.2","","""event"",""trial"",""time""
""fullscreenenter"",""1"",""6409""
","
","
","""event"",""trial"",""time""
""fullscreenenter"",""1"",""6409""
","
","","","722.5","","","18","10005","4687","&#9789;","elianto","#f73b6a7A"," "," ","1","0","[1573.699999999255]","1","0","4","","","","","","","",""
"pit-trial","98","742084","0.0-2.0-17.3-2.3","battery-v0.2","","""event"",""trial"",""time""
""fullscreenenter"",""1"",""6409""
","
","
","""event"",""trial"",""time""
""fullscreenenter"",""1"",""6409""
","
","","","664.5999999977648","","","18","10005","4687","&#9789;","elianto","#f73b6a7A"," "," ","1","0","[1521]","1","0","4","","","","","","","",""
"pit-trial","99","745578","0.0-2.0-17.3-3.3","battery-v0.2","","""event"",""trial"",""time""
""fullscreenenter"",""1"",""6409""
","
","
","""event"",""trial"",""time""
""fullscreenenter"",""1"",""6409""
","
","","","622.8000000007451","","","18","10005","4687","&#9789;","elianto","#f73b6a7A"," "," ","1","-10","[1482]","1","0","4","","","","","","","",""
"pit-trial","100","748986","0.0-2.0-17.3-4.3","battery-v0.2","","""event"",""trial"",""time""
""fullscreenenter"",""1"",""6409""
","
","
","""event"",""trial"",""time""
""fullscreenenter"",""1"",""6409""
","
","","","545.9000000022352","","","18","10005","4687","&#9789;","elianto","#f73b6a7A"," "," ","1","0","[1397.9000000022352]","1","0","4","","","","","","","",""
"call-function","101","748989","0.0-2.0-18.0","battery-v0.2","","""event"",""trial"",""time""
""fullscreenenter"",""1"",""6409""
","
","
","""event"",""trial"",""time""
""fullscreenenter"",""1"",""6409""
","
","","","","","","","","","","","","","","","","","","","","","","","","","","",""
"pit-instructions","102","821813","0.0-2.0-19.0","battery-v0.2","","""event"",""trial"",""time""
""fullscreenenter"",""1"",""6409""
","
","
","""event"",""trial"",""time""
""fullscreenenter"",""1"",""6409""
","
","","[{""page_index"":0,""viewing_time"":7696.199999999255},{""page_index"":1,""viewing_time"":6404.400000002235},{""page_index"":2,""viewing_time"":15908.800000000745},{""page_index"":3,""viewing_time"":7325.29999999702},{""page_index"":4,""viewing_time"":8355.5},{""page_index"":5,""viewing_time"":8274.5},{""page_index"":6,""viewing_time"":8366.400000002235},{""page_index"":7,""viewing_time"":6117.800000000745},{""page_index"":8,""viewing_time"":4372.699999999255}]","72821.90000000224","","","","","","","","","","","","","","","","","","","","","","","",""
"pit-comprehension","103","827463","0.0-2.0-20.0-0.0","battery-v0.2","","""event"",""trial"",""time""
""fullscreenenter"",""1"",""6409""
","
","
","""event"",""trial"",""time""
""fullscreenenter"",""1"",""6409""
","
","","","5644.300000000745","[""SPACE""]","0","18","10005","4687","","","","","","","","","","","","","","","","","","",""
"pit-instructions","104","830679","0.0-2.0-20.0-1.0","battery-v0.2","","""event"",""trial"",""time""
""fullscreenenter"",""1"",""6409""
","
","
","""event"",""trial"",""time""
""fullscreenenter"",""1"",""6409""
","
","","[{""page_index"":0,""viewing_time"":3157.099999997765}]","3157.5","","","","","","","","","","","","","","","","","","","","","","","",""
"pit-comprehension","105","835904","0.0-2.0-21.0-0.0","battery-v0.2","","""event"",""trial"",""time""
""fullscreenenter"",""1"",""6409""
","
","
","""event"",""trial"",""time""
""fullscreenenter"",""1"",""6409""
","
","","","5219.89999999851","[""10""]","0","18","10005","4687","","","","","","","","","","","","","","","","","","",""
"pit-instructions","106","837963","0.0-2.0-21.0-1.0","battery-v0.2","","""event"",""trial"",""time""
""fullscreenenter"",""1"",""6409""
","
","
","""event"",""trial"",""time""
""fullscreenenter"",""1"",""6409""
","
","","[{""page_index"":0,""viewing_time"":2005.699999999255}]","2006.0999999977648","","","","","","","","","","","","","","","","","","","","","","","",""
"pit-comprehension","107","844450","0.0-2.0-22.0-0.0","battery-v0.2","","""event"",""trial"",""time""
""fullscreenenter"",""1"",""6409""
","
","
","""event"",""trial"",""time""
""fullscreenenter"",""1"",""6409""
","
","","","6481.300000000745","[""-10""]","1","18","10005","4687","","","","","","","","","","","","","","","","","","",""
"pit-instructions","108","848709","0.0-2.0-22.0-1.0","battery-v0.2","","""event"",""trial"",""time""
""fullscreenenter"",""1"",""6409""
","
","
","""event"",""trial"",""time""
""fullscreenenter"",""1"",""6409""
","
","","[{""page_index"":0,""viewing_time"":4207}]","4207.300000000745","","","","","","","","","","","","","","","","","","","","","","","",""
"pit-instructions","109","849989","0.0-2.0-22.0-2.0-0.0","battery-v0.2","","""event"",""trial"",""time""
""fullscreenenter"",""1"",""6409""
","
","
","""event"",""trial"",""time""
""fullscreenenter"",""1"",""6409""
","
","","[{""page_index"":0,""viewing_time"":1276.800000000745}]","1277.199999999255","","","","","","","","","","","","","","","","","","","","","","","",""
"pit-comprehension","110","856464","0.0-2.0-22.1-0.1","battery-v0.2","","""event"",""trial"",""time""
""fullscreenenter"",""1"",""6409""
","
","
","""event"",""trial"",""time""
""fullscreenenter"",""1"",""6409""
","
","","","6469.199999999255","[""0""]","0","18","10005","4687","","","","","","","","","","","","","","","","","","",""
"pit-instructions","111","858647","0.0-2.0-22.1-1.1","battery-v0.2","","""event"",""trial"",""time""
""fullscreenenter"",""1"",""6409""
","
","
","""event"",""trial"",""time""
""fullscreenenter"",""1"",""6409""
","
","","[{""page_index"":0,""viewing_time"":2131.39999999851}]","2132.5","","","","","","","","","","","","","","","","","","","","","","","",""
"pit-comprehension","112","871692","0.0-2.0-23.0-0.0","battery-v0.2","","""event"",""trial"",""time""
""fullscreenenter"",""1"",""6409""
","
","
","""event"",""trial"",""time""
""fullscreenenter"",""1"",""6409""
","
","","","13039.199999999255","[""False""]","1","18","10005","4687","","","","","","","","","","","","","","","","","","",""
"pit-instructions","113","874612","0.0-2.0-23.0-1.0","battery-v0.2","","""event"",""trial"",""time""
""fullscreenenter"",""1"",""6409""
","
","
","""event"",""trial"",""time""
""fullscreenenter"",""1"",""6409""
","
","","[{""page_index"":0,""viewing_time"":2866}]","2866.699999999255","","","","","","","","","","","","","","","","","","","","","","","",""
"pit-instructions","114","875419","0.0-2.0-23.0-2.0-0.0","battery-v0.2","","""event"",""trial"",""time""
""fullscreenenter"",""1"",""6409""
","
","
","""event"",""trial"",""time""
""fullscreenenter"",""1"",""6409""
","
","","[{""page_index"":0,""viewing_time"":801.8999999985099}]","804.5","","","","","","","","","","","","","","","","","","","","","","","",""
"pit-comprehension","115","883802","0.0-2.0-23.1-0.1","battery-v0.2","","""event"",""trial"",""time""
""fullscreenenter"",""1"",""6409""
","
","
","""event"",""trial"",""time""
""fullscreenenter"",""1"",""6409""
","
","","","8380.300000000745","[""True""]","0","18","10005","4687","","","","","","","","","","","","","","","","","","",""
"pit-instructions","116","885517","0.0-2.0-23.1-1.1","battery-v0.2","","""event"",""trial"",""time""
""fullscreenenter"",""1"",""6409""
","
","
","""event"",""trial"",""time""
""fullscreenenter"",""1"",""6409""
","
","","[{""page_index"":0,""viewing_time"":1661.199999999255}]","1661.800000000745","","","","","","","","","","","","","","","","","","","","","","","",""
"pit-comprehension","117","892687","0.0-2.0-24.0-0.0","battery-v0.2","","""event"",""trial"",""time""
""fullscreenenter"",""1"",""6409""
","
","
","""event"",""trial"",""time""
""fullscreenenter"",""1"",""6409""
","
","","","7165.39999999851","[""True""]","0","18","10005","4687","","","","","","","","","","","","","","","","","","",""
"pit-instructions","118","894438","0.0-2.0-24.0-1.0","battery-v0.2","","""event"",""trial"",""time""
""fullscreenenter"",""1"",""6409""
","
","
","""event"",""trial"",""time""
""fullscreenenter"",""1"",""6409""
","
","","[{""page_index"":0,""viewing_time"":1694.300000000745}]","1696.199999999255","","","","","","","","","","","","","","","","","","","","","","","",""
"pit-comprehension","119","900807","0.0-2.0-25.0-0.0","battery-v0.2","","""event"",""trial"",""time""
""fullscreenenter"",""1"",""6409""
","
","
","""event"",""trial"",""time""
""fullscreenenter"",""1"",""6409""
","
","","","6365.5","[""True""]","0","18","10005","4687","","","","","","","","","","","","","","","","","","",""
"pit-instructions","120","902889","0.0-2.0-25.0-1.0","battery-v0.2","","""event"",""trial"",""time""
""fullscreenenter"",""1"",""6409""
","
","
","""event"",""trial"",""time""
""fullscreenenter"",""1"",""6409""
","
","","[{""page_index"":0,""viewing_time"":2027.8999999985099}]","2028.199999999255","","","","","","","","","","","","","","","","","","","","","","","",""
"pit-comprehension","121","907354","0.0-2.0-26.0-0.0","battery-v0.2","","""event"",""trial"",""time""
""fullscreenenter"",""1"",""6409""
","
","
","""event"",""trial"",""time""
""fullscreenenter"",""1"",""6409""
","
","","","4461.10000000149","[""False""]","0","18","10005","4687","","","","","","","","","","","","","","","","","","",""
"pit-instructions","122","910700","0.0-2.0-26.0-1.0","battery-v0.2","","""event"",""trial"",""time""
""fullscreenenter"",""1"",""6409""
","
","
","""event"",""trial"",""time""
""fullscreenenter"",""1"",""6409""
","
","","[{""page_index"":0,""viewing_time"":3282.300000000745}]","3282.7000000029802","","","","","","","","","","","","","","","","","","","","","","","",""
"pit-instructions","123","928054","0.0-3.0","battery-v0.2","","""event"",""trial"",""time""
""fullscreenenter"",""1"",""6409""
","
","
","""event"",""trial"",""time""
""fullscreenenter"",""1"",""6409""
","
","","[{""page_index"":0,""viewing_time"":4829.300000000745},{""page_index"":1,""viewing_time"":5157.5},{""page_index"":2,""viewing_time"":7362.699999999255}]","17350","","","","","","","","","","","","","","","","","","","","","","","",""
"pit-trial","124","932181","0.0-4.0","battery-v0.2","","""event"",""trial"",""time""
""fullscreenenter"",""1"",""6409""
","
","
","""event"",""trial"",""time""
""fullscreenenter"",""1"",""6409""
","
","","","1259.699999999255","","","18","10005","4687","&#9733;","elianto","#3366ff99","-1"," ","0","+10","[2113.800000000745]","1","1","","","10005","1","2","2","win","no-go","1"
"pit-trial","125","936303","0.0-5.0","battery-v0.2","","""event"",""trial"",""time""
""fullscreenenter"",""1"",""6409""
","
","
","""event"",""trial"",""time""
""fullscreenenter"",""1"",""6409""
","
","","","1260.5999999977648","","","18","10005","4687","&#9730;","elianto","#3366ff99"," "," ","1","+10","[2112.900000002235]","1","1","","","10005","2","1","1","win","go","0"
"pit-trial","126","941173","0.0-6.0","battery-v0.2","","""event"",""trial"",""time""
""fullscreenenter"",""1"",""6409""
","
","
","""event"",""trial"",""time""
""fullscreenenter"",""1"",""6409""
","
","","","-1","","","18","10005","4687","&#9728;","elianto","#f73b6a7A","-1","-1","1","0","[]","0","1","","","10005","3","0","4","lose","no-go","0"
"pit-trial","127","945307","0.0-7.0","battery-v0.2","","""event"",""trial"",""time""
""fullscreenenter"",""1"",""6409""
","
","
","""event"",""trial"",""time""
""fullscreenenter"",""1"",""6409""
","
","","","1276.7999999970198","","","18","10005","4687","&#9752;","elianto","#f73b6a7A"," "," ","1","0","[2129.300000000745]","1","1","","","10005","4","3","3","lose","go","0"
"pit-trial","128","949213","0.0-8.0","battery-v0.2","","""event"",""trial"",""time""
""fullscreenenter"",""1"",""6409""
","
","
","""event"",""trial"",""time""
""fullscreenenter"",""1"",""6409""
","
","","","1042.0999999977648","","","18","10005","4687","&#9752;","elianto","#f73b6a7A"," "," ","1","0","[1895.800000000745]","1","1","","","10005","5","3","3","lose","go","0"
"pit-trial","129","953022","0.0-9.0","battery-v0.2","","""event"",""trial"",""time""
""fullscreenenter"",""1"",""6409""
","
","
","""event"",""trial"",""time""
""fullscreenenter"",""1"",""6409""
","
","","","945.3000000007451","","","18","10005","4687","&#9733;","elianto","#3366ff99","-1"," ","0","0","[1798.1000000014901]","1","1","","","10005","6","2","2","win","no-go","0"
"pit-trial","130","957886","0.0-10.0","battery-v0.2","","""event"",""trial"",""time""
""fullscreenenter"",""1"",""6409""
","
","
","""event"",""trial"",""time""
""fullscreenenter"",""1"",""6409""
","
","","","-1","","","18","10005","4687","&#9728;","elianto","#f73b6a7A","-1","-1","1","-10","[]","0","1","","","10005","7","0","4","lose","no-go","1"
"pit-trial","131","961853","0.0-11.0","battery-v0.2","","""event"",""trial"",""time""
""fullscreenenter"",""1"",""6409""
","
","
","""event"",""trial"",""time""
""fullscreenenter"",""1"",""6409""
","
","","","1108.300000000745","","","18","10005","4687","&#9730;","elianto","#3366ff99"," "," ","1","+10","[1959]","1","1","","","10005","8","1","1","win","go","0"
"pit-trial","132","966718","0.0-12.0","battery-v0.2","","""event"",""trial"",""time""
""fullscreenenter"",""1"",""6409""
","
","
","""event"",""trial"",""time""
""fullscreenenter"",""1"",""6409""
","
","","","-1","","","18","10005","4687","&#9752;","elianto","#f73b6a7A"," ","-1","0","0","[3056.699999999255]","1","1","","","10005","9","3","3","lose","go","1"
"pit-trial","133","970926","0.0-13.0","battery-v0.2","","""event"",""trial"",""time""
""fullscreenenter"",""1"",""6409""
","
","
","""event"",""trial"",""time""
""fullscreenenter"",""1"",""6409""
","
","","","1349.8999999985099","","","18","10005","4687","&#9733;","elianto","#3366ff99","-1"," ","0","0","[2202.2000000029802]","1","1","","","10005","10","2","2","win","no-go","0"
"pit-trial","134","975791","0.0-14.0","battery-v0.2","","""event"",""trial"",""time""
""fullscreenenter"",""1"",""6409""
","
","
","""event"",""trial"",""time""
""fullscreenenter"",""1"",""6409""
","
","","","-1","","","18","10005","4687","&#9728;","elianto","#f73b6a7A","-1","-1","1","0","[]","0","1","","","10005","11","0","4","lose","no-go","0"
"pit-trial","135","979541","0.0-15.0","battery-v0.2","","""event"",""trial"",""time""
""fullscreenenter"",""1"",""6409""
","
","
","""event"",""trial"",""time""
""fullscreenenter"",""1"",""6409""
","
","","","885.1999999992549","","","18","10005","4687","&#9730;","elianto","#3366ff99"," "," ","1","+10","[1742.3999999985099]","1","1","","","10005","12","1","1","win","go","0"
"pit-trial","136","983477","0.0-16.0","battery-v0.2","","""event"",""trial"",""time""
""fullscreenenter"",""1"",""6409""
","
","
","""event"",""trial"",""time""
""fullscreenenter"",""1"",""6409""
","
","","","1071.699999999255","","","18","10005","4687","&#9733;","elianto","#3366ff99","-1"," ","0","0","[1924.699999999255]","1","1","","","10005","13","2","2","win","no-go","0"
"pit-trial","137","988342","0.0-17.0","battery-v0.2","","""event"",""trial"",""time""
""fullscreenenter"",""1"",""6409""
","
","
","""event"",""trial"",""time""
""fullscreenenter"",""1"",""6409""
","
","","","-1","","","18","10005","4687","&#9752;","elianto","#f73b6a7A"," ","-1","0","-10","[]","0","1","","","10005","14","3","3","lose","go","0"
"pit-trial","138","993208","0.0-18.0","battery-v0.2","","""event"",""trial"",""time""
""fullscreenenter"",""1"",""6409""
","
","
","""event"",""trial"",""time""
""fullscreenenter"",""1"",""6409""
","
","","","-1","","","18","10005","4687","&#9728;","elianto","#f73b6a7A","-1","-1","1","0","[]","0","1","","","10005","15","0","4","lose","no-go","0"
"pit-trial","139","996754","0.0-19.0","battery-v0.2","","""event"",""trial"",""time""
""fullscreenenter"",""1"",""6409""
","
","
","""event"",""trial"",""time""
""fullscreenenter"",""1"",""6409""
","
","","","670.5","","","18","10005","4687","&#9730;","elianto","#3366ff99"," "," ","1","+10","[1530.699999999255]","1","1","","","10005","16","1","1","win","go","0"
"pit-trial","140","1001624","0.0-20.0","battery-v0.2","","""event"",""trial"",""time""
""fullscreenenter"",""1"",""6409""
","
","
","""event"",""trial"",""time""
""fullscreenenter"",""1"",""6409""
","
","","","-1","","","18","10005","4687","&#9728;","elianto","#f73b6a7A","-1","-1","1","0","[]","0","1","","","10005","17","0","4","lose","no-go","0"
"pit-trial","141","1005354","0.0-21.0","battery-v0.2","","""event"",""trial"",""time""
""fullscreenenter"",""1"",""6409""
","
","
","""event"",""trial"",""time""
""fullscreenenter"",""1"",""6409""
","
","","","860.8999999985099","","","18","10005","4687","&#9730;","elianto","#3366ff99"," "," ","1","+10","[1719.8999999985099]","1","1","","","10005","18","1","1","win","go","0"
"pit-trial","142","1009600","0.0-22.0","battery-v0.2","","""event"",""trial"",""time""
""fullscreenenter"",""1"",""6409""
","
","
","""event"",""trial"",""time""
""fullscreenenter"",""1"",""6409""
","
","","","1385.300000000745","","","18","10005","4687","&#9733;","elianto","#3366ff99","-1"," ","0","0","[2236.2000000029802]","1","1","","","10005","19","2","2","win","no-go","0"
"pit-trial","143","1013385","0.0-23.0","battery-v0.2","","""event"",""trial"",""time""
""fullscreenenter"",""1"",""6409""
","
","
","""event"",""trial"",""time""
""fullscreenenter"",""1"",""6409""
","
","","","921.6999999992549","","","18","10005","4687","&#9752;","elianto","#f73b6a7A"," "," ","1","0","[1773.5]","1","1","","","10005","20","3","3","lose","go","0"
"pit-instructions","144","1025632","0.0-24.0","battery-v0.2","","""event"",""trial"",""time""
""fullscreenenter"",""1"",""6409""
","
","
","""event"",""trial"",""time""
""fullscreenenter"",""1"",""6409""
","
","","[{""page_index"":0,""viewing_time"":5565.70000000298},{""page_index"":1,""viewing_time"":6678}]","12244.10000000149","","","","","","","","","","","","","","","","","","","","","","","",""
"pit-trial","145","1029583","0.0-25.0","battery-v0.2","","""event"",""trial"",""time""
""fullscreenenter"",""1"",""6409""
","
","
","""event"",""trial"",""time""
""fullscreenenter"",""1"",""6409""
","
","","","1088.6000000014901","","","18","10005","4687","g","elianto","#f73b6a7A","-1"," ","0","0","[1940]","1","2","","","10005","21","3","4","lose","no-go","1"
"pit-trial","146","1033338","0.0-26.0","battery-v0.2","","""event"",""trial"",""time""
""fullscreenenter"",""1"",""6409""
","
","
","""event"",""trial"",""time""
""fullscreenenter"",""1"",""6409""
","
","","","894.1000000014901","","","18","10005","4687","l","elianto","#3366ff99","-1"," ","0","0","[1747.8999999985099]","1","2","","","10005","22","1","2","win","no-go","0"
"pit-trial","147","1038209","0.0-27.0","battery-v0.2","","""event"",""trial"",""time""
""fullscreenenter"",""1"",""6409""
","
","
","""event"",""trial"",""time""
""fullscreenenter"",""1"",""6409""
","
","","","-1","","","18","10005","4687","a","elianto","#f73b6a7A"," ","-1","0","-10","[]","0","2","","","10005","23","2","3","lose","go","0"
"pit-trial","148","1042327","0.0-28.0","battery-v0.2","","""event"",""trial"",""time""
""fullscreenenter"",""1"",""6409""
","
","
","""event"",""trial"",""time""
""fullscreenenter"",""1"",""6409""
","
","","","1255.199999999255","","","18","10005","4687","u","elianto","#f73b6a7A"," "," ","1","-10","[2112.300000000745]","1","2","","","10005","24","0","3","lose","go","1"
"pit-trial","149","1047194","0.0-29.0","battery-v0.2","","""event"",""trial"",""time""
""fullscreenenter"",""1"",""6409""
","
","
","""event"",""trial"",""time""
""fullscreenenter"",""1"",""6409""
","
","","","-1","","","18","10005","4687","l","elianto","#3366ff99","-1","-1","1","+10","[]","0","2","","","10005","25","1","2","win","no-go","0"
"pit-trial","150","1052064","0.0-30.0","battery-v0.2","","""event"",""trial"",""time""
""fullscreenenter"",""1"",""6409""
","
","
","""event"",""trial"",""time""
""fullscreenenter"",""1"",""6409""
","
","","","-1","","","18","10005","4687","u","elianto","#f73b6a7A"," ","-1","0","-10","[]","0","2","","","10005","26","0","3","lose","go","0"
"pit-trial","151","1055935","0.0-31.0","battery-v0.2","","""event"",""trial"",""time""
""fullscreenenter"",""1"",""6409""
","
","
","""event"",""trial"",""time""
""fullscreenenter"",""1"",""6409""
","
","","","1012.5","","","18","10005","4687","a","elianto","#f73b6a7A"," "," ","1","0","[1863.6000000014901]","1","2","","","10005","27","2","3","lose","go","0"
"pit-trial","152","1060803","0.0-32.0","battery-v0.2","","""event"",""trial"",""time""
""fullscreenenter"",""1"",""6409""
","
","
","""event"",""trial"",""time""
""fullscreenenter"",""1"",""6409""
","
","","","-1","","","18","10005","4687","g","elianto","#f73b6a7A","-1","-1","1","0","[]","0","2","","","10005","28","3","4","lose","no-go","0"
"pit-trial","153","1065099","0.0-33.0","battery-v0.2","","""event"",""trial"",""time""
""fullscreenenter"",""1"",""6409""
","
","
","""event"",""trial"",""time""
""fullscreenenter"",""1"",""6409""
","
","","","1434.6000000014901","","","18","10005","4687","a","elianto","#f73b6a7A"," "," ","1","-10","[2285.5]","1","2","","","10005","29","2","3","lose","go","1"
"pit-trial","154","1069970","0.0-34.0","battery-v0.2","","""event"",""trial"",""time""
""fullscreenenter"",""1"",""6409""
","
","
","""event"",""trial"",""time""
""fullscreenenter"",""1"",""6409""
","
","","","-1","","","18","10005","4687","u","elianto","#f73b6a7A"," ","-1","0","-10","[]","0","2","","","10005","30","0","3","lose","go","0"
"pit-trial","155","1074834","0.0-35.0","battery-v0.2","","""event"",""trial"",""time""
""fullscreenenter"",""1"",""6409""
","
","
","""event"",""trial"",""time""
""fullscreenenter"",""1"",""6409""
","
","","","-1","","","18","10005","4687","g","elianto","#f73b6a7A","-1","-1","1","0","[]","0","2","","","10005","31","3","4","lose","no-go","0"
"pit-trial","156","1078596","0.0-36.0","battery-v0.2","","""event"",""trial"",""time""
""fullscreenenter"",""1"",""6409""
","
","
","""event"",""trial"",""time""
""fullscreenenter"",""1"",""6409""
","
","","","900.6999999992549","","","18","10005","4687","l","elianto","#3366ff99","-1"," ","0","+10","[1751.5999999977648]","1","2","","","10005","32","1","2","win","no-go","1"
"pit-trial","157","1083466","0.0-37.0","battery-v0.2","","""event"",""trial"",""time""
""fullscreenenter"",""1"",""6409""
","
","
","""event"",""trial"",""time""
""fullscreenenter"",""1"",""6409""
","
","","","-1","","","18","10005","4687","g","elianto","#f73b6a7A","-1","-1","1","0","[]","0","2","","","10005","33","3","4","lose","no-go","0"
"pit-trial","158","1087608","0.0-38.0","battery-v0.2","","""event"",""trial"",""time""
""fullscreenenter"",""1"",""6409""
","
","
","""event"",""trial"",""time""
""fullscreenenter"",""1"",""6409""
","
","","","1285.3999999985099","","","18","10005","4687","a","elianto","#f73b6a7A"," "," ","1","0","[2136]","1","2","","","10005","34","2","3","lose","go","0"
"pit-trial","159","1091889","0.0-39.0","battery-v0.2","","""event"",""trial"",""time""
""fullscreenenter"",""1"",""6409""
","
","
","""event"",""trial"",""time""
""fullscreenenter"",""1"",""6409""
","
","","","1421.800000000745","","","18","10005","4687","u","elianto","#f73b6a7A"," "," ","1","0","[2275.60000000149]","1","2","","","10005","35","0","3","lose","go","0"
"pit-trial","160","1096752","0.0-40.0","battery-v0.2","","""event"",""trial"",""time""
""fullscreenenter"",""1"",""6409""
","
","
","""event"",""trial"",""time""
""fullscreenenter"",""1"",""6409""
","
","","","-1","","","18","10005","4687","l","elianto","#3366ff99","-1","-1","1","+10","[]","0","2","","","10005","36","1","2","win","no-go","0"
"pit-trial","161","1101619","0.0-41.0","battery-v0.2","","""event"",""trial"",""time""
""fullscreenenter"",""1"",""6409""
","
","
","""event"",""trial"",""time""
""fullscreenenter"",""1"",""6409""
","
","","","-1","","","18","10005","4687","l","elianto","#3366ff99","-1","-1","1","+10","[]","0","2","","","10005","37","1","2","win","no-go","0"
"pit-trial","162","1105776","0.0-42.0","battery-v0.2","","""event"",""trial"",""time""
""fullscreenenter"",""1"",""6409""
","
","
","""event"",""trial"",""time""
""fullscreenenter"",""1"",""6409""
","
","","","1299.300000000745","","","18","10005","4687","a","elianto","#f73b6a7A"," "," ","1","0","[2149.699999999255]","1","2","","","10005","38","2","3","lose","go","0"
"pit-trial","163","1110640","0.0-43.0","battery-v0.2","","""event"",""trial"",""time""
""fullscreenenter"",""1"",""6409""
","
","
","""event"",""trial"",""time""
""fullscreenenter"",""1"",""6409""
","
","","","-1","","","18","10005","4687","g","elianto","#f73b6a7A","-1","-1","1","0","[]","0","2","","","10005","39","3","4","lose","no-go","0"
"pit-trial","164","1114060","0.0-44.0","battery-v0.2","","""event"",""trial"",""time""
""fullscreenenter"",""1"",""6409""
","
","
","""event"",""trial"",""time""
""fullscreenenter"",""1"",""6409""
","
","","","552","","","18","10005","4687","u","elianto","#f73b6a7A"," "," ","1","0","[1405.1000000014901]","1","2","","","10005","40","0","3","lose","go","0"
"pit-trial","165","1118524","0.0-45.0","battery-v0.2","","""event"",""trial"",""time""
""fullscreenenter"",""1"",""6409""
","
","
","""event"",""trial"",""time""
""fullscreenenter"",""1"",""6409""
","
","","","1588.699999999255","","","18","10005","4687","a","elianto","#f73b6a7A"," "," ","1","0","[2450]","1","2","","","10005","41","2","3","lose","go","0"
"pit-trial","166","1123393","0.0-46.0","battery-v0.2","","""event"",""trial"",""time""
""fullscreenenter"",""1"",""6409""
","
","
","""event"",""trial"",""time""
""fullscreenenter"",""1"",""6409""
","
","","","-1","","","18","10005","4687","g","elianto","#f73b6a7A","-1","-1","1","0","[]","0","2","","","10005","42","3","4","lose","no-go","0"
"pit-trial","167","1127092","0.0-47.0","battery-v0.2","","""event"",""trial"",""time""
""fullscreenenter"",""1"",""6409""
","
","
","""event"",""trial"",""time""
""fullscreenenter"",""1"",""6409""
","
","","","836.5","","","18","10005","4687","u","elianto","#f73b6a7A"," "," ","1","0","[1690.800000000745]","1","2","","","10005","43","0","3","lose","go","0"
"pit-trial","168","1131965","0.0-48.0","battery-v0.2","","""event"",""trial"",""time""
""fullscreenenter"",""1"",""6409""
","
","
","""event"",""trial"",""time""
""fullscreenenter"",""1"",""6409""
","
","","","-1","","","18","10005","4687","l","elianto","#3366ff99","-1","-1","1","+10","[]","0","2","","","10005","44","1","2","win","no-go","0"
"pit-trial","169","1136246","0.0-49.0","battery-v0.2","","""event"",""trial"",""time""
""fullscreenenter"",""1"",""6409""
","
","
","""event"",""trial"",""time""
""fullscreenenter"",""1"",""6409""
","
","","","1409.2000000029802","","","18","10005","4687","u","elianto","#f73b6a7A"," "," ","1","-10","[2269.199999999255]","1","2","","","10005","45","0","3","lose","go","1"
"pit-trial","170","1141116","0.0-50.0","battery-v0.2","","""event"",""trial"",""time""
""fullscreenenter"",""1"",""6409""
","
","
","""event"",""trial"",""time""
""fullscreenenter"",""1"",""6409""
","
","","","-1","","","18","10005","4687","l","elianto","#3366ff99","-1","-1","1","+10","[]","0","2","","","10005","46","1","2","win","no-go","0"
"pit-trial","171","1145988","0.0-51.0","battery-v0.2","","""event"",""trial"",""time""
""fullscreenenter"",""1"",""6409""
","
","
","""event"",""trial"",""time""
""fullscreenenter"",""1"",""6409""
","
","","","-1","","","18","10005","4687","g","elianto","#f73b6a7A","-1","-1","1","0","[]","0","2","","","10005","47","3","4","lose","no-go","0"
"pit-trial","172","1150325","0.0-52.0","battery-v0.2","","""event"",""trial"",""time""
""fullscreenenter"",""1"",""6409""
","
","
","""event"",""trial"",""time""
""fullscreenenter"",""1"",""6409""
","
","","","1469.5999999977648","","","18","10005","4687","a","elianto","#f73b6a7A"," "," ","1","0","[2328.60000000149]","1","2","","","10005","48","2","3","lose","go","0"
"pit-trial","173","1155195","0.0-53.0","battery-v0.2","","""event"",""trial"",""time""
""fullscreenenter"",""1"",""6409""
","
","
","""event"",""trial"",""time""
""fullscreenenter"",""1"",""6409""
","
","","","-1","","","18","10005","4687","g","elianto","#f73b6a7A","-1","-1","1","-10","[]","0","2","","","10005","49","3","4","lose","no-go","1"
"pit-trial","174","1160060","0.0-54.0","battery-v0.2","","""event"",""trial"",""time""
""fullscreenenter"",""1"",""6409""
","
","
","""event"",""trial"",""time""
""fullscreenenter"",""1"",""6409""
","
","","","-1","","","18","10005","4687","l","elianto","#3366ff99","-1","-1","1","+10","[]","0","2","","","10005","50","1","2","win","no-go","0"
"pit-trial","175","1163996","0.0-55.0","battery-v0.2","","""event"",""trial"",""time""
""fullscreenenter"",""1"",""6409""
","
","
","""event"",""trial"",""time""
""fullscreenenter"",""1"",""6409""
","
","","","1069.9000000022352","","","18","10005","4687","u","elianto","#f73b6a7A"," "," ","1","0","[1922.5999999977648]","1","2","","","10005","51","0","3","lose","go","0"
"pit-trial","176","1167749","0.0-56.0","battery-v0.2","","""event"",""trial"",""time""
""fullscreenenter"",""1"",""6409""
","
","
","""event"",""trial"",""time""
""fullscreenenter"",""1"",""6409""
","
","","","888.6999999992549","","","18","10005","4687","a","elianto","#f73b6a7A"," "," ","1","0","[1740.5999999977648]","1","2","","","10005","52","2","3","lose","go","0"
"pit-trial","177","1171879","0.0-57.0","battery-v0.2","","""event"",""trial"",""time""
""fullscreenenter"",""1"",""6409""
","
","
","""event"",""trial"",""time""
""fullscreenenter"",""1"",""6409""
","
","","","1260.2999999970198","","","18","10005","4687","a","elianto","#f73b6a7A"," "," ","1","0","[2116.60000000149]","1","2","","","10005","53","2","3","lose","go","0"
"pit-trial","178","1176750","0.0-58.0","battery-v0.2","","""event"",""trial"",""time""
""fullscreenenter"",""1"",""6409""
","
","
","""event"",""trial"",""time""
""fullscreenenter"",""1"",""6409""
","
","","","-1","","","18","10005","4687","l","elianto","#3366ff99","-1","-1","1","+10","[]","0","2","","","10005","54","1","2","win","no-go","0"
"pit-trial","179","1181620","0.0-59.0","battery-v0.2","","""event"",""trial"",""time""
""fullscreenenter"",""1"",""6409""
","
","
","""event"",""trial"",""time""
""fullscreenenter"",""1"",""6409""
","
","","","-1","","","18","10005","4687","g","elianto","#f73b6a7A","-1","-1","1","0","[]","0","2","","","10005","55","3","4","lose","no-go","0"
"pit-trial","180","1185317","0.0-60.0","battery-v0.2","","""event"",""trial"",""time""
""fullscreenenter"",""1"",""6409""
","
","
","""event"",""trial"",""time""
""fullscreenenter"",""1"",""6409""
","
","","","837","","","18","10005","4687","u","elianto","#f73b6a7A"," "," ","1","0","[1687.2999999970198]","1","2","","","10005","56","0","3","lose","go","0"
"pit-trial","181","1188739","0.0-61.0","battery-v0.2","","""event"",""trial"",""time""
""fullscreenenter"",""1"",""6409""
","
","
","""event"",""trial"",""time""
""fullscreenenter"",""1"",""6409""
","
","","","563.6999999992549","","","18","10005","4687","a","elianto","#f73b6a7A"," "," ","1","0","[1415.199999999255]","1","2","","","10005","57","2","3","lose","go","0"
"pit-trial","182","1192952","0.0-62.0","battery-v0.2","","""event"",""trial"",""time""
""fullscreenenter"",""1"",""6409""
","
","
","""event"",""trial"",""time""
""fullscreenenter"",""1"",""6409""
","
","","","1349.5","","","18","10005","4687","u","elianto","#f73b6a7A"," "," ","1","-10","[2199.800000000745]","1","2","","","10005","58","0","3","lose","go","1"
"pit-trial","183","1197229","0.0-63.0","battery-v0.2","","""event"",""trial"",""time""
""fullscreenenter"",""1"",""6409""
","
","
","""event"",""trial"",""time""
""fullscreenenter"",""1"",""6409""
","
","","","1408.7999999970198","","","18","10005","4687","p","elianto","#3366ff99"," "," ","1","+10","[2263.2999999970198]","1","2","","","10005","59","4","1","win","go","0"
"pit-trial","184","1202100","0.0-64.0","battery-v0.2","","""event"",""trial"",""time""
""fullscreenenter"",""1"",""6409""
","
","
","""event"",""trial"",""time""
""fullscreenenter"",""1"",""6409""
","
","","","-1","","","18","10005","4687","g","elianto","#f73b6a7A","-1","-1","1","0","[]","0","2","","","10005","60","3","4","lose","no-go","0"
"pit-trial","185","1206008","0.0-65.0","battery-v0.2","","""event"",""trial"",""time""
""fullscreenenter"",""1"",""6409""
","
","
","""event"",""trial"",""time""
""fullscreenenter"",""1"",""6409""
","
","","","1041","","","18","10005","4687","a","elianto","#f73b6a7A"," "," ","1","-10","[1892.6000000014901]","1","2","","","10005","61","2","3","lose","go","1"
"pit-trial","186","1210880","0.0-66.0","battery-v0.2","","""event"",""trial"",""time""
""fullscreenenter"",""1"",""6409""
","
","
","""event"",""trial"",""time""
""fullscreenenter"",""1"",""6409""
","
","","","-1","","","18","10005","4687","l","elianto","#3366ff99","-1","-1","1","+10","[]","0","2","","","10005","62","1","2","win","no-go","0"
"pit-trial","187","1215749","0.0-67.0","battery-v0.2","","""event"",""trial"",""time""
""fullscreenenter"",""1"",""6409""
","
","
","""event"",""trial"",""time""
""fullscreenenter"",""1"",""6409""
","
","","","-1","","","18","10005","4687","g","elianto","#f73b6a7A","-1","-1","1","0","[]","0","2","","","10005","63","3","4","lose","no-go","0"
"pit-trial","188","1219381","0.0-68.0","battery-v0.2","","""event"",""trial"",""time""
""fullscreenenter"",""1"",""6409""
","
","
","""event"",""trial"",""time""
""fullscreenenter"",""1"",""6409""
","
","","","773.6000000014901","","","18","10005","4687","p","elianto","#3366ff99"," "," ","1","+10","[1626.1000000014901]","1","2","","","10005","64","4","1","win","go","0"
"pit-trial","189","1224247","0.0-69.0","battery-v0.2","","""event"",""trial"",""time""
""fullscreenenter"",""1"",""6409""
","
","
","""event"",""trial"",""time""
""fullscreenenter"",""1"",""6409""
","
","","","-1","","","18","10005","4687","l","elianto","#3366ff99","-1","-1","1","+10","[]","0","2","","","10005","65","1","2","win","no-go","0"
"pit-trial","190","1229118","0.0-70.0","battery-v0.2","","""event"",""trial"",""time""
""fullscreenenter"",""1"",""6409""
","
","
","""event"",""trial"",""time""
""fullscreenenter"",""1"",""6409""
","
","","","-1","","","18","10005","4687","g","elianto","#f73b6a7A","-1","-1","1","0","[]","0","2","","","10005","66","3","4","lose","no-go","0"
"pit-trial","191","1233460","0.0-71.0","battery-v0.2","","""event"",""trial"",""time""
""fullscreenenter"",""1"",""6409""
","
","
","""event"",""trial"",""time""
""fullscreenenter"",""1"",""6409""
","
","","","1485","","","18","10005","4687","s","elianto","#3366ff99","-1"," ","0","0","[2336.2000000029802]","1","2","","","10005","67","5","2","win","no-go","0"
"pit-trial","192","1238325","0.0-72.0","battery-v0.2","","""event"",""trial"",""time""
""fullscreenenter"",""1"",""6409""
","
","
","""event"",""trial"",""time""
""fullscreenenter"",""1"",""6409""
","
","","","-1","","","18","10005","4687","p","elianto","#3366ff99"," ","-1","0","0","[3057.7999999970198]","1","2","","","10005","68","4","1","win","go","0"
"pit-trial","193","1241988","0.0-73.0","battery-v0.2","","""event"",""trial"",""time""
""fullscreenenter"",""1"",""6409""
","
","
","""event"",""trial"",""time""
""fullscreenenter"",""1"",""6409""
","
","","","799.4000000022352","","","18","10005","4687","s","elianto","#3366ff99","-1"," ","0","0","[1652.300000000745]","1","2","","","10005","69","5","2","win","no-go","0"
"pit-trial","194","1245321","0.0-74.0","battery-v0.2","","""event"",""trial"",""time""
""fullscreenenter"",""1"",""6409""
","
","
","""event"",""trial"",""time""
""fullscreenenter"",""1"",""6409""
","
","","","470.19999999925494","","","18","10005","4687","p","elianto","#3366ff99"," "," ","1","+10","[1321.3999999985099]","1","2","","","10005","70","4","1","win","go","0"
"pit-trial","195","1249558","0.0-75.0","battery-v0.2","","""event"",""trial"",""time""
""fullscreenenter"",""1"",""6409""
","
","
","""event"",""trial"",""time""
""fullscreenenter"",""1"",""6409""
","
","","","1377.6000000014901","","","18","10005","4687","a","elianto","#f73b6a7A"," "," ","1","0","[2229.300000000745]","1","2","","","10005","71","2","3","lose","go","0"
"pit-trial","196","1254422","0.0-76.0","battery-v0.2","","""event"",""trial"",""time""
""fullscreenenter"",""1"",""6409""
","
","
","""event"",""trial"",""time""
""fullscreenenter"",""1"",""6409""
","
","","","-1","","","18","10005","4687","l","elianto","#3366ff99","-1","-1","1","+10","[]","0","2","","","10005","72","1","2","win","no-go","0"
"pit-trial","197","1259286","0.0-77.0","battery-v0.2","","""event"",""trial"",""time""
""fullscreenenter"",""1"",""6409""
","
","
","""event"",""trial"",""time""
""fullscreenenter"",""1"",""6409""
","
","","","-1","","","18","10005","4687","l","elianto","#3366ff99","-1","-1","1","+10","[]","0","2","","","10005","73","1","2","win","no-go","0"
"pit-trial","198","1263319","0.0-78.0","battery-v0.2","","""event"",""trial"",""time""
""fullscreenenter"",""1"",""6409""
","
","
","""event"",""trial"",""time""
""fullscreenenter"",""1"",""6409""
","
","","","1166.9000000022352","","","18","10005","4687","s","elianto","#3366ff99","-1"," ","0","0","[2022.6000000014901]","1","2","","","10005","74","5","2","win","no-go","0"
"pit-trial","199","1266736","0.0-79.0","battery-v0.2","","""event"",""trial"",""time""
""fullscreenenter"",""1"",""6409""
","
","
","""event"",""trial"",""time""
""fullscreenenter"",""1"",""6409""
","
","","","554.1000000014901","","","18","10005","4687","p","elianto","#3366ff99"," "," ","1","0","[1408.300000000745]","1","2","","","10005","75","4","1","win","go","1"
"pit-trial","200","1271600","0.0-80.0","battery-v0.2","","""event"",""trial"",""time""
""fullscreenenter"",""1"",""6409""
","
","
","""event"",""trial"",""time""
""fullscreenenter"",""1"",""6409""
","
","","","-1","","","18","10005","4687","g","elianto","#f73b6a7A","-1","-1","1","0","[]","0","2","","","10005","76","3","4","lose","no-go","0"
"pit-trial","201","1276470","0.0-81.0","battery-v0.2","","""event"",""trial"",""time""
""fullscreenenter"",""1"",""6409""
","
","
","""event"",""trial"",""time""
""fullscreenenter"",""1"",""6409""
","
","","","-1","","","18","10005","4687","p","elianto","#3366ff99"," ","-1","0","0","[]","0","2","","","10005","77","4","1","win","go","0"
"pit-trial","202","1280286","0.0-82.0","battery-v0.2","","""event"",""trial"",""time""
""fullscreenenter"",""1"",""6409""
","
","
","""event"",""trial"",""time""
""fullscreenenter"",""1"",""6409""
","
","","","955.8000000007451","","","18","10005","4687","s","elianto","#3366ff99","-1"," ","0","0","[1806.5999999977648]","1","2","","","10005","78","5","2","win","no-go","0"
"pit-trial","203","1285155","0.0-83.0","battery-v0.2","","""event"",""trial"",""time""
""fullscreenenter"",""1"",""6409""
","
","
","""event"",""trial"",""time""
""fullscreenenter"",""1"",""6409""
","
","","","-1","","","18","10005","4687","p","elianto","#3366ff99"," ","-1","0","0","[]","0","2","","","10005","79","4","1","win","go","0"
"pit-trial","204","1290026","0.0-84.0","battery-v0.2","","""event"",""trial"",""time""
""fullscreenenter"",""1"",""6409""
","
","
","""event"",""trial"",""time""
""fullscreenenter"",""1"",""6409""
","
","","","-1","","","18","10005","4687","g","elianto","#f73b6a7A","-1","-1","1","-10","[]","0","2","","","10005","80","3","4","lose","no-go","1"
"pit-trial","205","1293775","0.0-85.0","battery-v0.2","","""event"",""trial"",""time""
""fullscreenenter"",""1"",""6409""
","
","
","""event"",""trial"",""time""
""fullscreenenter"",""1"",""6409""
","
","","","883.1999999992549","","","18","10005","4687","p","elianto","#3366ff99"," "," ","1","+10","[1741]","1","2","","","10005","81","4","1","win","go","0"
"pit-trial","206","1298639","0.0-86.0","battery-v0.2","","""event"",""trial"",""time""
""fullscreenenter"",""1"",""6409""
","
","
","""event"",""trial"",""time""
""fullscreenenter"",""1"",""6409""
","
","","","-1","","","18","10005","4687","e","elianto","#f73b6a7A","-1","-1","1","0","[]","0","2","","","10005","82","7","4","lose","no-go","0"
"pit-trial","207","1303505","0.0-87.0","battery-v0.2","","""event"",""trial"",""time""
""fullscreenenter"",""1"",""6409""
","
","
","""event"",""trial"",""time""
""fullscreenenter"",""1"",""6409""
","
","","","-1","","","18","10005","4687","s","elianto","#3366ff99","-1","-1","1","+10","[]","0","2","","","10005","83","5","2","win","no-go","0"
"pit-trial","208","1308375","0.0-88.0","battery-v0.2","","""event"",""trial"",""time""
""fullscreenenter"",""1"",""6409""
","
","
","""event"",""trial"",""time""
""fullscreenenter"",""1"",""6409""
","
","","","-1","","","18","10005","4687","g","elianto","#f73b6a7A","-1","-1","1","0","[]","0","2","","","10005","84","3","4","lose","no-go","0"
"pit-trial","209","1313240","0.0-89.0","battery-v0.2","","""event"",""trial"",""time""
""fullscreenenter"",""1"",""6409""
","
","
","""event"",""trial"",""time""
""fullscreenenter"",""1"",""6409""
","
","","","-1","","","18","10005","4687","s","elianto","#3366ff99","-1","-1","1","+10","[]","0","2","","","10005","85","5","2","win","no-go","0"
"pit-trial","210","1316783","0.0-90.0","battery-v0.2","","""event"",""trial"",""time""
""fullscreenenter"",""1"",""6409""
","
","
","""event"",""trial"",""time""
""fullscreenenter"",""1"",""6409""
","
","","","685.8000000007451","","","18","10005","4687","p","elianto","#3366ff99"," "," ","1","+10","[1536.1000000014901]","1","2","","","10005","86","4","1","win","go","0"
"pit-trial","211","1321648","0.0-91.0","battery-v0.2","","""event"",""trial"",""time""
""fullscreenenter"",""1"",""6409""
","
","
","""event"",""trial"",""time""
""fullscreenenter"",""1"",""6409""
","
","","","-1","","","18","10005","4687","w","elianto","#f73b6a7A"," ","-1","0","-10","[]","0","2","","","10005","87","6","3","lose","go","0"
"pit-trial","212","1326511","0.0-92.0","battery-v0.2","","""event"",""trial"",""time""
""fullscreenenter"",""1"",""6409""
","
","
","""event"",""trial"",""time""
""fullscreenenter"",""1"",""6409""
","
","","","-1","","","18","10005","4687","e","elianto","#f73b6a7A","-1","-1","1","0","[]","0","2","","","10005","88","7","4","lose","no-go","0"
"pit-trial","213","1330721","0.0-93.0","battery-v0.2","","""event"",""trial"",""time""
""fullscreenenter"",""1"",""6409""
","
","
","""event"",""trial"",""time""
""fullscreenenter"",""1"",""6409""
","
","","","1349.199999999255","","","18","10005","4687","s","elianto","#3366ff99","-1"," ","0","+10","[2202.39999999851]","1","2","","","10005","89","5","2","win","no-go","1"
"pit-trial","214","1335584","0.0-94.0","battery-v0.2","","""event"",""trial"",""time""
""fullscreenenter"",""1"",""6409""
","
","
","""event"",""trial"",""time""
""fullscreenenter"",""1"",""6409""
","
","","","-1","","","18","10005","4687","e","elianto","#f73b6a7A","-1","-1","1","-10","[]","0","2","","","10005","90","7","4","lose","no-go","1"
"pit-trial","215","1339154","0.0-95.0","battery-v0.2","","""event"",""trial"",""time""
""fullscreenenter"",""1"",""6409""
","
","
","""event"",""trial"",""time""
""fullscreenenter"",""1"",""6409""
","
","","","705.1999999992549","","","18","10005","4687","w","elianto","#f73b6a7A"," "," ","1","0","[1558]","1","2","","","10005","91","6","3","lose","go","0"
"pit-trial","216","1342795","0.0-96.0","battery-v0.2","","""event"",""trial"",""time""
""fullscreenenter"",""1"",""6409""
","
","
","""event"",""trial"",""time""
""fullscreenenter"",""1"",""6409""
","
","","","780.0999999977648","","","18","10005","4687","p","elianto","#3366ff99"," "," ","1","+10","[1636.800000000745]","1","2","","","10005","92","4","1","win","go","0"
"pit-trial","217","1347636","0.0-97.0","battery-v0.2","","""event"",""trial"",""time""
""fullscreenenter"",""1"",""6409""
","
","
","""event"",""trial"",""time""
""fullscreenenter"",""1"",""6409""
","
","","","1968","","","18","10005","4687","w","elianto","#f73b6a7A"," "," ","1","0","[2825.800000000745]","1","2","","","10005","93","6","3","lose","go","0"
"pit-trial","218","1352507","0.0-98.0","battery-v0.2","","""event"",""trial"",""time""
""fullscreenenter"",""1"",""6409""
","
","
","""event"",""trial"",""time""
""fullscreenenter"",""1"",""6409""
","
","","","-1","","","18","10005","4687","s","elianto","#3366ff99","-1","-1","1","+10","[]","0","2","","","10005","94","5","2","win","no-go","0"
"pit-trial","219","1357378","0.0-99.0","battery-v0.2","","""event"",""trial"",""time""
""fullscreenenter"",""1"",""6409""
","
","
","""event"",""trial"",""time""
""fullscreenenter"",""1"",""6409""
","
","","","-1","","","18","10005","4687","e","elianto","#f73b6a7A","-1","-1","1","0","[]","0","2","","","10005","95","7","4","lose","no-go","0"
"pit-trial","220","1361813","0.0-100.0","battery-v0.2","","""event"",""trial"",""time""
""fullscreenenter"",""1"",""6409""
","
","
","""event"",""trial"",""time""
""fullscreenenter"",""1"",""6409""
","
","","","1574.199999999255","","","18","10005","4687","d","elianto","#3366ff99"," "," ","1","+10","[2425.5]","1","2","","","10005","96","8","1","win","go","0"
"pit-trial","221","1365394","0.0-101.0","battery-v0.2","","""event"",""trial"",""time""
""fullscreenenter"",""1"",""6409""
","
","
","""event"",""trial"",""time""
""fullscreenenter"",""1"",""6409""
","
","","","718.8999999985099","","","18","10005","4687","d","elianto","#3366ff99"," "," ","1","0","[1572]","1","2","","","10005","97","8","1","win","go","1"
"pit-trial","222","1369673","0.0-102.0","battery-v0.2","","""event"",""trial"",""time""
""fullscreenenter"",""1"",""6409""
","
","
","""event"",""trial"",""time""
""fullscreenenter"",""1"",""6409""
","
","","","1417.3999999985099","","","18","10005","4687","w","elianto","#f73b6a7A"," "," ","1","0","[2268.699999999255]","1","2","","","10005","98","6","3","lose","go","0"
"pit-trial","223","1374537","0.0-103.0","battery-v0.2","","""event"",""trial"",""time""
""fullscreenenter"",""1"",""6409""
","
","
","""event"",""trial"",""time""
""fullscreenenter"",""1"",""6409""
","
","","","-1","","","18","10005","4687","s","elianto","#3366ff99","-1","-1","1","+10","[]","0","2","","","10005","99","5","2","win","no-go","0"
"pit-trial","224","1379402","0.0-104.0","battery-v0.2","","""event"",""trial"",""time""
""fullscreenenter"",""1"",""6409""
","
","
","""event"",""trial"",""time""
""fullscreenenter"",""1"",""6409""
","
","","","-1","","","18","10005","4687","e","elianto","#f73b6a7A","-1","-1","1","0","[]","0","2","","","10005","100","7","4","lose","no-go","0"
"pit-trial","225","1383516","0.0-105.0","battery-v0.2","","""event"",""trial"",""time""
""fullscreenenter"",""1"",""6409""
","
","
","""event"",""trial"",""time""
""fullscreenenter"",""1"",""6409""
","
","","","1250.300000000745","","","18","10005","4687","d","elianto","#3366ff99"," "," ","1","+10","[2101.10000000149]","1","2","","","10005","101","8","1","win","go","0"
"pit-trial","226","1388394","0.0-106.0","battery-v0.2","","""event"",""trial"",""time""
""fullscreenenter"",""1"",""6409""
","
","
","""event"",""trial"",""time""
""fullscreenenter"",""1"",""6409""
","
","","","-1","","","18","10005","4687","e","elianto","#f73b6a7A","-1","-1","1","0","[]","0","2","","","10005","102","7","4","lose","no-go","0"
"pit-trial","227","1393259","0.0-107.0","battery-v0.2","","""event"",""trial"",""time""
""fullscreenenter"",""1"",""6409""
","
","
","""event"",""trial"",""time""
""fullscreenenter"",""1"",""6409""
","
","","","-1","","","18","10005","4687","s","elianto","#3366ff99","-1","-1","1","+10","[]","0","2","","","10005","103","5","2","win","no-go","0"
"pit-trial","228","1397379","0.0-108.0","battery-v0.2","","""event"",""trial"",""time""
""fullscreenenter"",""1"",""6409""
","
","
","""event"",""trial"",""time""
""fullscreenenter"",""1"",""6409""
","
","","","1262.699999999255","","","18","10005","4687","j","elianto","#3366ff99"," "," ","1","+10","[2113.89999999851]","1","2","","","10005","104","9","1","win","go","0"
"pit-trial","229","1400957","0.0-109.0","battery-v0.2","","""event"",""trial"",""time""
""fullscreenenter"",""1"",""6409""
","
","
","""event"",""trial"",""time""
""fullscreenenter"",""1"",""6409""
","
","","","716.3000000007451","","","18","10005","4687","j","elianto","#3366ff99"," "," ","1","+10","[1567.699999999255]","1","2","","","10005","105","9","1","win","go","0"
"pit-trial","230","1405173","0.0-110.0","battery-v0.2","","""event"",""trial"",""time""
""fullscreenenter"",""1"",""6409""
","
","
","""event"",""trial"",""time""
""fullscreenenter"",""1"",""6409""
","
","","","1349","","","18","10005","4687","p","elianto","#3366ff99"," "," ","1","+10","[2200.60000000149]","1","2","","","10005","106","4","1","win","go","0"
"pit-trial","231","1409345","0.0-111.0","battery-v0.2","","""event"",""trial"",""time""
""fullscreenenter"",""1"",""6409""
","
","
","""event"",""trial"",""time""
""fullscreenenter"",""1"",""6409""
","
","","","1313.1000000014901","","","18","10005","4687","w","elianto","#f73b6a7A"," "," ","1","0","[2167.39999999851]","1","2","","","10005","107","6","3","lose","go","0"
"pit-trial","232","1414210","0.0-112.0","battery-v0.2","","""event"",""trial"",""time""
""fullscreenenter"",""1"",""6409""
","
","
","""event"",""trial"",""time""
""fullscreenenter"",""1"",""6409""
","
","","","-1","","","18","10005","4687","d","elianto","#3366ff99"," ","-1","0","0","[]","0","2","","","10005","108","8","1","win","go","0"
"pit-trial","233","1417686","0.0-113.0","battery-v0.2","","""event"",""trial"",""time""
""fullscreenenter"",""1"",""6409""
","
","
","""event"",""trial"",""time""
""fullscreenenter"",""1"",""6409""
","
","","","611.4000000022352","","","18","10005","4687","d","elianto","#3366ff99"," "," ","1","+10","[1463.4000000022352]","1","2","","","10005","109","8","1","win","go","0"
"pit-trial","234","1421458","0.0-114.0","battery-v0.2","","""event"",""trial"",""time""
""fullscreenenter"",""1"",""6409""
","
","
","""event"",""trial"",""time""
""fullscreenenter"",""1"",""6409""
","
","","","910.3000000007451","","","18","10005","4687","w","elianto","#f73b6a7A"," "," ","1","-10","[1764]","1","2","","","10005","110","6","3","lose","go","1"
"pit-trial","235","1426324","0.0-115.0","battery-v0.2","","""event"",""trial"",""time""
""fullscreenenter"",""1"",""6409""
","
","
","""event"",""trial"",""time""
""fullscreenenter"",""1"",""6409""
","
","","","-1","","","18","10005","4687","j","elianto","#3366ff99"," ","-1","0","0","[]","0","2","","","10005","111","9","1","win","go","0"
"pit-trial","236","1431190","0.0-116.0","battery-v0.2","","""event"",""trial"",""time""
""fullscreenenter"",""1"",""6409""
","
","
","""event"",""trial"",""time""
""fullscreenenter"",""1"",""6409""
","
","","","-1","","","18","10005","4687","s","elianto","#3366ff99","-1","-1","1","+10","[]","0","2","","","10005","112","5","2","win","no-go","0"
"pit-trial","237","1436050","0.0-117.0","battery-v0.2","","""event"",""trial"",""time""
""fullscreenenter"",""1"",""6409""
","
","
","""event"",""trial"",""time""
""fullscreenenter"",""1"",""6409""
","
","","","-1","","","18","10005","4687","s","elianto","#3366ff99","-1","-1","1","+10","[]","0","2","","","10005","113","5","2","win","no-go","0"
"pit-trial","238","1439678","0.0-118.0","battery-v0.2","","""event"",""trial"",""time""
""fullscreenenter"",""1"",""6409""
","
","
","""event"",""trial"",""time""
""fullscreenenter"",""1"",""6409""
","
","","","753.2999999970198","","","18","10005","4687","d","elianto","#3366ff99"," "," ","1","+10","[1615.7999999970198]","1","2","","","10005","114","8","1","win","go","0"
"pit-trial","239","1443143","0.0-119.0","battery-v0.2","","""event"",""trial"",""time""
""fullscreenenter"",""1"",""6409""
","
","
","""event"",""trial"",""time""
""fullscreenenter"",""1"",""6409""
","
","","","591.1000000014901","","","18","10005","4687","j","elianto","#3366ff99"," "," ","1","0","[1449.1000000014901]","1","2","","","10005","115","9","1","win","go","1"
"pit-trial","240","1447004","0.0-120.0","battery-v0.2","","""event"",""trial"",""time""
""fullscreenenter"",""1"",""6409""
","
","
","""event"",""trial"",""time""
""fullscreenenter"",""1"",""6409""
","
","","","995","","","18","10005","4687","w","elianto","#f73b6a7A"," "," ","1","0","[1852.199999999255]","1","2","","","10005","116","6","3","lose","go","0"
"pit-trial","241","1450628","0.0-121.0","battery-v0.2","","""event"",""trial"",""time""
""fullscreenenter"",""1"",""6409""
","
","
","""event"",""trial"",""time""
""fullscreenenter"",""1"",""6409""
","
","","","755.6999999992549","","","18","10005","4687","d","elianto","#3366ff99"," "," ","1","+10","[1611.699999999255]","1","2","","","10005","117","8","1","win","go","0"
"pit-trial","242","1454254","0.0-122.0","battery-v0.2","","""event"",""trial"",""time""
""fullscreenenter"",""1"",""6409""
","
","
","""event"",""trial"",""time""
""fullscreenenter"",""1"",""6409""
","
","","","764.3999999985099","","","18","10005","4687","j","elianto","#3366ff99"," "," ","1","+10","[1614.7999999970198]","1","2","","","10005","118","9","1","win","go","0"
"pit-trial","243","1457824","0.0-123.0","battery-v0.2","","""event"",""trial"",""time""
""fullscreenenter"",""1"",""6409""
","
","
","""event"",""trial"",""time""
""fullscreenenter"",""1"",""6409""
","
","","","695.8999999985099","","","18","10005","4687","w","elianto","#f73b6a7A"," "," ","1","-10","[1553.2999999970198]","1","2","","","10005","119","6","3","lose","go","1"
"pit-trial","244","1462695","0.0-124.0","battery-v0.2","","""event"",""trial"",""time""
""fullscreenenter"",""1"",""6409""
","
","
","""event"",""trial"",""time""
""fullscreenenter"",""1"",""6409""
","
","","","-1","","","18","10005","4687","s","elianto","#3366ff99","-1","-1","1","+10","[]","0","2","","","10005","120","5","2","win","no-go","0"
"pit-trial","245","1466253","0.0-125.0","battery-v0.2","","""event"",""trial"",""time""
""fullscreenenter"",""1"",""6409""
","
","
","""event"",""trial"",""time""
""fullscreenenter"",""1"",""6409""
","
","","","684.8000000007451","","","18","10005","4687","d","elianto","#3366ff99"," "," ","1","+10","[1545.1000000014901]","1","2","","","10005","121","8","1","win","go","0"
"pit-trial","246","1469893","0.0-126.0","battery-v0.2","","""event"",""trial"",""time""
""fullscreenenter"",""1"",""6409""
","
","
","""event"",""trial"",""time""
""fullscreenenter"",""1"",""6409""
","
","","","776.3999999985099","","","18","10005","4687","j","elianto","#3366ff99"," "," ","1","+10","[1628.199999999255]","1","2","","","10005","122","9","1","win","go","0"
"pit-trial","247","1473580","0.0-127.0","battery-v0.2","","""event"",""trial"",""time""
""fullscreenenter"",""1"",""6409""
","
","
","""event"",""trial"",""time""
""fullscreenenter"",""1"",""6409""
","
","","","827.1000000014901","","","18","10005","4687","w","elianto","#f73b6a7A"," "," ","1","0","[1678.4000000022352]","1","2","","","10005","123","6","3","lose","go","0"
"pit-trial","248","1478444","0.0-128.0","battery-v0.2","","""event"",""trial"",""time""
""fullscreenenter"",""1"",""6409""
","
","
","""event"",""trial"",""time""
""fullscreenenter"",""1"",""6409""
","
","","","-1","","","18","10005","4687","e","elianto","#f73b6a7A","-1","-1","1","0","[]","0","2","","","10005","124","7","4","lose","no-go","0"
"pit-trial","249","1481927","0.0-129.0","battery-v0.2","","""event"",""trial"",""time""
""fullscreenenter"",""1"",""6409""
","
","
","""event"",""trial"",""time""
""fullscreenenter"",""1"",""6409""
","
","","","617.2999999970198","","","18","10005","4687","d","elianto","#3366ff99"," "," ","1","0","[1470]","1","2","","","10005","125","8","1","win","go","1"
"pit-trial","250","1486800","0.0-130.0","battery-v0.2","","""event"",""trial"",""time""
""fullscreenenter"",""1"",""6409""
","
","
","""event"",""trial"",""time""
""fullscreenenter"",""1"",""6409""
","
","","","-1","","","18","10005","4687","e","elianto","#f73b6a7A","-1","-1","1","0","[]","0","2","","","10005","126","7","4","lose","no-go","0"
"pit-trial","251","1490501","0.0-131.0","battery-v0.2","","""event"",""trial"",""time""
""fullscreenenter"",""1"",""6409""
","
","
","""event"",""trial"",""time""
""fullscreenenter"",""1"",""6409""
","
","","","828.1999999992549","","","18","10005","4687","j","elianto","#3366ff99"," "," ","1","+10","[1688.5]","1","2","","","10005","127","9","1","win","go","0"
"pit-trial","252","1494623","0.0-132.0","battery-v0.2","","""event"",""trial"",""time""
""fullscreenenter"",""1"",""6409""
","
","
","""event"",""trial"",""time""
""fullscreenenter"",""1"",""6409""
","
","","","1258.5999999977648","","","18","10005","4687","w","elianto","#f73b6a7A"," "," ","1","0","[2110.599999997765]","1","2","","","10005","128","6","3","lose","go","0"
"pit-trial","253","1499061","0.0-133.0","battery-v0.2","","""event"",""trial"",""time""
""fullscreenenter"",""1"",""6409""
","
","
","""event"",""trial"",""time""
""fullscreenenter"",""1"",""6409""
","
","","","1572","","","18","10005","4687","d","elianto","#3366ff99"," "," ","1","+10","[2425.800000000745]","1","2","","","10005","129","8","1","win","go","0"
"pit-trial","254","1503929","0.0-134.0","battery-v0.2","","""event"",""trial"",""time""
""fullscreenenter"",""1"",""6409""
","
","
","""event"",""trial"",""time""
""fullscreenenter"",""1"",""6409""
","
","","","-1","","","18","10005","4687","e","elianto","#f73b6a7A","-1","-1","1","0","[]","0","2","","","10005","130","7","4","lose","no-go","0"
"pit-trial","255","1507505","0.0-135.0","battery-v0.2","","""event"",""trial"",""time""
""fullscreenenter"",""1"",""6409""
","
","
","""event"",""trial"",""time""
""fullscreenenter"",""1"",""6409""
","
","","","704.7000000029802","","","18","10005","4687","j","elianto","#3366ff99"," "," ","1","+10","[1561.5]","1","2","","","10005","131","9","1","win","go","0"
"pit-trial","256","1511239","0.0-136.0","battery-v0.2","","""event"",""trial"",""time""
""fullscreenenter"",""1"",""6409""
","
","
","""event"",""trial"",""time""
""fullscreenenter"",""1"",""6409""
","
","","","872.6000000014901","","","18","10005","4687","w","elianto","#f73b6a7A"," "," ","1","0","[1727.699999999255]","1","2","","","10005","132","6","3","lose","go","0"
"pit-trial","257","1514749","0.0-137.0","battery-v0.2","","""event"",""trial"",""time""
""fullscreenenter"",""1"",""6409""
","
","
","""event"",""trial"",""time""
""fullscreenenter"",""1"",""6409""
","
","","","650.3999999985099","","","18","10005","4687","j","elianto","#3366ff99"," "," ","1","+10","[1503.7000000029802]","1","2","","","10005","133","9","1","win","go","0"
"pit-trial","258","1518312","0.0-138.0","battery-v0.2","","""event"",""trial"",""time""
""fullscreenenter"",""1"",""6409""
","
","
","""event"",""trial"",""time""
""fullscreenenter"",""1"",""6409""
","
","","","697.5","","","18","10005","4687","w","elianto","#f73b6a7A"," "," ","1","0","[1550.5999999977648]","1","2","","","10005","134","6","3","lose","go","0"
"pit-trial","259","1523184","0.0-139.0","battery-v0.2","","""event"",""trial"",""time""
""fullscreenenter"",""1"",""6409""
","
","
","""event"",""trial"",""time""
""fullscreenenter"",""1"",""6409""
","
","","","-1","","","18","10005","4687","e","elianto","#f73b6a7A","-1","-1","1","0","[]","0","2","","","10005","135","7","4","lose","no-go","0"
"pit-trial","260","1526847","0.0-140.0","battery-v0.2","","""event"",""trial"",""time""
""fullscreenenter"",""1"",""6409""
","
","
","""event"",""trial"",""time""
""fullscreenenter"",""1"",""6409""
","
","","","795.1000000014901","","","18","10005","4687","d","elianto","#3366ff99"," "," ","1","+10","[1651.8999999985099]","1","2","","","10005","136","8","1","win","go","0"
"pit-trial","261","1530429","0.0-141.0","battery-v0.2","","""event"",""trial"",""time""
""fullscreenenter"",""1"",""6409""
","
","
","""event"",""trial"",""time""
""fullscreenenter"",""1"",""6409""
","
","","","724","","","18","10005","4687","w","elianto","#f73b6a7A"," "," ","1","0","[1574.5]","1","2","","","10005","137","6","3","lose","go","0"
"pit-trial","262","1535293","0.0-142.0","battery-v0.2","","""event"",""trial"",""time""
""fullscreenenter"",""1"",""6409""
","
","
","""event"",""trial"",""time""
""fullscreenenter"",""1"",""6409""
","
","","","-1","","","18","10005","4687","e","elianto","#f73b6a7A","-1","-1","1","0","[]","0","2","","","10005","138","7","4","lose","no-go","0"
"pit-trial","263","1538765","0.0-143.0","battery-v0.2","","""event"",""trial"",""time""
""fullscreenenter"",""1"",""6409""
","
","
","""event"",""trial"",""time""
""fullscreenenter"",""1"",""6409""
","
","","","612.5","","","18","10005","4687","d","elianto","#3366ff99"," "," ","1","0","[1462.800000000745]","1","2","","","10005","139","8","1","win","go","1"
"pit-trial","264","1542263","0.0-144.0","battery-v0.2","","""event"",""trial"",""time""
""fullscreenenter"",""1"",""6409""
","
","
","""event"",""trial"",""time""
""fullscreenenter"",""1"",""6409""
","
","","","636.6000000014901","","","18","10005","4687","j","elianto","#3366ff99"," "," ","1","0","[1489.199999999255]","1","2","","","10005","140","9","1","win","go","1"
"pit-instructions","265","1558458","0.0-145.0","battery-v0.2","","""event"",""trial"",""time""
""fullscreenenter"",""1"",""6409""
","
","
","""event"",""trial"",""time""
""fullscreenenter"",""1"",""6409""
","
","","[{""page_index"":0,""viewing_time"":7855.199999999255},{""page_index"":1,""viewing_time"":8337.199999999255}]","16192.599999997765","","","","","","","","","","","","","","","","","","","","","","","",""
"pit-trial","266","1563329","0.0-146.0","battery-v0.2","","""event"",""trial"",""time""
""fullscreenenter"",""1"",""6409""
","
","
","""event"",""trial"",""time""
""fullscreenenter"",""1"",""6409""
","
","","","-1","","","18","10005","4687","t","elianto","#f73b6a7A","-1","-1","1","-10","[]","0","3","","","10005","141","2","4","lose","no-go","1"
"pit-trial","267","1568200","0.0-147.0","battery-v0.2","","""event"",""trial"",""time""
""fullscreenenter"",""1"",""6409""