"trial_type","trial_index","time_elapsed","internal_node_id","task_version","subject_id","interactions","blur_events","focus_events","fullscreenenter_events","fullscreenexit_events","success","view_history","rt","responses","num_errors","age","subject","participantId","rune","rune_set","hex","correct","choice","accuracy","outcome","keys","total_keys","block","practice","value","sub","trial","stimulus","robot","valence","action","sham"
"pavlovia","0","16","0.0-0.0","battery-v0.2","","""event"",""trial"",""time""
""fullscreenenter"",""1"",""3537""
","
","
","""event"",""trial"",""time""
""fullscreenenter"",""1"",""3537""
","
","","","","","","","","","","","","","","","","","","","","","","","","","","",""
"fullscreen","1","4519","0.0-1.0","battery-v0.2","","""event"",""trial"",""time""
""fullscreenenter"",""1"",""3537""
","
","
","""event"",""trial"",""time""
""fullscreenenter"",""1"",""3537""
","
","true","","","","","","","","","","","","","","","","","","","","","","","","","",""
"pit-instructions","2","10991","0.0-2.0-0.0","battery-v0.2","","""event"",""trial"",""time""
""fullscreenenter"",""1"",""3537""
","
","
","""event"",""trial"",""time""
""fullscreenenter"",""1"",""3537""
","
","","[{""page_index"":0,""viewing_time"":6468.89999999851}]","6469.29999999702","","","","","","","","","","","","","","","","","","","","","","","",""
"pit-comprehension","3","15151","0.0-2.0-1.0-0.0","battery-v0.2","","""event"",""trial"",""time""
""fullscreenenter"",""1"",""3537""
","
","
","""event"",""trial"",""time""
""fullscreenenter"",""1"",""3537""
","
","","","4157.10000000149","[""shark""]","0","14","18054","6703","","","","","","","","","","","","","","","","","","",""
"pit-instructions","4","22628","0.0-2.0-1.0-1.0","battery-v0.2","","""event"",""trial"",""time""
""fullscreenenter"",""1"",""3537""
","
","
","""event"",""trial"",""time""
""fullscreenenter"",""1"",""3537""
","
","","[{""page_index"":0,""viewing_time"":7466.19999999553}]","7466.5","","","","","","","","","","","","","","","","","","","","","","","",""
"pit-comprehension","5","25996","0.0-2.0-2.0-0.0","battery-v0.2","","""event"",""trial"",""time""
""fullscreenenter"",""1"",""3537""
","
","
","""event"",""trial"",""time""
""fullscreenenter"",""1"",""3537""
","
","","","3365.1999999955297","[""tiger""]","0","14","18054","6703","","","","","","","","","","","","","","","","","","",""
"pit-instructions","6","26950","0.0-2.0-2.0-1.0","battery-v0.2","","""event"",""trial"",""time""
""fullscreenenter"",""1"",""3537""
","
","
","""event"",""trial"",""time""
""fullscreenenter"",""1"",""3537""
","
","","[{""page_index"":0,""viewing_time"":951.1000000014901}]","951.3000000044703","","","","","","","","","","","","","","","","","","","","","","","",""
"pit-instructions","7","123037","0.0-2.0-3.0","battery-v0.2","","""event"",""trial"",""time""
""fullscreenenter"",""1"",""3537""
","
","
","""event"",""trial"",""time""
""fullscreenenter"",""1"",""3537""
","
","","[{""page_index"":0,""viewing_time"":8767.89999999851},{""page_index"":1,""viewing_time"":5824.60000000149},{""page_index"":2,""viewing_time"":7651.19999999553},{""page_index"":3,""viewing_time"":5252.60000000149},{""page_index"":4,""viewing_time"":5738.60000000149},{""page_index"":5,""viewing_time"":5876.39999999851},{""page_index"":6,""viewing_time"":6374.29999999702},{""page_index"":7,""viewing_time"":6594.30000000447},{""page_index"":8,""viewing_time"":7299.60000000149},{""page_index"":9,""viewing_time"":8083},{""page_index"":10,""viewing_time"":8180.0999999940395},{""page_index"":11,""viewing_time"":9023.20000000298},{""page_index"":12,""viewing_time"":6344.5},{""page_index"":13,""viewing_time"":5074.39999999851}]","96085","","","","","","","","","","","","","","","","","","","","","","","",""
"pit-trial","8","126535","0.0-2.0-4.0-0.0","battery-v0.2","","""event"",""trial"",""time""
""fullscreenenter"",""1"",""3537""
","
","
","""event"",""trial"",""time""
""fullscreenenter"",""1"",""3537""
","
","","","643.6999999955297","","","14","18054","6703","&#9784;","elianto","#FFFFF080"," "," ","1","&#10004","[1493.8999999985099]","1","0","0","","","","","","","",""
"pit-trial","9","130100","0.0-2.0-4.1-0.1","battery-v0.2","","""event"",""trial"",""time""
""fullscreenenter"",""1"",""3537""
","
","
","""event"",""trial"",""time""
""fullscreenenter"",""1"",""3537""
","
","","","709","","","14","18054","6703","&#9784;","elianto","#FFFFF080"," "," ","1","&#10004","[1559.8999999985099]","1","0","0","","","","","","","",""
"pit-trial","10","133621","0.0-2.0-4.2-0.2","battery-v0.2","","""event"",""trial"",""time""
""fullscreenenter"",""1"",""3537""
","
","
","""event"",""trial"",""time""
""fullscreenenter"",""1"",""3537""
","
","","","662.5","","","14","18054","6703","&#9784;","elianto","#FFFFF080"," "," ","1","&#10004","[1516.7999999970198]","1","0","0","","","","","","","",""
"pit-trial","11","137212","0.0-2.0-4.3-0.3","battery-v0.2","","""event"",""trial"",""time""
""fullscreenenter"",""1"",""3537""
","
","
","""event"",""trial"",""time""
""fullscreenenter"",""1"",""3537""
","
","","","736.6999999955297","","","14","18054","6703","&#9784;","elianto","#FFFFF080"," "," ","1","&#10004","[1587.5999999940395]","1","0","0","","","","","","","",""
"pit-trial","12","140685","0.0-2.0-4.4-0.4","battery-v0.2","","""event"",""trial"",""time""
""fullscreenenter"",""1"",""3537""
","
","
","""event"",""trial"",""time""
""fullscreenenter"",""1"",""3537""
","
","","","618.3999999985099","","","14","18054","6703","&#9784;","elianto","#FFFFF080"," "," ","1","&#10004","[1469.6000000014901]","1","0","0","","","","","","","",""
"pit-instructions","13","168488","0.0-2.0-5.0","battery-v0.2","","""event"",""trial"",""time""
""fullscreenenter"",""1"",""3537""
","
","
","""event"",""trial"",""time""
""fullscreenenter"",""1"",""3537""
","
","","[{""page_index"":0,""viewing_time"":5156.89999999851},{""page_index"":1,""viewing_time"":6351.9000000059605},{""page_index"":2,""viewing_time"":10225.19999999553},{""page_index"":3,""viewing_time"":6065.60000000149}]","27799.80000000447","","","","","","","","","","","","","","","","","","","","","","","",""
"pit-trial","14","173342","0.0-2.0-6.0-0.0","battery-v0.2","","""event"",""trial"",""time""
""fullscreenenter"",""1"",""3537""
","
","
","""event"",""trial"",""time""
""fullscreenenter"",""1"",""3537""
","
","","","-1","","","14","18054","6703","&#9854;","elianto","#FFFFF080","-1","-1","1","&#10004","[]","0","0","1","","","","","","","",""
"pit-trial","15","178196","0.0-2.0-6.1-0.1","battery-v0.2","","""event"",""trial"",""time""
""fullscreenenter"",""1"",""3537""
","
","
","""event"",""trial"",""time""
""fullscreenenter"",""1"",""3537""
","
","","","-1","","","14","18054","6703","&#9854;","elianto","#FFFFF080","-1","-1","1","&#10004","[]","0","0","1","","","","","","","",""
"pit-trial","16","183050","0.0-2.0-6.2-0.2","battery-v0.2","","""event"",""trial"",""time""
""fullscreenenter"",""1"",""3537""
","
","
","""event"",""trial"",""time""
""fullscreenenter"",""1"",""3537""
","
","","","-1","","","14","18054","6703","&#9854;","elianto","#FFFFF080","-1","-1","1","&#10004","[]","0","0","1","","","","","","","",""
"pit-trial","17","187904","0.0-2.0-6.3-0.3","battery-v0.2","","""event"",""trial"",""time""
""fullscreenenter"",""1"",""3537""
","
","
","""event"",""trial"",""time""
""fullscreenenter"",""1"",""3537""
","
","","","-1","","","14","18054","6703","&#9854;","elianto","#FFFFF080","-1","-1","1","&#10004","[]","0","0","1","","","","","","","",""
"pit-trial","18","192757","0.0-2.0-6.4-0.4","battery-v0.2","","""event"",""trial"",""time""
""fullscreenenter"",""1"",""3537""
","
","
","""event"",""trial"",""time""
""fullscreenenter"",""1"",""3537""
","
","","","-1","","","14","18054","6703","&#9854;","elianto","#FFFFF080","-1","-1","1","&#10004","[]","0","0","1","","","","","","","",""
"pit-instructions","19","309964","0.0-2.0-7.0","battery-v0.2","","""event"",""trial"",""time""
""fullscreenenter"",""1"",""3537""
","
","
","""event"",""trial"",""time""
""fullscreenenter"",""1"",""3537""
","
","","[{""page_index"":0,""viewing_time"":10163.10000000149},{""page_index"":1,""viewing_time"":7105.5},{""page_index"":2,""viewing_time"":5473},{""page_index"":3,""viewing_time"":5772.29999999702},{""page_index"":4,""viewing_time"":6189},{""page_index"":5,""viewing_time"":5108.39999999851},{""page_index"":6,""viewing_time"":4384.39999999851},{""page_index"":7,""viewing_time"":8022.9000000059605},{""page_index"":8,""viewing_time"":6388.5999999940395},{""page_index"":9,""viewing_time"":5673.10000000149},{""page_index"":10,""viewing_time"":6089.10000000149},{""page_index"":11,""viewing_time"":5499.60000000149},{""page_index"":12,""viewing_time"":7038.10000000149},{""page_index"":13,""viewing_time"":6439.5},{""page_index"":14,""viewing_time"":7152.19999999553},{""page_index"":15,""viewing_time"":6223.60000000149},{""page_index"":16,""viewing_time"":7757},{""page_index"":17,""viewing_time"":6724.79999999702}]","117204.5","","","","","","","","","","","","","","","","","","","","","","","",""
"pit-trial","20","313350","0.0-2.0-8.0-0.0","battery-v0.2","","""event"",""trial"",""time""
""fullscreenenter"",""1"",""3537""
","
","
","""event"",""trial"",""time""
""fullscreenenter"",""1"",""3537""
","
","","","532.8000000044703","","","14","18054","6703","&#9776;","elianto","#3366ff99"," "," ","1","+10","[1383.5]","1","0","1","","","","","","","",""
"pit-trial","21","316765","0.0-2.0-8.0-1.0","battery-v0.2","","""event"",""trial"",""time""
""fullscreenenter"",""1"",""3537""
","
","
","""event"",""trial"",""time""
""fullscreenenter"",""1"",""3537""
","
","","","559.8999999985099","","","14","18054","6703","&#9776;","elianto","#3366ff99"," "," ","1","+10","[1412.1999999955297]","1","0","1","","","","","","","",""
"pit-trial","22","320256","0.0-2.0-8.0-2.0","battery-v0.2","","""event"",""trial"",""time""
""fullscreenenter"",""1"",""3537""
","
","
","""event"",""trial"",""time""
""fullscreenenter"",""1"",""3537""
","
","","","639.3000000044703","","","14","18054","6703","&#9776;","elianto","#3366ff99"," "," ","1","+10","[1489.7999999970198]","1","0","1","","","","","","","",""
"pit-trial","23","323672","0.0-2.0-8.0-3.0","battery-v0.2","","""event"",""trial"",""time""
""fullscreenenter"",""1"",""3537""
","
","
","""event"",""trial"",""time""
""fullscreenenter"",""1"",""3537""
","
","","","563.2999999970198","","","14","18054","6703","&#9776;","elianto","#3366ff99"," "," ","1","0","[1414.1000000014901]","1","0","1","","","","","","","",""
"pit-trial","24","326951","0.0-2.0-8.0-4.0","battery-v0.2","","""event"",""trial"",""time""
""fullscreenenter"",""1"",""3537""
","
","
","""event"",""trial"",""time""
""fullscreenenter"",""1"",""3537""
","
","","","426.5","","","14","18054","6703","&#9776;","elianto","#3366ff99"," "," ","1","+10","[1277.7000000029802]","1","0","1","","","","","","","",""
"pit-trial","25","330476","0.0-2.0-8.1-0.1","battery-v0.2","","""event"",""trial"",""time""
""fullscreenenter"",""1"",""3537""
","
","
","""event"",""trial"",""time""
""fullscreenenter"",""1"",""3537""
","
","","","671","","","14","18054","6703","&#9776;","elianto","#3366ff99"," "," ","1","+10","[1522.5]","1","0","1","","","","","","","",""
"pit-trial","26","333812","0.0-2.0-8.1-1.1","battery-v0.2","","""event"",""trial"",""time""
""fullscreenenter"",""1"",""3537""
","
","
","""event"",""trial"",""time""
""fullscreenenter"",""1"",""3537""
","
","","","483.1000000014901","","","14","18054","6703","&#9776;","elianto","#3366ff99"," "," ","1","+10","[1334.0999999940395]","1","0","1","","","","","","","",""
"pit-trial","27","337575","0.0-2.0-8.1-2.1","battery-v0.2","","""event"",""trial"",""time""
""fullscreenenter"",""1"",""3537""
","
","
","""event"",""trial"",""time""
""fullscreenenter"",""1"",""3537""
","
","","","910","","","14","18054","6703","&#9776;","elianto","#3366ff99"," "," ","1","+10","[1760.6000000014901]","1","0","1","","","","","","","",""
"pit-trial","28","340920","0.0-2.0-8.1-3.1","battery-v0.2","","""event"",""trial"",""time""
""fullscreenenter"",""1"",""3537""
","
","
","""event"",""trial"",""time""
""fullscreenenter"",""1"",""3537""
","
","","","489.3999999985099","","","14","18054","6703","&#9776;","elianto","#3366ff99"," "," ","1","0","[1340.8999999985099]","1","0","1","","","","","","","",""
"pit-trial","29","344161","0.0-2.0-8.1-4.1","battery-v0.2","","""event"",""trial"",""time""
""fullscreenenter"",""1"",""3537""
","
","
","""event"",""trial"",""time""
""fullscreenenter"",""1"",""3537""
","
","","","386.80000000447035","","","14","18054","6703","&#9776;","elianto","#3366ff99"," "," ","1","+10","[1237.8000000044703]","1","0","1","","","","","","","",""
"pit-trial","30","347411","0.0-2.0-8.2-0.2","battery-v0.2","","""event"",""trial"",""time""
""fullscreenenter"",""1"",""3537""
","
","
","""event"",""trial"",""time""
""fullscreenenter"",""1"",""3537""
","
","","","396.69999999552965","","","14","18054","6703","&#9776;","elianto","#3366ff99"," "," ","1","+10","[1247.5999999940395]","1","0","1","","","","","","","",""
"pit-trial","31","350603","0.0-2.0-8.2-1.2","battery-v0.2","","""event"",""trial"",""time""
""fullscreenenter"",""1"",""3537""
","
","
","""event"",""trial"",""time""
""fullscreenenter"",""1"",""3537""
","
","","","337.80000000447035","","","14","18054","6703","&#9776;","elianto","#3366ff99"," "," ","1","+10","[1188.8000000044703]","1","0","1","","","","","","","",""
"pit-trial","32","353699","0.0-2.0-8.2-2.2","battery-v0.2","","""event"",""trial"",""time""
""fullscreenenter"",""1"",""3537""
","
","
","""event"",""trial"",""time""
""fullscreenenter"",""1"",""3537""
","
","","","242.29999999701977","","","14","18054","6703","&#9776;","elianto","#3366ff99"," "," ","1","+10","[1093.1000000014901]","1","0","1","","","","","","","",""
"pit-trial","33","356889","0.0-2.0-8.2-3.2","battery-v0.2","","""event"",""trial"",""time""
""fullscreenenter"",""1"",""3537""
","
","
","""event"",""trial"",""time""
""fullscreenenter"",""1"",""3537""
","
","","","335.3999999985099","","","14","18054","6703","&#9776;","elianto","#3366ff99"," "," ","1","0","[1187.4000000059605]","1","0","1","","","","","","","",""
"pit-trial","34","360143","0.0-2.0-8.2-4.2","battery-v0.2","","""event"",""trial"",""time""
""fullscreenenter"",""1"",""3537""
","
","
","""event"",""trial"",""time""
""fullscreenenter"",""1"",""3537""
","
","","","401.5","","","14","18054","6703","&#9776;","elianto","#3366ff99"," "," ","1","+10","[1252.3999999985099]","1","0","1","","","","","","","",""
"call-function","35","360144","0.0-2.0-9.0","battery-v0.2","","""event"",""trial"",""time""
""fullscreenenter"",""1"",""3537""
","
","
","""event"",""trial"",""time""
""fullscreenenter"",""1"",""3537""
","
","","","","","","","","","","","","","","","","","","","","","","","","","","",""
"pit-instructions","36","409104","0.0-2.0-10.0","battery-v0.2","","""event"",""trial"",""time""
""fullscreenenter"",""1"",""3537""
","
","
","""event"",""trial"",""time""
""fullscreenenter"",""1"",""3537""
","
","","[{""page_index"":0,""viewing_time"":14501.60000000149},{""page_index"":1,""viewing_time"":6921.10000000149},{""page_index"":2,""viewing_time"":9353.60000000149},{""page_index"":3,""viewing_time"":8980.39999999851},{""page_index"":4,""viewing_time"":9202.20000000298}]","48959.20000000298","","","","","","","","","","","","","","","","","","","","","","","",""
"pit-trial","37","413957","0.0-2.0-11.0-0.0","battery-v0.2","","""event"",""trial"",""time""
""fullscreenenter"",""1"",""3537""
","
","
","""event"",""trial"",""time""
""fullscreenenter"",""1"",""3537""
","
","","","-1","","","14","18054","6703","&#9761;","elianto","#3366ff99","-1","-1","1","+10","[]","0","0","2","","","","","","","",""
"pit-trial","38","418812","0.0-2.0-11.0-1.0","battery-v0.2","","""event"",""trial"",""time""
""fullscreenenter"",""1"",""3537""
","
","
","""event"",""trial"",""time""
""fullscreenenter"",""1"",""3537""
","
","","","-1","","","14","18054","6703","&#9761;","elianto","#3366ff99","-1","-1","1","+10","[]","0","0","2","","","","","","","",""
"pit-trial","39","423667","0.0-2.0-11.0-2.0","battery-v0.2","","""event"",""trial"",""time""
""fullscreenenter"",""1"",""3537""
","
","
","""event"",""trial"",""time""
""fullscreenenter"",""1"",""3537""
","
","","","-1","","","14","18054","6703","&#9761;","elianto","#3366ff99","-1","-1","1","+10","[]","0","0","2","","","","","","","",""
"pit-trial","40","428523","0.0-2.0-11.0-3.0","battery-v0.2","","""event"",""trial"",""time""
""fullscreenenter"",""1"",""3537""
","
","
","""event"",""trial"",""time""
""fullscreenenter"",""1"",""3537""
","
","","","-1","","","14","18054","6703","&#9761;","elianto","#3366ff99","-1","-1","1","0","[]","0","0","2","","","","","","","",""
"pit-trial","41","433377","0.0-2.0-11.0-4.0","battery-v0.2","","""event"",""trial"",""time""
""fullscreenenter"",""1"",""3537""
","
","
","""event"",""trial"",""time""
""fullscreenenter"",""1"",""3537""
","
","","","-1","","","14","18054","6703","&#9761;","elianto","#3366ff99","-1","-1","1","+10","[]","0","0","2","","","","","","","",""
"pit-trial","42","438233","0.0-2.0-11.1-0.1","battery-v0.2","","""event"",""trial"",""time""
""fullscreenenter"",""1"",""3537""
","
","
","""event"",""trial"",""time""
""fullscreenenter"",""1"",""3537""
","
","","","-1","","","14","18054","6703","&#9761;","elianto","#3366ff99","-1","-1","1","+10","[]","0","0","2","","","","","","","",""
"pit-trial","43","443087","0.0-2.0-11.1-1.1","battery-v0.2","","""event"",""trial"",""time""
""fullscreenenter"",""1"",""3537""
","
","
","""event"",""trial"",""time""
""fullscreenenter"",""1"",""3537""
","
","","","-1","","","14","18054","6703","&#9761;","elianto","#3366ff99","-1","-1","1","+10","[]","0","0","2","","","","","","","",""
"pit-trial","44","447942","0.0-2.0-11.1-2.1","battery-v0.2","","""event"",""trial"",""time""
""fullscreenenter"",""1"",""3537""
","
","
","""event"",""trial"",""time""
""fullscreenenter"",""1"",""3537""
","
","","","-1","","","14","18054","6703","&#9761;","elianto","#3366ff99","-1","-1","1","+10","[]","0","0","2","","","","","","","",""
"pit-trial","45","452796","0.0-2.0-11.1-3.1","battery-v0.2","","""event"",""trial"",""time""
""fullscreenenter"",""1"",""3537""
","
","
","""event"",""trial"",""time""
""fullscreenenter"",""1"",""3537""
","
","","","-1","","","14","18054","6703","&#9761;","elianto","#3366ff99","-1","-1","1","0","[]","0","0","2","","","","","","","",""
"pit-trial","46","457651","0.0-2.0-11.1-4.1","battery-v0.2","","""event"",""trial"",""time""
""fullscreenenter"",""1"",""3537""
","
","
","""event"",""trial"",""time""
""fullscreenenter"",""1"",""3537""
","
","","","-1","","","14","18054","6703","&#9761;","elianto","#3366ff99","-1","-1","1","+10","[]","0","0","2","","","","","","","",""
"pit-trial","47","462505","0.0-2.0-11.2-0.2","battery-v0.2","","""event"",""trial"",""time""
""fullscreenenter"",""1"",""3537""
","
","
","""event"",""trial"",""time""
""fullscreenenter"",""1"",""3537""
","
","","","-1","","","14","18054","6703","&#9761;","elianto","#3366ff99","-1","-1","1","+10","[]","0","0","2","","","","","","","",""
"pit-trial","48","467359","0.0-2.0-11.2-1.2","battery-v0.2","","""event"",""trial"",""time""
""fullscreenenter"",""1"",""3537""
","
","
","""event"",""trial"",""time""
""fullscreenenter"",""1"",""3537""
","
","","","-1","","","14","18054","6703","&#9761;","elianto","#3366ff99","-1","-1","1","+10","[]","0","0","2","","","","","","","",""
"pit-trial","49","472213","0.0-2.0-11.2-2.2","battery-v0.2","","""event"",""trial"",""time""
""fullscreenenter"",""1"",""3537""
","
","
","""event"",""trial"",""time""
""fullscreenenter"",""1"",""3537""
","
","","","-1","","","14","18054","6703","&#9761;","elianto","#3366ff99","-1","-1","1","+10","[]","0","0","2","","","","","","","",""
"pit-trial","50","477068","0.0-2.0-11.2-3.2","battery-v0.2","","""event"",""trial"",""time""
""fullscreenenter"",""1"",""3537""
","
","
","""event"",""trial"",""time""
""fullscreenenter"",""1"",""3537""
","
","","","-1","","","14","18054","6703","&#9761;","elianto","#3366ff99","-1","-1","1","0","[]","0","0","2","","","","","","","",""
"pit-trial","51","481923","0.0-2.0-11.2-4.2","battery-v0.2","","""event"",""trial"",""time""
""fullscreenenter"",""1"",""3537""
","
","
","""event"",""trial"",""time""
""fullscreenenter"",""1"",""3537""
","
","","","-1","","","14","18054","6703","&#9761;","elianto","#3366ff99","-1","-1","1","+10","[]","0","0","2","","","","","","","",""
"pit-trial","52","486778","0.0-2.0-11.3-0.3","battery-v0.2","","""event"",""trial"",""time""
""fullscreenenter"",""1"",""3537""
","
","
","""event"",""trial"",""time""
""fullscreenenter"",""1"",""3537""
","
","","","-1","","","14","18054","6703","&#9761;","elianto","#3366ff99","-1","-1","1","+10","[]","0","0","2","","","","","","","",""
"pit-trial","53","491633","0.0-2.0-11.3-1.3","battery-v0.2","","""event"",""trial"",""time""
""fullscreenenter"",""1"",""3537""
","
","
","""event"",""trial"",""time""
""fullscreenenter"",""1"",""3537""
","
","","","-1","","","14","18054","6703","&#9761;","elianto","#3366ff99","-1","-1","1","+10","[]","0","0","2","","","","","","","",""
"pit-trial","54","496487","0.0-2.0-11.3-2.3","battery-v0.2","","""event"",""trial"",""time""
""fullscreenenter"",""1"",""3537""
","
","
","""event"",""trial"",""time""
""fullscreenenter"",""1"",""3537""
","
","","","-1","","","14","18054","6703","&#9761;","elianto","#3366ff99","-1","-1","1","+10","[]","0","0","2","","","","","","","",""
"pit-trial","55","501342","0.0-2.0-11.3-3.3","battery-v0.2","","""event"",""trial"",""time""
""fullscreenenter"",""1"",""3537""
","
","
","""event"",""trial"",""time""
""fullscreenenter"",""1"",""3537""
","
","","","-1","","","14","18054","6703","&#9761;","elianto","#3366ff99","-1","-1","1","0","[]","0","0","2","","","","","","","",""
"pit-trial","56","506197","0.0-2.0-11.3-4.3","battery-v0.2","","""event"",""trial"",""time""
""fullscreenenter"",""1"",""3537""
","
","
","""event"",""trial"",""time""
""fullscreenenter"",""1"",""3537""
","
","","","-1","","","14","18054","6703","&#9761;","elianto","#3366ff99","-1","-1","1","+10","[]","0","0","2","","","","","","","",""
"call-function","57","506199","0.0-2.0-12.0","battery-v0.2","","""event"",""trial"",""time""
""fullscreenenter"",""1"",""3537""
","
","
","""event"",""trial"",""time""
""fullscreenenter"",""1"",""3537""
","
","","","","","","","","","","","","","","","","","","","","","","","","","","",""
"pit-instructions","58","536040","0.0-2.0-13.0","battery-v0.2","","""event"",""trial"",""time""
""fullscreenenter"",""1"",""3537""
","
","
","""event"",""trial"",""time""
""fullscreenenter"",""1"",""3537""
","
","","[{""page_index"":0,""viewing_time"":5382.19999999553},{""page_index"":1,""viewing_time"":6616.70000000298},{""page_index"":2,""viewing_time"":3423.10000000149},{""page_index"":3,""viewing_time"":10010.19999999553},{""page_index"":4,""viewing_time"":4408.30000000447}]","29840.69999999553","","","","","","","","","","","","","","","","","","","","","","","",""
"pit-trial","59","540895","0.0-2.0-14.0-0.0","battery-v0.2","","""event"",""trial"",""time""
""fullscreenenter"",""1"",""3537""
","
","
","""event"",""trial"",""time""
""fullscreenenter"",""1"",""3537""
","
","","","-1","","","14","18054","6703","&#9826;","elianto","#f73b6a7A","-1","-1","1","0","[]","0","0","3","","","","","","","",""
"pit-trial","60","545749","0.0-2.0-14.0-1.0","battery-v0.2","","""event"",""trial"",""time""
""fullscreenenter"",""1"",""3537""
","
","
","""event"",""trial"",""time""
""fullscreenenter"",""1"",""3537""
","
","","","-1","","","14","18054","6703","&#9826;","elianto","#f73b6a7A","-1","-1","1","0","[]","0","0","3","","","","","","","",""
"pit-trial","61","550603","0.0-2.0-14.0-2.0","battery-v0.2","","""event"",""trial"",""time""
""fullscreenenter"",""1"",""3537""
","
","
","""event"",""trial"",""time""
""fullscreenenter"",""1"",""3537""
","
","","","-1","","","14","18054","6703","&#9826;","elianto","#f73b6a7A","-1","-1","1","0","[]","0","0","3","","","","","","","",""
"pit-trial","62","555457","0.0-2.0-14.0-3.0","battery-v0.2","","""event"",""trial"",""time""
""fullscreenenter"",""1"",""3537""
","
","
","""event"",""trial"",""time""
""fullscreenenter"",""1"",""3537""
","
","","","-1","","","14","18054","6703","&#9826;","elianto","#f73b6a7A","-1","-1","1","-10","[]","0","0","3","","","","","","","",""
"pit-trial","63","560312","0.0-2.0-14.0-4.0","battery-v0.2","","""event"",""trial"",""time""
""fullscreenenter"",""1"",""3537""
","
","
","""event"",""trial"",""time""
""fullscreenenter"",""1"",""3537""
","
","","","-1","","","14","18054","6703","&#9826;","elianto","#f73b6a7A","-1","-1","1","0","[]","0","0","3","","","","","","","",""
"pit-trial","64","565167","0.0-2.0-14.1-0.1","battery-v0.2","","""event"",""trial"",""time""
""fullscreenenter"",""1"",""3537""
","
","
","""event"",""trial"",""time""
""fullscreenenter"",""1"",""3537""
","
","","","-1","","","14","18054","6703","&#9826;","elianto","#f73b6a7A","-1","-1","1","0","[]","0","0","3","","","","","","","",""
"pit-trial","65","570022","0.0-2.0-14.1-1.1","battery-v0.2","","""event"",""trial"",""time""
""fullscreenenter"",""1"",""3537""
","
","
","""event"",""trial"",""time""
""fullscreenenter"",""1"",""3537""
","
","","","-1","","","14","18054","6703","&#9826;","elianto","#f73b6a7A","-1","-1","1","0","[]","0","0","3","","","","","","","",""
"pit-trial","66","574877","0.0-2.0-14.1-2.1","battery-v0.2","","""event"",""trial"",""time""
""fullscreenenter"",""1"",""3537""
","
","
","""event"",""trial"",""time""
""fullscreenenter"",""1"",""3537""
","
","","","-1","","","14","18054","6703","&#9826;","elianto","#f73b6a7A","-1","-1","1","0","[]","0","0","3","","","","","","","",""
"pit-trial","67","579732","0.0-2.0-14.1-3.1","battery-v0.2","","""event"",""trial"",""time""
""fullscreenenter"",""1"",""3537""
","
","
","""event"",""trial"",""time""
""fullscreenenter"",""1"",""3537""
","
","","","-1","","","14","18054","6703","&#9826;","elianto","#f73b6a7A","-1","-1","1","-10","[]","0","0","3","","","","","","","",""
"pit-trial","68","584586","0.0-2.0-14.1-4.1","battery-v0.2","","""event"",""trial"",""time""
""fullscreenenter"",""1"",""3537""
","
","
","""event"",""trial"",""time""
""fullscreenenter"",""1"",""3537""
","
","","","-1","","","14","18054","6703","&#9826;","elianto","#f73b6a7A","-1","-1","1","0","[]","0","0","3","","","","","","","",""
"pit-trial","69","589442","0.0-2.0-14.2-0.2","battery-v0.2","","""event"",""trial"",""time""
""fullscreenenter"",""1"",""3537""
","
","
","""event"",""trial"",""time""
""fullscreenenter"",""1"",""3537""
","
","","","-1","","","14","18054","6703","&#9826;","elianto","#f73b6a7A","-1","-1","1","0","[]","0","0","3","","","","","","","",""
"pit-trial","70","594298","0.0-2.0-14.2-1.2","battery-v0.2","","""event"",""trial"",""time""
""fullscreenenter"",""1"",""3537""
","
","
","""event"",""trial"",""time""
""fullscreenenter"",""1"",""3537""
","
","","","-1","","","14","18054","6703","&#9826;","elianto","#f73b6a7A","-1","-1","1","0","[]","0","0","3","","","","","","","",""
"pit-trial","71","599153","0.0-2.0-14.2-2.2","battery-v0.2","","""event"",""trial"",""time""
""fullscreenenter"",""1"",""3537""
","
","
","""event"",""trial"",""time""
""fullscreenenter"",""1"",""3537""
","
","","","-1","","","14","18054","6703","&#9826;","elianto","#f73b6a7A","-1","-1","1","0","[]","0","0","3","","","","","","","",""
"pit-trial","72","604007","0.0-2.0-14.2-3.2","battery-v0.2","","""event"",""trial"",""time""
""fullscreenenter"",""1"",""3537""
","
","
","""event"",""trial"",""time""
""fullscreenenter"",""1"",""3537""
","
","","","-1","","","14","18054","6703","&#9826;","elianto","#f73b6a7A","-1","-1","1","-10","[]","0","0","3","","","","","","","",""
"pit-trial","73","608862","0.0-2.0-14.2-4.2","battery-v0.2","","""event"",""trial"",""time""
""fullscreenenter"",""1"",""3537""
","
","
","""event"",""trial"",""time""
""fullscreenenter"",""1"",""3537""
","
","","","-1","","","14","18054","6703","&#9826;","elianto","#f73b6a7A","-1","-1","1","0","[]","0","0","3","","","","","","","",""
"pit-trial","74","613717","0.0-2.0-14.3-0.3","battery-v0.2","","""event"",""trial"",""time""
""fullscreenenter"",""1"",""3537""
","
","
","""event"",""trial"",""time""
""fullscreenenter"",""1"",""3537""
","
","","","-1","","","14","18054","6703","&#9826;","elianto","#f73b6a7A","-1","-1","1","0","[]","0","0","3","","","","","","","",""
"pit-trial","75","618571","0.0-2.0-14.3-1.3","battery-v0.2","","""event"",""trial"",""time""
""fullscreenenter"",""1"",""3537""
","
","
","""event"",""trial"",""time""
""fullscreenenter"",""1"",""3537""
","
","","","-1","","","14","18054","6703","&#9826;","elianto","#f73b6a7A","-1","-1","1","0","[]","0","0","3","","","","","","","",""
"pit-trial","76","623424","0.0-2.0-14.3-2.3","battery-v0.2","","""event"",""trial"",""time""
""fullscreenenter"",""1"",""3537""
","
","
","""event"",""trial"",""time""
""fullscreenenter"",""1"",""3537""
","
","","","-1","","","14","18054","6703","&#9826;","elianto","#f73b6a7A","-1","-1","1","0","[]","0","0","3","","","","","","","",""
"pit-trial","77","628279","0.0-2.0-14.3-3.3","battery-v0.2","","""event"",""trial"",""time""
""fullscreenenter"",""1"",""3537""
","
","
","""event"",""trial"",""time""
""fullscreenenter"",""1"",""3537""
","
","","","-1","","","14","18054","6703","&#9826;","elianto","#f73b6a7A","-1","-1","1","-10","[]","0","0","3","","","","","","","",""
"pit-trial","78","633132","0.0-2.0-14.3-4.3","battery-v0.2","","""event"",""trial"",""time""
""fullscreenenter"",""1"",""3537""
","
","
","""event"",""trial"",""time""
""fullscreenenter"",""1"",""3537""
","
","","","-1","","","14","18054","6703","&#9826;","elianto","#f73b6a7A","-1","-1","1","0","[]","0","0","3","","","","","","","",""
"call-function","79","633134","0.0-2.0-15.0","battery-v0.2","","""event"",""trial"",""time""
""fullscreenenter"",""1"",""3537""
","
","
","""event"",""trial"",""time""
""fullscreenenter"",""1"",""3537""
","
","","","","","","","","","","","","","","","","","","","","","","","","","","",""
"pit-instructions","80","657482","0.0-2.0-16.0","battery-v0.2","","""event"",""trial"",""time""
""fullscreenenter"",""1"",""3537""
","
","
","""event"",""trial"",""time""
""fullscreenenter"",""1"",""3537""
","
","","[{""page_index"":0,""viewing_time"":7008.89999999851},{""page_index"":1,""viewing_time"":8448.89999999851},{""page_index"":2,""viewing_time"":4103.29999999702},{""page_index"":3,""viewing_time"":4786.30000000447}]","24347.59999999404","","","","","","","","","","","","","","","","","","","","","","","",""
"pit-trial","81","660911","0.0-2.0-17.0-0.0","battery-v0.2","","""event"",""trial"",""time""
""fullscreenenter"",""1"",""3537""
","
","
","""event"",""trial"",""time""
""fullscreenenter"",""1"",""3537""
","
","","","575.1000000014901","","","14","18054","6703","&#9789;","elianto","#f73b6a7A"," "," ","1","0","[1426.2999999970198]","1","0","4","","","","","","","",""
"pit-trial","82","664252","0.0-2.0-17.0-1.0","battery-v0.2","","""event"",""trial"",""time""
""fullscreenenter"",""1"",""3537""
","
","
","""event"",""trial"",""time""
""fullscreenenter"",""1"",""3537""
","
","","","488","","","14","18054","6703","&#9789;","elianto","#f73b6a7A"," "," ","1","0","[1338.4000000059605]","1","0","4","","","","","","","",""
"pit-trial","83","667426","0.0-2.0-17.0-2.0","battery-v0.2","","""event"",""trial"",""time""
""fullscreenenter"",""1"",""3537""
","
","
","""event"",""trial"",""time""
""fullscreenenter"",""1"",""3537""
","
","","","319.5","","","14","18054","6703","&#9789;","elianto","#f73b6a7A"," "," ","1","0","[1170.7000000029802]","1","0","4","","","","","","","",""
"pit-trial","84","670697","0.0-2.0-17.0-3.0","battery-v0.2","","""event"",""trial"",""time""
""fullscreenenter"",""1"",""3537""
","
","
","""event"",""trial"",""time""
""fullscreenenter"",""1"",""3537""
","
","","","418.80000000447035","","","14","18054","6703","&#9789;","elianto","#f73b6a7A"," "," ","1","-10","[1269.4000000059605]","1","0","4","","","","","","","",""
"pit-trial","85","673926","0.0-2.0-17.0-4.0","battery-v0.2","","""event"",""trial"",""time""
""fullscreenenter"",""1"",""3537""
","
","
","""event"",""trial"",""time""
""fullscreenenter"",""1"",""3537""
","
","","","375.59999999403954","","","14","18054","6703","&#9789;","elianto","#f73b6a7A"," "," ","1","0","[1226]","1","0","4","","","","","","","",""
"pit-trial","86","677239","0.0-2.0-17.1-0.1","battery-v0.2","","""event"",""trial"",""time""
""fullscreenenter"",""1"",""3537""
","
","
","""event"",""trial"",""time""
""fullscreenenter"",""1"",""3537""
","
","","","456.59999999403954","","","14","18054","6703","&#9789;","elianto","#f73b6a7A"," "," ","1","0","[1308]","1","0","4","","","","","","","",""
"pit-trial","87","680498","0.0-2.0-17.1-1.1","battery-v0.2","","""event"",""trial"",""time""
""fullscreenenter"",""1"",""3537""
","
","
","""event"",""trial"",""time""
""fullscreenenter"",""1"",""3537""
","
","","","405.5","","","14","18054","6703","&#9789;","elianto","#f73b6a7A"," "," ","1","0","[1256.7999999970198]","1","0","4","","","","","","","",""
"pit-trial","88","683603","0.0-2.0-17.1-2.1","battery-v0.2","","""event"",""trial"",""time""
""fullscreenenter"",""1"",""3537""
","
","
","""event"",""trial"",""time""
""fullscreenenter"",""1"",""3537""
","
","","","250.80000000447035","","","14","18054","6703","&#9789;","elianto","#f73b6a7A"," "," ","1","0","[1101.5]","1","0","4","","","","","","","",""
"pit-trial","89","686642","0.0-2.0-17.1-3.1","battery-v0.2","","""event"",""trial"",""time""
""fullscreenenter"",""1"",""3537""
","
","
","""event"",""trial"",""time""
""fullscreenenter"",""1"",""3537""
","
","","","185.5","","","14","18054","6703","&#9789;","elianto","#f73b6a7A"," "," ","1","-10","[1036.1000000014901]","1","0","4","","","","","","","",""
"pit-trial","90","689936","0.0-2.0-17.1-4.1","battery-v0.2","","""event"",""trial"",""time""
""fullscreenenter"",""1"",""3537""
","
","
","""event"",""trial"",""time""
""fullscreenenter"",""1"",""3537""
","
","","","440.6000000014901","","","14","18054","6703","&#9789;","elianto","#f73b6a7A"," "," ","1","0","[1291.8999999985099]","1","0","4","","","","","","","",""
"pit-trial","91","693261","0.0-2.0-17.2-0.2","battery-v0.2","","""event"",""trial"",""time""
""fullscreenenter"",""1"",""3537""
","
","
","""event"",""trial"",""time""
""fullscreenenter"",""1"",""3537""
","
","","","470","","","14","18054","6703","&#9789;","elianto","#f73b6a7A"," "," ","1","0","[1321.6000000014901]","1","0","4","","","","","","","",""
"pit-trial","92","696463","0.0-2.0-17.2-1.2","battery-v0.2","","""event"",""trial"",""time""
""fullscreenenter"",""1"",""3537""
","
","
","""event"",""trial"",""time""
""fullscreenenter"",""1"",""3537""
","
","","","348.09999999403954","","","14","18054","6703","&#9789;","elianto","#f73b6a7A"," "," ","1","0","[1199.3999999985099]","1","0","4","","","","","","","",""
"pit-trial","93","699721","0.0-2.0-17.2-2.2","battery-v0.2","","""event"",""trial"",""time""
""fullscreenenter"",""1"",""3537""
","
","
","""event"",""trial"",""time""
""fullscreenenter"",""1"",""3537""
","
","","","404.3999999985099","","","14","18054","6703","&#9789;","elianto","#f73b6a7A"," "," ","1","0","[1255.5]","1","0","4","","","","","","","",""
"pit-trial","94","702933","0.0-2.0-17.2-3.2","battery-v0.2","","""event"",""trial"",""time""
""fullscreenenter"",""1"",""3537""
","
","
","""event"",""trial"",""time""
""fullscreenenter"",""1"",""3537""
","
","","","356.3999999985099","","","14","18054","6703","&#9789;","elianto","#f73b6a7A"," "," ","1","-10","[1208.3999999985099]","1","0","4","","","","","","","",""
"pit-trial","95","706037","0.0-2.0-17.2-4.2","battery-v0.2","","""event"",""trial"",""time""
""fullscreenenter"",""1"",""3537""
","
","
","""event"",""trial"",""time""
""fullscreenenter"",""1"",""3537""
","
","","","248.70000000298023","","","14","18054","6703","&#9789;","elianto","#f73b6a7A"," "," ","1","0","[1099.8999999985099]","1","0","4","","","","","","","",""
"pit-trial","96","709158","0.0-2.0-17.3-0.3","battery-v0.2","","""event"",""trial"",""time""
""fullscreenenter"",""1"",""3537""
","
","
","""event"",""trial"",""time""
""fullscreenenter"",""1"",""3537""
","
","","","267.19999999552965","","","14","18054","6703","&#9789;","elianto","#f73b6a7A"," "," ","1","0","[1118.6999999955297]","1","0","4","","","","","","","",""
"pit-trial","97","712429","0.0-2.0-17.3-1.3","battery-v0.2","","""event"",""trial"",""time""
""fullscreenenter"",""1"",""3537""
","
","
","""event"",""trial"",""time""
""fullscreenenter"",""1"",""3537""
","
","","","416.19999999552965","","","14","18054","6703","&#9789;","elianto","#f73b6a7A"," "," ","1","0","[1267.6000000014901]","1","0","4","","","","","","","",""
"pit-trial","98","715564","0.0-2.0-17.3-2.3","battery-v0.2","","""event"",""trial"",""time""
""fullscreenenter"",""1"",""3537""
","
","
","""event"",""trial"",""time""
""fullscreenenter"",""1"",""3537""
","
","","","282.5","","","14","18054","6703","&#9789;","elianto","#f73b6a7A"," "," ","1","0","[1132.7000000029802]","1","0","4","","","","","","","",""
"pit-trial","99","718768","0.0-2.0-17.3-3.3","battery-v0.2","","""event"",""trial"",""time""
""fullscreenenter"",""1"",""3537""
","
","
","""event"",""trial"",""time""
""fullscreenenter"",""1"",""3537""
","
","","","350.30000000447035","","","14","18054","6703","&#9789;","elianto","#f73b6a7A"," "," ","1","-10","[1200.7000000029802]","1","0","4","","","","","","","",""
"pit-trial","100","722025","0.0-2.0-17.3-4.3","battery-v0.2","","""event"",""trial"",""time""
""fullscreenenter"",""1"",""3537""
","
","
","""event"",""trial"",""time""
""fullscreenenter"",""1"",""3537""
","
","","","403.30000000447035","","","14","18054","6703","&#9789;","elianto","#f73b6a7A"," "," ","1","0","[1254.3000000044703]","1","0","4","","","","","","","",""
"call-function","101","722027","0.0-2.0-18.0","battery-v0.2","","""event"",""trial"",""time""
""fullscreenenter"",""1"",""3537""
","
","
","""event"",""trial"",""time""
""fullscreenenter"",""1"",""3537""
","
","","","","","","","","","","","","","","","","","","","","","","","","","","",""
"pit-instructions","102","791599","0.0-2.0-19.0","battery-v0.2","","""event"",""trial"",""time""
""fullscreenenter"",""1"",""3537""
","
","
","""event"",""trial"",""time""
""fullscreenenter"",""1"",""3537""
","
","","[{""page_index"":0,""viewing_time"":6868.29999999702},{""page_index"":1,""viewing_time"":6156},{""page_index"":2,""viewing_time"":13792.60000000149},{""page_index"":3,""viewing_time"":7906.29999999702},{""page_index"":4,""viewing_time"":8274.10000000149},{""page_index"":5,""viewing_time"":8441.89999999851},{""page_index"":6,""viewing_time"":8123.70000000298},{""page_index"":7,""viewing_time"":6172.60000000149},{""page_index"":8,""viewing_time"":3835.60000000149}]","69571.5","","","","","","","","","","","","","","","","","","","","","","","",""
"pit-comprehension","103","798084","0.0-2.0-20.0-0.0","battery-v0.2","","""event"",""trial"",""time""
""fullscreenenter"",""1"",""3537""
","
","
","""event"",""trial"",""time""
""fullscreenenter"",""1"",""3537""
","
","","","6481.80000000447","[""SPACE""]","0","14","18054","6703","","","","","","","","","","","","","","","","","","",""
"pit-instructions","104","800939","0.0-2.0-20.0-1.0","battery-v0.2","","""event"",""trial"",""time""
""fullscreenenter"",""1"",""3537""
","
","
","""event"",""trial"",""time""
""fullscreenenter"",""1"",""3537""
","
","","[{""page_index"":0,""viewing_time"":2813.89999999851}]","2814.10000000149","","","","","","","","","","","","","","","","","","","","","","","",""
"pit-comprehension","105","808681","0.0-2.0-21.0-0.0","battery-v0.2","","""event"",""trial"",""time""
""fullscreenenter"",""1"",""3537""
","
","
","""event"",""trial"",""time""
""fullscreenenter"",""1"",""3537""
","
","","","7738.89999999851","[""10""]","0","14","18054","6703","","","","","","","","","","","","","","","","","","",""
"pit-instructions","106","812590","0.0-2.0-21.0-1.0","battery-v0.2","","""event"",""trial"",""time""
""fullscreenenter"",""1"",""3537""
","
","
","""event"",""trial"",""time""
""fullscreenenter"",""1"",""3537""
","
","","[{""page_index"":0,""viewing_time"":3876}]","3876.10000000149","","","","","","","","","","","","","","","","","","","","","","","",""
"pit-comprehension","107","820739","0.0-2.0-22.0-0.0","battery-v0.2","","""event"",""trial"",""time""
""fullscreenenter"",""1"",""3537""
","
","
","""event"",""trial"",""time""
""fullscreenenter"",""1"",""3537""
","
","","","8146.89999999851","[""0""]","0","14","18054","6703","","","","","","","","","","","","","","","","","","",""
"pit-instructions","108","824274","0.0-2.0-22.0-1.0","battery-v0.2","","""event"",""trial"",""time""
""fullscreenenter"",""1"",""3537""
","
","
","""event"",""trial"",""time""
""fullscreenenter"",""1"",""3537""
","
","","[{""page_index"":0,""viewing_time"":3501.39999999851}]","3501.7999999970198","","","","","","","","","","","","","","","","","","","","","","","",""
"pit-comprehension","109","837749","0.0-2.0-23.0-0.0","battery-v0.2","","""event"",""trial"",""time""
""fullscreenenter"",""1"",""3537""
","
","
","""event"",""trial"",""time""
""fullscreenenter"",""1"",""3537""
","
","","","13472.19999999553","[""True""]","0","14","18054","6703","","","","","","","","","","","","","","","","","","",""
"pit-instructions","110","839884","0.0-2.0-23.0-1.0","battery-v0.2","","""event"",""trial"",""time""
""fullscreenenter"",""1"",""3537""
","
","
","""event"",""trial"",""time""
""fullscreenenter"",""1"",""3537""
","
","","[{""page_index"":0,""viewing_time"":2098}]","2098.2000000029802","","","","","","","","","","","","","","","","","","","","","","","",""
"pit-comprehension","111","847572","0.0-2.0-24.0-0.0","battery-v0.2","","""event"",""trial"",""time""
""fullscreenenter"",""1"",""3537""
","
","
","""event"",""trial"",""time""
""fullscreenenter"",""1"",""3537""
","
","","","7685.69999999553","[""True""]","0","14","18054","6703","","","","","","","","","","","","","","","","","","",""
"pit-instructions","112","849551","0.0-2.0-24.0-1.0","battery-v0.2","","""event"",""trial"",""time""
""fullscreenenter"",""1"",""3537""
","
","
","""event"",""trial"",""time""
""fullscreenenter"",""1"",""3537""
","
","","[{""page_index"":0,""viewing_time"":1944.2000000029802}]","1944.3000000044703","","","","","","","","","","","","","","","","","","","","","","","",""
"pit-comprehension","113","856417","0.0-2.0-25.0-0.0","battery-v0.2","","""event"",""trial"",""time""
""fullscreenenter"",""1"",""3537""
","
","
","""event"",""trial"",""time""
""fullscreenenter"",""1"",""3537""
","
","","","6863.30000000447","[""True""]","0","14","18054","6703","","","","","","","","","","","","","","","","","","",""
"pit-instructions","114","858907","0.0-2.0-25.0-1.0","battery-v0.2","","""event"",""trial"",""time""
""fullscreenenter"",""1"",""3537""
","
","
","""event"",""trial"",""time""
""fullscreenenter"",""1"",""3537""
","
","","[{""page_index"":0,""viewing_time"":2456.7999999970198}]","2457.10000000149","","","","","","","","","","","","","","","","","","","","","","","",""
"pit-comprehension","115","865420","0.0-2.0-26.0-0.0","battery-v0.2","","""event"",""trial"",""time""
""fullscreenenter"",""1"",""3537""
","
","
","""event"",""trial"",""time""
""fullscreenenter"",""1"",""3537""
","
","","","6510.29999999702","[""False""]","0","14","18054","6703","","","","","","","","","","","","","","","","","","",""
"pit-instructions","116","867110","0.0-2.0-26.0-1.0","battery-v0.2","","""event"",""trial"",""time""
""fullscreenenter"",""1"",""3537""
","
","
","""event"",""trial"",""time""
""fullscreenenter"",""1"",""3537""
","
","","[{""page_index"":0,""viewing_time"":1650.6999999955297}]","1651","","","","","","","","","","","","","","","","","","","","","","","",""
"pit-instructions","117","882910","0.0-3.0","battery-v0.2","","""event"",""trial"",""time""
""fullscreenenter"",""1"",""3537""
","
","
","""event"",""trial"",""time""
""fullscreenenter"",""1"",""3537""
","
","","[{""page_index"":0,""viewing_time"":3674.7999999970198},{""page_index"":1,""viewing_time"":5989.60000000149},{""page_index"":2,""viewing_time"":6134.20000000298}]","15798.89999999851","","","","","","","","","","","","","","","","","","","","","","","",""
"pit-trial","118","887767","0.0-4.0","battery-v0.2","","""event"",""trial"",""time""
""fullscreenenter"",""1"",""3537""
","
","
","""event"",""trial"",""time""
""fullscreenenter"",""1"",""3537""
","
","","","-1","","","14","18054","6703","&#9728;","elianto","#f73b6a7A","-1","-1","1","-10","[]","0","1","","","18054","1","0","4","lose","no-go","1"
"pit-trial","119","892622","0.0-5.0","battery-v0.2","","""event"",""trial"",""time""
""fullscreenenter"",""1"",""3537""
","
","
","""event"",""trial"",""time""
""fullscreenenter"",""1"",""3537""
","
","","","-1","","","14","18054","6703","&#9752;","elianto","#f73b6a7A"," ","-1","0","0","[]","0","1","","","18054","2","3","3","lose","go","1"
"pit-trial","120","896438","0.0-6.0","battery-v0.2","","""event"",""trial"",""time""
""fullscreenenter"",""1"",""3537""
","
","
","""event"",""trial"",""time""
""fullscreenenter"",""1"",""3537""
","
","","","961.1999999955297","","","14","18054","6703","&#9730;","elianto","#3366ff99"," "," ","1","+10","[1813.2999999970198]","1","1","","","18054","3","1","1","win","go","0"
"pit-trial","121","900076","0.0-7.0","battery-v0.2","","""event"",""trial"",""time""
""fullscreenenter"",""1"",""3537""
","
","
","""event"",""trial"",""time""
""fullscreenenter"",""1"",""3537""
","
","","","785.5","","","14","18054","6703","&#9733;","elianto","#3366ff99","-1"," ","0","0","[1636.8999999985099]","1","1","","","18054","4","2","2","win","no-go","0"
"pit-trial","122","904929","0.0-8.0","battery-v0.2","","""event"",""trial"",""time""
""fullscreenenter"",""1"",""3537""
","
","
","""event"",""trial"",""time""
""fullscreenenter"",""1"",""3537""
","
","","","-1","","","14","18054","6703","&#9733;","elianto","#3366ff99","-1","-1","1","0","[]","0","1","","","18054","5","2","2","win","no-go","1"
"pit-trial","123","909784","0.0-9.0","battery-v0.2","","""event"",""trial"",""time""
""fullscreenenter"",""1"",""3537""
","
","
","""event"",""trial"",""time""
""fullscreenenter"",""1"",""3537""
","
","","","-1","","","14","18054","6703","&#9728;","elianto","#f73b6a7A","-1","-1","1","0","[]","0","1","","","18054","6","0","4","lose","no-go","0"
"pit-trial","124","913375","0.0-10.0","battery-v0.2","","""event"",""trial"",""time""
""fullscreenenter"",""1"",""3537""
","
","
","""event"",""trial"",""time""
""fullscreenenter"",""1"",""3537""
","
","","","738.5","","","14","18054","6703","&#9730;","elianto","#3366ff99"," "," ","1","+10","[1589.0999999940395]","1","1","","","18054","7","1","1","win","go","0"
"pit-trial","125","917088","0.0-11.0","battery-v0.2","","""event"",""trial"",""time""
""fullscreenenter"",""1"",""3537""
","
","
","""event"",""trial"",""time""
""fullscreenenter"",""1"",""3537""
","
","","","859.1000000014901","","","14","18054","6703","&#9752;","elianto","#f73b6a7A"," "," ","1","-10","[1709.3999999985099]","1","1","","","18054","8","3","3","lose","go","1"
"pit-trial","126","921944","0.0-12.0","battery-v0.2","","""event"",""trial"",""time""
""fullscreenenter"",""1"",""3537""
","
","
","""event"",""trial"",""time""
""fullscreenenter"",""1"",""3537""
","
","","","-1","","","14","18054","6703","&#9752;","elianto","#f73b6a7A"," ","-1","0","0","[]","0","1","","","18054","9","3","3","lose","go","1"
"pit-trial","127","926798","0.0-13.0","battery-v0.2","","""event"",""trial"",""time""
""fullscreenenter"",""1"",""3537""
","
","
","""event"",""trial"",""time""
""fullscreenenter"",""1"",""3537""
","
","","","-1","","","14","18054","6703","&#9733;","elianto","#3366ff99","-1","-1","1","+10","[]","0","1","","","18054","10","2","2","win","no-go","0"
"pit-trial","128","930335","0.0-14.0","battery-v0.2","","""event"",""trial"",""time""
""fullscreenenter"",""1"",""3537""
","
","
","""event"",""trial"",""time""
""fullscreenenter"",""1"",""3537""
","
","","","683.7000000029802","","","14","18054","6703","&#9730;","elianto","#3366ff99"," "," ","1","+10","[1534]","1","1","","","18054","11","1","1","win","go","0"
"pit-trial","129","934229","0.0-15.0","battery-v0.2","","""event"",""trial"",""time""
""fullscreenenter"",""1"",""3537""
","
","
","""event"",""trial"",""time""
""fullscreenenter"",""1"",""3537""
","
","","","1040.2000000029802","","","14","18054","6703","&#9728;","elianto","#f73b6a7A","-1"," ","0","0","[1891.9000000059605]","1","1","","","18054","12","0","4","lose","no-go","1"
"pit-trial","130","937879","0.0-16.0","battery-v0.2","","""event"",""trial"",""time""
""fullscreenenter"",""1"",""3537""
","
","
","""event"",""trial"",""time""
""fullscreenenter"",""1"",""3537""
","
","","","797.5","","","14","18054","6703","&#9728;","elianto","#f73b6a7A","-1"," ","0","-10","[1648]","1","1","","","18054","13","0","4","lose","no-go","0"
"pit-trial","131","941535","0.0-17.0","battery-v0.2","","""event"",""trial"",""time""
""fullscreenenter"",""1"",""3537""
","
","
","""event"",""trial"",""time""
""fullscreenenter"",""1"",""3537""
","
","","","801.5999999940395","","","14","18054","6703","&#9730;","elianto","#3366ff99"," "," ","1","0","[1651.6000000014901]","1","1","","","18054","14","1","1","win","go","1"
"pit-trial","132","946389","0.0-18.0","battery-v0.2","","""event"",""trial"",""time""
""fullscreenenter"",""1"",""3537""
","
","
","""event"",""trial"",""time""
""fullscreenenter"",""1"",""3537""
","
","","","-1","","","14","18054","6703","&#9752;","elianto","#f73b6a7A"," ","-1","0","0","[]","0","1","","","18054","15","3","3","lose","go","1"
"pit-trial","133","951243","0.0-19.0","battery-v0.2","","""event"",""trial"",""time""
""fullscreenenter"",""1"",""3537""
","
","
","""event"",""trial"",""time""
""fullscreenenter"",""1"",""3537""
","
","","","-1","","","14","18054","6703","&#9733;","elianto","#3366ff99","-1","-1","1","0","[]","0","1","","","18054","16","2","2","win","no-go","1"
"pit-trial","134","954783","0.0-20.0","battery-v0.2","","""event"",""trial"",""time""
""fullscreenenter"",""1"",""3537""
","
","
","""event"",""trial"",""time""
""fullscreenenter"",""1"",""3537""
","
","","","686.1999999955297","","","14","18054","6703","&#9730;","elianto","#3366ff99"," "," ","1","+10","[1537.4000000059605]","1","1","","","18054","17","1","1","win","go","0"
"pit-trial","135","958771","0.0-21.0","battery-v0.2","","""event"",""trial"",""time""
""fullscreenenter"",""1"",""3537""
","
","
","""event"",""trial"",""time""
""fullscreenenter"",""1"",""3537""
","
","","","1134.3999999985099","","","14","18054","6703","&#9728;","elianto","#f73b6a7A","-1"," ","0","-10","[1985.1999999955297]","1","1","","","18054","18","0","4","lose","no-go","0"
"pit-trial","136","963625","0.0-22.0","battery-v0.2","","""event"",""trial"",""time""
""fullscreenenter"",""1"",""3537""
","
","
","""event"",""trial"",""time""
""fullscreenenter"",""1"",""3537""
","
","","","-1","","","14","18054","6703","&#9752;","elianto","#f73b6a7A"," ","-1","0","-10","[]","0","1","","","18054","19","3","3","lose","go","0"
"pit-trial","137","968480","0.0-23.0","battery-v0.2","","""event"",""trial"",""time""
""fullscreenenter"",""1"",""3537""
","
","
","""event"",""trial"",""time""
""fullscreenenter"",""1"",""3537""
","
","","","-1","","","14","18054","6703","&#9733;","elianto","#3366ff99","-1","-1","1","+10","[]","0","1","","","18054","20","2","2","win","no-go","0"
"pit-instructions","138","981899","0.0-24.0","battery-v0.2","","""event"",""trial"",""time""
""fullscreenenter"",""1"",""3537""
","
","
","""event"",""trial"",""time""
""fullscreenenter"",""1"",""3537""
","
","","[{""page_index"":0,""viewing_time"":6436.10000000149},{""page_index"":1,""viewing_time"":6981.79999999702}]","13418.10000000149","","","","","","","","","","","","","","","","","","","","","","","",""
"pit-trial","139","986754","0.0-25.0","battery-v0.2","","""event"",""trial"",""time""
""fullscreenenter"",""1"",""3537""
","
","
","""event"",""trial"",""time""
""fullscreenenter"",""1"",""3537""
","
","","","-1","","","14","18054","6703","d","elianto","#3366ff99"," ","-1","0","0","[]","0","2","","","18054","21","1","1","win","go","0"
"pit-trial","140","991608","0.0-26.0","battery-v0.2","","""event"",""trial"",""time""
""fullscreenenter"",""1"",""3537""
","
","
","""event"",""trial"",""time""
""fullscreenenter"",""1"",""3537""
","
","","","-1","","","14","18054","6703","w","elianto","#f73b6a7A"," ","-1","0","-10","[]","0","2","","","18054","22","3","3","lose","go","0"
"pit-trial","141","996461","0.0-27.0","battery-v0.2","","""event"",""trial"",""time""
""fullscreenenter"",""1"",""3537""
","
","
","""event"",""trial"",""time""
""fullscreenenter"",""1"",""3537""
","
","","","-1","","","14","18054","6703","e","elianto","#f73b6a7A","-1","-1","1","0","[]","0","2","","","18054","23","2","4","lose","no-go","0"
"pit-trial","142","1001314","0.0-28.0","battery-v0.2","","""event"",""trial"",""time""
""fullscreenenter"",""1"",""3537""
","
","
","""event"",""trial"",""time""
""fullscreenenter"",""1"",""3537""
","
","","","-1","","","14","18054","6703","j","elianto","#f73b6a7A","-1","-1","1","0","[]","0","2","","","18054","24","0","4","lose","no-go","0"
"pit-trial","143","1006169","0.0-29.0","battery-v0.2","","""event"",""trial"",""time""
""fullscreenenter"",""1"",""3537""
","
","
","""event"",""trial"",""time""
""fullscreenenter"",""1"",""3537""
","
","","","-1","","","14","18054","6703","w","elianto","#f73b6a7A"," ","-1","0","-10","[]","0","2","","","18054","25","3","3","lose","go","0"
"pit-trial","144","1011023","0.0-30.0","battery-v0.2","","""event"",""trial"",""time""
""fullscreenenter"",""1"",""3537""
","
","
","""event"",""trial"",""time""
""fullscreenenter"",""1"",""3537""
","
","","","-1","","","14","18054","6703","j","elianto","#f73b6a7A","-1","-1","1","0","[]","0","2","","","18054","26","0","4","lose","no-go","0"
"pit-trial","145","1015878","0.0-31.0","battery-v0.2","","""event"",""trial"",""time""
""fullscreenenter"",""1"",""3537""
","
","
","""event"",""trial"",""time""
""fullscreenenter"",""1"",""3537""
","
","","","-1","","","14","18054","6703","e","elianto","#f73b6a7A","-1","-1","1","0","[]","0","2","","","18054","27","2","4","lose","no-go","0"
"pit-trial","146","1019588","0.0-32.0","battery-v0.2","","""event"",""trial"",""time""
""fullscreenenter"",""1"",""3537""
","
","
","""event"",""trial"",""time""
""fullscreenenter"",""1"",""3537""
","
","","","856.7999999970198","","","14","18054","6703","d","elianto","#3366ff99"," "," ","1","0","[1707]","1","2","","","18054","28","1","1","win","go","1"
"pit-trial","147","1023195","0.0-33.0","battery-v0.2","","""event"",""trial"",""time""
""fullscreenenter"",""1"",""3537""
","
","
","""event"",""trial"",""time""
""fullscreenenter"",""1"",""3537""
","
","","","753.7999999970198","","","14","18054","6703","d","elianto","#3366ff99"," "," ","1","+10","[1604.6000000014901]","1","2","","","18054","29","1","1","win","go","0"
"pit-trial","148","1028049","0.0-34.0","battery-v0.2","","""event"",""trial"",""time""
""fullscreenenter"",""1"",""3537""
","
","
","""event"",""trial"",""time""
""fullscreenenter"",""1"",""3537""
","
","","","-1","","","14","18054","6703","j","elianto","#f73b6a7A","-1","-1","1","-10","[]","0","2","","","18054","30","0","4","lose","no-go","1"
"pit-trial","149","1031713","0.0-35.0","battery-v0.2","","""event"",""trial"",""time""
""fullscreenenter"",""1"",""3537""
","
","
","""event"",""trial"",""time""
""fullscreenenter"",""1"",""3537""
","
","","","809.2999999970198","","","14","18054","6703","w","elianto","#f73b6a7A"," "," ","1","0","[1660]","1","2","","","18054","31","3","3","lose","go","0"
"pit-trial","150","1036568","0.0-36.0","battery-v0.2","","""event"",""trial"",""time""
""fullscreenenter"",""1"",""3537""
","
","
","""event"",""trial"",""time""
""fullscreenenter"",""1"",""3537""
","
","","","-1","","","14","18054","6703","e","elianto","#f73b6a7A","-1","-1","1","0","[]","0","2","","","18054","32","2","4","lose","no-go","0"
"pit-trial","151","1040369","0.0-37.0","battery-v0.2","","""event"",""trial"",""time""
""fullscreenenter"",""1"",""3537""
","
","
","""event"",""trial"",""time""
""fullscreenenter"",""1"",""3537""
","
","","","947.2000000029802","","","14","18054","6703","w","elianto","#f73b6a7A"," "," ","1","0","[1798.2999999970198]","1","2","","","18054","33","3","3","lose","go","0"
"pit-trial","152","1045224","0.0-38.0","battery-v0.2","","""event"",""trial"",""time""
""fullscreenenter"",""1"",""3537""
","
","
","""event"",""trial"",""time""
""fullscreenenter"",""1"",""3537""
","
","","","-1","","","14","18054","6703","j","elianto","#f73b6a7A","-1","-1","1","0","[]","0","2","","","18054","34","0","4","lose","no-go","0"
"pit-trial","153","1050079","0.0-39.0","battery-v0.2","","""event"",""trial"",""time""
""fullscreenenter"",""1"",""3537""
","
","
","""event"",""trial"",""time""
""fullscreenenter"",""1"",""3537""
","
","","","-1","","","14","18054","6703","e","elianto","#f73b6a7A","-1","-1","1","0","[]","0","2","","","18054","35","2","4","lose","no-go","0"
"pit-trial","154","1053830","0.0-40.0","battery-v0.2","","""event"",""trial"",""time""
""fullscreenenter"",""1"",""3537""
","
","
","""event"",""trial"",""time""
""fullscreenenter"",""1"",""3537""
","
","","","898","","","14","18054","6703","d","elianto","#3366ff99"," "," ","1","+10","[1748.1000000014901]","1","2","","","18054","36","1","1","win","go","0"
"pit-trial","155","1058685","0.0-41.0","battery-v0.2","","""event"",""trial"",""time""
""fullscreenenter"",""1"",""3537""
","
","
","""event"",""trial"",""time""
""fullscreenenter"",""1"",""3537""
","
","","","-1","","","14","18054","6703","e","elianto","#f73b6a7A","-1","-1","1","-10","[]","0","2","","","18054","37","2","4","lose","no-go","1"
"pit-trial","156","1062600","0.0-42.0","battery-v0.2","","""event"",""trial"",""time""
""fullscreenenter"",""1"",""3537""
","
","
","""event"",""trial"",""time""
""fullscreenenter"",""1"",""3537""
","
","","","1061.6000000014901","","","14","18054","6703","d","elianto","#3366ff99"," "," ","1","+10","[1912.3999999985099]","1","2","","","18054","38","1","1","win","go","0"
"pit-trial","157","1066252","0.0-43.0","battery-v0.2","","""event"",""trial"",""time""
""fullscreenenter"",""1"",""3537""
","
","
","""event"",""trial"",""time""
""fullscreenenter"",""1"",""3537""
","
","","","798.1000000014901","","","14","18054","6703","w","elianto","#f73b6a7A"," "," ","1","0","[1649.1000000014901]","1","2","","","18054","39","3","3","lose","go","0"
"pit-trial","158","1071108","0.0-44.0","battery-v0.2","","""event"",""trial"",""time""
""fullscreenenter"",""1"",""3537""
","
","
","""event"",""trial"",""time""
""fullscreenenter"",""1"",""3537""
","
","","","-1","","","14","18054","6703","j","elianto","#f73b6a7A","-1","-1","1","0","[]","0","2","","","18054","40","0","4","lose","no-go","0"
"pit-trial","159","1075963","0.0-45.0","battery-v0.2","","""event"",""trial"",""time""
""fullscreenenter"",""1"",""3537""
","
","
","""event"",""trial"",""time""
""fullscreenenter"",""1"",""3537""
","
","","","-1","","","14","18054","6703","j","elianto","#f73b6a7A","-1","-1","1","0","[]","0","2","","","18054","41","0","4","lose","no-go","0"
"pit-trial","160","1080817","0.0-46.0","battery-v0.2","","""event"",""trial"",""time""
""fullscreenenter"",""1"",""3537""
","
","
","""event"",""trial"",""time""
""fullscreenenter"",""1"",""3537""
","
","","","-1","","","14","18054","6703","e","elianto","#f73b6a7A","-1","-1","1","0","[]","0","2","","","18054","42","2","4","lose","no-go","0"
"pit-trial","161","1084527","0.0-47.0","battery-v0.2","","""event"",""trial"",""time""
""fullscreenenter"",""1"",""3537""
","
","
","""event"",""trial"",""time""
""fullscreenenter"",""1"",""3537""
","
","","","855.5","","","14","18054","6703","d","elianto","#3366ff99"," "," ","1","+10","[1707]","1","2","","","18054","43","1","1","win","go","0"
"pit-trial","162","1088508","0.0-48.0","battery-v0.2","","""event"",""trial"",""time""
""fullscreenenter"",""1"",""3537""
","
","
","""event"",""trial"",""time""
""fullscreenenter"",""1"",""3537""
","
","","","1127.8000000044703","","","14","18054","6703","w","elianto","#f73b6a7A"," "," ","1","0","[1978.5]","1","2","","","18054","44","3","3","lose","go","0"
"pit-trial","163","1093362","0.0-49.0","battery-v0.2","","""event"",""trial"",""time""
""fullscreenenter"",""1"",""3537""
","
","
","""event"",""trial"",""time""
""fullscreenenter"",""1"",""3537""
","
","","","-1","","","14","18054","6703","j","elianto","#f73b6a7A","-1","-1","1","0","[]","0","2","","","18054","45","0","4","lose","no-go","0"
"pit-trial","164","1097003","0.0-50.0","battery-v0.2","","""event"",""trial"",""time""
""fullscreenenter"",""1"",""3537""
","
","
","""event"",""trial"",""time""
""fullscreenenter"",""1"",""3537""
","
","","","787.6999999955297","","","14","18054","6703","w","elianto","#f73b6a7A"," "," ","1","0","[1638.1999999955297]","1","2","","","18054","46","3","3","lose","go","0"
"pit-trial","165","1101856","0.0-51.0","battery-v0.2","","""event"",""trial"",""time""
""fullscreenenter"",""1"",""3537""
","
","
","""event"",""trial"",""time""
""fullscreenenter"",""1"",""3537""
","
","","","-1","","","14","18054","6703","e","elianto","#f73b6a7A","-1","-1","1","0","[]","0","2","","","18054","47","2","4","lose","no-go","0"
"pit-trial","166","1106711","0.0-52.0","battery-v0.2","","""event"",""trial"",""time""
""fullscreenenter"",""1"",""3537""
","
","
","""event"",""trial"",""time""
""fullscreenenter"",""1"",""3537""
","
","","","-1","","","14","18054","6703","s","elianto","#3366ff99","-1","-1","1","+10","[]","0","2","","","18054","48","4","2","win","no-go","0"
"pit-trial","167","1110476","0.0-53.0","battery-v0.2","","""event"",""trial"",""time""
""fullscreenenter"",""1"",""3537""
","
","
","""event"",""trial"",""time""
""fullscreenenter"",""1"",""3537""
","
","","","912","","","14","18054","6703","w","elianto","#f73b6a7A"," "," ","1","-10","[1763]","1","2","","","18054","49","3","3","lose","go","1"
"pit-trial","168","1114185","0.0-54.0","battery-v0.2","","""event"",""trial"",""time""
""fullscreenenter"",""1"",""3537""
","
","
","""event"",""trial"",""time""
""fullscreenenter"",""1"",""3537""
","
","","","855","","","14","18054","6703","d","elianto","#3366ff99"," "," ","1","+10","[1705.1000000014901]","1","2","","","18054","50","1","1","win","go","0"
"pit-trial","169","1119039","0.0-55.0","battery-v0.2","","""event"",""trial"",""time""
""fullscreenenter"",""1"",""3537""
","
","
","""event"",""trial"",""time""
""fullscreenenter"",""1"",""3537""
","
","","","-1","","","14","18054","6703","s","elianto","#3366ff99","-1","-1","1","+10","[]","0","2","","","18054","51","4","2","win","no-go","0"
"pit-trial","170","1123894","0.0-56.0","battery-v0.2","","""event"",""trial"",""time""
""fullscreenenter"",""1"",""3537""
","
","
","""event"",""trial"",""time""
""fullscreenenter"",""1"",""3537""
","
","","","-1","","","14","18054","6703","j","elianto","#f73b6a7A","-1","-1","1","0","[]","0","2","","","18054","52","0","4","lose","no-go","0"
"pit-trial","171","1128749","0.0-57.0","battery-v0.2","","""event"",""trial"",""time""
""fullscreenenter"",""1"",""3537""
","
","
","""event"",""trial"",""time""
""fullscreenenter"",""1"",""3537""
","
","","","-1","","","14","18054","6703","s","elianto","#3366ff99","-1","-1","1","0","[]","0","2","","","18054","53","4","2","win","no-go","1"
"pit-trial","172","1133603","0.0-58.0","battery-v0.2","","""event"",""trial"",""time""
""fullscreenenter"",""1"",""3537""
","
","
","""event"",""trial"",""time""
""fullscreenenter"",""1"",""3537""
","
","","","-1","","","14","18054","6703","e","elianto","#f73b6a7A","-1","-1","1","0","[]","0","2","","","18054","54","2","4","lose","no-go","0"
"pit-trial","173","1137189","0.0-59.0","battery-v0.2","","""event"",""trial"",""time""
""fullscreenenter"",""1"",""3537""
","
","
","""event"",""trial"",""time""
""fullscreenenter"",""1"",""3537""
","
","","","731.3999999985099","","","14","18054","6703","d","elianto","#3366ff99"," "," ","1","+10","[1582.3999999985099]","1","2","","","18054","55","1","1","win","go","0"
"pit-trial","174","1142044","0.0-60.0","battery-v0.2","","""event"",""trial"",""time""
""fullscreenenter"",""1"",""3537""
","
","
","""event"",""trial"",""time""
""fullscreenenter"",""1"",""3537""
","
","","","-1","","","14","18054","6703","j","elianto","#f73b6a7A","-1","-1","1","0","[]","0","2","","","18054","56","0","4","lose","no-go","0"
"pit-trial","175","1146899","0.0-61.0","battery-v0.2","","""event"",""trial"",""time""
""fullscreenenter"",""1"",""3537""
","
","
","""event"",""trial"",""time""
""fullscreenenter"",""1"",""3537""
","
","","","-1","","","14","18054","6703","s","elianto","#3366ff99","-1","-1","1","+10","[]","0","2","","","18054","57","4","2","win","no-go","0"
"pit-trial","176","1150592","0.0-62.0","battery-v0.2","","""event"",""trial"",""time""
""fullscreenenter"",""1"",""3537""
","
","
","""event"",""trial"",""time""
""fullscreenenter"",""1"",""3537""
","
","","","838","","","14","18054","6703","w","elianto","#f73b6a7A"," "," ","1","0","[1689.2999999970198]","1","2","","","18054","58","3","3","lose","go","0"
"pit-trial","177","1154267","0.0-63.0","battery-v0.2","","""event"",""trial"",""time""
""fullscreenenter"",""1"",""3537""
","
","
","""event"",""trial"",""time""
""fullscreenenter"",""1"",""3537""
","
","","","820.1000000014901","","","14","18054","6703","d","elianto","#3366ff99"," "," ","1","+10","[1671.9000000059605]","1","2","","","18054","59","1","1","win","go","0"
"pit-trial","178","1159122","0.0-64.0","battery-v0.2","","""event"",""trial"",""time""
""fullscreenenter"",""1"",""3537""
","
","
","""event"",""trial"",""time""
""fullscreenenter"",""1"",""3537""
","
","","","-1","","","14","18054","6703","j","elianto","#f73b6a7A","-1","-1","1","0","[]","0","2","","","18054","60","0","4","lose","no-go","0"
"pit-trial","179","1163280","0.0-65.0","battery-v0.2","","""event"",""trial"",""time""
""fullscreenenter"",""1"",""3537""
","
","
","""event"",""trial"",""time""
""fullscreenenter"",""1"",""3537""
","
","","","1303.8000000044703","","","14","18054","6703","w","elianto","#f73b6a7A"," "," ","1","0","[2155.60000000149]","1","2","","","18054","61","3","3","lose","go","0"
"pit-trial","180","1168135","0.0-66.0","battery-v0.2","","""event"",""trial"",""time""
""fullscreenenter"",""1"",""3537""
","
","
","""event"",""trial"",""time""
""fullscreenenter"",""1"",""3537""
","
","","","-1","","","14","18054","6703","e","elianto","#f73b6a7A","-1","-1","1","0","[]","0","2","","","18054","62","2","4","lose","no-go","0"
"pit-trial","181","1172990","0.0-67.0","battery-v0.2","","""event"",""trial"",""time""
""fullscreenenter"",""1"",""3537""
","
","
","""event"",""trial"",""time""
""fullscreenenter"",""1"",""3537""
","
","","","-1","","","14","18054","6703","s","elianto","#3366ff99","-1","-1","1","+10","[]","0","2","","","18054","63","4","2","win","no-go","0"
"pit-trial","182","1176724","0.0-68.0","battery-v0.2","","""event"",""trial"",""time""
""fullscreenenter"",""1"",""3537""
","
","
","""event"",""trial"",""time""
""fullscreenenter"",""1"",""3537""
","
","","","881.2000000029802","","","14","18054","6703","d","elianto","#3366ff99"," "," ","1","+10","[1732.5]","1","2","","","18054","64","1","1","win","go","0"
"pit-trial","183","1180384","0.0-69.0","battery-v0.2","","""event"",""trial"",""time""
""fullscreenenter"",""1"",""3537""
","
","
","""event"",""trial"",""time""
""fullscreenenter"",""1"",""3537""
","
","","","804.2999999970198","","","14","18054","6703","w","elianto","#f73b6a7A"," "," ","1","0","[1655.8999999985099]","1","2","","","18054","65","3","3","lose","go","0"
"pit-trial","184","1184088","0.0-70.0","battery-v0.2","","""event"",""trial"",""time""
""fullscreenenter"",""1"",""3537""
","
","
","""event"",""trial"",""time""
""fullscreenenter"",""1"",""3537""
","
","","","849.6999999955297","","","14","18054","6703","d","elianto","#3366ff99"," "," ","1","+10","[1701]","1","2","","","18054","66","1","1","win","go","0"
"pit-trial","185","1188942","0.0-71.0","battery-v0.2","","""event"",""trial"",""time""
""fullscreenenter"",""1"",""3537""
","
","
","""event"",""trial"",""time""
""fullscreenenter"",""1"",""3537""
","
","","","-1","","","14","18054","6703","e","elianto","#f73b6a7A","-1","-1","1","0","[]","0","2","","","18054","67","2","4","lose","no-go","0"
"pit-trial","186","1193796","0.0-72.0","battery-v0.2","","""event"",""trial"",""time""
""fullscreenenter"",""1"",""3537""
","
","
","""event"",""trial"",""time""
""fullscreenenter"",""1"",""3537""
","
","","","-1","","","14","18054","6703","s","elianto","#3366ff99","-1","-1","1","+10","[]","0","2","","","18054","68","4","2","win","no-go","0"
"pit-trial","187","1198650","0.0-73.0","battery-v0.2","","""event"",""trial"",""time""
""fullscreenenter"",""1"",""3537""
","
","
","""event"",""trial"",""time""
""fullscreenenter"",""1"",""3537""
","
","","","-1","","","14","18054","6703","s","elianto","#3366ff99","-1","-1","1","+10","[]","0","2","","","18054","69","4","2","win","no-go","0"
"pit-trial","188","1202376","0.0-74.0","battery-v0.2","","""event"",""trial"",""time""
""fullscreenenter"",""1"",""3537""
","
","
","""event"",""trial"",""time""
""fullscreenenter"",""1"",""3537""
","
","","","872.3000000044703","","","14","18054","6703","d","elianto","#3366ff99"," "," ","1","+10","[1722.9000000059605]","1","2","","","18054","70","1","1","win","go","0"
"pit-trial","189","1207231","0.0-75.0","battery-v0.2","","""event"",""trial"",""time""
""fullscreenenter"",""1"",""3537""
","
","
","""event"",""trial"",""time""
""fullscreenenter"",""1"",""3537""
","
","","","-1","","","14","18054","6703","p","elianto","#3366ff99"," ","-1","0","+10","[]","0","2","","","18054","71","5","1","win","go","1"
"pit-trial","190","1211111","0.0-76.0","battery-v0.2","","""event"",""trial"",""time""
""fullscreenenter"",""1"",""3537""
","
","
","""event"",""trial"",""time""
""fullscreenenter"",""1"",""3537""
","
","","","1025.9000000059605","","","14","18054","6703","w","elianto","#f73b6a7A"," "," ","1","0","[1876.5]","1","2","","","18054","72","3","3","lose","go","0"
"pit-trial","191","1215965","0.0-77.0","battery-v0.2","","""event"",""trial"",""time""
""fullscreenenter"",""1"",""3537""
","
","
","""event"",""trial"",""time""
""fullscreenenter"",""1"",""3537""
","
","","","-1","","","14","18054","6703","s","elianto","#3366ff99","-1","-1","1","+10","[]","0","2","","","18054","73","4","2","win","no-go","0"
"pit-trial","192","1219915","0.0-78.0","battery-v0.2","","""event"",""trial"",""time""
""fullscreenenter"",""1"",""3537""
","
","
","""event"",""trial"",""time""
""fullscreenenter"",""1"",""3537""
","
","","","1096.1999999955297","","","14","18054","6703","d","elianto","#3366ff99"," "," ","1","+10","[1947.6999999955297]","1","2","","","18054","74","1","1","win","go","0"
"pit-trial","193","1224770","0.0-79.0","battery-v0.2","","""event"",""trial"",""time""
""fullscreenenter"",""1"",""3537""
","
","
","""event"",""trial"",""time""
""fullscreenenter"",""1"",""3537""
","
","","","-1","","","14","18054","6703","p","elianto","#3366ff99"," ","-1","0","0","[]","0","2","","","18054","75","5","1","win","go","0"
"pit-trial","194","1228543","0.0-80.0","battery-v0.2","","""event"",""trial"",""time""
""fullscreenenter"",""1"",""3537""
","
","
","""event"",""trial"",""time""
""fullscreenenter"",""1"",""3537""
","
","","","919.2000000029802","","","14","18054","6703","w","elianto","#f73b6a7A"," "," ","1","0","[1769.8000000044703]","1","2","","","18054","76","3","3","lose","go","0"
"pit-trial","195","1233397","0.0-81.0","battery-v0.2","","""event"",""trial"",""time""
""fullscreenenter"",""1"",""3537""
","
","
","""event"",""trial"",""time""
""fullscreenenter"",""1"",""3537""
","
","","","-1","","","14","18054","6703","p","elianto","#3366ff99"," ","-1","0","+10","[]","0","2","","","18054","77","5","1","win","go","1"
"pit-trial","196","1238253","0.0-82.0","battery-v0.2","","""event"",""trial"",""time""
""fullscreenenter"",""1"",""3537""
","
","
","""event"",""trial"",""time""
""fullscreenenter"",""1"",""3537""
","
","","","-1","","","14","18054","6703","s","elianto","#3366ff99","-1","-1","1","+10","[]","0","2","","","18054","78","4","2","win","no-go","0"
"pit-trial","197","1243108","0.0-83.0","battery-v0.2","","""event"",""trial"",""time""
""fullscreenenter"",""1"",""3537""
","
","
","""event"",""trial"",""time""
""fullscreenenter"",""1"",""3537""
","
","","","-1","","","14","18054","6703","g","elianto","#f73b6a7A","-1","-1","1","0","[]","0","2","","","18054","79","6","4","lose","no-go","0"
"pit-trial","198","1246818","0.0-84.0","battery-v0.2","","""event"",""trial"",""time""
""fullscreenenter"",""1"",""3537""
","
","
","""event"",""trial"",""time""
""fullscreenenter"",""1"",""3537""
","
","","","857.7999999970198","","","14","18054","6703","w","elianto","#f73b6a7A"," "," ","1","0","[1708.5]","1","2","","","18054","80","3","3","lose","go","0"
"pit-trial","199","1251672","0.0-85.0","battery-v0.2","","""event"",""trial"",""time""
""fullscreenenter"",""1"",""3537""
","
","
","""event"",""trial"",""time""
""fullscreenenter"",""1"",""3537""
","
","","","-1","","","14","18054","6703","p","elianto","#3366ff99"," ","-1","0","0","[]","0","2","","","18054","81","5","1","win","go","0"
"pit-trial","200","1256526","0.0-86.0","battery-v0.2","","""event"",""trial"",""time""
""fullscreenenter"",""1"",""3537""
","
","
","""event"",""trial"",""time""
""fullscreenenter"",""1"",""3537""
","
","","","-1","","","14","18054","6703","s","elianto","#3366ff99","-1","-1","1","+10","[]","0","2","","","18054","82","4","2","win","no-go","0"
"pit-trial","201","1261381","0.0-87.0","battery-v0.2","","""event"",""trial"",""time""
""fullscreenenter"",""1"",""3537""
","
","
","""event"",""trial"",""time""
""fullscreenenter"",""1"",""3537""
","
","","","-1","","","14","18054","6703","g","elianto","#f73b6a7A","-1","-1","1","0","[]","0","2","","","18054","83","6","4","lose","no-go","0"
"pit-trial","202","1266235","0.0-88.0","battery-v0.2","","""event"",""trial"",""time""
""fullscreenenter"",""1"",""3537""
","
","
","""event"",""trial"",""time""
""fullscreenenter"",""1"",""3537""
","
","","","-1","","","14","18054","6703","a","elianto","#f73b6a7A"," ","-1","0","-10","[]","0","2","","","18054","84","7","3","lose","go","0"
"pit-trial","203","1271089","0.0-89.0","battery-v0.2","","""event"",""trial"",""time""
""fullscreenenter"",""1"",""3537""
","
","
","""event"",""trial"",""time""
""fullscreenenter"",""1"",""3537""
","
","","","-1","","","14","18054","6703","p","elianto","#3366ff99"," ","-1","0","0","[]","0","2","","","18054","85","5","1","win","go","0"
"pit-trial","204","1274906","0.0-90.0","battery-v0.2","","""event"",""trial"",""time""
""fullscreenenter"",""1"",""3537""
","
","
","""event"",""trial"",""time""
""fullscreenenter"",""1"",""3537""
","
","","","962.6999999955297","","","14","18054","6703","a","elianto","#f73b6a7A"," "," ","1","0","[1813.3999999985099]","1","2","","","18054","86","7","3","lose","go","0"
"pit-trial","205","1279761","0.0-91.0","battery-v0.2","","""event"",""trial"",""time""
""fullscreenenter"",""1"",""3537""
","
","
","""event"",""trial"",""time""
""fullscreenenter"",""1"",""3537""
","
","","","-1","","","14","18054","6703","g","elianto","#f73b6a7A","-1","-1","1","0","[]","0","2","","","18054","87","6","4","lose","no-go","0"
"pit-trial","206","1284615","0.0-92.0","battery-v0.2","","""event"",""trial"",""time""
""fullscreenenter"",""1"",""3537""
","
","
","""event"",""trial"",""time""
""fullscreenenter"",""1"",""3537""
","
","","","-1","","","14","18054","6703","s","elianto","#3366ff99","-1","-1","1","+10","[]","0","2","","","18054","88","4","2","win","no-go","0"
"pit-trial","207","1288630","0.0-93.0","battery-v0.2","","""event"",""trial"",""time""
""fullscreenenter"",""1"",""3537""
","
","
","""event"",""trial"",""time""
""fullscreenenter"",""1"",""3537""
","
","","","1161.3999999985099","","","14","18054","6703","p","elianto","#3366ff99"," "," ","1","0","[2012.1999999955297]","1","2","","","18054","89","5","1","win","go","1"
"pit-trial","208","1293485","0.0-94.0","battery-v0.2","","""event"",""trial"",""time""
""fullscreenenter"",""1"",""3537""
","
","
","""event"",""trial"",""time""
""fullscreenenter"",""1"",""3537""
","
","","","-1","","","14","18054","6703","g","elianto","#f73b6a7A","-1","-1","1","0","[]","0","2","","","18054","90","6","4","lose","no-go","0"
"pit-trial","209","1297476","0.0-95.0","battery-v0.2","","""event"",""trial"",""time""
""fullscreenenter"",""1"",""3537""
","
","
","""event"",""trial"",""time""
""fullscreenenter"",""1"",""3537""
","
","","","1137.7000000029802","","","14","18054","6703","a","elianto","#f73b6a7A"," "," ","1","0","[1988.3999999985099]","1","2","","","18054","91","7","3","lose","go","0"
"pit-trial","210","1302331","0.0-96.0","battery-v0.2","","""event"",""trial"",""time""
""fullscreenenter"",""1"",""3537""
","
","
","""event"",""trial"",""time""
""fullscreenenter"",""1"",""3537""
","
","","","-1","","","14","18054","6703","s","elianto","#3366ff99","-1","-1","1","+10","[]","0","2","","","18054","92","4","2","win","no-go","0"
"pit-trial","211","1306209","0.0-97.0","battery-v0.2","","""event"",""trial"",""time""
""fullscreenenter"",""1"",""3537""
","
","
","""event"",""trial"",""time""
""fullscreenenter"",""1"",""3537""
","
","","","1026.5","","","14","18054","6703","a","elianto","#f73b6a7A"," "," ","1","0","[1876.6999999955297]","1","2","","","18054","93","7","3","lose","go","0"
"pit-trial","212","1311063","0.0-98.0","battery-v0.2","","""event"",""trial"",""time""
""fullscreenenter"",""1"",""3537""
","
","
","""event"",""trial"",""time""
""fullscreenenter"",""1"",""3537""
","
","","","-1","","","14","18054","6703","g","elianto","#f73b6a7A","-1","-1","1","-10","[]","0","2","","","18054","94","6","4","lose","no-go","1"
"pit-trial","213","1315038","0.0-99.0","battery-v0.2","","""event"",""trial"",""time""
""fullscreenenter"",""1"",""3537""
","
","
","""event"",""trial"",""time""
""fullscreenenter"",""1"",""3537""
","
","","","1121.6999999955297","","","14","18054","6703","p","elianto","#3366ff99"," "," ","1","0","[1972.5999999940395]","1","2","","","18054","95","5","1","win","go","1"
"pit-trial","214","1319892","0.0-100.0","battery-v0.2","","""event"",""trial"",""time""
""fullscreenenter"",""1"",""3537""
","
","
","""event"",""trial"",""time""
""fullscreenenter"",""1"",""3537""
","
","","","-1","","","14","18054","6703","l","elianto","#3366ff99","-1","-1","1","+10","[]","0","2","","","18054","96","8","2","win","no-go","0"
"pit-trial","215","1323721","0.0-101.0","battery-v0.2","","""event"",""trial"",""time""
""fullscreenenter"",""1"",""3537""
","
","
","""event"",""trial"",""time""
""fullscreenenter"",""1"",""3537""
","
","","","976.1000000014901","","","14","18054","6703","a","elianto","#f73b6a7A"," "," ","1","0","[1826.7000000029802]","1","2","","","18054","97","7","3","lose","go","0"
"pit-trial","216","1328575","0.0-102.0","battery-v0.2","","""event"",""trial"",""time""
""fullscreenenter"",""1"",""3537""
","
","
","""event"",""trial"",""time""
""fullscreenenter"",""1"",""3537""
","
","","","-1","","","14","18054","6703","l","elianto","#3366ff99","-1","-1","1","+10","[]","0","2","","","18054","98","8","2","win","no-go","0"
"pit-trial","217","1333428","0.0-103.0","battery-v0.2","","""event"",""trial"",""time""
""fullscreenenter"",""1"",""3537""
","
","
","""event"",""trial"",""time""
""fullscreenenter"",""1"",""3537""
","
","","","-1","","","14","18054","6703","g","elianto","#f73b6a7A","-1","-1","1","0","[]","0","2","","","18054","99","6","4","lose","no-go","0"
"pit-trial","218","1338283","0.0-104.0","battery-v0.2","","""event"",""trial"",""time""
""fullscreenenter"",""1"",""3537""
","
","
","""event"",""trial"",""time""
""fullscreenenter"",""1"",""3537""
","
","","","-1","","","14","18054","6703","p","elianto","#3366ff99"," ","-1","0","+10","[]","0","2","","","18054","100","5","1","win","go","1"
"pit-trial","219","1343137","0.0-105.0","battery-v0.2","","""event"",""trial"",""time""
""fullscreenenter"",""1"",""3537""
","
","
","""event"",""trial"",""time""
""fullscreenenter"",""1"",""3537""
","
","","","-1","","","14","18054","6703","u","elianto","#3366ff99","-1","-1","1","0","[]","0","2","","","18054","101","9","2","win","no-go","1"
"pit-trial","220","1347993","0.0-106.0","battery-v0.2","","""event"",""trial"",""time""
""fullscreenenter"",""1"",""3537""
","
","
","""event"",""trial"",""time""
""fullscreenenter"",""1"",""3537""
","
","","","-1","","","14","18054","6703","g","elianto","#f73b6a7A","-1","-1","1","0","[]","0","2","","","18054","102","6","4","lose","no-go","0"
"pit-trial","221","1352847","0.0-107.0","battery-v0.2","","""event"",""trial"",""time""
""fullscreenenter"",""1"",""3537""
","
","
","""event"",""trial"",""time""
""fullscreenenter"",""1"",""3537""
","
","","","-1","","","14","18054","6703","l","elianto","#3366ff99","-1","-1","1","+10","[]","0","2","","","18054","103","8","2","win","no-go","0"
"pit-trial","222","1357703","0.0-108.0","battery-v0.2","","""event"",""trial"",""time""
""fullscreenenter"",""1"",""3537""
","
","
","""event"",""trial"",""time""
""fullscreenenter"",""1"",""3537""
","
","","","-1","","","14","18054","6703","p","elianto","#3366ff99"," ","-1","0","0","[]","0","2","","","18054","104","5","1","win","go","0"
"pit-trial","223","1362558","0.0-109.0","battery-v0.2","","""event"",""trial"",""time""
""fullscreenenter"",""1"",""3537""
","
","
","""event"",""trial"",""time""
""fullscreenenter"",""1"",""3537""
","
","","","-1","","","14","18054","6703","p","elianto","#3366ff99"," ","-1","0","0","[]","0","2","","","18054","105","5","1","win","go","0"
"pit-trial","224","1367412","0.0-110.0","battery-v0.2","","""event"",""trial"",""time""
""fullscreenenter"",""1"",""3537""
","
","
","""event"",""trial"",""time""
""fullscreenenter"",""1"",""3537""
","
","","","-1","","","14","18054","6703","l","elianto","#3366ff99","-1","-1","1","+10","[]","0","2","","","18054","106","8","2","win","no-go","0"
"pit-trial","225","1371274","0.0-111.0","battery-v0.2","","""event"",""trial"",""time""
""fullscreenenter"",""1"",""3537""
","
","
","""event"",""trial"",""time""
""fullscreenenter"",""1"",""3537""
","
","","","1008.3999999985099","","","14","18054","6703","u","elianto","#3366ff99","-1"," ","0","0","[1860]","1","2","","","18054","107","9","2","win","no-go","0"
"pit-trial","226","1376129","0.0-112.0","battery-v0.2","","""event"",""trial"",""time""
""fullscreenenter"",""1"",""3537""
","
","
","""event"",""trial"",""time""
""fullscreenenter"",""1"",""3537""
","
","","","-1","","","14","18054","6703","g","elianto","#f73b6a7A","-1","-1","1","-10","[]","0","2","","","18054","108","6","4","lose","no-go","1"
"pit-trial","227","1380983","0.0-113.0","battery-v0.2","","""event"",""trial"",""time""
""fullscreenenter"",""1"",""3537""
","
","
","""event"",""trial"",""time""
""fullscreenenter"",""1"",""3537""
","
","","","-1","","","14","18054","6703","g","elianto","#f73b6a7A","-1","-1","1","0","[]","0","2","","","18054","109","6","4","lose","no-go","0"
"pit-trial","228","1385837","0.0-114.0","battery-v0.2","","""event"",""trial"",""time""
""fullscreenenter"",""1"",""3537""
","
","
","""event"",""trial"",""time""
""fullscreenenter"",""1"",""3537""
","
","","","-1","","","14","18054","6703","p","elianto","#3366ff99"," ","-1","0","0","[]","0","2","","","18054","110","5","1","win","go","0"
"pit-trial","229","1390692","0.0-115.0","battery-v0.2","","""event"",""trial"",""time""
""fullscreenenter"",""1"",""3537""
","
","
","""event"",""trial"",""time""
""fullscreenenter"",""1"",""3537""
","
","","","-1","","","14","18054","6703","u","elianto","#3366ff99","-1","-1","1","+10","[]","0","2","","","18054","111","9","2","win","no-go","0"
"pit-trial","230","1395546","0.0-116.0","battery-v0.2","","""event"",""trial"",""time""
""fullscreenenter"",""1"",""3537""
","
","
","""event"",""trial"",""time""
""fullscreenenter"",""1"",""3537""
","
","","","-1","","","14","18054","6703","l","elianto","#3366ff99","-1","-1","1","+10","[]","0","2","","","18054","112","8","2","win","no-go","0"
"pit-trial","231","1400401","0.0-117.0","battery-v0.2","","""event"",""trial"",""time""
""fullscreenenter"",""1"",""3537""
","
","
","""event"",""trial"",""time""
""fullscreenenter"",""1"",""3537""
","
","","","-1","","","14","18054","6703","p","elianto","#3366ff99"," ","-1","0","0","[]","0","2","","","18054","113","5","1","win","go","0"
"pit-trial","232","1405255","0.0-118.0","battery-v0.2","","""event"",""trial"",""time""
""fullscreenenter"",""1"",""3537""
","
","
","""event"",""trial"",""time""
""fullscreenenter"",""1"",""3537""
","
","","","-1","","","14","18054","6703","l","elianto","#3366ff99","-1","-1","1","+10","[]","0","2","","","18054","114","8","2","win","no-go","0"
"pit-trial","233","1409108","0.0-119.0","battery-v0.2","","""event"",""trial"",""time""
""fullscreenenter"",""1"",""3537""
","
","
","""event"",""trial"",""time""
""fullscreenenter"",""1"",""3537""
","
","","","1000.3999999985099","","","14","18054","6703","a","elianto","#f73b6a7A"," "," ","1","0","[1851.2000000029802]","1","2","","","18054","115","7","3","lose","go","0"
"pit-trial","234","1413963","0.0-120.0","battery-v0.2","","""event"",""trial"",""time""
""fullscreenenter"",""1"",""3537""
","
","
","""event"",""trial"",""time""
""fullscreenenter"",""1"",""3537""
","
","","","-1","","","14","18054","6703","u","elianto","#3366ff99","-1","-1","1","+10","[]","0","2","","","18054","116","9","2","win","no-go","0"
"pit-trial","235","1418817","0.0-121.0","battery-v0.2","","""event"",""trial"",""time""
""fullscreenenter"",""1"",""3537""
","
","
","""event"",""trial"",""time""
""fullscreenenter"",""1"",""3537""
","
","","","-1","","","14","18054","6703","p","elianto","#3366ff99"," ","-1","0","0","[]","0","2","","","18054","117","5","1","win","go","0"
"pit-trial","236","1423672","0.0-122.0","battery-v0.2","","""event"",""trial"",""time""
""fullscreenenter"",""1"",""3537""
","
","
","""event"",""trial"",""time""
""fullscreenenter"",""1"",""3537""
","
","","","-1","","","14","18054","6703","l","elianto","#3366ff99","-1","-1","1","+10","[]","0","2","","","18054","118","8","2","win","no-go","0"
"pit-trial","237","1428528","0.0-123.0","battery-v0.2","","""event"",""trial"",""time""
""fullscreenenter"",""1"",""3537""
","
","
","""event"",""trial"",""time""
""fullscreenenter"",""1"",""3537""
","
","","","-1","","","14","18054","6703","u","elianto","#3366ff99","-1","-1","1","+10","[]","0","2","","","18054","119","9","2","win","no-go","0"
"pit-trial","238","1433383","0.0-124.0","battery-v0.2","","""event"",""trial"",""time""
""fullscreenenter"",""1"",""3537""
","
","
","""event"",""trial"",""time""
""fullscreenenter"",""1"",""3537""
","
","","","-1","","","14","18054","6703","g","elianto","#f73b6a7A","-1","-1","1","0","[]","0","2","","","18054","120","6","4","lose","no-go","0"
"pit-trial","239","1437157","0.0-125.0","battery-v0.2","","""event"",""trial"",""time""
""fullscreenenter"",""1"",""3537""
","
","
","""event"",""trial"",""time""
""fullscreenenter"",""1"",""3537""
","
","","","920.5999999940395","","","14","18054","6703","a","elianto","#f73b6a7A"," "," ","1","0","[1771.3999999985099]","1","2","","","18054","121","7","3","lose","go","0"
"pit-trial","240","1442011","0.0-126.0","battery-v0.2","","""event"",""trial"",""time""
""fullscreenenter"",""1"",""3537""
","
","
","""event"",""trial"",""time""
""fullscreenenter"",""1"",""3537""
","
","","","-1","","","14","18054","6703","p","elianto","#3366ff99"," ","-1","0","0","[]","0","2","","","18054","122","5","1","win","go","0"
"pit-trial","241","1446865","0.0-127.0","battery-v0.2","","""event"",""trial"",""time""
""fullscreenenter"",""1"",""3537""
","
","
","""event"",""trial"",""time""
""fullscreenenter"",""1"",""3537""
","
","","","-1","","","14","18054","6703","l","elianto","#3366ff99","-1","-1","1","+10","[]","0","2","","","18054","123","8","2","win","no-go","0"
"pit-trial","242","1451718","0.0-128.0","battery-v0.2","","""event"",""trial"",""time""
""fullscreenenter"",""1"",""3537""
","
","
","""event"",""trial"",""time""
""fullscreenenter"",""1"",""3537""
","
","","","-1","","","14","18054","6703","u","elianto","#3366ff99","-1","-1","1","+10","[]","0","2","","","18054","124","9","2","win","no-go","0"
"pit-trial","243","1455431","0.0-129.0","battery-v0.2","","""event"",""trial"",""time""
""fullscreenenter"",""1"",""3537""
","
","
","""event"",""trial"",""time""
""fullscreenenter"",""1"",""3537""
","
","","","858.7000000029802","","","14","18054","6703","a","elianto","#f73b6a7A"," "," ","1","-10","[1709.8999999985099]","1","2","","","18054","125","7","3","lose","go","1"
"pit-trial","244","1460286","0.0-130.0","battery-v0.2","","""event"",""trial"",""time""
""fullscreenenter"",""1"",""3537""
","
","
","""event"",""trial"",""time""
""fullscreenenter"",""1"",""3537""
","
","","","-1","","","14","18054","6703","g","elianto","#f73b6a7A","-1","-1","1","-10","[]","0","2","","","18054","126","6","4","lose","no-go","1"
"pit-trial","245","1465141","0.0-131.0","battery-v0.2","","""event"",""trial"",""time""
""fullscreenenter"",""1"",""3537""
","
","
","""event"",""trial"",""time""
""fullscreenenter"",""1"",""3537""
","
","","","-1","","","14","18054","6703","l","elianto","#3366ff99","-1","-1","1","0","[]","0","2","","","18054","127","8","2","win","no-go","1"
"pit-trial","246","1469996","0.0-132.0","battery-v0.2","","""event"",""trial"",""time""
""fullscreenenter"",""1"",""3537""
","
","
","""event"",""trial"",""time""
""fullscreenenter"",""1"",""3537""
","
","","","-1","","","14","18054","6703","u","elianto","#3366ff99","-1","-1","1","+10","[]","0","2","","","18054","128","9","2","win","no-go","0"
"pit-trial","247","1474115","0.0-133.0","battery-v0.2","","""event"",""trial"",""time""
""fullscreenenter"",""1"",""3537""
","
","
","""event"",""trial"",""time""
""fullscreenenter"",""1"",""3537""
","
","","","1265.3999999985099","","","14","18054","6703","a","elianto","#f73b6a7A"," "," ","1","-10","[2116.60000000149]","1","2","","","18054","129","7","3","lose","go","1"
"pit-trial","248","1478971","0.0-134.0","battery-v0.2","","""event"",""trial"",""time""
""fullscreenenter"",""1"",""3537""
","
","
","""event"",""trial"",""time""
""fullscreenenter"",""1"",""3537""
","
","","","-1","","","14","18054","6703","g","elianto","#f73b6a7A","-1","-1","1","-10","[]","0","2","","","18054","130","6","4","lose","no-go","1"
"pit-trial","249","1483825","0.0-135.0","battery-v0.2","","""event"",""trial"",""time""
""fullscreenenter"",""1"",""3537""
","
","
","""event"",""trial"",""time""
""fullscreenenter"",""1"",""3537""
","
","","","-1","","","14","18054","6703","l","elianto","#3366ff99","-1","-1","1","+10","[]","0","2","","","18054","131","8","2","win","no-go","0"
"pit-trial","250","1488679","0.0-136.0","battery-v0.2","","""event"",""trial"",""time""
""fullscreenenter"",""1"",""3537""
","
","
","""event"",""trial"",""time""
""fullscreenenter"",""1"",""3537""
","
","","","-1","","","14","18054","6703","u","elianto","#3366ff99","-1","-1","1","+10","[]","0","2","","","18054","132","9","2","win","no-go","0"
"pit-trial","251","1493534","0.0-137.0","battery-v0.2","","""event"",""trial"",""time""
""fullscreenenter"",""1"",""3537""
","
","
","""event"",""trial"",""time""
""fullscreenenter"",""1"",""3537""
","
","","","-1","","","14","18054","6703","l","elianto","#3366ff99","-1","-1","1","0","[]","0","2","","","18054","133","8","2","win","no-go","1"
"pit-trial","252","1498389","0.0-138.0","battery-v0.2","","""event"",""trial"",""time""
""fullscreenenter"",""1"",""3537""
","
","
","""event"",""trial"",""time""
""fullscreenenter"",""1"",""3537""
","
","","","-1","","","14","18054","6703","a","elianto","#f73b6a7A"," ","-1","0","0","[]","0","2","","","18054","134","7","3","lose","go","1"
"pit-trial","253","1502230","0.0-139.0","battery-v0.2","","""event"",""trial"",""time""
""fullscreenenter"",""1"",""3537""
","
","
","""event"",""trial"",""time""
""fullscreenenter"",""1"",""3537""
","
","","","987.6999999955297","","","14","18054","6703","g","elianto","#f73b6a7A","-1"," ","0","-10","[1838.6999999955297]","1","2","","","18054","135","6","4","lose","no-go","0"
"pit-trial","254","1507084","0.0-140.0","battery-v0.2","","""event"",""trial"",""time""
""fullscreenenter"",""1"",""3537""
","
","
","""event"",""trial"",""time""
""fullscreenenter"",""1"",""3537""
","
","","","-1","","","14","18054","6703","u","elianto","#3366ff99","-1","-1","1","+10","[]","0","2","","","18054","136","9","2","win","no-go","0"
"pit-trial","255","1511938","0.0-141.0","battery-v0.2","","""event"",""trial"",""time""
""fullscreenenter"",""1"",""3537""
","
","
","""event"",""trial"",""time""
""fullscreenenter"",""1"",""3537""
","
","","","-1","","","14","18054","6703","l","elianto","#3366ff99","-1","-1","1","+10","[]","0","2","","","18054","137","8","2","win","no-go","0"
"pit-trial","256","1516793","0.0-142.0","battery-v0.2","","""event"",""trial"",""time""
""fullscreenenter"",""1"",""3537""
","
","
","""event"",""trial"",""time""
""fullscreenenter"",""1"",""3537""
","
","","","-1","","","14","18054","6703","g","elianto","#f73b6a7A","-1","-1","1","0","[]","0","2","","","18054","138","6","4","lose","no-go","0"
"pit-trial","257","1520586","0.0-143.0","battery-v0.2","","""event"",""trial"",""time""
""fullscreenenter"",""1"",""3537""
","
","
","""event"",""trial"",""time""
""fullscreenenter"",""1"",""3537""
","
","","","940","","","14","18054","6703","a","elianto","#f73b6a7A"," "," ","1","0","[1791.3999999985099]","1","2","","","18054","139","7","3","lose","go","0"
"pit-trial","258","1525442","0.0-144.0","battery-v0.2","","""event"",""trial"",""time""
""fullscreenenter"",""1"",""3537""
","
","
","""event"",""trial"",""time""
""fullscreenenter"",""1"",""3537""
","
","","","-1","","","14","18054","6703","u","elianto","#3366ff99","-1","-1","1","+10","[]","0","2","","","18054","140","9","2","win","no-go","0"
"pit-instructions","259","1553595","0.0-145.0","battery-v0.2","","""event"",""trial"",""time""
""fullscreenenter"",""1"",""3537""
","
","
","""event"",""trial"",""time""
""fullscreenenter"",""1"",""3537""
","
","","[{""page_index"":0,""viewing_time"":20121},{""page_index"":1,""viewing_time"":8030.5}]","28151.69999999553","","","","","","","","","","","","","","","","","","","","","","","",""
"pit-trial","260","1558450","0.0-146.0","battery-v0.2","","""event"",""trial"",""time""
""fullscreenenter"",""1"",""3537""
","
","
","""event"",""trial"",""time""
""fullscreenenter"",""1"",""3537""
","
","","","-1","","","14","18054","6703","h","elianto","#f73b6a7A","-1","-1","1","0","[]","0","3","","","18054","141","3","4","lose","no-go","0"
"pit-trial","261","1563305","0.0-147.0","battery-v0.2","","""event"",""trial"",""time""
""fullscreenenter"",""1"",""3537""
","
","
","""event"",""trial"",""time""
""fullscreenenter"",""1"",""3537""
","
","","","-1","","","14","18054","6703","y","elianto","#f73b6a7A"," ","-1","0","-10","[]","0","3","","","18054","142","2","3","lose","go","0"
"pit-trial","262","1568160","0.0-148.0","battery-v0.2","","""event"",""trial"",""time""
""fullscreenenter"",""1"",""3537""
","
","
","""event"",""trial"",""time""
""fullscreenenter"",""1"",""3537""
","
","","","-1","","","14","18054","6703","m","elianto","#f73b6a7A"," ","-1","0","0","[]","0","3","","","18054","143","0","3","lose","go","1"
"pit-trial","263","1573016","0.0-149.0","battery-v0.2","","""event"",""trial"",""time""
""fullscreenenter"",""1"",""3537""
","
","
","""event"",""trial"",""time""
""fullscreenenter"",""1"",""3537""
","
","","","-1","","","14","18054","6703","r","elianto","#3366ff99","-1","-1","1","+10","[]","0","3","","","18054","144","1","2","win","no-go","0"
"pit-trial","264","1577872","0.0-150.0","battery-v0.2","","""event"",""trial"",""time""
""fullscreenenter"",""1"",""3537""
","
","
","""event"",""trial"",""time""
""fullscreenenter"",""1"",""3537""
","
","","","-1","","","14","18054","6703","m","elianto","#f73b6a7A"," ","-1","0","-10","[]","0","3","","","18054","145","0","3","lose","go","0"
"pit-trial","265","1582727","0.0-151.0","battery-v0.2","","""event"",""trial"",""time""
""fullscreenenter"",""1"",""3537""
","
","
","""event"",""trial"",""time""
""fullscreenenter"",""1"",""3537""
","
","","","-1","","","14","18054","6703","r","elianto","#3366ff99","-1","-1","1","0","[]","0","3","","","18054","146","1","2","win","no-go","1"
"pit-trial","266","1587580","0.0-152.0","battery-v0.2","","""event"",""trial"",""time""
""fullscreenenter"",""1"",""3537""
","
","
","""event"",""trial"",""time""
""fullscreenenter"",""1"",""3537""
","
","","","-1","","","14","18054","6703","h","elianto","#f73b6a7A","-1","-1","1","0","[]","0","3","","","18054","147","3","4","lose","no-go","0"
"pit-trial","267","1591180","0.0-153.0","battery-v0.2","","""event"",""trial"",""time""
""fullscreenenter"",""1"",""3537""
","
","
","""event"",""trial"",""time""
""fullscreenenter"",""1"",""3537""
","
","","","746.3999999985099","","","14","18054","6703","y","elianto","#f73b6a7A"," "," ","1","0","[1597.0999999940395]","1","3","","","18054","148","2","3","lose","go","0"
"pit-trial","268","1594872","0.0-154.0","battery-v0.2","","""event"",""trial"",""time""
""fullscreenenter"",""1"",""3537""
","
","
","""event"",""trial"",""time""
""fullscreenenter"",""1"",""3537""
","
","","","835.7999999970198","","","14","18054","6703","y","elianto","#f73b6a7A"," "," ","1","-10","[1687.5]","1","3","","","18054","149","2","3","lose","go","1"
"pit-trial","269","1599200","0.0-155.0","battery-v0.2","","""event"",""trial"",""time""
""fullscreenenter"",""1"",""3537""
","
","
","""event"",""trial"",""time""
""fullscreenenter"",""1"",""3537""
","
","","","1474.4000000059605","","","14","18054","6703","m","elianto","#f73b6a7A"," "," ","1","0","[2325]","1","3","","","18054","150","0","3","lose","go","0"
