"trial_type","trial_index","time_elapsed","internal_node_id","task_version","subject_id","interactions","blur_events","focus_events","fullscreenenter_events","fullscreenexit_events","success","view_history","rt","responses","num_errors","age","subject","participantId","rune","rune_set","hex","correct","choice","accuracy","outcome","keys","total_keys","block","practice","value","sub","trial","stimulus","robot","valence","action","sham"
"pavlovia","0","15","0.0-0.0","battery-v0.2","","""event"",""trial"",""time""
""fullscreenenter"",""1"",""2081""
","
","
","""event"",""trial"",""time""
""fullscreenenter"",""1"",""2081""
","
","","","","","","","","","","","","","","","","","","","","","","","","","","",""
"fullscreen","1","3050","0.0-1.0","battery-v0.2","","""event"",""trial"",""time""
""fullscreenenter"",""1"",""2081""
","
","
","""event"",""trial"",""time""
""fullscreenenter"",""1"",""2081""
","
","true","","","","","","","","","","","","","","","","","","","","","","","","","",""
"pit-instructions","2","10755","0.0-2.0-0.0","battery-v0.2","","""event"",""trial"",""time""
""fullscreenenter"",""1"",""2081""
","
","
","""event"",""trial"",""time""
""fullscreenenter"",""1"",""2081""
","
","","[{""page_index"":0,""viewing_time"":7699.699999928474}]","7699.899999976158","","","","","","","","","","","","","","","","","","","","","","","",""
"pit-comprehension","3","13716","0.0-2.0-1.0-0.0","battery-v0.2","","""event"",""trial"",""time""
""fullscreenenter"",""1"",""2081""
","
","
","""event"",""trial"",""time""
""fullscreenenter"",""1"",""2081""
","
","","","2951.399999976158","[""shark""]","0","23","16220","6305","","","","","","","","","","","","","","","","","","",""
"pit-instructions","4","18139","0.0-2.0-1.0-1.0","battery-v0.2","","""event"",""trial"",""time""
""fullscreenenter"",""1"",""2081""
","
","
","""event"",""trial"",""time""
""fullscreenenter"",""1"",""2081""
","
","","[{""page_index"":0,""viewing_time"":4407.899999976158}]","4408.300000071526","","","","","","","","","","","","","","","","","","","","","","","",""
"pit-comprehension","5","20900","0.0-2.0-2.0-0.0","battery-v0.2","","""event"",""trial"",""time""
""fullscreenenter"",""1"",""2081""
","
","
","""event"",""trial"",""time""
""fullscreenenter"",""1"",""2081""
","
","","","2759.6999999284744","[""tiger""]","0","23","16220","6305","","","","","","","","","","","","","","","","","","",""
"pit-instructions","6","22223","0.0-2.0-2.0-1.0","battery-v0.2","","""event"",""trial"",""time""
""fullscreenenter"",""1"",""2081""
","
","
","""event"",""trial"",""time""
""fullscreenenter"",""1"",""2081""
","
","","[{""page_index"":0,""viewing_time"":1320}]","1320.2000000476837","","","","","","","","","","","","","","","","","","","","","","","",""
"pit-instructions","7","110433","0.0-2.0-3.0","battery-v0.2","","""event"",""trial"",""time""
""fullscreenenter"",""1"",""2081""
","
","
","""event"",""trial"",""time""
""fullscreenenter"",""1"",""2081""
","
","","[{""page_index"":0,""viewing_time"":7617.200000047684},{""page_index"":1,""viewing_time"":5324.699999928474},{""page_index"":2,""viewing_time"":7510.899999976158},{""page_index"":3,""viewing_time"":5337.100000023842},{""page_index"":4,""viewing_time"":5340.399999976158},{""page_index"":5,""viewing_time"":5826.600000023842},{""page_index"":6,""viewing_time"":5965.399999976158},{""page_index"":7,""viewing_time"":6535.700000047684},{""page_index"":8,""viewing_time"":6934.100000023842},{""page_index"":9,""viewing_time"":5757.899999976158},{""page_index"":10,""viewing_time"":8037.700000047684},{""page_index"":11,""viewing_time"":6769.699999928474},{""page_index"":12,""viewing_time"":6540.300000071526},{""page_index"":13,""viewing_time"":4708.5}]","88206.5","","","","","","","","","","","","","","","","","","","","","","","",""
"pit-trial","8","113817","0.0-2.0-4.0-0.0","battery-v0.2","","""event"",""trial"",""time""
""fullscreenenter"",""1"",""2081""
","
","
","""event"",""trial"",""time""
""fullscreenenter"",""1"",""2081""
","
","","","525.6999999284744","","","23","16220","6305","&#9784;","elianto","#FFFFF080"," "," ","1","&#10004","[1376.8999999761581]","1","0","0","","","","","","","",""
"pit-trial","9","117302","0.0-2.0-4.1-0.1","battery-v0.2","","""event"",""trial"",""time""
""fullscreenenter"",""1"",""2081""
","
","
","""event"",""trial"",""time""
""fullscreenenter"",""1"",""2081""
","
","","","625.5","","","23","16220","6305","&#9784;","elianto","#FFFFF080"," "," ","1","&#10004","[1476.8000000715256]","1","0","0","","","","","","","",""
"pit-trial","10","120615","0.0-2.0-4.2-0.2","battery-v0.2","","""event"",""trial"",""time""
""fullscreenenter"",""1"",""2081""
","
","
","""event"",""trial"",""time""
""fullscreenenter"",""1"",""2081""
","
","","","456","","","23","16220","6305","&#9784;","elianto","#FFFFF080"," "," ","1","&#10004","[1307.3999999761581]","1","0","0","","","","","","","",""
"pit-trial","11","123885","0.0-2.0-4.3-0.3","battery-v0.2","","""event"",""trial"",""time""
""fullscreenenter"",""1"",""2081""
","
","
","""event"",""trial"",""time""
""fullscreenenter"",""1"",""2081""
","
","","","412","","","23","16220","6305","&#9784;","elianto","#FFFFF080"," "," ","1","&#10004","[1262.6000000238419]","1","0","0","","","","","","","",""
"pit-trial","12","127168","0.0-2.0-4.4-0.4","battery-v0.2","","""event"",""trial"",""time""
""fullscreenenter"",""1"",""2081""
","
","
","""event"",""trial"",""time""
""fullscreenenter"",""1"",""2081""
","
","","","429.5","","","23","16220","6305","&#9784;","elianto","#FFFFF080"," "," ","1","&#10004","[1280.7000000476837]","1","0","0","","","","","","","",""
"pit-instructions","13","147621","0.0-2.0-5.0","battery-v0.2","","""event"",""trial"",""time""
""fullscreenenter"",""1"",""2081""
","
","
","""event"",""trial"",""time""
""fullscreenenter"",""1"",""2081""
","
","","[{""page_index"":0,""viewing_time"":4868},{""page_index"":1,""viewing_time"":5407.700000047684},{""page_index"":2,""viewing_time"":4815.099999904633},{""page_index"":3,""viewing_time"":5359.700000047684}]","20450.600000023842","","","","","","","","","","","","","","","","","","","","","","","",""
"pit-trial","14","152484","0.0-2.0-6.0-0.0","battery-v0.2","","""event"",""trial"",""time""
""fullscreenenter"",""1"",""2081""
","
","
","""event"",""trial"",""time""
""fullscreenenter"",""1"",""2081""
","
","","","-1","","","23","16220","6305","&#9854;","elianto","#FFFFF080","-1","-1","1","&#10004","[]","0","0","1","","","","","","","",""
"pit-trial","15","157347","0.0-2.0-6.1-0.1","battery-v0.2","","""event"",""trial"",""time""
""fullscreenenter"",""1"",""2081""
","
","
","""event"",""trial"",""time""
""fullscreenenter"",""1"",""2081""
","
","","","-1","","","23","16220","6305","&#9854;","elianto","#FFFFF080","-1","-1","1","&#10004","[]","0","0","1","","","","","","","",""
"pit-trial","16","162206","0.0-2.0-6.2-0.2","battery-v0.2","","""event"",""trial"",""time""
""fullscreenenter"",""1"",""2081""
","
","
","""event"",""trial"",""time""
""fullscreenenter"",""1"",""2081""
","
","","","-1","","","23","16220","6305","&#9854;","elianto","#FFFFF080","-1","-1","1","&#10004","[]","0","0","1","","","","","","","",""
"pit-trial","17","167064","0.0-2.0-6.3-0.3","battery-v0.2","","""event"",""trial"",""time""
""fullscreenenter"",""1"",""2081""
","
","
","""event"",""trial"",""time""
""fullscreenenter"",""1"",""2081""
","
","","","-1","","","23","16220","6305","&#9854;","elianto","#FFFFF080","-1","-1","1","&#10004","[]","0","0","1","","","","","","","",""
"pit-trial","18","171924","0.0-2.0-6.4-0.4","battery-v0.2","","""event"",""trial"",""time""
""fullscreenenter"",""1"",""2081""
","
","
","""event"",""trial"",""time""
""fullscreenenter"",""1"",""2081""
","
","","","-1","","","23","16220","6305","&#9854;","elianto","#FFFFF080","-1","-1","1","&#10004","[]","0","0","1","","","","","","","",""
"pit-instructions","19","283969","0.0-2.0-7.0","battery-v0.2","","""event"",""trial"",""time""
""fullscreenenter"",""1"",""2081""
","
","
","""event"",""trial"",""time""
""fullscreenenter"",""1"",""2081""
","
","","[{""page_index"":0,""viewing_time"":6005.299999952316},{""page_index"":1,""viewing_time"":6364.700000047684},{""page_index"":2,""viewing_time"":5721.399999976158},{""page_index"":3,""viewing_time"":6462},{""page_index"":4,""viewing_time"":5229.200000047684},{""page_index"":5,""viewing_time"":5704.600000023842},{""page_index"":6,""viewing_time"":5098.899999976158},{""page_index"":7,""viewing_time"":8240.399999976158},{""page_index"":8,""viewing_time"":6363.899999976158},{""page_index"":9,""viewing_time"":5811.700000047684},{""page_index"":10,""viewing_time"":6200.399999976158},{""page_index"":11,""viewing_time"":4475.5},{""page_index"":12,""viewing_time"":6961.299999952316},{""page_index"":13,""viewing_time"":7020.400000095367},{""page_index"":14,""viewing_time"":6355},{""page_index"":15,""viewing_time"":6439.399999976158},{""page_index"":16,""viewing_time"":6875.100000023842},{""page_index"":17,""viewing_time"":6710.799999952316}]","112040.20000004768","","","","","","","","","","","","","","","","","","","","","","","",""
"pit-trial","20","287569","0.0-2.0-8.0-0.0","battery-v0.2","","""event"",""trial"",""time""
""fullscreenenter"",""1"",""2081""
","
","
","""event"",""trial"",""time""
""fullscreenenter"",""1"",""2081""
","
","","","740.3999999761581","","","23","16220","6305","&#9776;","elianto","#3366ff99"," "," ","1","+10","[1593.7999999523163]","1","0","1","","","","","","","",""
"pit-trial","21","290892","0.0-2.0-8.0-1.0","battery-v0.2","","""event"",""trial"",""time""
""fullscreenenter"",""1"",""2081""
","
","
","""event"",""trial"",""time""
""fullscreenenter"",""1"",""2081""
","
","","","465.5","","","23","16220","6305","&#9776;","elianto","#3366ff99"," "," ","1","+10","[1318.8999999761581]","1","0","1","","","","","","","",""
"pit-trial","22","294197","0.0-2.0-8.0-2.0","battery-v0.2","","""event"",""trial"",""time""
""fullscreenenter"",""1"",""2081""
","
","
","""event"",""trial"",""time""
""fullscreenenter"",""1"",""2081""
","
","","","446.6999999284744","","","23","16220","6305","&#9776;","elianto","#3366ff99"," "," ","1","+10","[1297.7999999523163]","1","0","1","","","","","","","",""
"pit-trial","23","297761","0.0-2.0-8.0-3.0","battery-v0.2","","""event"",""trial"",""time""
""fullscreenenter"",""1"",""2081""
","
","
","""event"",""trial"",""time""
""fullscreenenter"",""1"",""2081""
","
","","","708.0999999046326","","","23","16220","6305","&#9776;","elianto","#3366ff99"," "," ","1","0","[1560.8999999761581]","1","0","1","","","","","","","",""
"pit-trial","24","301019","0.0-2.0-8.0-4.0","battery-v0.2","","""event"",""trial"",""time""
""fullscreenenter"",""1"",""2081""
","
","
","""event"",""trial"",""time""
""fullscreenenter"",""1"",""2081""
","
","","","402.39999997615814","","","23","16220","6305","&#9776;","elianto","#3366ff99"," "," ","1","+10","[1253.1000000238419]","1","0","1","","","","","","","",""
"pit-trial","25","304316","0.0-2.0-8.1-0.1","battery-v0.2","","""event"",""trial"",""time""
""fullscreenenter"",""1"",""2081""
","
","
","""event"",""trial"",""time""
""fullscreenenter"",""1"",""2081""
","
","","","440.2999999523163","","","23","16220","6305","&#9776;","elianto","#3366ff99"," "," ","1","+10","[1291.1000000238419]","1","0","1","","","","","","","",""
"pit-trial","26","307628","0.0-2.0-8.1-1.1","battery-v0.2","","""event"",""trial"",""time""
""fullscreenenter"",""1"",""2081""
","
","
","""event"",""trial"",""time""
""fullscreenenter"",""1"",""2081""
","
","","","458.10000002384186","","","23","16220","6305","&#9776;","elianto","#3366ff99"," "," ","1","+10","[1310]","1","0","1","","","","","","","",""
"pit-trial","27","310903","0.0-2.0-8.1-2.1","battery-v0.2","","""event"",""trial"",""time""
""fullscreenenter"",""1"",""2081""
","
","
","""event"",""trial"",""time""
""fullscreenenter"",""1"",""2081""
","
","","","421.2000000476837","","","23","16220","6305","&#9776;","elianto","#3366ff99"," "," ","1","+10","[1271.8000000715256]","1","0","1","","","","","","","",""
"pit-trial","28","314193","0.0-2.0-8.1-3.1","battery-v0.2","","""event"",""trial"",""time""
""fullscreenenter"",""1"",""2081""
","
","
","""event"",""trial"",""time""
""fullscreenenter"",""1"",""2081""
","
","","","432.09999990463257","","","23","16220","6305","&#9776;","elianto","#3366ff99"," "," ","1","0","[1283.8999999761581]","1","0","1","","","","","","","",""
"pit-trial","29","317415","0.0-2.0-8.1-4.1","battery-v0.2","","""event"",""trial"",""time""
""fullscreenenter"",""1"",""2081""
","
","
","""event"",""trial"",""time""
""fullscreenenter"",""1"",""2081""
","
","","","366.09999990463257","","","23","16220","6305","&#9776;","elianto","#3366ff99"," "," ","1","+10","[1216.5999999046326]","1","0","1","","","","","","","",""
"pit-trial","30","320663","0.0-2.0-8.2-0.2","battery-v0.2","","""event"",""trial"",""time""
""fullscreenenter"",""1"",""2081""
","
","
","""event"",""trial"",""time""
""fullscreenenter"",""1"",""2081""
","
","","","389.5","","","23","16220","6305","&#9776;","elianto","#3366ff99"," "," ","1","+10","[1241.1000000238419]","1","0","1","","","","","","","",""
"pit-trial","31","323758","0.0-2.0-8.2-1.2","battery-v0.2","","""event"",""trial"",""time""
""fullscreenenter"",""1"",""2081""
","
","
","""event"",""trial"",""time""
""fullscreenenter"",""1"",""2081""
","
","","","235.59999990463257","","","23","16220","6305","&#9776;","elianto","#3366ff99"," "," ","1","+10","[1088.8999999761581]","1","0","1","","","","","","","",""
"pit-trial","32","326893","0.0-2.0-8.2-2.2","battery-v0.2","","""event"",""trial"",""time""
""fullscreenenter"",""1"",""2081""
","
","
","""event"",""trial"",""time""
""fullscreenenter"",""1"",""2081""
","
","","","280.10000002384186","","","23","16220","6305","&#9776;","elianto","#3366ff99"," "," ","1","+10","[1131.6999999284744]","1","0","1","","","","","","","",""
"pit-trial","33","329971","0.0-2.0-8.2-3.2","battery-v0.2","","""event"",""trial"",""time""
""fullscreenenter"",""1"",""2081""
","
","
","""event"",""trial"",""time""
""fullscreenenter"",""1"",""2081""
","
","","","222.30000007152557","","","23","16220","6305","&#9776;","elianto","#3366ff99"," "," ","1","0","[1073]","1","0","1","","","","","","","",""
"pit-trial","34","332974","0.0-2.0-8.2-4.2","battery-v0.2","","""event"",""trial"",""time""
""fullscreenenter"",""1"",""2081""
","
","
","""event"",""trial"",""time""
""fullscreenenter"",""1"",""2081""
","
","","","146.39999997615814","","","23","16220","6305","&#9776;","elianto","#3366ff99"," "," ","1","+10","[997.5]","1","0","1","","","","","","","",""
"call-function","35","332978","0.0-2.0-9.0","battery-v0.2","","""event"",""trial"",""time""
""fullscreenenter"",""1"",""2081""
","
","
","""event"",""trial"",""time""
""fullscreenenter"",""1"",""2081""
","
","","","","","","","","","","","","","","","","","","","","","","","","","","",""
"pit-instructions","36","371885","0.0-2.0-10.0","battery-v0.2","","""event"",""trial"",""time""
""fullscreenenter"",""1"",""2081""
","
","
","""event"",""trial"",""time""
""fullscreenenter"",""1"",""2081""
","
","","[{""page_index"":0,""viewing_time"":6309.700000047684},{""page_index"":1,""viewing_time"":7328.699999928474},{""page_index"":2,""viewing_time"":9475.200000047684},{""page_index"":3,""viewing_time"":8238.399999976158},{""page_index"":4,""viewing_time"":7554.100000023842}]","38906.300000071526","","","","","","","","","","","","","","","","","","","","","","","",""
"pit-trial","37","376743","0.0-2.0-11.0-0.0","battery-v0.2","","""event"",""trial"",""time""
""fullscreenenter"",""1"",""2081""
","
","
","""event"",""trial"",""time""
""fullscreenenter"",""1"",""2081""
","
","","","-1","","","23","16220","6305","&#9761;","elianto","#3366ff99","-1","-1","1","+10","[]","0","0","2","","","","","","","",""
"pit-trial","38","381596","0.0-2.0-11.0-1.0","battery-v0.2","","""event"",""trial"",""time""
""fullscreenenter"",""1"",""2081""
","
","
","""event"",""trial"",""time""
""fullscreenenter"",""1"",""2081""
","
","","","-1","","","23","16220","6305","&#9761;","elianto","#3366ff99","-1","-1","1","+10","[]","0","0","2","","","","","","","",""
"pit-trial","39","386455","0.0-2.0-11.0-2.0","battery-v0.2","","""event"",""trial"",""time""
""fullscreenenter"",""1"",""2081""
","
","
","""event"",""trial"",""time""
""fullscreenenter"",""1"",""2081""
","
","","","-1","","","23","16220","6305","&#9761;","elianto","#3366ff99","-1","-1","1","+10","[]","0","0","2","","","","","","","",""
"pit-trial","40","391314","0.0-2.0-11.0-3.0","battery-v0.2","","""event"",""trial"",""time""
""fullscreenenter"",""1"",""2081""
","
","
","""event"",""trial"",""time""
""fullscreenenter"",""1"",""2081""
","
","","","-1","","","23","16220","6305","&#9761;","elianto","#3366ff99","-1","-1","1","0","[]","0","0","2","","","","","","","",""
"pit-trial","41","396173","0.0-2.0-11.0-4.0","battery-v0.2","","""event"",""trial"",""time""
""fullscreenenter"",""1"",""2081""
","
","
","""event"",""trial"",""time""
""fullscreenenter"",""1"",""2081""
","
","","","-1","","","23","16220","6305","&#9761;","elianto","#3366ff99","-1","-1","1","+10","[]","0","0","2","","","","","","","",""
"pit-trial","42","401031","0.0-2.0-11.1-0.1","battery-v0.2","","""event"",""trial"",""time""
""fullscreenenter"",""1"",""2081""
","
","
","""event"",""trial"",""time""
""fullscreenenter"",""1"",""2081""
","
","","","-1","","","23","16220","6305","&#9761;","elianto","#3366ff99","-1","-1","1","+10","[]","0","0","2","","","","","","","",""
"pit-trial","43","405892","0.0-2.0-11.1-1.1","battery-v0.2","","""event"",""trial"",""time""
""fullscreenenter"",""1"",""2081""
","
","
","""event"",""trial"",""time""
""fullscreenenter"",""1"",""2081""
","
","","","-1","","","23","16220","6305","&#9761;","elianto","#3366ff99","-1","-1","1","+10","[]","0","0","2","","","","","","","",""
"pit-trial","44","410749","0.0-2.0-11.1-2.1","battery-v0.2","","""event"",""trial"",""time""
""fullscreenenter"",""1"",""2081""
","
","
","""event"",""trial"",""time""
""fullscreenenter"",""1"",""2081""
","
","","","-1","","","23","16220","6305","&#9761;","elianto","#3366ff99","-1","-1","1","+10","[]","0","0","2","","","","","","","",""
"pit-trial","45","415609","0.0-2.0-11.1-3.1","battery-v0.2","","""event"",""trial"",""time""
""fullscreenenter"",""1"",""2081""
","
","
","""event"",""trial"",""time""
""fullscreenenter"",""1"",""2081""
","
","","","-1","","","23","16220","6305","&#9761;","elianto","#3366ff99","-1","-1","1","0","[]","0","0","2","","","","","","","",""
"pit-trial","46","420463","0.0-2.0-11.1-4.1","battery-v0.2","","""event"",""trial"",""time""
""fullscreenenter"",""1"",""2081""
","
","
","""event"",""trial"",""time""
""fullscreenenter"",""1"",""2081""
","
","","","-1","","","23","16220","6305","&#9761;","elianto","#3366ff99","-1","-1","1","+10","[]","0","0","2","","","","","","","",""
"pit-trial","47","425321","0.0-2.0-11.2-0.2","battery-v0.2","","""event"",""trial"",""time""
""fullscreenenter"",""1"",""2081""
","
","
","""event"",""trial"",""time""
""fullscreenenter"",""1"",""2081""
","
","","","-1","","","23","16220","6305","&#9761;","elianto","#3366ff99","-1","-1","1","+10","[]","0","0","2","","","","","","","",""
"pit-trial","48","430180","0.0-2.0-11.2-1.2","battery-v0.2","","""event"",""trial"",""time""
""fullscreenenter"",""1"",""2081""
","
","
","""event"",""trial"",""time""
""fullscreenenter"",""1"",""2081""
","
","","","-1","","","23","16220","6305","&#9761;","elianto","#3366ff99","-1","-1","1","+10","[]","0","0","2","","","","","","","",""
"pit-trial","49","435034","0.0-2.0-11.2-2.2","battery-v0.2","","""event"",""trial"",""time""
""fullscreenenter"",""1"",""2081""
","
","
","""event"",""trial"",""time""
""fullscreenenter"",""1"",""2081""
","
","","","-1","","","23","16220","6305","&#9761;","elianto","#3366ff99","-1","-1","1","+10","[]","0","0","2","","","","","","","",""
"pit-trial","50","439892","0.0-2.0-11.2-3.2","battery-v0.2","","""event"",""trial"",""time""
""fullscreenenter"",""1"",""2081""
","
","
","""event"",""trial"",""time""
""fullscreenenter"",""1"",""2081""
","
","","","-1","","","23","16220","6305","&#9761;","elianto","#3366ff99","-1","-1","1","0","[]","0","0","2","","","","","","","",""
"pit-trial","51","444751","0.0-2.0-11.2-4.2","battery-v0.2","","""event"",""trial"",""time""
""fullscreenenter"",""1"",""2081""
","
","
","""event"",""trial"",""time""
""fullscreenenter"",""1"",""2081""
","
","","","-1","","","23","16220","6305","&#9761;","elianto","#3366ff99","-1","-1","1","+10","[]","0","0","2","","","","","","","",""
"pit-trial","52","449610","0.0-2.0-11.3-0.3","battery-v0.2","","""event"",""trial"",""time""
""fullscreenenter"",""1"",""2081""
","
","
","""event"",""trial"",""time""
""fullscreenenter"",""1"",""2081""
","
","","","-1","","","23","16220","6305","&#9761;","elianto","#3366ff99","-1","-1","1","+10","[]","0","0","2","","","","","","","",""
"pit-trial","53","454469","0.0-2.0-11.3-1.3","battery-v0.2","","""event"",""trial"",""time""
""fullscreenenter"",""1"",""2081""
","
","
","""event"",""trial"",""time""
""fullscreenenter"",""1"",""2081""
","
","","","-1","","","23","16220","6305","&#9761;","elianto","#3366ff99","-1","-1","1","+10","[]","0","0","2","","","","","","","",""
"pit-trial","54","459327","0.0-2.0-11.3-2.3","battery-v0.2","","""event"",""trial"",""time""
""fullscreenenter"",""1"",""2081""
","
","
","""event"",""trial"",""time""
""fullscreenenter"",""1"",""2081""
","
","","","-1","","","23","16220","6305","&#9761;","elianto","#3366ff99","-1","-1","1","+10","[]","0","0","2","","","","","","","",""
"pit-trial","55","464186","0.0-2.0-11.3-3.3","battery-v0.2","","""event"",""trial"",""time""
""fullscreenenter"",""1"",""2081""
","
","
","""event"",""trial"",""time""
""fullscreenenter"",""1"",""2081""
","
","","","-1","","","23","16220","6305","&#9761;","elianto","#3366ff99","-1","-1","1","0","[]","0","0","2","","","","","","","",""
"pit-trial","56","469041","0.0-2.0-11.3-4.3","battery-v0.2","","""event"",""trial"",""time""
""fullscreenenter"",""1"",""2081""
","
","
","""event"",""trial"",""time""
""fullscreenenter"",""1"",""2081""
","
","","","-1","","","23","16220","6305","&#9761;","elianto","#3366ff99","-1","-1","1","+10","[]","0","0","2","","","","","","","",""
"call-function","57","469043","0.0-2.0-12.0","battery-v0.2","","""event"",""trial"",""time""
""fullscreenenter"",""1"",""2081""
","
","
","""event"",""trial"",""time""
""fullscreenenter"",""1"",""2081""
","
","","","","","","","","","","","","","","","","","","","","","","","","","","",""
"pit-instructions","58","498702","0.0-2.0-13.0","battery-v0.2","","""event"",""trial"",""time""
""fullscreenenter"",""1"",""2081""
","
","
","""event"",""trial"",""time""
""fullscreenenter"",""1"",""2081""
","
","","[{""page_index"":0,""viewing_time"":4782.600000023842},{""page_index"":1,""viewing_time"":6553},{""page_index"":2,""viewing_time"":3405.7999999523163},{""page_index"":3,""viewing_time"":10045.900000095367},{""page_index"":4,""viewing_time"":4870.5}]","29658","","","","","","","","","","","","","","","","","","","","","","","",""
"pit-trial","59","502034","0.0-2.0-14.0-0.0","battery-v0.2","","""event"",""trial"",""time""
""fullscreenenter"",""1"",""2081""
","
","
","""event"",""trial"",""time""
""fullscreenenter"",""1"",""2081""
","
","","","477.3000000715256","","","23","16220","6305","&#9826;","elianto","#f73b6a7A","-1"," ","0","-10","[1329.5]","1","0","3","","","","","","","",""
"pit-trial","60","506893","0.0-2.0-14.0-1.0","battery-v0.2","","""event"",""trial"",""time""
""fullscreenenter"",""1"",""2081""
","
","
","""event"",""trial"",""time""
""fullscreenenter"",""1"",""2081""
","
","","","-1","","","23","16220","6305","&#9826;","elianto","#f73b6a7A","-1","-1","1","0","[]","0","0","3","","","","","","","",""
"pit-trial","61","511749","0.0-2.0-14.0-2.0","battery-v0.2","","""event"",""trial"",""time""
""fullscreenenter"",""1"",""2081""
","
","
","""event"",""trial"",""time""
""fullscreenenter"",""1"",""2081""
","
","","","-1","","","23","16220","6305","&#9826;","elianto","#f73b6a7A","-1","-1","1","0","[]","0","0","3","","","","","","","",""
"pit-trial","62","516610","0.0-2.0-14.0-3.0","battery-v0.2","","""event"",""trial"",""time""
""fullscreenenter"",""1"",""2081""
","
","
","""event"",""trial"",""time""
""fullscreenenter"",""1"",""2081""
","
","","","-1","","","23","16220","6305","&#9826;","elianto","#f73b6a7A","-1","-1","1","-10","[]","0","0","3","","","","","","","",""
"pit-trial","63","521468","0.0-2.0-14.0-4.0","battery-v0.2","","""event"",""trial"",""time""
""fullscreenenter"",""1"",""2081""
","
","
","""event"",""trial"",""time""
""fullscreenenter"",""1"",""2081""
","
","","","-1","","","23","16220","6305","&#9826;","elianto","#f73b6a7A","-1","-1","1","0","[]","0","0","3","","","","","","","",""
"pit-trial","64","526330","0.0-2.0-14.1-0.1","battery-v0.2","","""event"",""trial"",""time""
""fullscreenenter"",""1"",""2081""
","
","
","""event"",""trial"",""time""
""fullscreenenter"",""1"",""2081""
","
","","","-1","","","23","16220","6305","&#9826;","elianto","#f73b6a7A","-1","-1","1","0","[]","0","0","3","","","","","","","",""
"pit-trial","65","531188","0.0-2.0-14.1-1.1","battery-v0.2","","""event"",""trial"",""time""
""fullscreenenter"",""1"",""2081""
","
","
","""event"",""trial"",""time""
""fullscreenenter"",""1"",""2081""
","
","","","-1","","","23","16220","6305","&#9826;","elianto","#f73b6a7A","-1","-1","1","0","[]","0","0","3","","","","","","","",""
"pit-trial","66","536047","0.0-2.0-14.1-2.1","battery-v0.2","","""event"",""trial"",""time""
""fullscreenenter"",""1"",""2081""
","
","
","""event"",""trial"",""time""
""fullscreenenter"",""1"",""2081""
","
","","","-1","","","23","16220","6305","&#9826;","elianto","#f73b6a7A","-1","-1","1","0","[]","0","0","3","","","","","","","",""
"pit-trial","67","540906","0.0-2.0-14.1-3.1","battery-v0.2","","""event"",""trial"",""time""
""fullscreenenter"",""1"",""2081""
","
","
","""event"",""trial"",""time""
""fullscreenenter"",""1"",""2081""
","
","","","-1","","","23","16220","6305","&#9826;","elianto","#f73b6a7A","-1","-1","1","-10","[]","0","0","3","","","","","","","",""
"pit-trial","68","545760","0.0-2.0-14.1-4.1","battery-v0.2","","""event"",""trial"",""time""
""fullscreenenter"",""1"",""2081""
","
","
","""event"",""trial"",""time""
""fullscreenenter"",""1"",""2081""
","
","","","-1","","","23","16220","6305","&#9826;","elianto","#f73b6a7A","-1","-1","1","0","[]","0","0","3","","","","","","","",""
"pit-trial","69","550618","0.0-2.0-14.2-0.2","battery-v0.2","","""event"",""trial"",""time""
""fullscreenenter"",""1"",""2081""
","
","
","""event"",""trial"",""time""
""fullscreenenter"",""1"",""2081""
","
","","","-1","","","23","16220","6305","&#9826;","elianto","#f73b6a7A","-1","-1","1","0","[]","0","0","3","","","","","","","",""
"pit-trial","70","555481","0.0-2.0-14.2-1.2","battery-v0.2","","""event"",""trial"",""time""
""fullscreenenter"",""1"",""2081""
","
","
","""event"",""trial"",""time""
""fullscreenenter"",""1"",""2081""
","
","","","-1","","","23","16220","6305","&#9826;","elianto","#f73b6a7A","-1","-1","1","0","[]","0","0","3","","","","","","","",""
"pit-trial","71","560337","0.0-2.0-14.2-2.2","battery-v0.2","","""event"",""trial"",""time""
""fullscreenenter"",""1"",""2081""
","
","
","""event"",""trial"",""time""
""fullscreenenter"",""1"",""2081""
","
","","","-1","","","23","16220","6305","&#9826;","elianto","#f73b6a7A","-1","-1","1","0","[]","0","0","3","","","","","","","",""
"pit-trial","72","565199","0.0-2.0-14.2-3.2","battery-v0.2","","""event"",""trial"",""time""
""fullscreenenter"",""1"",""2081""
","
","
","""event"",""trial"",""time""
""fullscreenenter"",""1"",""2081""
","
","","","-1","","","23","16220","6305","&#9826;","elianto","#f73b6a7A","-1","-1","1","-10","[]","0","0","3","","","","","","","",""
"pit-trial","73","570059","0.0-2.0-14.2-4.2","battery-v0.2","","""event"",""trial"",""time""
""fullscreenenter"",""1"",""2081""
","
","
","""event"",""trial"",""time""
""fullscreenenter"",""1"",""2081""
","
","","","-1","","","23","16220","6305","&#9826;","elianto","#f73b6a7A","-1","-1","1","0","[]","0","0","3","","","","","","","",""
"pit-trial","74","574918","0.0-2.0-14.3-0.3","battery-v0.2","","""event"",""trial"",""time""
""fullscreenenter"",""1"",""2081""
","
","
","""event"",""trial"",""time""
""fullscreenenter"",""1"",""2081""
","
","","","-1","","","23","16220","6305","&#9826;","elianto","#f73b6a7A","-1","-1","1","0","[]","0","0","3","","","","","","","",""
"pit-trial","75","579775","0.0-2.0-14.3-1.3","battery-v0.2","","""event"",""trial"",""time""
""fullscreenenter"",""1"",""2081""
","
","
","""event"",""trial"",""time""
""fullscreenenter"",""1"",""2081""
","
","","","-1","","","23","16220","6305","&#9826;","elianto","#f73b6a7A","-1","-1","1","0","[]","0","0","3","","","","","","","",""
"pit-trial","76","584634","0.0-2.0-14.3-2.3","battery-v0.2","","""event"",""trial"",""time""
""fullscreenenter"",""1"",""2081""
","
","
","""event"",""trial"",""time""
""fullscreenenter"",""1"",""2081""
","
","","","-1","","","23","16220","6305","&#9826;","elianto","#f73b6a7A","-1","-1","1","0","[]","0","0","3","","","","","","","",""
"pit-trial","77","589493","0.0-2.0-14.3-3.3","battery-v0.2","","""event"",""trial"",""time""
""fullscreenenter"",""1"",""2081""
","
","
","""event"",""trial"",""time""
""fullscreenenter"",""1"",""2081""
","
","","","-1","","","23","16220","6305","&#9826;","elianto","#f73b6a7A","-1","-1","1","-10","[]","0","0","3","","","","","","","",""
"pit-trial","78","594347","0.0-2.0-14.3-4.3","battery-v0.2","","""event"",""trial"",""time""
""fullscreenenter"",""1"",""2081""
","
","
","""event"",""trial"",""time""
""fullscreenenter"",""1"",""2081""
","
","","","-1","","","23","16220","6305","&#9826;","elianto","#f73b6a7A","-1","-1","1","0","[]","0","0","3","","","","","","","",""
"call-function","79","594349","0.0-2.0-15.0","battery-v0.2","","""event"",""trial"",""time""
""fullscreenenter"",""1"",""2081""
","
","
","""event"",""trial"",""time""
""fullscreenenter"",""1"",""2081""
","
","","","","","","","","","","","","","","","","","","","","","","","","","","",""
"pit-instructions","80","623512","0.0-2.0-16.0","battery-v0.2","","""event"",""trial"",""time""
""fullscreenenter"",""1"",""2081""
","
","
","""event"",""trial"",""time""
""fullscreenenter"",""1"",""2081""
","
","","[{""page_index"":0,""viewing_time"":9426.399999976158},{""page_index"":1,""viewing_time"":9707.100000023842},{""page_index"":2,""viewing_time"":5123},{""page_index"":3,""viewing_time"":4905.5}]","29162.200000047684","","","","","","","","","","","","","","","","","","","","","","","",""
"pit-trial","81","626760","0.0-2.0-17.0-0.0","battery-v0.2","","""event"",""trial"",""time""
""fullscreenenter"",""1"",""2081""
","
","
","""event"",""trial"",""time""
""fullscreenenter"",""1"",""2081""
","
","","","392.6999999284744","","","23","16220","6305","&#9789;","elianto","#f73b6a7A"," "," ","1","0","[1244.8999999761581]","1","0","4","","","","","","","",""
"pit-trial","82","630034","0.0-2.0-17.0-1.0","battery-v0.2","","""event"",""trial"",""time""
""fullscreenenter"",""1"",""2081""
","
","
","""event"",""trial"",""time""
""fullscreenenter"",""1"",""2081""
","
","","","416.39999997615814","","","23","16220","6305","&#9789;","elianto","#f73b6a7A"," "," ","1","0","[1269.6999999284744]","1","0","4","","","","","","","",""
"pit-trial","83","633314","0.0-2.0-17.0-2.0","battery-v0.2","","""event"",""trial"",""time""
""fullscreenenter"",""1"",""2081""
","
","
","""event"",""trial"",""time""
""fullscreenenter"",""1"",""2081""
","
","","","420.10000002384186","","","23","16220","6305","&#9789;","elianto","#f73b6a7A"," "," ","1","0","[1273.1999999284744]","1","0","4","","","","","","","",""
"pit-trial","84","636509","0.0-2.0-17.0-3.0","battery-v0.2","","""event"",""trial"",""time""
""fullscreenenter"",""1"",""2081""
","
","
","""event"",""trial"",""time""
""fullscreenenter"",""1"",""2081""
","
","","","340.10000002384186","","","23","16220","6305","&#9789;","elianto","#f73b6a7A"," "," ","1","-10","[1192.2000000476837]","1","0","4","","","","","","","",""
"pit-trial","85","639533","0.0-2.0-17.0-4.0","battery-v0.2","","""event"",""trial"",""time""
""fullscreenenter"",""1"",""2081""
","
","
","""event"",""trial"",""time""
""fullscreenenter"",""1"",""2081""
","
","","","169.69999992847443","","","23","16220","6305","&#9789;","elianto","#f73b6a7A"," "," ","1","0","[1020.1000000238419]","1","0","4","","","","","","","",""
"pit-trial","86","642749","0.0-2.0-17.1-0.1","battery-v0.2","","""event"",""trial"",""time""
""fullscreenenter"",""1"",""2081""
","
","
","""event"",""trial"",""time""
""fullscreenenter"",""1"",""2081""
","
","","","361.6999999284744","","","23","16220","6305","&#9789;","elianto","#f73b6a7A"," "," ","1","0","[1213.0999999046326]","1","0","4","","","","","","","",""
"pit-trial","87","645714","0.0-2.0-17.1-1.1","battery-v0.2","","""event"",""trial"",""time""
""fullscreenenter"",""1"",""2081""
","
","
","""event"",""trial"",""time""
""fullscreenenter"",""1"",""2081""
","
","","","110","","","23","16220","6305","&#9789;","elianto","#f73b6a7A"," "," ","1","0","[961]","1","0","4","","","","","","","",""
"pit-trial","88","648712","0.0-2.0-17.1-2.1","battery-v0.2","","""event"",""trial"",""time""
""fullscreenenter"",""1"",""2081""
","
","
","""event"",""trial"",""time""
""fullscreenenter"",""1"",""2081""
","
","","","141.89999997615814","","","23","16220","6305","&#9789;","elianto","#f73b6a7A"," "," ","1","0","[993.8999999761581]","1","0","4","","","","","","","",""
"pit-trial","89","651794","0.0-2.0-17.1-3.1","battery-v0.2","","""event"",""trial"",""time""
""fullscreenenter"",""1"",""2081""
","
","
","""event"",""trial"",""time""
""fullscreenenter"",""1"",""2081""
","
","","","224.30000007152557","","","23","16220","6305","&#9789;","elianto","#f73b6a7A"," "," ","1","-10","[1075.2000000476837]","1","0","4","","","","","","","",""
"pit-trial","90","654842","0.0-2.0-17.1-4.1","battery-v0.2","","""event"",""trial"",""time""
""fullscreenenter"",""1"",""2081""
","
","
","""event"",""trial"",""time""
""fullscreenenter"",""1"",""2081""
","
","","","192.60000002384186","","","23","16220","6305","&#9789;","elianto","#f73b6a7A"," "," ","1","0","[1042.8999999761581]","1","0","4","","","","","","","",""
"pit-trial","91","657810","0.0-2.0-17.2-0.2","battery-v0.2","","""event"",""trial"",""time""
""fullscreenenter"",""1"",""2081""
","
","
","""event"",""trial"",""time""
""fullscreenenter"",""1"",""2081""
","
","","","114.79999995231628","","","23","16220","6305","&#9789;","elianto","#f73b6a7A"," "," ","1","0","[965.1000000238419]","1","0","4","","","","","","","",""
"pit-trial","92","660809","0.0-2.0-17.2-1.2","battery-v0.2","","""event"",""trial"",""time""
""fullscreenenter"",""1"",""2081""
","
","
","""event"",""trial"",""time""
""fullscreenenter"",""1"",""2081""
","
","","","141.10000002384186","","","23","16220","6305","&#9789;","elianto","#f73b6a7A"," "," ","1","0","[992.1999999284744]","1","0","4","","","","","","","",""
"pit-trial","93","664143","0.0-2.0-17.2-2.2","battery-v0.2","","""event"",""trial"",""time""
""fullscreenenter"",""1"",""2081""
","
","
","""event"",""trial"",""time""
""fullscreenenter"",""1"",""2081""
","
","","","476.7999999523163","","","23","16220","6305","&#9789;","elianto","#f73b6a7A"," "," ","1","0","[1328.1000000238419]","1","0","4","","","","","","","",""
"pit-trial","94","667187","0.0-2.0-17.2-3.2","battery-v0.2","","""event"",""trial"",""time""
""fullscreenenter"",""1"",""2081""
","
","
","""event"",""trial"",""time""
""fullscreenenter"",""1"",""2081""
","
","","","191.39999997615814","","","23","16220","6305","&#9789;","elianto","#f73b6a7A"," "," ","1","-10","[1041.8999999761581]","1","0","4","","","","","","","",""
"pit-trial","95","670294","0.0-2.0-17.2-4.2","battery-v0.2","","""event"",""trial"",""time""
""fullscreenenter"",""1"",""2081""
","
","
","""event"",""trial"",""time""
""fullscreenenter"",""1"",""2081""
","
","","","250.20000004768372","","","23","16220","6305","&#9789;","elianto","#f73b6a7A"," "," ","1","0","[1102.1000000238419]","1","0","4","","","","","","","",""
"pit-trial","96","673329","0.0-2.0-17.3-0.3","battery-v0.2","","""event"",""trial"",""time""
""fullscreenenter"",""1"",""2081""
","
","
","""event"",""trial"",""time""
""fullscreenenter"",""1"",""2081""
","
","","","181.29999995231628","","","23","16220","6305","&#9789;","elianto","#f73b6a7A"," "," ","1","0","[1032]","1","0","4","","","","","","","",""
"pit-trial","97","676627","0.0-2.0-17.3-1.3","battery-v0.2","","""event"",""trial"",""time""
""fullscreenenter"",""1"",""2081""
","
","
","""event"",""trial"",""time""
""fullscreenenter"",""1"",""2081""
","
","","","441.5","","","23","16220","6305","&#9789;","elianto","#f73b6a7A"," "," ","1","0","[1291.7999999523163]","1","0","4","","","","","","","",""
"pit-trial","98","680040","0.0-2.0-17.3-2.3","battery-v0.2","","""event"",""trial"",""time""
""fullscreenenter"",""1"",""2081""
","
","
","""event"",""trial"",""time""
""fullscreenenter"",""1"",""2081""
","
","","","557.6999999284744","","","23","16220","6305","&#9789;","elianto","#f73b6a7A"," "," ","1","0","[1409.2999999523163]","1","0","4","","","","","","","",""
"pit-trial","99","683319","0.0-2.0-17.3-3.3","battery-v0.2","","""event"",""trial"",""time""
""fullscreenenter"",""1"",""2081""
","
","
","""event"",""trial"",""time""
""fullscreenenter"",""1"",""2081""
","
","","","427.2999999523163","","","23","16220","6305","&#9789;","elianto","#f73b6a7A"," "," ","1","-10","[1277.7999999523163]","1","0","4","","","","","","","",""
"pit-trial","100","686355","0.0-2.0-17.3-4.3","battery-v0.2","","""event"",""trial"",""time""
""fullscreenenter"",""1"",""2081""
","
","
","""event"",""trial"",""time""
""fullscreenenter"",""1"",""2081""
","
","","","179.89999997615814","","","23","16220","6305","&#9789;","elianto","#f73b6a7A"," "," ","1","0","[1033.2999999523163]","1","0","4","","","","","","","",""
"call-function","101","686356","0.0-2.0-18.0","battery-v0.2","","""event"",""trial"",""time""
""fullscreenenter"",""1"",""2081""
","
","
","""event"",""trial"",""time""
""fullscreenenter"",""1"",""2081""
","
","","","","","","","","","","","","","","","","","","","","","","","","","","",""
"pit-instructions","102","754744","0.0-2.0-19.0","battery-v0.2","","""event"",""trial"",""time""
""fullscreenenter"",""1"",""2081""
","
","
","""event"",""trial"",""time""
""fullscreenenter"",""1"",""2081""
","
","","[{""page_index"":0,""viewing_time"":7189.700000047684},{""page_index"":1,""viewing_time"":5304.600000023842},{""page_index"":2,""viewing_time"":9702.199999928474},{""page_index"":3,""viewing_time"":8396},{""page_index"":4,""viewing_time"":8905.700000047684},{""page_index"":5,""viewing_time"":9107.799999952316},{""page_index"":6,""viewing_time"":9240.300000071526},{""page_index"":7,""viewing_time"":5952.699999928474},{""page_index"":8,""viewing_time"":4587.400000095367}]","68386.60000002384","","","","","","","","","","","","","","","","","","","","","","","",""
"pit-comprehension","103","759650","0.0-2.0-20.0-0.0","battery-v0.2","","""event"",""trial"",""time""
""fullscreenenter"",""1"",""2081""
","
","
","""event"",""trial"",""time""
""fullscreenenter"",""1"",""2081""
","
","","","4901.100000023842","[""SPACE""]","0","23","16220","6305","","","","","","","","","","","","","","","","","","",""
"pit-instructions","104","762329","0.0-2.0-20.0-1.0","battery-v0.2","","""event"",""trial"",""time""
""fullscreenenter"",""1"",""2081""
","
","
","""event"",""trial"",""time""
""fullscreenenter"",""1"",""2081""
","
","","[{""page_index"":0,""viewing_time"":2652.6999999284744}]","2653","","","","","","","","","","","","","","","","","","","","","","","",""
"pit-comprehension","105","767126","0.0-2.0-21.0-0.0","battery-v0.2","","""event"",""trial"",""time""
""fullscreenenter"",""1"",""2081""
","
","
","""event"",""trial"",""time""
""fullscreenenter"",""1"",""2081""
","
","","","4794.200000047684","[""10""]","0","23","16220","6305","","","","","","","","","","","","","","","","","","",""
"pit-instructions","106","769343","0.0-2.0-21.0-1.0","battery-v0.2","","""event"",""trial"",""time""
""fullscreenenter"",""1"",""2081""
","
","
","""event"",""trial"",""time""
""fullscreenenter"",""1"",""2081""
","
","","[{""page_index"":0,""viewing_time"":2185.7999999523163}]","2186","","","","","","","","","","","","","","","","","","","","","","","",""
"pit-comprehension","107","775506","0.0-2.0-22.0-0.0","battery-v0.2","","""event"",""trial"",""time""
""fullscreenenter"",""1"",""2081""
","
","
","""event"",""trial"",""time""
""fullscreenenter"",""1"",""2081""
","
","","","6159.899999976158","[""0""]","0","23","16220","6305","","","","","","","","","","","","","","","","","","",""
"pit-instructions","108","777172","0.0-2.0-22.0-1.0","battery-v0.2","","""event"",""trial"",""time""
""fullscreenenter"",""1"",""2081""
","
","
","""event"",""trial"",""time""
""fullscreenenter"",""1"",""2081""
","
","","[{""page_index"":0,""viewing_time"":1638.8000000715256}]","1639","","","","","","","","","","","","","","","","","","","","","","","",""
"pit-comprehension","109","785546","0.0-2.0-23.0-0.0","battery-v0.2","","""event"",""trial"",""time""
""fullscreenenter"",""1"",""2081""
","
","
","""event"",""trial"",""time""
""fullscreenenter"",""1"",""2081""
","
","","","8371.600000023842","[""True""]","0","23","16220","6305","","","","","","","","","","","","","","","","","","",""
"pit-instructions","110","789941","0.0-2.0-23.0-1.0","battery-v0.2","","""event"",""trial"",""time""
""fullscreenenter"",""1"",""2081""
","
","
","""event"",""trial"",""time""
""fullscreenenter"",""1"",""2081""
","
","","[{""page_index"":0,""viewing_time"":4362}]","4362.100000023842","","","","","","","","","","","","","","","","","","","","","","","",""
"pit-comprehension","111","797088","0.0-2.0-24.0-0.0","battery-v0.2","","""event"",""trial"",""time""
""fullscreenenter"",""1"",""2081""
","
","
","""event"",""trial"",""time""
""fullscreenenter"",""1"",""2081""
","
","","","7144.300000071526","[""True""]","0","23","16220","6305","","","","","","","","","","","","","","","","","","",""
"pit-instructions","112","798790","0.0-2.0-24.0-1.0","battery-v0.2","","""event"",""trial"",""time""
""fullscreenenter"",""1"",""2081""
","
","
","""event"",""trial"",""time""
""fullscreenenter"",""1"",""2081""
","
","","[{""page_index"":0,""viewing_time"":1675.7000000476837}]","1675.9000000953674","","","","","","","","","","","","","","","","","","","","","","","",""
"pit-comprehension","113","805631","0.0-2.0-25.0-0.0","battery-v0.2","","""event"",""trial"",""time""
""fullscreenenter"",""1"",""2081""
","
","
","""event"",""trial"",""time""
""fullscreenenter"",""1"",""2081""
","
","","","6839.299999952316","[""True""]","0","23","16220","6305","","","","","","","","","","","","","","","","","","",""
"pit-instructions","114","808604","0.0-2.0-25.0-1.0","battery-v0.2","","""event"",""trial"",""time""
""fullscreenenter"",""1"",""2081""
","
","
","""event"",""trial"",""time""
""fullscreenenter"",""1"",""2081""
","
","","[{""page_index"":0,""viewing_time"":2941}]","2941.1999999284744","","","","","","","","","","","","","","","","","","","","","","","",""
"pit-comprehension","115","814056","0.0-2.0-26.0-0.0","battery-v0.2","","""event"",""trial"",""time""
""fullscreenenter"",""1"",""2081""
","
","
","""event"",""trial"",""time""
""fullscreenenter"",""1"",""2081""
","
","","","5449.399999976158","[""False""]","0","23","16220","6305","","","","","","","","","","","","","","","","","","",""
"pit-instructions","116","817152","0.0-2.0-26.0-1.0","battery-v0.2","","""event"",""trial"",""time""
""fullscreenenter"",""1"",""2081""
","
","
","""event"",""trial"",""time""
""fullscreenenter"",""1"",""2081""
","
","","[{""page_index"":0,""viewing_time"":3069.399999976158}]","3069.7999999523163","","","","","","","","","","","","","","","","","","","","","","","",""
"pit-instructions","117","833843","0.0-3.0","battery-v0.2","","""event"",""trial"",""time""
""fullscreenenter"",""1"",""2081""
","
","
","""event"",""trial"",""time""
""fullscreenenter"",""1"",""2081""
","
","","[{""page_index"":0,""viewing_time"":4447.099999904633},{""page_index"":1,""viewing_time"":5860.5},{""page_index"":2,""viewing_time"":6381.800000071526}]","16689.599999904633","","","","","","","","","","","","","","","","","","","","","","","",""
"pit-trial","118","837276","0.0-4.0","battery-v0.2","","""event"",""trial"",""time""
""fullscreenenter"",""1"",""2081""
","
","
","""event"",""trial"",""time""
""fullscreenenter"",""1"",""2081""
","
","","","571","","","23","16220","6305","&#9728;","elianto","#f73b6a7A","-1"," ","0","-10","[1421.3999999761581]","1","1","","","16220","1","0","4","lose","no-go","0"
"pit-trial","119","840709","0.0-5.0","battery-v0.2","","""event"",""trial"",""time""
""fullscreenenter"",""1"",""2081""
","
","
","""event"",""trial"",""time""
""fullscreenenter"",""1"",""2081""
","
","","","576.7999999523163","","","23","16220","6305","&#9730;","elianto","#3366ff99"," "," ","1","+10","[1427.2999999523163]","1","1","","","16220","2","1","1","win","go","0"
"pit-trial","120","844320","0.0-6.0","battery-v0.2","","""event"",""trial"",""time""
""fullscreenenter"",""1"",""2081""
","
","
","""event"",""trial"",""time""
""fullscreenenter"",""1"",""2081""
","
","","","753.0999999046326","","","23","16220","6305","&#9752;","elianto","#f73b6a7A"," "," ","1","0","[1603.7999999523163]","1","1","","","16220","3","3","3","lose","go","0"
"pit-trial","121","847994","0.0-7.0","battery-v0.2","","""event"",""trial"",""time""
""fullscreenenter"",""1"",""2081""
","
","
","""event"",""trial"",""time""
""fullscreenenter"",""1"",""2081""
","
","","","817.4000000953674","","","23","16220","6305","&#9733;","elianto","#3366ff99","-1"," ","0","0","[1669]","1","1","","","16220","4","2","2","win","no-go","0"
"pit-trial","122","851488","0.0-8.0","battery-v0.2","","""event"",""trial"",""time""
""fullscreenenter"",""1"",""2081""
","
","
","""event"",""trial"",""time""
""fullscreenenter"",""1"",""2081""
","
","","","635.8999999761581","","","23","16220","6305","&#9752;","elianto","#f73b6a7A"," "," ","1","0","[1487.3999999761581]","1","1","","","16220","5","3","3","lose","go","0"
"pit-trial","123","855541","0.0-9.0","battery-v0.2","","""event"",""trial"",""time""
""fullscreenenter"",""1"",""2081""
","
","
","""event"",""trial"",""time""
""fullscreenenter"",""1"",""2081""
","
","","","1194.4000000953674","","","23","16220","6305","&#9728;","elianto","#f73b6a7A","-1"," ","0","-10","[2047.9000000953674]","1","1","","","16220","6","0","4","lose","no-go","0"
"pit-trial","124","859131","0.0-10.0","battery-v0.2","","""event"",""trial"",""time""
""fullscreenenter"",""1"",""2081""
","
","
","""event"",""trial"",""time""
""fullscreenenter"",""1"",""2081""
","
","","","732.1999999284744","","","23","16220","6305","&#9733;","elianto","#3366ff99","-1"," ","0","0","[1583]","1","1","","","16220","7","2","2","win","no-go","0"
"pit-trial","125","862764","0.0-11.0","battery-v0.2","","""event"",""trial"",""time""
""fullscreenenter"",""1"",""2081""
","
","
","""event"",""trial"",""time""
""fullscreenenter"",""1"",""2081""
","
","","","774.2999999523163","","","23","16220","6305","&#9730;","elianto","#3366ff99"," "," ","1","0","[1626.0999999046326]","1","1","","","16220","8","1","1","win","go","1"
"pit-trial","126","867623","0.0-12.0","battery-v0.2","","""event"",""trial"",""time""
""fullscreenenter"",""1"",""2081""
","
","
","""event"",""trial"",""time""
""fullscreenenter"",""1"",""2081""
","
","","","-1","","","23","16220","6305","&#9728;","elianto","#f73b6a7A","-1","-1","1","-10","[]","0","1","","","16220","9","0","4","lose","no-go","1"
"pit-trial","127","871615","0.0-13.0","battery-v0.2","","""event"",""trial"",""time""
""fullscreenenter"",""1"",""2081""
","
","
","""event"",""trial"",""time""
""fullscreenenter"",""1"",""2081""
","
","","","1137","","","23","16220","6305","&#9752;","elianto","#f73b6a7A"," "," ","1","-10","[1989]","1","1","","","16220","10","3","3","lose","go","1"
"pit-trial","128","875554","0.0-14.0","battery-v0.2","","""event"",""trial"",""time""
""fullscreenenter"",""1"",""2081""
","
","
","""event"",""trial"",""time""
""fullscreenenter"",""1"",""2081""
","
","","","1084.2000000476837","","","23","16220","6305","&#9730;","elianto","#3366ff99"," "," ","1","+10","[1934.8000000715256]","1","1","","","16220","11","1","1","win","go","0"
"pit-trial","129","880410","0.0-15.0","battery-v0.2","","""event"",""trial"",""time""
""fullscreenenter"",""1"",""2081""
","
","
","""event"",""trial"",""time""
""fullscreenenter"",""1"",""2081""
","
","","","-1","","","23","16220","6305","&#9733;","elianto","#3366ff99","-1","-1","1","+10","[]","0","1","","","16220","12","2","2","win","no-go","0"
"pit-trial","130","884825","0.0-16.0","battery-v0.2","","""event"",""trial"",""time""
""fullscreenenter"",""1"",""2081""
","
","
","""event"",""trial"",""time""
""fullscreenenter"",""1"",""2081""
","
","","","1560.1999999284744","","","23","16220","6305","&#9730;","elianto","#3366ff99"," "," ","1","+10","[2411]","1","1","","","16220","13","1","1","win","go","0"
"pit-trial","131","889688","0.0-17.0","battery-v0.2","","""event"",""trial"",""time""
""fullscreenenter"",""1"",""2081""
","
","
","""event"",""trial"",""time""
""fullscreenenter"",""1"",""2081""
","
","","","-1","","","23","16220","6305","&#9733;","elianto","#3366ff99","-1","-1","1","+10","[]","0","1","","","16220","14","2","2","win","no-go","0"
"pit-trial","132","894546","0.0-18.0","battery-v0.2","","""event"",""trial"",""time""
""fullscreenenter"",""1"",""2081""
","
","
","""event"",""trial"",""time""
""fullscreenenter"",""1"",""2081""
","
","","","-1","","","23","16220","6305","&#9752;","elianto","#f73b6a7A"," ","-1","0","-10","[]","0","1","","","16220","15","3","3","lose","go","0"
"pit-trial","133","899405","0.0-19.0","battery-v0.2","","""event"",""trial"",""time""
""fullscreenenter"",""1"",""2081""
","
","
","""event"",""trial"",""time""
""fullscreenenter"",""1"",""2081""
","
","","","-1","","","23","16220","6305","&#9728;","elianto","#f73b6a7A","-1","-1","1","0","[]","0","1","","","16220","16","0","4","lose","no-go","0"
"pit-trial","134","904263","0.0-20.0","battery-v0.2","","""event"",""trial"",""time""
""fullscreenenter"",""1"",""2081""
","
","
","""event"",""trial"",""time""
""fullscreenenter"",""1"",""2081""
","
","","","-1","","","23","16220","6305","&#9728;","elianto","#f73b6a7A","-1","-1","1","-10","[]","0","1","","","16220","17","0","4","lose","no-go","1"
"pit-trial","135","907915","0.0-21.0","battery-v0.2","","""event"",""trial"",""time""
""fullscreenenter"",""1"",""2081""
","
","
","""event"",""trial"",""time""
""fullscreenenter"",""1"",""2081""
","
","","","794.7999999523163","","","23","16220","6305","&#9730;","elianto","#3366ff99"," "," ","1","+10","[1645.3999999761581]","1","1","","","16220","18","1","1","win","go","0"
"pit-trial","136","912771","0.0-22.0","battery-v0.2","","""event"",""trial"",""time""
""fullscreenenter"",""1"",""2081""
","
","
","""event"",""trial"",""time""
""fullscreenenter"",""1"",""2081""
","
","","","-1","","","23","16220","6305","&#9752;","elianto","#f73b6a7A"," ","-1","0","0","[]","0","1","","","16220","19","3","3","lose","go","1"
"pit-trial","137","916690","0.0-23.0","battery-v0.2","","""event"",""trial"",""time""
""fullscreenenter"",""1"",""2081""
","
","
","""event"",""trial"",""time""
""fullscreenenter"",""1"",""2081""
","
","","","1065.6999999284744","","","23","16220","6305","&#9733;","elianto","#3366ff99","-1"," ","0","0","[1917.7000000476837]","1","1","","","16220","20","2","2","win","no-go","0"
"pit-instructions","138","929487","0.0-24.0","battery-v0.2","","""event"",""trial"",""time""
""fullscreenenter"",""1"",""2081""
","
","
","""event"",""trial"",""time""
""fullscreenenter"",""1"",""2081""
","
","","[{""page_index"":0,""viewing_time"":6251.600000023842},{""page_index"":1,""viewing_time"":6544.100000023842}]","12795.799999952316","","","","","","","","","","","","","","","","","","","","","","","",""
"pit-trial","139","933183","0.0-25.0","battery-v0.2","","""event"",""trial"",""time""
""fullscreenenter"",""1"",""2081""
","
","
","""event"",""trial"",""time""
""fullscreenenter"",""1"",""2081""
","
","","","840.3999999761581","","","23","16220","6305","a","elianto","#f73b6a7A","-1"," ","0","-10","[1691.6999999284744]","1","2","","","16220","21","2","4","lose","no-go","0"
"pit-trial","140","938042","0.0-26.0","battery-v0.2","","""event"",""trial"",""time""
""fullscreenenter"",""1"",""2081""
","
","
","""event"",""trial"",""time""
""fullscreenenter"",""1"",""2081""
","
","","","-1","","","23","16220","6305","u","elianto","#f73b6a7A","-1","-1","1","0","[]","0","2","","","16220","22","0","4","lose","no-go","0"
"pit-trial","141","942307","0.0-27.0","battery-v0.2","","""event"",""trial"",""time""
""fullscreenenter"",""1"",""2081""
","
","
","""event"",""trial"",""time""
""fullscreenenter"",""1"",""2081""
","
","","","1412.2999999523163","","","23","16220","6305","g","elianto","#f73b6a7A"," "," ","1","0","[2263.100000023842]","1","2","","","16220","23","3","3","lose","go","0"
"pit-trial","142","945995","0.0-28.0","battery-v0.2","","""event"",""trial"",""time""
""fullscreenenter"",""1"",""2081""
","
","
","""event"",""trial"",""time""
""fullscreenenter"",""1"",""2081""
","
","","","833.2999999523163","","","23","16220","6305","l","elianto","#3366ff99"," "," ","1","+10","[1685.1000000238419]","1","2","","","16220","24","1","1","win","go","0"
"pit-trial","143","949909","0.0-29.0","battery-v0.2","","""event"",""trial"",""time""
""fullscreenenter"",""1"",""2081""
","
","
","""event"",""trial"",""time""
""fullscreenenter"",""1"",""2081""
","
","","","1059.1000000238419","","","23","16220","6305","g","elianto","#f73b6a7A"," "," ","1","0","[1909.9000000953674]","1","2","","","16220","25","3","3","lose","go","0"
"pit-trial","144","954763","0.0-30.0","battery-v0.2","","""event"",""trial"",""time""
""fullscreenenter"",""1"",""2081""
","
","
","""event"",""trial"",""time""
""fullscreenenter"",""1"",""2081""
","
","","","-1","","","23","16220","6305","u","elianto","#f73b6a7A","-1","-1","1","0","[]","0","2","","","16220","26","0","4","lose","no-go","0"
"pit-trial","145","958251","0.0-31.0","battery-v0.2","","""event"",""trial"",""time""
""fullscreenenter"",""1"",""2081""
","
","
","""event"",""trial"",""time""
""fullscreenenter"",""1"",""2081""
","
","","","631.5","","","23","16220","6305","l","elianto","#3366ff99"," "," ","1","0","[1483.5]","1","2","","","16220","27","1","1","win","go","1"
"pit-trial","146","963109","0.0-32.0","battery-v0.2","","""event"",""trial"",""time""
""fullscreenenter"",""1"",""2081""
","
","
","""event"",""trial"",""time""
""fullscreenenter"",""1"",""2081""
","
","","","-1","","","23","16220","6305","a","elianto","#f73b6a7A","-1","-1","1","0","[]","0","2","","","16220","28","2","4","lose","no-go","0"
"pit-trial","147","967965","0.0-33.0","battery-v0.2","","""event"",""trial"",""time""
""fullscreenenter"",""1"",""2081""
","
","
","""event"",""trial"",""time""
""fullscreenenter"",""1"",""2081""
","
","","","-1","","","23","16220","6305","g","elianto","#f73b6a7A"," ","-1","0","-10","[]","0","2","","","16220","29","3","3","lose","go","0"
"pit-trial","148","971435","0.0-34.0","battery-v0.2","","""event"",""trial"",""time""
""fullscreenenter"",""1"",""2081""
","
","
","""event"",""trial"",""time""
""fullscreenenter"",""1"",""2081""
","
","","","614.3999999761581","","","23","16220","6305","l","elianto","#3366ff99"," "," ","1","+10","[1466]","1","2","","","16220","30","1","1","win","go","0"
"pit-trial","149","976288","0.0-35.0","battery-v0.2","","""event"",""trial"",""time""
""fullscreenenter"",""1"",""2081""
","
","
","""event"",""trial"",""time""
""fullscreenenter"",""1"",""2081""
","
","","","-1","","","23","16220","6305","a","elianto","#f73b6a7A","-1","-1","1","0","[]","0","2","","","16220","31","2","4","lose","no-go","0"
"pit-trial","150","981142","0.0-36.0","battery-v0.2","","""event"",""trial"",""time""
""fullscreenenter"",""1"",""2081""
","
","
","""event"",""trial"",""time""
""fullscreenenter"",""1"",""2081""
","
","","","-1","","","23","16220","6305","u","elianto","#f73b6a7A","-1","-1","1","0","[]","0","2","","","16220","32","0","4","lose","no-go","0"
"pit-trial","151","984940","0.0-37.0","battery-v0.2","","""event"",""trial"",""time""
""fullscreenenter"",""1"",""2081""
","
","
","""event"",""trial"",""time""
""fullscreenenter"",""1"",""2081""
","
","","","942.7000000476837","","","23","16220","6305","g","elianto","#f73b6a7A"," "," ","1","0","[1793.3000000715256]","1","2","","","16220","33","3","3","lose","go","0"
"pit-trial","152","989794","0.0-38.0","battery-v0.2","","""event"",""trial"",""time""
""fullscreenenter"",""1"",""2081""
","
","
","""event"",""trial"",""time""
""fullscreenenter"",""1"",""2081""
","
","","","-1","","","23","16220","6305","a","elianto","#f73b6a7A","-1","-1","1","0","[]","0","2","","","16220","34","2","4","lose","no-go","0"
"pit-trial","153","994653","0.0-39.0","battery-v0.2","","""event"",""trial"",""time""
""fullscreenenter"",""1"",""2081""
","
","
","""event"",""trial"",""time""
""fullscreenenter"",""1"",""2081""
","
","","","-1","","","23","16220","6305","u","elianto","#f73b6a7A","-1","-1","1","0","[]","0","2","","","16220","35","0","4","lose","no-go","0"
"pit-trial","154","998141","0.0-40.0","battery-v0.2","","""event"",""trial"",""time""
""fullscreenenter"",""1"",""2081""
","
","
","""event"",""trial"",""time""
""fullscreenenter"",""1"",""2081""
","
","","","633.1000000238419","","","23","16220","6305","l","elianto","#3366ff99"," "," ","1","+10","[1485]","1","2","","","16220","36","1","1","win","go","0"
"pit-trial","155","1002997","0.0-41.0","battery-v0.2","","""event"",""trial"",""time""
""fullscreenenter"",""1"",""2081""
","
","
","""event"",""trial"",""time""
""fullscreenenter"",""1"",""2081""
","
","","","-1","","","23","16220","6305","u","elianto","#f73b6a7A","-1","-1","1","-10","[]","0","2","","","16220","37","0","4","lose","no-go","1"
"pit-trial","156","1007853","0.0-42.0","battery-v0.2","","""event"",""trial"",""time""
""fullscreenenter"",""1"",""2081""
","
","
","""event"",""trial"",""time""
""fullscreenenter"",""1"",""2081""
","
","","","-1","","","23","16220","6305","a","elianto","#f73b6a7A","-1","-1","1","0","[]","0","2","","","16220","38","2","4","lose","no-go","0"
"pit-trial","157","1011284","0.0-43.0","battery-v0.2","","""event"",""trial"",""time""
""fullscreenenter"",""1"",""2081""
","
","
","""event"",""trial"",""time""
""fullscreenenter"",""1"",""2081""
","
","","","574","","","23","16220","6305","l","elianto","#3366ff99"," "," ","1","+10","[1426.5]","1","2","","","16220","39","1","1","win","go","0"
"pit-trial","158","1014803","0.0-44.0","battery-v0.2","","""event"",""trial"",""time""
""fullscreenenter"",""1"",""2081""
","
","
","""event"",""trial"",""time""
""fullscreenenter"",""1"",""2081""
","
","","","658.5","","","23","16220","6305","g","elianto","#f73b6a7A"," "," ","1","0","[1511.6999999284744]","1","2","","","16220","40","3","3","lose","go","0"
"pit-trial","159","1018477","0.0-45.0","battery-v0.2","","""event"",""trial"",""time""
""fullscreenenter"",""1"",""2081""
","
","
","""event"",""trial"",""time""
""fullscreenenter"",""1"",""2081""
","
","","","818","","","23","16220","6305","g","elianto","#f73b6a7A"," "," ","1","0","[1668.8999999761581]","1","2","","","16220","41","3","3","lose","go","0"
"pit-trial","160","1023331","0.0-46.0","battery-v0.2","","""event"",""trial"",""time""
""fullscreenenter"",""1"",""2081""
","
","
","""event"",""trial"",""time""
""fullscreenenter"",""1"",""2081""
","
","","","-1","","","23","16220","6305","a","elianto","#f73b6a7A","-1","-1","1","0","[]","0","2","","","16220","42","2","4","lose","no-go","0"
"pit-trial","161","1028190","0.0-47.0","battery-v0.2","","""event"",""trial"",""time""
""fullscreenenter"",""1"",""2081""
","
","
","""event"",""trial"",""time""
""fullscreenenter"",""1"",""2081""
","
","","","-1","","","23","16220","6305","u","elianto","#f73b6a7A","-1","-1","1","0","[]","0","2","","","16220","43","0","4","lose","no-go","0"
"pit-trial","162","1031539","0.0-48.0","battery-v0.2","","""event"",""trial"",""time""
""fullscreenenter"",""1"",""2081""
","
","
","""event"",""trial"",""time""
""fullscreenenter"",""1"",""2081""
","
","","","494.2999999523163","","","23","16220","6305","l","elianto","#3366ff99"," "," ","1","+10","[1345.1999999284744]","1","2","","","16220","44","1","1","win","go","0"
"pit-trial","163","1036398","0.0-49.0","battery-v0.2","","""event"",""trial"",""time""
""fullscreenenter"",""1"",""2081""
","
","
","""event"",""trial"",""time""
""fullscreenenter"",""1"",""2081""
","
","","","-1","","","23","16220","6305","u","elianto","#f73b6a7A","-1","-1","1","0","[]","0","2","","","16220","45","0","4","lose","no-go","0"
"pit-trial","164","1040227","0.0-50.0","battery-v0.2","","""event"",""trial"",""time""
""fullscreenenter"",""1"",""2081""
","
","
","""event"",""trial"",""time""
""fullscreenenter"",""1"",""2081""
","
","","","973.3999999761581","","","23","16220","6305","p","elianto","#3366ff99","-1"," ","0","0","[1824.7000000476837]","1","2","","","16220","46","4","2","win","no-go","0"
"pit-trial","165","1044008","0.0-51.0","battery-v0.2","","""event"",""trial"",""time""
""fullscreenenter"",""1"",""2081""
","
","
","""event"",""trial"",""time""
""fullscreenenter"",""1"",""2081""
","
","","","926.6000000238419","","","23","16220","6305","g","elianto","#f73b6a7A"," "," ","1","0","[1777.8000000715256]","1","2","","","16220","47","3","3","lose","go","0"
"pit-trial","166","1048865","0.0-52.0","battery-v0.2","","""event"",""trial"",""time""
""fullscreenenter"",""1"",""2081""
","
","
","""event"",""trial"",""time""
""fullscreenenter"",""1"",""2081""
","
","","","-1","","","23","16220","6305","a","elianto","#f73b6a7A","-1","-1","1","-10","[]","0","2","","","16220","48","2","4","lose","no-go","1"
"pit-trial","167","1053726","0.0-53.0","battery-v0.2","","""event"",""trial"",""time""
""fullscreenenter"",""1"",""2081""
","
","
","""event"",""trial"",""time""
""fullscreenenter"",""1"",""2081""
","
","","","-1","","","23","16220","6305","u","elianto","#f73b6a7A","-1","-1","1","0","[]","0","2","","","16220","49","0","4","lose","no-go","0"
"pit-trial","168","1057275","0.0-54.0","battery-v0.2","","""event"",""trial"",""time""
""fullscreenenter"",""1"",""2081""
","
","
","""event"",""trial"",""time""
""fullscreenenter"",""1"",""2081""
","
","","","691.6000000238419","","","23","16220","6305","g","elianto","#f73b6a7A"," "," ","1","0","[1543.2000000476837]","1","2","","","16220","50","3","3","lose","go","0"
"pit-trial","169","1060874","0.0-55.0","battery-v0.2","","""event"",""trial"",""time""
""fullscreenenter"",""1"",""2081""
","
","
","""event"",""trial"",""time""
""fullscreenenter"",""1"",""2081""
","
","","","742.3000000715256","","","23","16220","6305","p","elianto","#3366ff99","-1"," ","0","+10","[1593.6000000238419]","1","2","","","16220","51","4","2","win","no-go","1"
"pit-trial","170","1064201","0.0-56.0","battery-v0.2","","""event"",""trial"",""time""
""fullscreenenter"",""1"",""2081""
","
","
","""event"",""trial"",""time""
""fullscreenenter"",""1"",""2081""
","
","","","470.5","","","23","16220","6305","l","elianto","#3366ff99"," "," ","1","0","[1321.3999999761581]","1","2","","","16220","52","1","1","win","go","1"
"pit-trial","171","1067571","0.0-57.0","battery-v0.2","","""event"",""trial"",""time""
""fullscreenenter"",""1"",""2081""
","
","
","""event"",""trial"",""time""
""fullscreenenter"",""1"",""2081""
","
","","","513","","","23","16220","6305","p","elianto","#3366ff99","-1"," ","0","0","[1364.7000000476837]","1","2","","","16220","53","4","2","win","no-go","0"
"pit-trial","172","1071156","0.0-58.0","battery-v0.2","","""event"",""trial"",""time""
""fullscreenenter"",""1"",""2081""
","
","
","""event"",""trial"",""time""
""fullscreenenter"",""1"",""2081""
","
","","","726.4000000953674","","","23","16220","6305","l","elianto","#3366ff99"," "," ","1","+10","[1579.5]","1","2","","","16220","54","1","1","win","go","0"
"pit-trial","173","1076011","0.0-59.0","battery-v0.2","","""event"",""trial"",""time""
""fullscreenenter"",""1"",""2081""
","
","
","""event"",""trial"",""time""
""fullscreenenter"",""1"",""2081""
","
","","","-1","","","23","16220","6305","a","elianto","#f73b6a7A","-1","-1","1","0","[]","0","2","","","16220","55","2","4","lose","no-go","0"
"pit-trial","174","1080868","0.0-60.0","battery-v0.2","","""event"",""trial"",""time""
""fullscreenenter"",""1"",""2081""
","
","
","""event"",""trial"",""time""
""fullscreenenter"",""1"",""2081""
","
","","","-1","","","23","16220","6305","u","elianto","#f73b6a7A","-1","-1","1","0","[]","0","2","","","16220","56","0","4","lose","no-go","0"
"pit-trial","175","1085726","0.0-61.0","battery-v0.2","","""event"",""trial"",""time""
""fullscreenenter"",""1"",""2081""
","
","
","""event"",""trial"",""time""
""fullscreenenter"",""1"",""2081""
","
","","","-1","","","23","16220","6305","u","elianto","#f73b6a7A","-1","-1","1","-10","[]","0","2","","","16220","57","0","4","lose","no-go","1"
"pit-trial","176","1089278","0.0-62.0","battery-v0.2","","""event"",""trial"",""time""
""fullscreenenter"",""1"",""2081""
","
","
","""event"",""trial"",""time""
""fullscreenenter"",""1"",""2081""
","
","","","697.3999999761581","","","23","16220","6305","g","elianto","#f73b6a7A"," "," ","1","0","[1548.2000000476837]","1","2","","","16220","58","3","3","lose","go","0"
"pit-trial","177","1094138","0.0-63.0","battery-v0.2","","""event"",""trial"",""time""
""fullscreenenter"",""1"",""2081""
","
","
","""event"",""trial"",""time""
""fullscreenenter"",""1"",""2081""
","
","","","-1","","","23","16220","6305","p","elianto","#3366ff99","-1","-1","1","+10","[]","0","2","","","16220","59","4","2","win","no-go","0"
"pit-trial","178","1097828","0.0-64.0","battery-v0.2","","""event"",""trial"",""time""
""fullscreenenter"",""1"",""2081""
","
","
","""event"",""trial"",""time""
""fullscreenenter"",""1"",""2081""
","
","","","835","","","23","16220","6305","l","elianto","#3366ff99"," "," ","1","0","[1686.8999999761581]","1","2","","","16220","60","1","1","win","go","1"
"pit-trial","179","1101385","0.0-65.0","battery-v0.2","","""event"",""trial"",""time""
""fullscreenenter"",""1"",""2081""
","
","
","""event"",""trial"",""time""
""fullscreenenter"",""1"",""2081""
","
","","","699.3999999761581","","","23","16220","6305","g","elianto","#f73b6a7A"," "," ","1","0","[1549.8999999761581]","1","2","","","16220","61","3","3","lose","go","0"
"pit-trial","180","1106245","0.0-66.0","battery-v0.2","","""event"",""trial"",""time""
""fullscreenenter"",""1"",""2081""
","
","
","""event"",""trial"",""time""
""fullscreenenter"",""1"",""2081""
","
","","","-1","","","23","16220","6305","p","elianto","#3366ff99","-1","-1","1","+10","[]","0","2","","","16220","62","4","2","win","no-go","0"
"pit-trial","181","1111099","0.0-67.0","battery-v0.2","","""event"",""trial"",""time""
""fullscreenenter"",""1"",""2081""
","
","
","""event"",""trial"",""time""
""fullscreenenter"",""1"",""2081""
","
","","","-1","","","23","16220","6305","a","elianto","#f73b6a7A","-1","-1","1","0","[]","0","2","","","16220","63","2","4","lose","no-go","0"
"pit-trial","182","1114538","0.0-68.0","battery-v0.2","","""event"",""trial"",""time""
""fullscreenenter"",""1"",""2081""
","
","
","""event"",""trial"",""time""
""fullscreenenter"",""1"",""2081""
","
","","","584.1000000238419","","","23","16220","6305","l","elianto","#3366ff99"," "," ","1","+10","[1434.6000000238419]","1","2","","","16220","64","1","1","win","go","0"
"pit-trial","183","1119392","0.0-69.0","battery-v0.2","","""event"",""trial"",""time""
""fullscreenenter"",""1"",""2081""
","
","
","""event"",""trial"",""time""
""fullscreenenter"",""1"",""2081""
","
","","","-1","","","23","16220","6305","a","elianto","#f73b6a7A","-1","-1","1","0","[]","0","2","","","16220","65","2","4","lose","no-go","0"
"pit-trial","184","1123092","0.0-70.0","battery-v0.2","","""event"",""trial"",""time""
""fullscreenenter"",""1"",""2081""
","
","
","""event"",""trial"",""time""
""fullscreenenter"",""1"",""2081""
","
","","","846.8000000715256","","","23","16220","6305","l","elianto","#3366ff99"," "," ","1","+10","[1698]","1","2","","","16220","66","1","1","win","go","0"
"pit-trial","185","1127947","0.0-71.0","battery-v0.2","","""event"",""trial"",""time""
""fullscreenenter"",""1"",""2081""
","
","
","""event"",""trial"",""time""
""fullscreenenter"",""1"",""2081""
","
","","","-1","","","23","16220","6305","p","elianto","#3366ff99","-1","-1","1","+10","[]","0","2","","","16220","67","4","2","win","no-go","0"
"pit-trial","186","1131569","0.0-72.0","battery-v0.2","","""event"",""trial"",""time""
""fullscreenenter"",""1"",""2081""
","
","
","""event"",""trial"",""time""
""fullscreenenter"",""1"",""2081""
","
","","","765.2000000476837","","","23","16220","6305","g","elianto","#f73b6a7A"," "," ","1","0","[1616]","1","2","","","16220","68","3","3","lose","go","0"
"pit-trial","187","1135201","0.0-73.0","battery-v0.2","","""event"",""trial"",""time""
""fullscreenenter"",""1"",""2081""
","
","
","""event"",""trial"",""time""
""fullscreenenter"",""1"",""2081""
","
","","","774","","","23","16220","6305","l","elianto","#3366ff99"," "," ","1","+10","[1624.6000000238419]","1","2","","","16220","69","1","1","win","go","0"
"pit-trial","188","1138997","0.0-74.0","battery-v0.2","","""event"",""trial"",""time""
""fullscreenenter"",""1"",""2081""
","
","
","""event"",""trial"",""time""
""fullscreenenter"",""1"",""2081""
","
","","","936.8000000715256","","","23","16220","6305","g","elianto","#f73b6a7A"," "," ","1","0","[1788.8000000715256]","1","2","","","16220","70","3","3","lose","go","0"
"pit-trial","189","1142885","0.0-75.0","battery-v0.2","","""event"",""trial"",""time""
""fullscreenenter"",""1"",""2081""
","
","
","""event"",""trial"",""time""
""fullscreenenter"",""1"",""2081""
","
","","","1032.3999999761581","","","23","16220","6305","s","elianto","#3366ff99"," "," ","1","+10","[1882.8000000715256]","1","2","","","16220","71","5","1","win","go","0"
"pit-trial","190","1147744","0.0-76.0","battery-v0.2","","""event"",""trial"",""time""
""fullscreenenter"",""1"",""2081""
","
","
","""event"",""trial"",""time""
""fullscreenenter"",""1"",""2081""
","
","","","-1","","","23","16220","6305","p","elianto","#3366ff99","-1","-1","1","+10","[]","0","2","","","16220","72","4","2","win","no-go","0"
"pit-trial","191","1151280","0.0-77.0","battery-v0.2","","""event"",""trial"",""time""
""fullscreenenter"",""1"",""2081""
","
","
","""event"",""trial"",""time""
""fullscreenenter"",""1"",""2081""
","
","","","680","","","23","16220","6305","g","elianto","#f73b6a7A"," "," ","1","-10","[1530.6999999284744]","1","2","","","16220","73","3","3","lose","go","1"
"pit-trial","192","1156139","0.0-78.0","battery-v0.2","","""event"",""trial"",""time""
""fullscreenenter"",""1"",""2081""
","
","
","""event"",""trial"",""time""
""fullscreenenter"",""1"",""2081""
","
","","","-1","","","23","16220","6305","p","elianto","#3366ff99","-1","-1","1","0","[]","0","2","","","16220","74","4","2","win","no-go","1"
"pit-trial","193","1159649","0.0-79.0","battery-v0.2","","""event"",""trial"",""time""
""fullscreenenter"",""1"",""2081""
","
","
","""event"",""trial"",""time""
""fullscreenenter"",""1"",""2081""
","
","","","654.6999999284744","","","23","16220","6305","l","elianto","#3366ff99"," "," ","1","+10","[1507.2999999523163]","1","2","","","16220","75","1","1","win","go","0"
"pit-trial","194","1163142","0.0-80.0","battery-v0.2","","""event"",""trial"",""time""
""fullscreenenter"",""1"",""2081""
","
","
","""event"",""trial"",""time""
""fullscreenenter"",""1"",""2081""
","
","","","634.7000000476837","","","23","16220","6305","s","elianto","#3366ff99"," "," ","1","+10","[1486.8999999761581]","1","2","","","16220","76","5","1","win","go","0"
"pit-trial","195","1167998","0.0-81.0","battery-v0.2","","""event"",""trial"",""time""
""fullscreenenter"",""1"",""2081""
","
","
","""event"",""trial"",""time""
""fullscreenenter"",""1"",""2081""
","
","","","-1","","","23","16220","6305","p","elianto","#3366ff99","-1","-1","1","0","[]","0","2","","","16220","77","4","2","win","no-go","1"
"pit-trial","196","1171600","0.0-82.0","battery-v0.2","","""event"",""trial"",""time""
""fullscreenenter"",""1"",""2081""
","
","
","""event"",""trial"",""time""
""fullscreenenter"",""1"",""2081""
","
","","","747.6000000238419","","","23","16220","6305","g","elianto","#f73b6a7A"," "," ","1","0","[1598.2000000476837]","1","2","","","16220","78","3","3","lose","go","0"
"pit-trial","197","1175478","0.0-83.0","battery-v0.2","","""event"",""trial"",""time""
""fullscreenenter"",""1"",""2081""
","
","
","""event"",""trial"",""time""
""fullscreenenter"",""1"",""2081""
","
","","","1023.1000000238419","","","23","16220","6305","s","elianto","#3366ff99"," "," ","1","0","[1873.7000000476837]","1","2","","","16220","79","5","1","win","go","1"
"pit-trial","198","1180337","0.0-84.0","battery-v0.2","","""event"",""trial"",""time""
""fullscreenenter"",""1"",""2081""
","
","
","""event"",""trial"",""time""
""fullscreenenter"",""1"",""2081""
","
","","","-1","","","23","16220","6305","w","elianto","#f73b6a7A","-1","-1","1","0","[]","0","2","","","16220","80","6","4","lose","no-go","0"
"pit-trial","199","1185195","0.0-85.0","battery-v0.2","","""event"",""trial"",""time""
""fullscreenenter"",""1"",""2081""
","
","
","""event"",""trial"",""time""
""fullscreenenter"",""1"",""2081""
","
","","","-1","","","23","16220","6305","w","elianto","#f73b6a7A","-1","-1","1","0","[]","0","2","","","16220","81","6","4","lose","no-go","0"
"pit-trial","200","1189441","0.0-86.0","battery-v0.2","","""event"",""trial"",""time""
""fullscreenenter"",""1"",""2081""
","
","
","""event"",""trial"",""time""
""fullscreenenter"",""1"",""2081""
","
","","","1389","","","23","16220","6305","e","elianto","#f73b6a7A"," "," ","1","0","[2239.7000000476837]","1","2","","","16220","82","7","3","lose","go","0"
"pit-trial","201","1193733","0.0-87.0","battery-v0.2","","""event"",""trial"",""time""
""fullscreenenter"",""1"",""2081""
","
","
","""event"",""trial"",""time""
""fullscreenenter"",""1"",""2081""
","
","","","1434.8999999761581","","","23","16220","6305","s","elianto","#3366ff99"," "," ","1","+10","[2286]","1","2","","","16220","83","5","1","win","go","0"
"pit-trial","202","1198592","0.0-88.0","battery-v0.2","","""event"",""trial"",""time""
""fullscreenenter"",""1"",""2081""
","
","
","""event"",""trial"",""time""
""fullscreenenter"",""1"",""2081""
","
","","","-1","","","23","16220","6305","p","elianto","#3366ff99","-1","-1","1","+10","[]","0","2","","","16220","84","4","2","win","no-go","0"
"pit-trial","203","1202666","0.0-89.0","battery-v0.2","","""event"",""trial"",""time""
""fullscreenenter"",""1"",""2081""
","
","
","""event"",""trial"",""time""
""fullscreenenter"",""1"",""2081""
","
","","","1218.5","","","23","16220","6305","w","elianto","#f73b6a7A","-1"," ","0","-10","[2068.5999999046326]","1","2","","","16220","85","6","4","lose","no-go","0"
"pit-trial","204","1206315","0.0-90.0","battery-v0.2","","""event"",""trial"",""time""
""fullscreenenter"",""1"",""2081""
","
","
","""event"",""trial"",""time""
""fullscreenenter"",""1"",""2081""
","
","","","792.6000000238419","","","23","16220","6305","e","elianto","#f73b6a7A"," "," ","1","0","[1644.2999999523163]","1","2","","","16220","86","7","3","lose","go","0"
"pit-trial","205","1211177","0.0-91.0","battery-v0.2","","""event"",""trial"",""time""
""fullscreenenter"",""1"",""2081""
","
","
","""event"",""trial"",""time""
""fullscreenenter"",""1"",""2081""
","
","","","-1","","","23","16220","6305","p","elianto","#3366ff99","-1","-1","1","0","[]","0","2","","","16220","87","4","2","win","no-go","1"
"pit-trial","206","1215566","0.0-92.0","battery-v0.2","","""event"",""trial"",""time""
""fullscreenenter"",""1"",""2081""
","
","
","""event"",""trial"",""time""
""fullscreenenter"",""1"",""2081""
","
","","","1535","","","23","16220","6305","s","elianto","#3366ff99"," "," ","1","+10","[2386.100000023842]","1","2","","","16220","88","5","1","win","go","0"
"pit-trial","207","1219095","0.0-93.0","battery-v0.2","","""event"",""trial"",""time""
""fullscreenenter"",""1"",""2081""
","
","
","""event"",""trial"",""time""
""fullscreenenter"",""1"",""2081""
","
","","","675.5","","","23","16220","6305","s","elianto","#3366ff99"," "," ","1","0","[1526.5]","1","2","","","16220","89","5","1","win","go","1"
"pit-trial","208","1223953","0.0-94.0","battery-v0.2","","""event"",""trial"",""time""
""fullscreenenter"",""1"",""2081""
","
","
","""event"",""trial"",""time""
""fullscreenenter"",""1"",""2081""
","
","","","-1","","","23","16220","6305","p","elianto","#3366ff99","-1","-1","1","+10","[]","0","2","","","16220","90","4","2","win","no-go","0"
"pit-trial","209","1228594","0.0-95.0","battery-v0.2","","""event"",""trial"",""time""
""fullscreenenter"",""1"",""2081""
","
","
","""event"",""trial"",""time""
""fullscreenenter"",""1"",""2081""
","
","","","1784.1000000238419","","","23","16220","6305","e","elianto","#f73b6a7A"," "," ","1","0","[2635.3000000715256]","1","2","","","16220","91","7","3","lose","go","0"
"pit-trial","210","1233453","0.0-96.0","battery-v0.2","","""event"",""trial"",""time""
""fullscreenenter"",""1"",""2081""
","
","
","""event"",""trial"",""time""
""fullscreenenter"",""1"",""2081""
","
","","","-1","","","23","16220","6305","w","elianto","#f73b6a7A","-1","-1","1","0","[]","0","2","","","16220","92","6","4","lose","no-go","0"
"pit-trial","211","1238311","0.0-97.0","battery-v0.2","","""event"",""trial"",""time""
""fullscreenenter"",""1"",""2081""
","
","
","""event"",""trial"",""time""
""fullscreenenter"",""1"",""2081""
","
","","","-1","","","23","16220","6305","w","elianto","#f73b6a7A","-1","-1","1","0","[]","0","2","","","16220","93","6","4","lose","no-go","0"
"pit-trial","212","1242415","0.0-98.0","battery-v0.2","","""event"",""trial"",""time""
""fullscreenenter"",""1"",""2081""
","
","
","""event"",""trial"",""time""
""fullscreenenter"",""1"",""2081""
","
","","","1250.6000000238419","","","23","16220","6305","d","elianto","#3366ff99","-1"," ","0","0","[2102.2000000476837]","1","2","","","16220","94","8","2","win","no-go","0"
"pit-trial","213","1246621","0.0-99.0","battery-v0.2","","""event"",""trial"",""time""
""fullscreenenter"",""1"",""2081""
","
","
","""event"",""trial"",""time""
""fullscreenenter"",""1"",""2081""
","
","","","1352.6000000238419","","","23","16220","6305","e","elianto","#f73b6a7A"," "," ","1","0","[2203.399999976158]","1","2","","","16220","95","7","3","lose","go","0"
"pit-trial","214","1250437","0.0-100.0","battery-v0.2","","""event"",""trial"",""time""
""fullscreenenter"",""1"",""2081""
","
","
","""event"",""trial"",""time""
""fullscreenenter"",""1"",""2081""
","
","","","961","","","23","16220","6305","s","elianto","#3366ff99"," "," ","1","+10","[1812.8999999761581]","1","2","","","16220","96","5","1","win","go","0"
"pit-trial","215","1254035","0.0-101.0","battery-v0.2","","""event"",""trial"",""time""
""fullscreenenter"",""1"",""2081""
","
","
","""event"",""trial"",""time""
""fullscreenenter"",""1"",""2081""
","
","","","740.7999999523163","","","23","16220","6305","s","elianto","#3366ff99"," "," ","1","+10","[1592.6000000238419]","1","2","","","16220","97","5","1","win","go","0"
"pit-trial","216","1257817","0.0-102.0","battery-v0.2","","""event"",""trial"",""time""
""fullscreenenter"",""1"",""2081""
","
","
","""event"",""trial"",""time""
""fullscreenenter"",""1"",""2081""
","
","","","928.7999999523163","","","23","16220","6305","e","elianto","#f73b6a7A"," "," ","1","0","[1780.3999999761581]","1","2","","","16220","98","7","3","lose","go","0"
"pit-trial","217","1261997","0.0-103.0","battery-v0.2","","""event"",""trial"",""time""
""fullscreenenter"",""1"",""2081""
","
","
","""event"",""trial"",""time""
""fullscreenenter"",""1"",""2081""
","
","","","1324.7000000476837","","","23","16220","6305","d","elianto","#3366ff99","-1"," ","0","0","[2175.4000000953674]","1","2","","","16220","99","8","2","win","no-go","0"
"pit-trial","218","1266854","0.0-104.0","battery-v0.2","","""event"",""trial"",""time""
""fullscreenenter"",""1"",""2081""
","
","
","""event"",""trial"",""time""
""fullscreenenter"",""1"",""2081""
","
","","","-1","","","23","16220","6305","w","elianto","#f73b6a7A","-1","-1","1","0","[]","0","2","","","16220","100","6","4","lose","no-go","0"
"pit-trial","219","1270576","0.0-105.0","battery-v0.2","","""event"",""trial"",""time""
""fullscreenenter"",""1"",""2081""
","
","
","""event"",""trial"",""time""
""fullscreenenter"",""1"",""2081""
","
","","","867.1000000238419","","","23","16220","6305","j","elianto","#3366ff99","-1"," ","0","+10","[1718.6000000238419]","1","2","","","16220","101","9","2","win","no-go","1"
"pit-trial","220","1274424","0.0-106.0","battery-v0.2","","""event"",""trial"",""time""
""fullscreenenter"",""1"",""2081""
","
","
","""event"",""trial"",""time""
""fullscreenenter"",""1"",""2081""
","
","","","991.6999999284744","","","23","16220","6305","s","elianto","#3366ff99"," "," ","1","+10","[1842.1999999284744]","1","2","","","16220","102","5","1","win","go","0"
"pit-trial","221","1279278","0.0-107.0","battery-v0.2","","""event"",""trial"",""time""
""fullscreenenter"",""1"",""2081""
","
","
","""event"",""trial"",""time""
""fullscreenenter"",""1"",""2081""
","
","","","-1","","","23","16220","6305","d","elianto","#3366ff99","-1","-1","1","+10","[]","0","2","","","16220","103","8","2","win","no-go","0"
"pit-trial","222","1284137","0.0-108.0","battery-v0.2","","""event"",""trial"",""time""
""fullscreenenter"",""1"",""2081""
","
","
","""event"",""trial"",""time""
""fullscreenenter"",""1"",""2081""
","
","","","-1","","","23","16220","6305","w","elianto","#f73b6a7A","-1","-1","1","-10","[]","0","2","","","16220","104","6","4","lose","no-go","1"
"pit-trial","223","1288046","0.0-109.0","battery-v0.2","","""event"",""trial"",""time""
""fullscreenenter"",""1"",""2081""
","
","
","""event"",""trial"",""time""
""fullscreenenter"",""1"",""2081""
","
","","","1053.1000000238419","","","23","16220","6305","j","elianto","#3366ff99","-1"," ","0","0","[1903.6000000238419]","1","2","","","16220","105","9","2","win","no-go","0"
"pit-trial","224","1292905","0.0-110.0","battery-v0.2","","""event"",""trial"",""time""
""fullscreenenter"",""1"",""2081""
","
","
","""event"",""trial"",""time""
""fullscreenenter"",""1"",""2081""
","
","","","-1","","","23","16220","6305","w","elianto","#f73b6a7A","-1","-1","1","0","[]","0","2","","","16220","106","6","4","lose","no-go","0"
"pit-trial","225","1296433","0.0-111.0","battery-v0.2","","""event"",""trial"",""time""
""fullscreenenter"",""1"",""2081""
","
","
","""event"",""trial"",""time""
""fullscreenenter"",""1"",""2081""
","
","","","670.5999999046326","","","23","16220","6305","s","elianto","#3366ff99"," "," ","1","+10","[1522.5]","1","2","","","16220","107","5","1","win","go","0"
"pit-trial","226","1301293","0.0-112.0","battery-v0.2","","""event"",""trial"",""time""
""fullscreenenter"",""1"",""2081""
","
","
","""event"",""trial"",""time""
""fullscreenenter"",""1"",""2081""
","
","","","-1","","","23","16220","6305","d","elianto","#3366ff99","-1","-1","1","0","[]","0","2","","","16220","108","8","2","win","no-go","1"
"pit-trial","227","1304897","0.0-113.0","battery-v0.2","","""event"",""trial"",""time""
""fullscreenenter"",""1"",""2081""
","
","
","""event"",""trial"",""time""
""fullscreenenter"",""1"",""2081""
","
","","","747","","","23","16220","6305","s","elianto","#3366ff99"," "," ","1","+10","[1597.8999999761581]","1","2","","","16220","109","5","1","win","go","0"
"pit-trial","228","1308831","0.0-114.0","battery-v0.2","","""event"",""trial"",""time""
""fullscreenenter"",""1"",""2081""
","
","
","""event"",""trial"",""time""
""fullscreenenter"",""1"",""2081""
","
","","","1077","","","23","16220","6305","j","elianto","#3366ff99","-1"," ","0","0","[1928.0999999046326]","1","2","","","16220","110","9","2","win","no-go","0"
"pit-trial","229","1313689","0.0-115.0","battery-v0.2","","""event"",""trial"",""time""
""fullscreenenter"",""1"",""2081""
","
","
","""event"",""trial"",""time""
""fullscreenenter"",""1"",""2081""
","
","","","-1","","","23","16220","6305","w","elianto","#f73b6a7A","-1","-1","1","0","[]","0","2","","","16220","111","6","4","lose","no-go","0"
"pit-trial","230","1318546","0.0-116.0","battery-v0.2","","""event"",""trial"",""time""
""fullscreenenter"",""1"",""2081""
","
","
","""event"",""trial"",""time""
""fullscreenenter"",""1"",""2081""
","
","","","-1","","","23","16220","6305","d","elianto","#3366ff99","-1","-1","1","+10","[]","0","2","","","16220","112","8","2","win","no-go","0"
"pit-trial","231","1323407","0.0-117.0","battery-v0.2","","""event"",""trial"",""time""
""fullscreenenter"",""1"",""2081""
","
","
","""event"",""trial"",""time""
""fullscreenenter"",""1"",""2081""
","
","","","-1","","","23","16220","6305","j","elianto","#3366ff99","-1","-1","1","+10","[]","0","2","","","16220","113","9","2","win","no-go","0"
"pit-trial","232","1328265","0.0-118.0","battery-v0.2","","""event"",""trial"",""time""
""fullscreenenter"",""1"",""2081""
","
","
","""event"",""trial"",""time""
""fullscreenenter"",""1"",""2081""
","
","","","-1","","","23","16220","6305","d","elianto","#3366ff99","-1","-1","1","+10","[]","0","2","","","16220","114","8","2","win","no-go","0"
"pit-trial","233","1332162","0.0-119.0","battery-v0.2","","""event"",""trial"",""time""
""fullscreenenter"",""1"",""2081""
","
","
","""event"",""trial"",""time""
""fullscreenenter"",""1"",""2081""
","
","","","1040.5","","","23","16220","6305","e","elianto","#f73b6a7A"," "," ","1","0","[1891.3000000715256]","1","2","","","16220","115","7","3","lose","go","0"
"pit-trial","234","1335807","0.0-120.0","battery-v0.2","","""event"",""trial"",""time""
""fullscreenenter"",""1"",""2081""
","
","
","""event"",""trial"",""time""
""fullscreenenter"",""1"",""2081""
","
","","","785.5","","","23","16220","6305","s","elianto","#3366ff99"," "," ","1","0","[1637.1000000238419]","1","2","","","16220","116","5","1","win","go","1"
"pit-trial","235","1339406","0.0-121.0","battery-v0.2","","""event"",""trial"",""time""
""fullscreenenter"",""1"",""2081""
","
","
","""event"",""trial"",""time""
""fullscreenenter"",""1"",""2081""
","
","","","741.2999999523163","","","23","16220","6305","j","elianto","#3366ff99","-1"," ","0","0","[1592.6999999284744]","1","2","","","16220","117","9","2","win","no-go","0"
"pit-trial","236","1344261","0.0-122.0","battery-v0.2","","""event"",""trial"",""time""
""fullscreenenter"",""1"",""2081""
","
","
","""event"",""trial"",""time""
""fullscreenenter"",""1"",""2081""
","
","","","-1","","","23","16220","6305","d","elianto","#3366ff99","-1","-1","1","+10","[]","0","2","","","16220","118","8","2","win","no-go","0"
"pit-trial","237","1347800","0.0-123.0","battery-v0.2","","""event"",""trial"",""time""
""fullscreenenter"",""1"",""2081""
","
","
","""event"",""trial"",""time""
""fullscreenenter"",""1"",""2081""
","
","","","682.2999999523163","","","23","16220","6305","s","elianto","#3366ff99"," "," ","1","+10","[1533.2999999523163]","1","2","","","16220","119","5","1","win","go","0"
"pit-trial","238","1352661","0.0-124.0","battery-v0.2","","""event"",""trial"",""time""
""fullscreenenter"",""1"",""2081""
","
","
","""event"",""trial"",""time""
""fullscreenenter"",""1"",""2081""
","
","","","-1","","","23","16220","6305","w","elianto","#f73b6a7A","-1","-1","1","-10","[]","0","2","","","16220","120","6","4","lose","no-go","1"
"pit-trial","239","1357519","0.0-125.0","battery-v0.2","","""event"",""trial"",""time""
""fullscreenenter"",""1"",""2081""
","
","
","""event"",""trial"",""time""
""fullscreenenter"",""1"",""2081""
","
","","","-1","","","23","16220","6305","d","elianto","#3366ff99","-1","-1","1","0","[]","0","2","","","16220","121","8","2","win","no-go","1"
"pit-trial","240","1361381","0.0-126.0","battery-v0.2","","""event"",""trial"",""time""
""fullscreenenter"",""1"",""2081""
","
","
","""event"",""trial"",""time""
""fullscreenenter"",""1"",""2081""
","
","","","1005.5","","","23","16220","6305","e","elianto","#f73b6a7A"," "," ","1","0","[1856.3999999761581]","1","2","","","16220","122","7","3","lose","go","0"
"pit-trial","241","1366240","0.0-127.0","battery-v0.2","","""event"",""trial"",""time""
""fullscreenenter"",""1"",""2081""
","
","
","""event"",""trial"",""time""
""fullscreenenter"",""1"",""2081""
","
","","","-1","","","23","16220","6305","j","elianto","#3366ff99","-1","-1","1","+10","[]","0","2","","","16220","123","9","2","win","no-go","0"
"pit-trial","242","1369882","0.0-128.0","battery-v0.2","","""event"",""trial"",""time""
""fullscreenenter"",""1"",""2081""
","
","
","""event"",""trial"",""time""
""fullscreenenter"",""1"",""2081""
","
","","","784.8999999761581","","","23","16220","6305","s","elianto","#3366ff99"," "," ","1","+10","[1638.5]","1","2","","","16220","124","5","1","win","go","0"
"pit-trial","243","1374739","0.0-129.0","battery-v0.2","","""event"",""trial"",""time""
""fullscreenenter"",""1"",""2081""
","
","
","""event"",""trial"",""time""
""fullscreenenter"",""1"",""2081""
","
","","","-1","","","23","16220","6305","d","elianto","#3366ff99","-1","-1","1","+10","[]","0","2","","","16220","125","8","2","win","no-go","0"
"pit-trial","244","1378511","0.0-130.0","battery-v0.2","","""event"",""trial"",""time""
""fullscreenenter"",""1"",""2081""
","
","
","""event"",""trial"",""time""
""fullscreenenter"",""1"",""2081""
","
","","","913.6999999284744","","","23","16220","6305","e","elianto","#f73b6a7A"," "," ","1","0","[1765.6000000238419]","1","2","","","16220","126","7","3","lose","go","0"
"pit-trial","245","1383369","0.0-131.0","battery-v0.2","","""event"",""trial"",""time""
""fullscreenenter"",""1"",""2081""
","
","
","""event"",""trial"",""time""
""fullscreenenter"",""1"",""2081""
","
","","","-1","","","23","16220","6305","j","elianto","#3366ff99","-1","-1","1","0","[]","0","2","","","16220","127","9","2","win","no-go","1"
"pit-trial","246","1388229","0.0-132.0","battery-v0.2","","""event"",""trial"",""time""
""fullscreenenter"",""1"",""2081""
","
","
","""event"",""trial"",""time""
""fullscreenenter"",""1"",""2081""
","
","","","-1","","","23","16220","6305","w","elianto","#f73b6a7A","-1","-1","1","0","[]","0","2","","","16220","128","6","4","lose","no-go","0"
"pit-trial","247","1393087","0.0-133.0","battery-v0.2","","""event"",""trial"",""time""
""fullscreenenter"",""1"",""2081""
","
","
","""event"",""trial"",""time""
""fullscreenenter"",""1"",""2081""
","
","","","-1","","","23","16220","6305","d","elianto","#3366ff99","-1","-1","1","+10","[]","0","2","","","16220","129","8","2","win","no-go","0"
"pit-trial","248","1397186","0.0-134.0","battery-v0.2","","""event"",""trial"",""time""
""fullscreenenter"",""1"",""2081""
","
","
","""event"",""trial"",""time""
""fullscreenenter"",""1"",""2081""
","
","","","1245.6999999284744","","","23","16220","6305","e","elianto","#f73b6a7A"," "," ","1","0","[2096.0999999046326]","1","2","","","16220","130","7","3","lose","go","0"
"pit-trial","249","1402042","0.0-135.0","battery-v0.2","","""event"",""trial"",""time""
""fullscreenenter"",""1"",""2081""
","
","
","""event"",""trial"",""time""
""fullscreenenter"",""1"",""2081""
","
","","","-1","","","23","16220","6305","j","elianto","#3366ff99","-1","-1","1","+10","[]","0","2","","","16220","131","9","2","win","no-go","0"
"pit-trial","250","1406902","0.0-136.0","battery-v0.2","","""event"",""trial"",""time""
""fullscreenenter"",""1"",""2081""
","
","
","""event"",""trial"",""time""
""fullscreenenter"",""1"",""2081""
","
","","","-1","","","23","16220","6305","w","elianto","#f73b6a7A","-1","-1","1","0","[]","0","2","","","16220","132","6","4","lose","no-go","0"
"pit-trial","251","1411758","0.0-137.0","battery-v0.2","","""event"",""trial"",""time""
""fullscreenenter"",""1"",""2081""
","
","
","""event"",""trial"",""time""
""fullscreenenter"",""1"",""2081""
","
","","","-1","","","23","16220","6305","w","elianto","#f73b6a7A","-1","-1","1","-10","[]","0","2","","","16220","133","6","4","lose","no-go","1"
"pit-trial","252","1415887","0.0-138.0","battery-v0.2","","""event"",""trial"",""time""
""fullscreenenter"",""1"",""2081""
","
","
","""event"",""trial"",""time""
""fullscreenenter"",""1"",""2081""
","
","","","1275.1999999284744","","","23","16220","6305","e","elianto","#f73b6a7A"," "," ","1","0","[2126]","1","2","","","16220","134","7","3","lose","go","0"
"pit-trial","253","1420747","0.0-139.0","battery-v0.2","","""event"",""trial"",""time""
""fullscreenenter"",""1"",""2081""
","
","
","""event"",""trial"",""time""
""fullscreenenter"",""1"",""2081""
","
","","","-1","","","23","16220","6305","j","elianto","#3366ff99","-1","-1","1","0","[]","0","2","","","16220","135","9","2","win","no-go","1"
"pit-trial","254","1425606","0.0-140.0","battery-v0.2","","""event"",""trial"",""time""
""fullscreenenter"",""1"",""2081""
","
","
","""event"",""trial"",""time""
""fullscreenenter"",""1"",""2081""
","
","","","-1","","","23","16220","6305","d","elianto","#3366ff99","-1","-1","1","+10","[]","0","2","","","16220","136","8","2","win","no-go","0"
"pit-trial","255","1430465","0.0-141.0","battery-v0.2","","""event"",""trial"",""time""
""fullscreenenter"",""1"",""2081""
","
","
","""event"",""trial"",""time""
""fullscreenenter"",""1"",""2081""
","
","","","-1","","","23","16220","6305","d","elianto","#3366ff99","-1","-1","1","+10","[]","0","2","","","16220","137","8","2","win","no-go","0"
"pit-trial","256","1435319","0.0-142.0","battery-v0.2","","""event"",""trial"",""time""
""fullscreenenter"",""1"",""2081""
","
","
","""event"",""trial"",""time""
""fullscreenenter"",""1"",""2081""
","
","","","-1","","","23","16220","6305","w","elianto","#f73b6a7A","-1","-1","1","0","[]","0","2","","","16220","138","6","4","lose","no-go","0"
"pit-trial","257","1439196","0.0-143.0","battery-v0.2","","""event"",""trial"",""time""
""fullscreenenter"",""1"",""2081""
","
","
","""event"",""trial"",""time""
""fullscreenenter"",""1"",""2081""
","
","","","1021.7000000476837","","","23","16220","6305","j","elianto","#3366ff99","-1"," ","0","0","[1873]","1","2","","","16220","139","9","2","win","no-go","0"
"pit-trial","258","1443094","0.0-144.0","battery-v0.2","","""event"",""trial"",""time""
""fullscreenenter"",""1"",""2081""
","
","
","""event"",""trial"",""time""
""fullscreenenter"",""1"",""2081""
","
","","","1041.3000000715256","","","23","16220","6305","e","elianto","#f73b6a7A"," "," ","1","0","[1892]","1","2","","","16220","140","7","3","lose","go","0"
"pit-instructions","259","1458072","0.0-145.0","battery-v0.2","","""event"",""trial"",""time""
""fullscreenenter"",""1"",""2081""
","
","
","""event"",""trial"",""time""
""fullscreenenter"",""1"",""2081""
","
","","[{""page_index"":0,""viewing_time"":6889},{""page_index"":1,""viewing_time"":8087.100000023842}]","14976.399999976158","","","","","","","","","","","","","","","","","","","","","","","",""
"pit-trial","260","1462934","0.0-146.0","battery-v0.2","","""event"",""trial"",""time""
""fullscreenenter"",""1"",""2081""
","
","
","""event"",""trial"",""time""
""fullscreenenter"",""1"",""2081""
","
","","","-1","","","23","16220","6305","h","elianto","#f73b6a7A","-1","-1","1","0","[]","0","3","","","16220","141","3","4","lose","no-go","0"
"pit-trial","261","1466710","0.0-147.0","battery-v0.2","","""event"",""trial"",""time""
""fullscreenenter"",""1"",""2081""
","
","
","""event"",""trial"",""time""
""fullscreenenter"",""1"",""2081""
","
","","","917.6999999284744","","","23","16220","6305","y","elianto","#f73b6a7A"," "," ","1","0","[1768.3999999761581]","1","3","","","16220","142","2","3","lose","go","0"
"pit-trial","262","1470332","0.0-148.0","battery-v0.2","","""event"",""trial"",""time""
""fullscreenenter"",""1"",""2081""
","
","
","""event"",""trial"",""time""
""fullscreenenter"",""1"",""2081""
","
","","","765.7999999523163","","","23","16220","6305","r","elianto","#3366ff99","-1"," ","0","0","[1615.8000000715256]","1","3","","","16220","143","1","2","win","no-go","0"
"pit-trial","263","1475191","0.0-149.0","battery-v0.2","","""event"",""trial"",""time""
""fullscreenenter"",""1"",""2081""
","
","
","""event"",""trial"",""time""
""fullscreenenter"",""1"",""2081""
","
","","","-1","","","23","16220","6305","m","elianto","#f73b6a7A"," ","-1","0","-10","[]","0","3","","","16220","144","0","3","lose","go","0"
"pit-trial","264","1480049","0.0-150.0","battery-v0.2","","""event"",""trial"",""time""
""fullscreenenter"",""1"",""2081""
","
","
","""event"",""trial"",""time""
""fullscreenenter"",""1"",""2081""
","
","","","-1","","","23","16220","6305","r","elianto","#3366ff99","-1","-1","1","+10","[]","0","3","","","16220","145","1","2","win","no-go","0"
"pit-trial","265","1483907","0.0-151.0","battery-v0.2","","""event"",""trial"",""time""
""fullscreenenter"",""1"",""2081""
","
","
","""event"",""trial"",""time""
""fullscreenenter"",""1"",""2081""
","
","","","998.8999999761581","","","23","16220","6305","y","elianto","#f73b6a7A"," "," ","1","0","[1851]","1","3","","","16220","146","2","3","lose","go","0"
"pit-trial","266","1488766","0.0-152.0","battery-v0.2","","""event"",""trial"",""time""
""fullscreenenter"",""1"",""2081""
","
","
","""event"",""trial"",""time""
""fullscreenenter"",""1"",""2081""
","
","","","-1","","","23","16220","6305","m","elianto","#f73b6a7A"," ","-1","0","-10","[]","0","3","","","16220","147","0","3","lose","go","0"
"pit-trial","267","1493622","0.0-153.0","battery-v0.2","","""event"",""trial"",""time""
""fullscreenenter"",""1"",""2081""
","
","
","""event"",""trial"",""time""
""fullscreenenter"",""1"",""2081""
","
