"trial_type","trial_index","time_elapsed","internal_node_id","task_version","subject_id","interactions","blur_events","focus_events","fullscreenenter_events","fullscreenexit_events","success","view_history","rt","responses","num_errors","age","subject","participantId","rune","rune_set","hex","correct","choice","accuracy","outcome","keys","total_keys","block","practice","value","sub","trial","stimulus","robot","valence","action","sham"
"pavlovia","0","28","0.0-0.0","battery-v0.2","","""event"",""trial"",""time""
""fullscreenenter"",""1"",""2500""
","
","
","""event"",""trial"",""time""
""fullscreenenter"",""1"",""2500""
","
","","","","","","","","","","","","","","","","","","","","","","","","","","",""
"fullscreen","1","3490","0.0-1.0","battery-v0.2","","""event"",""trial"",""time""
""fullscreenenter"",""1"",""2500""
""fullscreenexit"",""2"",""12079""
","
","
","""event"",""trial"",""time""
""fullscreenenter"",""1"",""2500""
","""event"",""trial"",""time""
""fullscreenexit"",""2"",""12079""
","true","","","","","","","","","","","","","","","","","","","","","","","","","",""
"pit-instructions","2","16777","0.0-2.0-0.0","battery-v0.2","","""event"",""trial"",""time""
""fullscreenenter"",""1"",""2500""
""fullscreenexit"",""2"",""12079""
","
","
","""event"",""trial"",""time""
""fullscreenenter"",""1"",""2500""
","""event"",""trial"",""time""
""fullscreenexit"",""2"",""12079""
","","[{""page_index"":0,""viewing_time"":13276.29999999702}]","13278.09999999404","","","","","","","","","","","","","","","","","","","","","","","",""
"pit-comprehension","3","21044","0.0-2.0-1.0-0.0","battery-v0.2","","""event"",""trial"",""time""
""fullscreenenter"",""1"",""2500""
""fullscreenexit"",""2"",""12079""
","
","
","""event"",""trial"",""time""
""fullscreenenter"",""1"",""2500""
","""event"",""trial"",""time""
""fullscreenexit"",""2"",""12079""
","","","4260.4000000059605","[""shark""]","0","12","13287","5716","","","","","","","","","","","","","","","","","","",""
"pit-instructions","4","22393","0.0-2.0-1.0-1.0","battery-v0.2","","""event"",""trial"",""time""
""fullscreenenter"",""1"",""2500""
""fullscreenexit"",""2"",""12079""
","
","
","""event"",""trial"",""time""
""fullscreenenter"",""1"",""2500""
","""event"",""trial"",""time""
""fullscreenexit"",""2"",""12079""
","","[{""page_index"":0,""viewing_time"":1338.5}]","1338.8999999910593","","","","","","","","","","","","","","","","","","","","","","","",""
"pit-comprehension","5","26574","0.0-2.0-2.0-0.0","battery-v0.2","","""event"",""trial"",""time""
""fullscreenenter"",""1"",""2500""
""fullscreenexit"",""2"",""12079""
","
","
","""event"",""trial"",""time""
""fullscreenenter"",""1"",""2500""
","""event"",""trial"",""time""
""fullscreenexit"",""2"",""12079""
","","","4175.29999999702","[""tiger""]","0","12","13287","5716","","","","","","","","","","","","","","","","","","",""
"pit-instructions","6","27853","0.0-2.0-2.0-1.0","battery-v0.2","","""event"",""trial"",""time""
""fullscreenenter"",""1"",""2500""
""fullscreenexit"",""2"",""12079""
","
","
","""event"",""trial"",""time""
""fullscreenenter"",""1"",""2500""
","""event"",""trial"",""time""
""fullscreenexit"",""2"",""12079""
","","[{""page_index"":0,""viewing_time"":1274.2000000029802}]","1274.5999999940395","","","","","","","","","","","","","","","","","","","","","","","",""
"pit-instructions","7","160945","0.0-2.0-3.0","battery-v0.2","","""event"",""trial"",""time""
""fullscreenenter"",""1"",""2500""
""fullscreenexit"",""2"",""12079""
","
","
","""event"",""trial"",""time""
""fullscreenenter"",""1"",""2500""
","""event"",""trial"",""time""
""fullscreenexit"",""2"",""12079""
","","[{""page_index"":0,""viewing_time"":40638.19999998808},{""page_index"":1,""viewing_time"":5845},{""page_index"":2,""viewing_time"":6245.20000000298},{""page_index"":3,""viewing_time"":5208.600000008941},{""page_index"":4,""viewing_time"":5861.5},{""page_index"":5,""viewing_time"":5452.199999988079},{""page_index"":6,""viewing_time"":8248.90000000596},{""page_index"":7,""viewing_time"":7818.5999999940395},{""page_index"":8,""viewing_time"":6426.5},{""page_index"":9,""viewing_time"":12839.300000011921},{""page_index"":10,""viewing_time"":8111.899999991059},{""page_index"":11,""viewing_time"":7516.29999999702},{""page_index"":12,""viewing_time"":7449.300000011921},{""page_index"":13,""viewing_time"":5424}]","133086.09999999404","","","","","","","","","","","","","","","","","","","","","","","",""
"pit-trial","8","164472","0.0-2.0-4.0-0.0","battery-v0.2","","""event"",""trial"",""time""
""fullscreenenter"",""1"",""2500""
""fullscreenexit"",""2"",""12079""
","
","
","""event"",""trial"",""time""
""fullscreenenter"",""1"",""2500""
","""event"",""trial"",""time""
""fullscreenexit"",""2"",""12079""
","","","666.4000000059605","","","12","13287","5716","&#9784;","elianto","#FFFFF080"," "," ","1","&#10004","[1521.2999999970198]","1","0","0","","","","","","","",""
"pit-trial","9","167944","0.0-2.0-4.1-0.1","battery-v0.2","","""event"",""trial"",""time""
""fullscreenenter"",""1"",""2500""
""fullscreenexit"",""2"",""12079""
","
","
","""event"",""trial"",""time""
""fullscreenenter"",""1"",""2500""
","""event"",""trial"",""time""
""fullscreenexit"",""2"",""12079""
","","","613.8000000119209","","","12","13287","5716","&#9784;","elianto","#FFFFF080"," "," ","1","&#10004","[1464.5]","1","0","0","","","","","","","",""
"pit-trial","10","171010","0.0-2.0-4.2-0.2","battery-v0.2","","""event"",""trial"",""time""
""fullscreenenter"",""1"",""2500""
""fullscreenexit"",""2"",""12079""
","
","
","""event"",""trial"",""time""
""fullscreenenter"",""1"",""2500""
","""event"",""trial"",""time""
""fullscreenexit"",""2"",""12079""
","","","206.90000000596046","","","12","13287","5716","&#9784;","elianto","#FFFFF080"," "," ","1","&#10004","[1058.2999999970198]","1","0","0","","","","","","","",""
"pit-trial","11","174403","0.0-2.0-4.3-0.3","battery-v0.2","","""event"",""trial"",""time""
""fullscreenenter"",""1"",""2500""
""fullscreenexit"",""2"",""12079""
","
","
","""event"",""trial"",""time""
""fullscreenenter"",""1"",""2500""
","""event"",""trial"",""time""
""fullscreenexit"",""2"",""12079""
","","","536.5","","","12","13287","5716","&#9784;","elianto","#FFFFF080"," "," ","1","&#10004","[1387.6000000089407]","1","0","0","","","","","","","",""
"pit-trial","12","177794","0.0-2.0-4.4-0.4","battery-v0.2","","""event"",""trial"",""time""
""fullscreenenter"",""1"",""2500""
""fullscreenexit"",""2"",""12079""
","
","
","""event"",""trial"",""time""
""fullscreenenter"",""1"",""2500""
","""event"",""trial"",""time""
""fullscreenexit"",""2"",""12079""
","","","535.4000000059605","","","12","13287","5716","&#9784;","elianto","#FFFFF080"," "," ","1","&#10004","[1386.300000011921]","1","0","0","","","","","","","",""
"pit-instructions","13","203444","0.0-2.0-5.0","battery-v0.2","","""event"",""trial"",""time""
""fullscreenenter"",""1"",""2500""
""fullscreenexit"",""2"",""12079""
","
","
","""event"",""trial"",""time""
""fullscreenenter"",""1"",""2500""
","""event"",""trial"",""time""
""fullscreenexit"",""2"",""12079""
","","[{""page_index"":0,""viewing_time"":5501},{""page_index"":1,""viewing_time"":8070},{""page_index"":2,""viewing_time"":4998.100000008941},{""page_index"":3,""viewing_time"":7075.20000000298}]","25644.70000000298","","","","","","","","","","","","","","","","","","","","","","","",""
"pit-trial","14","208306","0.0-2.0-6.0-0.0","battery-v0.2","","""event"",""trial"",""time""
""fullscreenenter"",""1"",""2500""
""fullscreenexit"",""2"",""12079""
","
","
","""event"",""trial"",""time""
""fullscreenenter"",""1"",""2500""
","""event"",""trial"",""time""
""fullscreenexit"",""2"",""12079""
","","","-1","","","12","13287","5716","&#9854;","elianto","#FFFFF080","-1","-1","1","&#10004","[]","0","0","1","","","","","","","",""
"pit-trial","15","213170","0.0-2.0-6.1-0.1","battery-v0.2","","""event"",""trial"",""time""
""fullscreenenter"",""1"",""2500""
""fullscreenexit"",""2"",""12079""
","
","
","""event"",""trial"",""time""
""fullscreenenter"",""1"",""2500""
","""event"",""trial"",""time""
""fullscreenexit"",""2"",""12079""
","","","-1","","","12","13287","5716","&#9854;","elianto","#FFFFF080","-1","-1","1","&#10004","[]","0","0","1","","","","","","","",""
"pit-trial","16","218029","0.0-2.0-6.2-0.2","battery-v0.2","","""event"",""trial"",""time""
""fullscreenenter"",""1"",""2500""
""fullscreenexit"",""2"",""12079""
","
","
","""event"",""trial"",""time""
""fullscreenenter"",""1"",""2500""
","""event"",""trial"",""time""
""fullscreenexit"",""2"",""12079""
","","","-1","","","12","13287","5716","&#9854;","elianto","#FFFFF080","-1","-1","1","&#10004","[]","0","0","1","","","","","","","",""
"pit-trial","17","222888","0.0-2.0-6.3-0.3","battery-v0.2","","""event"",""trial"",""time""
""fullscreenenter"",""1"",""2500""
""fullscreenexit"",""2"",""12079""
","
","
","""event"",""trial"",""time""
""fullscreenenter"",""1"",""2500""
","""event"",""trial"",""time""
""fullscreenexit"",""2"",""12079""
","","","-1","","","12","13287","5716","&#9854;","elianto","#FFFFF080","-1","-1","1","&#10004","[]","0","0","1","","","","","","","",""
"pit-trial","18","227752","0.0-2.0-6.4-0.4","battery-v0.2","","""event"",""trial"",""time""
""fullscreenenter"",""1"",""2500""
""fullscreenexit"",""2"",""12079""
","
","
","""event"",""trial"",""time""
""fullscreenenter"",""1"",""2500""
","""event"",""trial"",""time""
""fullscreenexit"",""2"",""12079""
","","","-1","","","12","13287","5716","&#9854;","elianto","#FFFFF080","-1","-1","1","&#10004","[]","0","0","1","","","","","","","",""
"pit-instructions","19","347398","0.0-2.0-7.0","battery-v0.2","","""event"",""trial"",""time""
""fullscreenenter"",""1"",""2500""
""fullscreenexit"",""2"",""12079""
","
","
","""event"",""trial"",""time""
""fullscreenenter"",""1"",""2500""
","""event"",""trial"",""time""
""fullscreenexit"",""2"",""12079""
","","[{""page_index"":0,""viewing_time"":5690.399999991059},{""page_index"":1,""viewing_time"":7137.100000008941},{""page_index"":2,""viewing_time"":6948.29999999702},{""page_index"":3,""viewing_time"":6158.5},{""page_index"":4,""viewing_time"":5290.70000000298},{""page_index"":5,""viewing_time"":5246},{""page_index"":6,""viewing_time"":5508.79999999702},{""page_index"":7,""viewing_time"":8477.90000000596},{""page_index"":8,""viewing_time"":6828.399999991059},{""page_index"":9,""viewing_time"":5709},{""page_index"":10,""viewing_time"":7246.9000000059605},{""page_index"":11,""viewing_time"":5876.899999991059},{""page_index"":12,""viewing_time"":6925.5},{""page_index"":13,""viewing_time"":7661.70000000298},{""page_index"":14,""viewing_time"":6683.70000000298},{""page_index"":15,""viewing_time"":6666.70000000298},{""page_index"":16,""viewing_time"":6752.399999991059},{""page_index"":17,""viewing_time"":8831.5}]","119640.89999999106","","","","","","","","","","","","","","","","","","","","","","","",""
"pit-trial","20","350824","0.0-2.0-8.0-0.0","battery-v0.2","","""event"",""trial"",""time""
""fullscreenenter"",""1"",""2500""
""fullscreenexit"",""2"",""12079""
","
","
","""event"",""trial"",""time""
""fullscreenenter"",""1"",""2500""
","""event"",""trial"",""time""
""fullscreenexit"",""2"",""12079""
","","","567.2999999970198","","","12","13287","5716","&#9776;","elianto","#3366ff99"," "," ","1","+10","[1419.6000000089407]","1","0","1","","","","","","","",""
"pit-trial","21","354067","0.0-2.0-8.0-1.0","battery-v0.2","","""event"",""trial"",""time""
""fullscreenenter"",""1"",""2500""
""fullscreenexit"",""2"",""12079""
","
","
","""event"",""trial"",""time""
""fullscreenenter"",""1"",""2500""
","""event"",""trial"",""time""
""fullscreenexit"",""2"",""12079""
","","","385.5","","","12","13287","5716","&#9776;","elianto","#3366ff99"," "," ","1","+10","[1237.7999999970198]","1","0","1","","","","","","","",""
"pit-trial","22","357983","0.0-2.0-8.0-2.0","battery-v0.2","","""event"",""trial"",""time""
""fullscreenenter"",""1"",""2500""
""fullscreenexit"",""2"",""12079""
","
","
","""event"",""trial"",""time""
""fullscreenenter"",""1"",""2500""
","""event"",""trial"",""time""
""fullscreenexit"",""2"",""12079""
","","","1061.5","","","12","13287","5716","&#9776;","elianto","#3366ff99"," "," ","1","+10","[1912.5]","1","0","1","","","","","","","",""
"pit-trial","23","361774","0.0-2.0-8.0-3.0","battery-v0.2","","""event"",""trial"",""time""
""fullscreenenter"",""1"",""2500""
""fullscreenexit"",""2"",""12079""
","
","
","""event"",""trial"",""time""
""fullscreenenter"",""1"",""2500""
","""event"",""trial"",""time""
""fullscreenexit"",""2"",""12079""
","","","937.7000000029802","","","12","13287","5716","&#9776;","elianto","#3366ff99"," "," ","1","0","[1788.9000000059605]","1","0","1","","","","","","","",""
"pit-trial","24","365454","0.0-2.0-8.0-4.0","battery-v0.2","","""event"",""trial"",""time""
""fullscreenenter"",""1"",""2500""
""fullscreenexit"",""2"",""12079""
","
","
","""event"",""trial"",""time""
""fullscreenenter"",""1"",""2500""
","""event"",""trial"",""time""
""fullscreenexit"",""2"",""12079""
","","","825.4000000059605","","","12","13287","5716","&#9776;","elianto","#3366ff99"," "," ","1","+10","[1676.5999999940395]","1","0","1","","","","","","","",""
"pit-trial","25","368808","0.0-2.0-8.1-0.1","battery-v0.2","","""event"",""trial"",""time""
""fullscreenenter"",""1"",""2500""
""fullscreenexit"",""2"",""12079""
","
","
","""event"",""trial"",""time""
""fullscreenenter"",""1"",""2500""
","""event"",""trial"",""time""
""fullscreenexit"",""2"",""12079""
","","","497.6000000089407","","","12","13287","5716","&#9776;","elianto","#3366ff99"," "," ","1","+10","[1348.699999988079]","1","0","1","","","","","","","",""
"pit-trial","26","372680","0.0-2.0-8.1-1.1","battery-v0.2","","""event"",""trial"",""time""
""fullscreenenter"",""1"",""2500""
""fullscreenexit"",""2"",""12079""
","
","
","""event"",""trial"",""time""
""fullscreenenter"",""1"",""2500""
","""event"",""trial"",""time""
""fullscreenexit"",""2"",""12079""
","","","1017.1999999880791","","","12","13287","5716","&#9776;","elianto","#3366ff99"," "," ","1","+10","[1869]","1","0","1","","","","","","","",""
"pit-trial","27","376090","0.0-2.0-8.1-2.1","battery-v0.2","","""event"",""trial"",""time""
""fullscreenenter"",""1"",""2500""
""fullscreenexit"",""2"",""12079""
","
","
","""event"",""trial"",""time""
""fullscreenenter"",""1"",""2500""
","""event"",""trial"",""time""
""fullscreenexit"",""2"",""12079""
","","","551.3999999910593","","","12","13287","5716","&#9776;","elianto","#3366ff99"," "," ","1","+10","[1401.7999999970198]","1","0","1","","","","","","","",""
"pit-trial","28","380170","0.0-2.0-8.1-3.1","battery-v0.2","","""event"",""trial"",""time""
""fullscreenenter"",""1"",""2500""
""fullscreenexit"",""2"",""12079""
","
","
","""event"",""trial"",""time""
""fullscreenenter"",""1"",""2500""
","""event"",""trial"",""time""
""fullscreenexit"",""2"",""12079""
","","","1224.0999999940395","","","12","13287","5716","&#9776;","elianto","#3366ff99"," "," ","1","0","[2075]","1","0","1","","","","","","","",""
"pit-trial","29","383429","0.0-2.0-8.1-4.1","battery-v0.2","","""event"",""trial"",""time""
""fullscreenenter"",""1"",""2500""
""fullscreenexit"",""2"",""12079""
","
","
","""event"",""trial"",""time""
""fullscreenenter"",""1"",""2500""
","""event"",""trial"",""time""
""fullscreenexit"",""2"",""12079""
","","","400.19999998807907","","","12","13287","5716","&#9776;","elianto","#3366ff99"," "," ","1","+10","[1251.0999999940395]","1","0","1","","","","","","","",""
"pit-trial","30","386746","0.0-2.0-8.2-0.2","battery-v0.2","","""event"",""trial"",""time""
""fullscreenenter"",""1"",""2500""
""fullscreenexit"",""2"",""12079""
","
","
","""event"",""trial"",""time""
""fullscreenenter"",""1"",""2500""
","""event"",""trial"",""time""
""fullscreenexit"",""2"",""12079""
","","","461.19999998807907","","","12","13287","5716","&#9776;","elianto","#3366ff99"," "," ","1","+10","[1313.9000000059605]","1","0","1","","","","","","","",""
"pit-trial","31","390341","0.0-2.0-8.2-1.2","battery-v0.2","","""event"",""trial"",""time""
""fullscreenenter"",""1"",""2500""
""fullscreenexit"",""2"",""12079""
","
","
","""event"",""trial"",""time""
""fullscreenenter"",""1"",""2500""
","""event"",""trial"",""time""
""fullscreenexit"",""2"",""12079""
","","","735.9000000059605","","","12","13287","5716","&#9776;","elianto","#3366ff99"," "," ","1","+10","[1588.1000000089407]","1","0","1","","","","","","","",""
"pit-trial","32","393776","0.0-2.0-8.2-2.2","battery-v0.2","","""event"",""trial"",""time""
""fullscreenenter"",""1"",""2500""
""fullscreenexit"",""2"",""12079""
","
","
","""event"",""trial"",""time""
""fullscreenenter"",""1"",""2500""
","""event"",""trial"",""time""
""fullscreenexit"",""2"",""12079""
","","","578.9000000059605","","","12","13287","5716","&#9776;","elianto","#3366ff99"," "," ","1","+10","[1430.4000000059605]","1","0","1","","","","","","","",""
"pit-trial","33","397120","0.0-2.0-8.2-3.2","battery-v0.2","","""event"",""trial"",""time""
""fullscreenenter"",""1"",""2500""
""fullscreenexit"",""2"",""12079""
","
","
","""event"",""trial"",""time""
""fullscreenenter"",""1"",""2500""
","""event"",""trial"",""time""
""fullscreenexit"",""2"",""12079""
","","","487.8999999910593","","","12","13287","5716","&#9776;","elianto","#3366ff99"," "," ","1","0","[1340.2000000029802]","1","0","1","","","","","","","",""
"pit-trial","34","400464","0.0-2.0-8.2-4.2","battery-v0.2","","""event"",""trial"",""time""
""fullscreenenter"",""1"",""2500""
""fullscreenexit"",""2"",""12079""
","
","
","""event"",""trial"",""time""
""fullscreenenter"",""1"",""2500""
","""event"",""trial"",""time""
""fullscreenexit"",""2"",""12079""
","","","488.70000000298023","","","12","13287","5716","&#9776;","elianto","#3366ff99"," "," ","1","+10","[1339.2999999970198]","1","0","1","","","","","","","",""
"call-function","35","400466","0.0-2.0-9.0","battery-v0.2","","""event"",""trial"",""time""
""fullscreenenter"",""1"",""2500""
""fullscreenexit"",""2"",""12079""
","
","
","""event"",""trial"",""time""
""fullscreenenter"",""1"",""2500""
","""event"",""trial"",""time""
""fullscreenexit"",""2"",""12079""
","","","","","","","","","","","","","","","","","","","","","","","","","","",""
"pit-instructions","36","440794","0.0-2.0-10.0","battery-v0.2","","""event"",""trial"",""time""
""fullscreenenter"",""1"",""2500""
""fullscreenexit"",""2"",""12079""
","
","
","""event"",""trial"",""time""
""fullscreenenter"",""1"",""2500""
","""event"",""trial"",""time""
""fullscreenexit"",""2"",""12079""
","","[{""page_index"":0,""viewing_time"":5922.20000000298},{""page_index"":1,""viewing_time"":6857.699999988079},{""page_index"":2,""viewing_time"":10290.800000011921},{""page_index"":3,""viewing_time"":9299.5},{""page_index"":4,""viewing_time"":7956.0999999940395}]","40326.70000000298","","","","","","","","","","","","","","","","","","","","","","","",""
"pit-trial","37","445653","0.0-2.0-11.0-0.0","battery-v0.2","","""event"",""trial"",""time""
""fullscreenenter"",""1"",""2500""
""fullscreenexit"",""2"",""12079""
","
","
","""event"",""trial"",""time""
""fullscreenenter"",""1"",""2500""
","""event"",""trial"",""time""
""fullscreenexit"",""2"",""12079""
","","","-1","","","12","13287","5716","&#9761;","elianto","#3366ff99","-1","-1","1","+10","[]","0","0","2","","","","","","","",""
"pit-trial","38","450511","0.0-2.0-11.0-1.0","battery-v0.2","","""event"",""trial"",""time""
""fullscreenenter"",""1"",""2500""
""fullscreenexit"",""2"",""12079""
","
","
","""event"",""trial"",""time""
""fullscreenenter"",""1"",""2500""
","""event"",""trial"",""time""
""fullscreenexit"",""2"",""12079""
","","","-1","","","12","13287","5716","&#9761;","elianto","#3366ff99","-1","-1","1","+10","[]","0","0","2","","","","","","","",""
"pit-trial","39","455370","0.0-2.0-11.0-2.0","battery-v0.2","","""event"",""trial"",""time""
""fullscreenenter"",""1"",""2500""
""fullscreenexit"",""2"",""12079""
","
","
","""event"",""trial"",""time""
""fullscreenenter"",""1"",""2500""
","""event"",""trial"",""time""
""fullscreenexit"",""2"",""12079""
","","","-1","","","12","13287","5716","&#9761;","elianto","#3366ff99","-1","-1","1","+10","[]","0","0","2","","","","","","","",""
"pit-trial","40","460229","0.0-2.0-11.0-3.0","battery-v0.2","","""event"",""trial"",""time""
""fullscreenenter"",""1"",""2500""
""fullscreenexit"",""2"",""12079""
","
","
","""event"",""trial"",""time""
""fullscreenenter"",""1"",""2500""
","""event"",""trial"",""time""
""fullscreenexit"",""2"",""12079""
","","","-1","","","12","13287","5716","&#9761;","elianto","#3366ff99","-1","-1","1","0","[]","0","0","2","","","","","","","",""
"pit-trial","41","465088","0.0-2.0-11.0-4.0","battery-v0.2","","""event"",""trial"",""time""
""fullscreenenter"",""1"",""2500""
""fullscreenexit"",""2"",""12079""
","
","
","""event"",""trial"",""time""
""fullscreenenter"",""1"",""2500""
","""event"",""trial"",""time""
""fullscreenexit"",""2"",""12079""
","","","-1","","","12","13287","5716","&#9761;","elianto","#3366ff99","-1","-1","1","+10","[]","0","0","2","","","","","","","",""
"pit-trial","42","469951","0.0-2.0-11.1-0.1","battery-v0.2","","""event"",""trial"",""time""
""fullscreenenter"",""1"",""2500""
""fullscreenexit"",""2"",""12079""
","
","
","""event"",""trial"",""time""
""fullscreenenter"",""1"",""2500""
","""event"",""trial"",""time""
""fullscreenexit"",""2"",""12079""
","","","-1","","","12","13287","5716","&#9761;","elianto","#3366ff99","-1","-1","1","+10","[]","0","0","2","","","","","","","",""
"pit-trial","43","474812","0.0-2.0-11.1-1.1","battery-v0.2","","""event"",""trial"",""time""
""fullscreenenter"",""1"",""2500""
""fullscreenexit"",""2"",""12079""
","
","
","""event"",""trial"",""time""
""fullscreenenter"",""1"",""2500""
","""event"",""trial"",""time""
""fullscreenexit"",""2"",""12079""
","","","-1","","","12","13287","5716","&#9761;","elianto","#3366ff99","-1","-1","1","+10","[]","0","0","2","","","","","","","",""
"pit-trial","44","479671","0.0-2.0-11.1-2.1","battery-v0.2","","""event"",""trial"",""time""
""fullscreenenter"",""1"",""2500""
""fullscreenexit"",""2"",""12079""
","
","
","""event"",""trial"",""time""
""fullscreenenter"",""1"",""2500""
","""event"",""trial"",""time""
""fullscreenexit"",""2"",""12079""
","","","-1","","","12","13287","5716","&#9761;","elianto","#3366ff99","-1","-1","1","+10","[]","0","0","2","","","","","","","",""
"pit-trial","45","484530","0.0-2.0-11.1-3.1","battery-v0.2","","""event"",""trial"",""time""
""fullscreenenter"",""1"",""2500""
""fullscreenexit"",""2"",""12079""
","
","
","""event"",""trial"",""time""
""fullscreenenter"",""1"",""2500""
","""event"",""trial"",""time""
""fullscreenexit"",""2"",""12079""
","","","-1","","","12","13287","5716","&#9761;","elianto","#3366ff99","-1","-1","1","0","[]","0","0","2","","","","","","","",""
"pit-trial","46","489388","0.0-2.0-11.1-4.1","battery-v0.2","","""event"",""trial"",""time""
""fullscreenenter"",""1"",""2500""
""fullscreenexit"",""2"",""12079""
","
","
","""event"",""trial"",""time""
""fullscreenenter"",""1"",""2500""
","""event"",""trial"",""time""
""fullscreenexit"",""2"",""12079""
","","","-1","","","12","13287","5716","&#9761;","elianto","#3366ff99","-1","-1","1","+10","[]","0","0","2","","","","","","","",""
"pit-trial","47","494252","0.0-2.0-11.2-0.2","battery-v0.2","","""event"",""trial"",""time""
""fullscreenenter"",""1"",""2500""
""fullscreenexit"",""2"",""12079""
","
","
","""event"",""trial"",""time""
""fullscreenenter"",""1"",""2500""
","""event"",""trial"",""time""
""fullscreenexit"",""2"",""12079""
","","","-1","","","12","13287","5716","&#9761;","elianto","#3366ff99","-1","-1","1","+10","[]","0","0","2","","","","","","","",""
"pit-trial","48","499111","0.0-2.0-11.2-1.2","battery-v0.2","","""event"",""trial"",""time""
""fullscreenenter"",""1"",""2500""
""fullscreenexit"",""2"",""12079""
","
","
","""event"",""trial"",""time""
""fullscreenenter"",""1"",""2500""
","""event"",""trial"",""time""
""fullscreenexit"",""2"",""12079""
","","","-1","","","12","13287","5716","&#9761;","elianto","#3366ff99","-1","-1","1","+10","[]","0","0","2","","","","","","","",""
"pit-trial","49","503970","0.0-2.0-11.2-2.2","battery-v0.2","","""event"",""trial"",""time""
""fullscreenenter"",""1"",""2500""
""fullscreenexit"",""2"",""12079""
","
","
","""event"",""trial"",""time""
""fullscreenenter"",""1"",""2500""
","""event"",""trial"",""time""
""fullscreenexit"",""2"",""12079""
","","","-1","","","12","13287","5716","&#9761;","elianto","#3366ff99","-1","-1","1","+10","[]","0","0","2","","","","","","","",""
"pit-trial","50","508829","0.0-2.0-11.2-3.2","battery-v0.2","","""event"",""trial"",""time""
""fullscreenenter"",""1"",""2500""
""fullscreenexit"",""2"",""12079""
","
","
","""event"",""trial"",""time""
""fullscreenenter"",""1"",""2500""
","""event"",""trial"",""time""
""fullscreenexit"",""2"",""12079""
","","","-1","","","12","13287","5716","&#9761;","elianto","#3366ff99","-1","-1","1","0","[]","0","0","2","","","","","","","",""
"pit-trial","51","513687","0.0-2.0-11.2-4.2","battery-v0.2","","""event"",""trial"",""time""
""fullscreenenter"",""1"",""2500""
""fullscreenexit"",""2"",""12079""
","
","
","""event"",""trial"",""time""
""fullscreenenter"",""1"",""2500""
","""event"",""trial"",""time""
""fullscreenexit"",""2"",""12079""
","","","-1","","","12","13287","5716","&#9761;","elianto","#3366ff99","-1","-1","1","+10","[]","0","0","2","","","","","","","",""
"pit-trial","52","518546","0.0-2.0-11.3-0.3","battery-v0.2","","""event"",""trial"",""time""
""fullscreenenter"",""1"",""2500""
""fullscreenexit"",""2"",""12079""
","
","
","""event"",""trial"",""time""
""fullscreenenter"",""1"",""2500""
","""event"",""trial"",""time""
""fullscreenexit"",""2"",""12079""
","","","-1","","","12","13287","5716","&#9761;","elianto","#3366ff99","-1","-1","1","+10","[]","0","0","2","","","","","","","",""
"pit-trial","53","523405","0.0-2.0-11.3-1.3","battery-v0.2","","""event"",""trial"",""time""
""fullscreenenter"",""1"",""2500""
""fullscreenexit"",""2"",""12079""
","
","
","""event"",""trial"",""time""
""fullscreenenter"",""1"",""2500""
","""event"",""trial"",""time""
""fullscreenexit"",""2"",""12079""
","","","-1","","","12","13287","5716","&#9761;","elianto","#3366ff99","-1","-1","1","+10","[]","0","0","2","","","","","","","",""
"pit-trial","54","528264","0.0-2.0-11.3-2.3","battery-v0.2","","""event"",""trial"",""time""
""fullscreenenter"",""1"",""2500""
""fullscreenexit"",""2"",""12079""
","
","
","""event"",""trial"",""time""
""fullscreenenter"",""1"",""2500""
","""event"",""trial"",""time""
""fullscreenexit"",""2"",""12079""
","","","-1","","","12","13287","5716","&#9761;","elianto","#3366ff99","-1","-1","1","+10","[]","0","0","2","","","","","","","",""
"pit-trial","55","533122","0.0-2.0-11.3-3.3","battery-v0.2","","""event"",""trial"",""time""
""fullscreenenter"",""1"",""2500""
""fullscreenexit"",""2"",""12079""
","
","
","""event"",""trial"",""time""
""fullscreenenter"",""1"",""2500""
","""event"",""trial"",""time""
""fullscreenexit"",""2"",""12079""
","","","-1","","","12","13287","5716","&#9761;","elianto","#3366ff99","-1","-1","1","0","[]","0","0","2","","","","","","","",""
"pit-trial","56","537981","0.0-2.0-11.3-4.3","battery-v0.2","","""event"",""trial"",""time""
""fullscreenenter"",""1"",""2500""
""fullscreenexit"",""2"",""12079""
","
","
","""event"",""trial"",""time""
""fullscreenenter"",""1"",""2500""
","""event"",""trial"",""time""
""fullscreenexit"",""2"",""12079""
","","","-1","","","12","13287","5716","&#9761;","elianto","#3366ff99","-1","-1","1","+10","[]","0","0","2","","","","","","","",""
"call-function","57","537983","0.0-2.0-12.0","battery-v0.2","","""event"",""trial"",""time""
""fullscreenenter"",""1"",""2500""
""fullscreenexit"",""2"",""12079""
","
","
","""event"",""trial"",""time""
""fullscreenenter"",""1"",""2500""
","""event"",""trial"",""time""
""fullscreenexit"",""2"",""12079""
","","","","","","","","","","","","","","","","","","","","","","","","","","",""
"pit-instructions","58","570511","0.0-2.0-13.0","battery-v0.2","","""event"",""trial"",""time""
""fullscreenenter"",""1"",""2500""
""fullscreenexit"",""2"",""12079""
","
","
","""event"",""trial"",""time""
""fullscreenenter"",""1"",""2500""
","""event"",""trial"",""time""
""fullscreenexit"",""2"",""12079""
","","[{""page_index"":0,""viewing_time"":4975.9000000059605},{""page_index"":1,""viewing_time"":8140.199999988079},{""page_index"":2,""viewing_time"":3438.7000000029802},{""page_index"":3,""viewing_time"":10128.5},{""page_index"":4,""viewing_time"":5842.600000008941}]","32526.70000000298","","","","","","","","","","","","","","","","","","","","","","","",""
"pit-trial","59","575371","0.0-2.0-14.0-0.0","battery-v0.2","","""event"",""trial"",""time""
""fullscreenenter"",""1"",""2500""
""fullscreenexit"",""2"",""12079""
","
","
","""event"",""trial"",""time""
""fullscreenenter"",""1"",""2500""
","""event"",""trial"",""time""
""fullscreenexit"",""2"",""12079""
","","","-1","","","12","13287","5716","&#9826;","elianto","#f73b6a7A","-1","-1","1","0","[]","0","0","3","","","","","","","",""
"pit-trial","60","580229","0.0-2.0-14.0-1.0","battery-v0.2","","""event"",""trial"",""time""
""fullscreenenter"",""1"",""2500""
""fullscreenexit"",""2"",""12079""
","
","
","""event"",""trial"",""time""
""fullscreenenter"",""1"",""2500""
","""event"",""trial"",""time""
""fullscreenexit"",""2"",""12079""
","","","-1","","","12","13287","5716","&#9826;","elianto","#f73b6a7A","-1","-1","1","0","[]","0","0","3","","","","","","","",""
"pit-trial","61","585088","0.0-2.0-14.0-2.0","battery-v0.2","","""event"",""trial"",""time""
""fullscreenenter"",""1"",""2500""
""fullscreenexit"",""2"",""12079""
","
","
","""event"",""trial"",""time""
""fullscreenenter"",""1"",""2500""
","""event"",""trial"",""time""
""fullscreenexit"",""2"",""12079""
","","","-1","","","12","13287","5716","&#9826;","elianto","#f73b6a7A","-1","-1","1","0","[]","0","0","3","","","","","","","",""
"pit-trial","62","589947","0.0-2.0-14.0-3.0","battery-v0.2","","""event"",""trial"",""time""
""fullscreenenter"",""1"",""2500""
""fullscreenexit"",""2"",""12079""
","
","
","""event"",""trial"",""time""
""fullscreenenter"",""1"",""2500""
","""event"",""trial"",""time""
""fullscreenexit"",""2"",""12079""
","","","-1","","","12","13287","5716","&#9826;","elianto","#f73b6a7A","-1","-1","1","-10","[]","0","0","3","","","","","","","",""
"pit-trial","63","594805","0.0-2.0-14.0-4.0","battery-v0.2","","""event"",""trial"",""time""
""fullscreenenter"",""1"",""2500""
""fullscreenexit"",""2"",""12079""
","
","
","""event"",""trial"",""time""
""fullscreenenter"",""1"",""2500""
","""event"",""trial"",""time""
""fullscreenexit"",""2"",""12079""
","","","-1","","","12","13287","5716","&#9826;","elianto","#f73b6a7A","-1","-1","1","0","[]","0","0","3","","","","","","","",""
"pit-trial","64","599666","0.0-2.0-14.1-0.1","battery-v0.2","","""event"",""trial"",""time""
""fullscreenenter"",""1"",""2500""
""fullscreenexit"",""2"",""12079""
","
","
","""event"",""trial"",""time""
""fullscreenenter"",""1"",""2500""
","""event"",""trial"",""time""
""fullscreenexit"",""2"",""12079""
","","","-1","","","12","13287","5716","&#9826;","elianto","#f73b6a7A","-1","-1","1","0","[]","0","0","3","","","","","","","",""
"pit-trial","65","604524","0.0-2.0-14.1-1.1","battery-v0.2","","""event"",""trial"",""time""
""fullscreenenter"",""1"",""2500""
""fullscreenexit"",""2"",""12079""
","
","
","""event"",""trial"",""time""
""fullscreenenter"",""1"",""2500""
","""event"",""trial"",""time""
""fullscreenexit"",""2"",""12079""
","","","-1","","","12","13287","5716","&#9826;","elianto","#f73b6a7A","-1","-1","1","0","[]","0","0","3","","","","","","","",""
"pit-trial","66","609383","0.0-2.0-14.1-2.1","battery-v0.2","","""event"",""trial"",""time""
""fullscreenenter"",""1"",""2500""
""fullscreenexit"",""2"",""12079""
","
","
","""event"",""trial"",""time""
""fullscreenenter"",""1"",""2500""
","""event"",""trial"",""time""
""fullscreenexit"",""2"",""12079""
","","","-1","","","12","13287","5716","&#9826;","elianto","#f73b6a7A","-1","-1","1","0","[]","0","0","3","","","","","","","",""
"pit-trial","67","614242","0.0-2.0-14.1-3.1","battery-v0.2","","""event"",""trial"",""time""
""fullscreenenter"",""1"",""2500""
""fullscreenexit"",""2"",""12079""
","
","
","""event"",""trial"",""time""
""fullscreenenter"",""1"",""2500""
","""event"",""trial"",""time""
""fullscreenexit"",""2"",""12079""
","","","-1","","","12","13287","5716","&#9826;","elianto","#f73b6a7A","-1","-1","1","-10","[]","0","0","3","","","","","","","",""
"pit-trial","68","619100","0.0-2.0-14.1-4.1","battery-v0.2","","""event"",""trial"",""time""
""fullscreenenter"",""1"",""2500""
""fullscreenexit"",""2"",""12079""
","
","
","""event"",""trial"",""time""
""fullscreenenter"",""1"",""2500""
","""event"",""trial"",""time""
""fullscreenexit"",""2"",""12079""
","","","-1","","","12","13287","5716","&#9826;","elianto","#f73b6a7A","-1","-1","1","0","[]","0","0","3","","","","","","","",""
"pit-trial","69","623959","0.0-2.0-14.2-0.2","battery-v0.2","","""event"",""trial"",""time""
""fullscreenenter"",""1"",""2500""
""fullscreenexit"",""2"",""12079""
","
","
","""event"",""trial"",""time""
""fullscreenenter"",""1"",""2500""
","""event"",""trial"",""time""
""fullscreenexit"",""2"",""12079""
","","","-1","","","12","13287","5716","&#9826;","elianto","#f73b6a7A","-1","-1","1","0","[]","0","0","3","","","","","","","",""
"pit-trial","70","628818","0.0-2.0-14.2-1.2","battery-v0.2","","""event"",""trial"",""time""
""fullscreenenter"",""1"",""2500""
""fullscreenexit"",""2"",""12079""
","
","
","""event"",""trial"",""time""
""fullscreenenter"",""1"",""2500""
","""event"",""trial"",""time""
""fullscreenexit"",""2"",""12079""
","","","-1","","","12","13287","5716","&#9826;","elianto","#f73b6a7A","-1","-1","1","0","[]","0","0","3","","","","","","","",""
"pit-trial","71","633677","0.0-2.0-14.2-2.2","battery-v0.2","","""event"",""trial"",""time""
""fullscreenenter"",""1"",""2500""
""fullscreenexit"",""2"",""12079""
","
","
","""event"",""trial"",""time""
""fullscreenenter"",""1"",""2500""
","""event"",""trial"",""time""
""fullscreenexit"",""2"",""12079""
","","","-1","","","12","13287","5716","&#9826;","elianto","#f73b6a7A","-1","-1","1","0","[]","0","0","3","","","","","","","",""
"pit-trial","72","638535","0.0-2.0-14.2-3.2","battery-v0.2","","""event"",""trial"",""time""
""fullscreenenter"",""1"",""2500""
""fullscreenexit"",""2"",""12079""
","
","
","""event"",""trial"",""time""
""fullscreenenter"",""1"",""2500""
","""event"",""trial"",""time""
""fullscreenexit"",""2"",""12079""
","","","-1","","","12","13287","5716","&#9826;","elianto","#f73b6a7A","-1","-1","1","-10","[]","0","0","3","","","","","","","",""
"pit-trial","73","643394","0.0-2.0-14.2-4.2","battery-v0.2","","""event"",""trial"",""time""
""fullscreenenter"",""1"",""2500""
""fullscreenexit"",""2"",""12079""
","
","
","""event"",""trial"",""time""
""fullscreenenter"",""1"",""2500""
","""event"",""trial"",""time""
""fullscreenexit"",""2"",""12079""
","","","-1","","","12","13287","5716","&#9826;","elianto","#f73b6a7A","-1","-1","1","0","[]","0","0","3","","","","","","","",""
"pit-trial","74","648258","0.0-2.0-14.3-0.3","battery-v0.2","","""event"",""trial"",""time""
""fullscreenenter"",""1"",""2500""
""fullscreenexit"",""2"",""12079""
","
","
","""event"",""trial"",""time""
""fullscreenenter"",""1"",""2500""
","""event"",""trial"",""time""
""fullscreenexit"",""2"",""12079""
","","","-1","","","12","13287","5716","&#9826;","elianto","#f73b6a7A","-1","-1","1","0","[]","0","0","3","","","","","","","",""
"pit-trial","75","653117","0.0-2.0-14.3-1.3","battery-v0.2","","""event"",""trial"",""time""
""fullscreenenter"",""1"",""2500""
""fullscreenexit"",""2"",""12079""
","
","
","""event"",""trial"",""time""
""fullscreenenter"",""1"",""2500""
","""event"",""trial"",""time""
""fullscreenexit"",""2"",""12079""
","","","-1","","","12","13287","5716","&#9826;","elianto","#f73b6a7A","-1","-1","1","0","[]","0","0","3","","","","","","","",""
"pit-trial","76","657975","0.0-2.0-14.3-2.3","battery-v0.2","","""event"",""trial"",""time""
""fullscreenenter"",""1"",""2500""
""fullscreenexit"",""2"",""12079""
","
","
","""event"",""trial"",""time""
""fullscreenenter"",""1"",""2500""
","""event"",""trial"",""time""
""fullscreenexit"",""2"",""12079""
","","","-1","","","12","13287","5716","&#9826;","elianto","#f73b6a7A","-1","-1","1","0","[]","0","0","3","","","","","","","",""
"pit-trial","77","662834","0.0-2.0-14.3-3.3","battery-v0.2","","""event"",""trial"",""time""
""fullscreenenter"",""1"",""2500""
""fullscreenexit"",""2"",""12079""
","
","
","""event"",""trial"",""time""
""fullscreenenter"",""1"",""2500""
","""event"",""trial"",""time""
""fullscreenexit"",""2"",""12079""
","","","-1","","","12","13287","5716","&#9826;","elianto","#f73b6a7A","-1","-1","1","-10","[]","0","0","3","","","","","","","",""
"pit-trial","78","667693","0.0-2.0-14.3-4.3","battery-v0.2","","""event"",""trial"",""time""
""fullscreenenter"",""1"",""2500""
""fullscreenexit"",""2"",""12079""
","
","
","""event"",""trial"",""time""
""fullscreenenter"",""1"",""2500""
","""event"",""trial"",""time""
""fullscreenexit"",""2"",""12079""
","","","-1","","","12","13287","5716","&#9826;","elianto","#f73b6a7A","-1","-1","1","0","[]","0","0","3","","","","","","","",""
"call-function","79","667695","0.0-2.0-15.0","battery-v0.2","","""event"",""trial"",""time""
""fullscreenenter"",""1"",""2500""
""fullscreenexit"",""2"",""12079""
","
","
","""event"",""trial"",""time""
""fullscreenenter"",""1"",""2500""
","""event"",""trial"",""time""
""fullscreenexit"",""2"",""12079""
","","","","","","","","","","","","","","","","","","","","","","","","","","",""
"pit-instructions","80","693492","0.0-2.0-16.0","battery-v0.2","","""event"",""trial"",""time""
""fullscreenenter"",""1"",""2500""
""fullscreenexit"",""2"",""12079""
","
","
","""event"",""trial"",""time""
""fullscreenenter"",""1"",""2500""
","""event"",""trial"",""time""
""fullscreenexit"",""2"",""12079""
","","[{""page_index"":0,""viewing_time"":7252.29999999702},{""page_index"":1,""viewing_time"":8896.79999999702},{""page_index"":2,""viewing_time"":4605.29999999702},{""page_index"":3,""viewing_time"":5040.9000000059605}]","25796","","","","","","","","","","","","","","","","","","","","","","","",""
"pit-trial","81","696680","0.0-2.0-17.0-0.0","battery-v0.2","","""event"",""trial"",""time""
""fullscreenenter"",""1"",""2500""
""fullscreenexit"",""2"",""12079""
","
","
","""event"",""trial"",""time""
""fullscreenenter"",""1"",""2500""
","""event"",""trial"",""time""
""fullscreenexit"",""2"",""12079""
","","","331.09999999403954","","","12","13287","5716","&#9789;","elianto","#f73b6a7A"," "," ","1","0","[1181.8999999910593]","1","0","4","","","","","","","",""
"pit-trial","82","699702","0.0-2.0-17.0-1.0","battery-v0.2","","""event"",""trial"",""time""
""fullscreenenter"",""1"",""2500""
""fullscreenexit"",""2"",""12079""
","
","
","""event"",""trial"",""time""
""fullscreenenter"",""1"",""2500""
","""event"",""trial"",""time""
""fullscreenexit"",""2"",""12079""
","","","165.8999999910593","","","12","13287","5716","&#9789;","elianto","#f73b6a7A"," "," ","1","0","[1018.5]","1","0","4","","","","","","","",""
"pit-trial","83","703482","0.0-2.0-17.0-2.0","battery-v0.2","","""event"",""trial"",""time""
""fullscreenenter"",""1"",""2500""
""fullscreenexit"",""2"",""12079""
","
","
","""event"",""trial"",""time""
""fullscreenenter"",""1"",""2500""
","""event"",""trial"",""time""
""fullscreenexit"",""2"",""12079""
","","","923.7000000029802","","","12","13287","5716","&#9789;","elianto","#f73b6a7A"," "," ","1","0","[366.90000000596046,1774.2000000029802]","2","0","4","","","","","","","",""
"pit-trial","84","707373","0.0-2.0-17.0-3.0","battery-v0.2","","""event"",""trial"",""time""
""fullscreenenter"",""1"",""2500""
""fullscreenexit"",""2"",""12079""
","
","
","""event"",""trial"",""time""
""fullscreenenter"",""1"",""2500""
","""event"",""trial"",""time""
""fullscreenexit"",""2"",""12079""
","","","1033.699999988079","","","12","13287","5716","&#9789;","elianto","#f73b6a7A"," "," ","1","-10","[1884.7999999970198]","1","0","4","","","","","","","",""
"pit-trial","85","710866","0.0-2.0-17.0-4.0","battery-v0.2","","""event"",""trial"",""time""
""fullscreenenter"",""1"",""2500""
""fullscreenexit"",""2"",""12079""
","
","
","""event"",""trial"",""time""
""fullscreenenter"",""1"",""2500""
","""event"",""trial"",""time""
""fullscreenexit"",""2"",""12079""
","","","637.1000000089407","","","12","13287","5716","&#9789;","elianto","#f73b6a7A"," "," ","1","0","[1488.4000000059605]","1","0","4","","","","","","","",""
"pit-trial","86","714275","0.0-2.0-17.1-0.1","battery-v0.2","","""event"",""trial"",""time""
""fullscreenenter"",""1"",""2500""
""fullscreenexit"",""2"",""12079""
","
","
","""event"",""trial"",""time""
""fullscreenenter"",""1"",""2500""
","""event"",""trial"",""time""
""fullscreenexit"",""2"",""12079""
","","","553.2000000029802","","","12","13287","5716","&#9789;","elianto","#f73b6a7A"," "," ","1","0","[1404.2000000029802]","1","0","4","","","","","","","",""
"pit-trial","87","717775","0.0-2.0-17.1-1.1","battery-v0.2","","""event"",""trial"",""time""
""fullscreenenter"",""1"",""2500""
""fullscreenexit"",""2"",""12079""
","
","
","""event"",""trial"",""time""
""fullscreenenter"",""1"",""2500""
","""event"",""trial"",""time""
""fullscreenexit"",""2"",""12079""
","","","645.7999999970198","","","12","13287","5716","&#9789;","elianto","#f73b6a7A"," "," ","1","0","[1496.4000000059605]","1","0","4","","","","","","","",""
"pit-trial","88","721402","0.0-2.0-17.1-2.1","battery-v0.2","","""event"",""trial"",""time""
""fullscreenenter"",""1"",""2500""
""fullscreenexit"",""2"",""12079""
","
","
","""event"",""trial"",""time""
""fullscreenenter"",""1"",""2500""
","""event"",""trial"",""time""
""fullscreenexit"",""2"",""12079""
","","","768.8999999910593","","","12","13287","5716","&#9789;","elianto","#f73b6a7A"," "," ","1","0","[1622.2999999970198]","1","0","4","","","","","","","",""
"pit-trial","89","724726","0.0-2.0-17.1-3.1","battery-v0.2","","""event"",""trial"",""time""
""fullscreenenter"",""1"",""2500""
""fullscreenexit"",""2"",""12079""
","
","
","""event"",""trial"",""time""
""fullscreenenter"",""1"",""2500""
","""event"",""trial"",""time""
""fullscreenexit"",""2"",""12079""
","","","466.40000000596046","","","12","13287","5716","&#9789;","elianto","#f73b6a7A"," "," ","1","-10","[1317.2999999970198]","1","0","4","","","","","","","",""
"pit-trial","90","728438","0.0-2.0-17.1-4.1","battery-v0.2","","""event"",""trial"",""time""
""fullscreenenter"",""1"",""2500""
""fullscreenexit"",""2"",""12079""
","
","
","""event"",""trial"",""time""
""fullscreenenter"",""1"",""2500""
","""event"",""trial"",""time""
""fullscreenexit"",""2"",""12079""
","","","855.9000000059605","","","12","13287","5716","&#9789;","elianto","#f73b6a7A"," "," ","1","0","[1707.8999999910593]","1","0","4","","","","","","","",""
"pit-trial","91","731905","0.0-2.0-17.2-0.2","battery-v0.2","","""event"",""trial"",""time""
""fullscreenenter"",""1"",""2500""
""fullscreenexit"",""2"",""12079""
","
","
","""event"",""trial"",""time""
""fullscreenenter"",""1"",""2500""
","""event"",""trial"",""time""
""fullscreenexit"",""2"",""12079""
","","","610.7000000029802","","","12","13287","5716","&#9789;","elianto","#f73b6a7A"," "," ","1","0","[1461.7999999970198]","1","0","4","","","","","","","",""
"pit-trial","92","736689","0.0-2.0-17.2-1.2","battery-v0.2","","""event"",""trial"",""time""
""fullscreenenter"",""1"",""2500""
""fullscreenexit"",""2"",""12079""
","
","
","""event"",""trial"",""time""
""fullscreenenter"",""1"",""2500""
","""event"",""trial"",""time""
""fullscreenexit"",""2"",""12079""
","","","1928.9000000059605","","","12","13287","5716","&#9789;","elianto","#f73b6a7A"," "," ","1","0","[2779.7000000029802]","1","0","4","","","","","","","",""
"pit-trial","93","740092","0.0-2.0-17.2-2.2","battery-v0.2","","""event"",""trial"",""time""
""fullscreenenter"",""1"",""2500""
""fullscreenexit"",""2"",""12079""
","
","
","""event"",""trial"",""time""
""fullscreenenter"",""1"",""2500""
","""event"",""trial"",""time""
""fullscreenexit"",""2"",""12079""
","","","548.9000000059605","","","12","13287","5716","&#9789;","elianto","#f73b6a7A"," "," ","1","0","[1400]","1","0","4","","","","","","","",""
"pit-trial","94","743649","0.0-2.0-17.2-3.2","battery-v0.2","","""event"",""trial"",""time""
""fullscreenenter"",""1"",""2500""
""fullscreenexit"",""2"",""12079""
","
","
","""event"",""trial"",""time""
""fullscreenenter"",""1"",""2500""
","""event"",""trial"",""time""
""fullscreenexit"",""2"",""12079""
","","","700","","","12","13287","5716","&#9789;","elianto","#f73b6a7A"," "," ","1","-10","[1553.2999999970198]","1","0","4","","","","","","","",""
"pit-trial","95","747057","0.0-2.0-17.2-4.2","battery-v0.2","","""event"",""trial"",""time""
""fullscreenenter"",""1"",""2500""
""fullscreenexit"",""2"",""12079""
","
","
","""event"",""trial"",""time""
""fullscreenenter"",""1"",""2500""
","""event"",""trial"",""time""
""fullscreenexit"",""2"",""12079""
","","","551.3999999910593","","","12","13287","5716","&#9789;","elianto","#f73b6a7A"," "," ","1","0","[1402.7000000029802]","1","0","4","","","","","","","",""
"pit-trial","96","750913","0.0-2.0-17.3-0.3","battery-v0.2","","""event"",""trial"",""time""
""fullscreenenter"",""1"",""2500""
""fullscreenexit"",""2"",""12079""
","
","
","""event"",""trial"",""time""
""fullscreenenter"",""1"",""2500""
","""event"",""trial"",""time""
""fullscreenexit"",""2"",""12079""
","","","999.7000000029802","","","12","13287","5716","&#9789;","elianto","#f73b6a7A"," "," ","1","0","[1851.4000000059605]","1","0","4","","","","","","","",""
"pit-trial","97","755772","0.0-2.0-17.3-1.3","battery-v0.2","","""event"",""trial"",""time""
""fullscreenenter"",""1"",""2500""
""fullscreenexit"",""2"",""12079""
","
","
","""event"",""trial"",""time""
""fullscreenenter"",""1"",""2500""
","""event"",""trial"",""time""
""fullscreenexit"",""2"",""12079""
","","","-1","","","12","13287","5716","&#9789;","elianto","#f73b6a7A"," ","-1","0","-10","[2922.2999999970198]","1","0","4","","","","","","","",""
"pit-trial","98","759181","0.0-2.0-17.3-2.3","battery-v0.2","","""event"",""trial"",""time""
""fullscreenenter"",""1"",""2500""
""fullscreenexit"",""2"",""12079""
","
","
","""event"",""trial"",""time""
""fullscreenenter"",""1"",""2500""
","""event"",""trial"",""time""
""fullscreenexit"",""2"",""12079""
","","","551.6000000089407","","","12","13287","5716","&#9789;","elianto","#f73b6a7A"," "," ","1","0","[1402.5]","1","0","4","","","","","","","",""
"pit-trial","99","762092","0.0-2.0-17.3-3.3","battery-v0.2","","""event"",""trial"",""time""
""fullscreenenter"",""1"",""2500""
""fullscreenexit"",""2"",""12079""
","
","
","""event"",""trial"",""time""
""fullscreenenter"",""1"",""2500""
","""event"",""trial"",""time""
""fullscreenexit"",""2"",""12079""
","","","54","","","12","13287","5716","&#9789;","elianto","#f73b6a7A"," "," ","1","-10","[904.5]","1","0","4","","","","","","","",""
"pit-trial","100","765735","0.0-2.0-17.3-4.3","battery-v0.2","","""event"",""trial"",""time""
""fullscreenenter"",""1"",""2500""
""fullscreenexit"",""2"",""12079""
","
","
","""event"",""trial"",""time""
""fullscreenenter"",""1"",""2500""
","""event"",""trial"",""time""
""fullscreenexit"",""2"",""12079""
","","","784.4000000059605","","","12","13287","5716","&#9789;","elianto","#f73b6a7A"," "," ","1","0","[1635]","1","0","4","","","","","","","",""
"call-function","101","765737","0.0-2.0-18.0","battery-v0.2","","""event"",""trial"",""time""
""fullscreenenter"",""1"",""2500""
""fullscreenexit"",""2"",""12079""
""blur"",""102"",""771944""
""focus"",""102"",""776148""
","""event"",""trial"",""time""
""blur"",""102"",""771944""
","""event"",""trial"",""time""
""focus"",""102"",""776148""
","""event"",""trial"",""time""
""fullscreenenter"",""1"",""2500""
","""event"",""trial"",""time""
""fullscreenexit"",""2"",""12079""
","","","","","","","","","","","","","","","","","","","","","","","","","","",""
"pit-instructions","102","826456","0.0-2.0-19.0","battery-v0.2","","""event"",""trial"",""time""
""fullscreenenter"",""1"",""2500""
""fullscreenexit"",""2"",""12079""
""blur"",""102"",""771944""
""focus"",""102"",""776148""
""blur"",""103"",""831086""
""focus"",""103"",""833203""
","""event"",""trial"",""time""
""blur"",""102"",""771944""
""blur"",""103"",""831086""
","""event"",""trial"",""time""
""focus"",""102"",""776148""
""focus"",""103"",""833203""
","""event"",""trial"",""time""
""fullscreenenter"",""1"",""2500""
","""event"",""trial"",""time""
""fullscreenexit"",""2"",""12079""
","","[{""page_index"":0,""viewing_time"":6100.4000000059605},{""page_index"":1,""viewing_time"":4546},{""page_index"":2,""viewing_time"":9673.40000000596},{""page_index"":3,""viewing_time"":6785.199999988079},{""page_index"":4,""viewing_time"":7243.70000000298},{""page_index"":5,""viewing_time"":8183.4000000059605},{""page_index"":6,""viewing_time"":8030.29999999702},{""page_index"":7,""viewing_time"":5824.79999999702},{""page_index"":8,""viewing_time"":4329.9000000059605}]","60717.30000001192","","","","","","","","","","","","","","","","","","","","","","","",""
"pit-comprehension","103","836261","0.0-2.0-20.0-0.0","battery-v0.2","","""event"",""trial"",""time""
""fullscreenenter"",""1"",""2500""
""fullscreenexit"",""2"",""12079""
""blur"",""102"",""771944""
""focus"",""102"",""776148""
""blur"",""103"",""831086""
""focus"",""103"",""833203""
","""event"",""trial"",""time""
""blur"",""102"",""771944""
""blur"",""103"",""831086""
","""event"",""trial"",""time""
""focus"",""102"",""776148""
""focus"",""103"",""833203""
","""event"",""trial"",""time""
""fullscreenenter"",""1"",""2500""
","""event"",""trial"",""time""
""fullscreenexit"",""2"",""12079""
","","","9800.09999999404","[""SPACE""]","0","12","13287","5716","","","","","","","","","","","","","","","","","","",""
"pit-instructions","104","839412","0.0-2.0-20.0-1.0","battery-v0.2","","""event"",""trial"",""time""
""fullscreenenter"",""1"",""2500""
""fullscreenexit"",""2"",""12079""
""blur"",""102"",""771944""
""focus"",""102"",""776148""
""blur"",""103"",""831086""
""focus"",""103"",""833203""
","""event"",""trial"",""time""
""blur"",""102"",""771944""
""blur"",""103"",""831086""
","""event"",""trial"",""time""
""focus"",""102"",""776148""
""focus"",""103"",""833203""
","""event"",""trial"",""time""
""fullscreenenter"",""1"",""2500""
","""event"",""trial"",""time""
""fullscreenexit"",""2"",""12079""
","","[{""page_index"":0,""viewing_time"":3100.300000011921}]","3100.9000000059605","","","","","","","","","","","","","","","","","","","","","","","",""
"pit-comprehension","105","846247","0.0-2.0-21.0-0.0","battery-v0.2","","""event"",""trial"",""time""
""fullscreenenter"",""1"",""2500""
""fullscreenexit"",""2"",""12079""
""blur"",""102"",""771944""
""focus"",""102"",""776148""
""blur"",""103"",""831086""
""focus"",""103"",""833203""
","""event"",""trial"",""time""
""blur"",""102"",""771944""
""blur"",""103"",""831086""
","""event"",""trial"",""time""
""focus"",""102"",""776148""
""focus"",""103"",""833203""
","""event"",""trial"",""time""
""fullscreenenter"",""1"",""2500""
","""event"",""trial"",""time""
""fullscreenexit"",""2"",""12079""
","","","6828.79999999702","[""10""]","0","12","13287","5716","","","","","","","","","","","","","","","","","","",""
"pit-instructions","106","847912","0.0-2.0-21.0-1.0","battery-v0.2","","""event"",""trial"",""time""
""fullscreenenter"",""1"",""2500""
""fullscreenexit"",""2"",""12079""
""blur"",""102"",""771944""
""focus"",""102"",""776148""
""blur"",""103"",""831086""
""focus"",""103"",""833203""
","""event"",""trial"",""time""
""blur"",""102"",""771944""
""blur"",""103"",""831086""
","""event"",""trial"",""time""
""focus"",""102"",""776148""
""focus"",""103"",""833203""
","""event"",""trial"",""time""
""fullscreenenter"",""1"",""2500""
","""event"",""trial"",""time""
""fullscreenexit"",""2"",""12079""
","","[{""page_index"":0,""viewing_time"":1611}]","1611.5","","","","","","","","","","","","","","","","","","","","","","","",""
"pit-comprehension","107","854645","0.0-2.0-22.0-0.0","battery-v0.2","","""event"",""trial"",""time""
""fullscreenenter"",""1"",""2500""
""fullscreenexit"",""2"",""12079""
""blur"",""102"",""771944""
""focus"",""102"",""776148""
""blur"",""103"",""831086""
""focus"",""103"",""833203""
","""event"",""trial"",""time""
""blur"",""102"",""771944""
""blur"",""103"",""831086""
","""event"",""trial"",""time""
""focus"",""102"",""776148""
""focus"",""103"",""833203""
","""event"",""trial"",""time""
""fullscreenenter"",""1"",""2500""
","""event"",""trial"",""time""
""fullscreenexit"",""2"",""12079""
","","","6728.20000000298","[""0""]","0","12","13287","5716","","","","","","","","","","","","","","","","","","",""
"pit-instructions","108","856384","0.0-2.0-22.0-1.0","battery-v0.2","","""event"",""trial"",""time""
""fullscreenenter"",""1"",""2500""
""fullscreenexit"",""2"",""12079""
""blur"",""102"",""771944""
""focus"",""102"",""776148""
""blur"",""103"",""831086""
""focus"",""103"",""833203""
","""event"",""trial"",""time""
""blur"",""102"",""771944""
""blur"",""103"",""831086""
","""event"",""trial"",""time""
""focus"",""102"",""776148""
""focus"",""103"",""833203""
","""event"",""trial"",""time""
""fullscreenenter"",""1"",""2500""
","""event"",""trial"",""time""
""fullscreenexit"",""2"",""12079""
","","[{""page_index"":0,""viewing_time"":1680.9000000059605}]","1681.2999999970198","","","","","","","","","","","","","","","","","","","","","","","",""
"pit-comprehension","109","868646","0.0-2.0-23.0-0.0","battery-v0.2","","""event"",""trial"",""time""
""fullscreenenter"",""1"",""2500""
""fullscreenexit"",""2"",""12079""
""blur"",""102"",""771944""
""focus"",""102"",""776148""
""blur"",""103"",""831086""
""focus"",""103"",""833203""
","""event"",""trial"",""time""
""blur"",""102"",""771944""
""blur"",""103"",""831086""
","""event"",""trial"",""time""
""focus"",""102"",""776148""
""focus"",""103"",""833203""
","""event"",""trial"",""time""
""fullscreenenter"",""1"",""2500""
","""event"",""trial"",""time""
""fullscreenexit"",""2"",""12079""
","","","12255.79999999702","[""True""]","0","12","13287","5716","","","","","","","","","","","","","","","","","","",""
"pit-instructions","110","870122","0.0-2.0-23.0-1.0","battery-v0.2","","""event"",""trial"",""time""
""fullscreenenter"",""1"",""2500""
""fullscreenexit"",""2"",""12079""
""blur"",""102"",""771944""
""focus"",""102"",""776148""
""blur"",""103"",""831086""
""focus"",""103"",""833203""
","""event"",""trial"",""time""
""blur"",""102"",""771944""
""blur"",""103"",""831086""
","""event"",""trial"",""time""
""focus"",""102"",""776148""
""focus"",""103"",""833203""
","""event"",""trial"",""time""
""fullscreenenter"",""1"",""2500""
","""event"",""trial"",""time""
""fullscreenexit"",""2"",""12079""
","","[{""page_index"":0,""viewing_time"":1425}]","1425.5","","","","","","","","","","","","","","","","","","","","","","","",""
"pit-comprehension","111","879548","0.0-2.0-24.0-0.0","battery-v0.2","","""event"",""trial"",""time""
""fullscreenenter"",""1"",""2500""
""fullscreenexit"",""2"",""12079""
""blur"",""102"",""771944""
""focus"",""102"",""776148""
""blur"",""103"",""831086""
""focus"",""103"",""833203""
","""event"",""trial"",""time""
""blur"",""102"",""771944""
""blur"",""103"",""831086""
","""event"",""trial"",""time""
""focus"",""102"",""776148""
""focus"",""103"",""833203""
","""event"",""trial"",""time""
""fullscreenenter"",""1"",""2500""
","""event"",""trial"",""time""
""fullscreenexit"",""2"",""12079""
","","","9420.20000000298","[""True""]","0","12","13287","5716","","","","","","","","","","","","","","","","","","",""
"pit-instructions","112","880769","0.0-2.0-24.0-1.0","battery-v0.2","","""event"",""trial"",""time""
""fullscreenenter"",""1"",""2500""
""fullscreenexit"",""2"",""12079""
""blur"",""102"",""771944""
""focus"",""102"",""776148""
""blur"",""103"",""831086""
""focus"",""103"",""833203""
","""event"",""trial"",""time""
""blur"",""102"",""771944""
""blur"",""103"",""831086""
","""event"",""trial"",""time""
""focus"",""102"",""776148""
""focus"",""103"",""833203""
","""event"",""trial"",""time""
""fullscreenenter"",""1"",""2500""
","""event"",""trial"",""time""
""fullscreenexit"",""2"",""12079""
","","[{""page_index"":0,""viewing_time"":1170}]","1170.300000011921","","","","","","","","","","","","","","","","","","","","","","","",""
"pit-comprehension","113","887085","0.0-2.0-25.0-0.0","battery-v0.2","","""event"",""trial"",""time""
""fullscreenenter"",""1"",""2500""
""fullscreenexit"",""2"",""12079""
""blur"",""102"",""771944""
""focus"",""102"",""776148""
""blur"",""103"",""831086""
""focus"",""103"",""833203""
","""event"",""trial"",""time""
""blur"",""102"",""771944""
""blur"",""103"",""831086""
","""event"",""trial"",""time""
""focus"",""102"",""776148""
""focus"",""103"",""833203""
","""event"",""trial"",""time""
""fullscreenenter"",""1"",""2500""
","""event"",""trial"",""time""
""fullscreenexit"",""2"",""12079""
","","","6309","[""True""]","0","12","13287","5716","","","","","","","","","","","","","","","","","","",""
"pit-instructions","114","888427","0.0-2.0-25.0-1.0","battery-v0.2","","""event"",""trial"",""time""
""fullscreenenter"",""1"",""2500""
""fullscreenexit"",""2"",""12079""
""blur"",""102"",""771944""
""focus"",""102"",""776148""
""blur"",""103"",""831086""
""focus"",""103"",""833203""
","""event"",""trial"",""time""
""blur"",""102"",""771944""
""blur"",""103"",""831086""
","""event"",""trial"",""time""
""focus"",""102"",""776148""
""focus"",""103"",""833203""
","""event"",""trial"",""time""
""fullscreenenter"",""1"",""2500""
","""event"",""trial"",""time""
""fullscreenexit"",""2"",""12079""
","","[{""page_index"":0,""viewing_time"":1286.5}]","1286.7999999970198","","","","","","","","","","","","","","","","","","","","","","","",""
"pit-comprehension","115","893643","0.0-2.0-26.0-0.0","battery-v0.2","","""event"",""trial"",""time""
""fullscreenenter"",""1"",""2500""
""fullscreenexit"",""2"",""12079""
""blur"",""102"",""771944""
""focus"",""102"",""776148""
""blur"",""103"",""831086""
""focus"",""103"",""833203""
","""event"",""trial"",""time""
""blur"",""102"",""771944""
""blur"",""103"",""831086""
","""event"",""trial"",""time""
""focus"",""102"",""776148""
""focus"",""103"",""833203""
","""event"",""trial"",""time""
""fullscreenenter"",""1"",""2500""
","""event"",""trial"",""time""
""fullscreenexit"",""2"",""12079""
","","","5210.899999991059","[""False""]","0","12","13287","5716","","","","","","","","","","","","","","","","","","",""
"pit-instructions","116","895028","0.0-2.0-26.0-1.0","battery-v0.2","","""event"",""trial"",""time""
""fullscreenenter"",""1"",""2500""
""fullscreenexit"",""2"",""12079""
""blur"",""102"",""771944""
""focus"",""102"",""776148""
""blur"",""103"",""831086""
""focus"",""103"",""833203""
""blur"",""117"",""904658""
""focus"",""117"",""905377""
","""event"",""trial"",""time""
""blur"",""102"",""771944""
""blur"",""103"",""831086""
""blur"",""117"",""904658""
","""event"",""trial"",""time""
""focus"",""102"",""776148""
""focus"",""103"",""833203""
""focus"",""117"",""905377""
","""event"",""trial"",""time""
""fullscreenenter"",""1"",""2500""
","""event"",""trial"",""time""
""fullscreenexit"",""2"",""12079""
","","[{""page_index"":0,""viewing_time"":1332.9000000059605}]","1333.0999999940395","","","","","","","","","","","","","","","","","","","","","","","",""
"pit-instructions","117","911867","0.0-3.0","battery-v0.2","","""event"",""trial"",""time""
""fullscreenenter"",""1"",""2500""
""fullscreenexit"",""2"",""12079""
""blur"",""102"",""771944""
""focus"",""102"",""776148""
""blur"",""103"",""831086""
""focus"",""103"",""833203""
""blur"",""117"",""904658""
""focus"",""117"",""905377""
","""event"",""trial"",""time""
""blur"",""102"",""771944""
""blur"",""103"",""831086""
""blur"",""117"",""904658""
","""event"",""trial"",""time""
""focus"",""102"",""776148""
""focus"",""103"",""833203""
""focus"",""117"",""905377""
","""event"",""trial"",""time""
""fullscreenenter"",""1"",""2500""
","""event"",""trial"",""time""
""fullscreenexit"",""2"",""12079""
","","[{""page_index"":0,""viewing_time"":4477.5},{""page_index"":1,""viewing_time"":6145.399999991059},{""page_index"":2,""viewing_time"":6212.300000011921}]","16835.70000000298","","","","","","","","","","","","","","","","","","","","","","","",""
"pit-trial","118","915404","0.0-4.0","battery-v0.2","","""event"",""trial"",""time""
""fullscreenenter"",""1"",""2500""
""fullscreenexit"",""2"",""12079""
""blur"",""102"",""771944""
""focus"",""102"",""776148""
""blur"",""103"",""831086""
""focus"",""103"",""833203""
""blur"",""117"",""904658""
""focus"",""117"",""905377""
","""event"",""trial"",""time""
""blur"",""102"",""771944""
""blur"",""103"",""831086""
""blur"",""117"",""904658""
","""event"",""trial"",""time""
""focus"",""102"",""776148""
""focus"",""103"",""833203""
""focus"",""117"",""905377""
","""event"",""trial"",""time""
""fullscreenenter"",""1"",""2500""
","""event"",""trial"",""time""
""fullscreenexit"",""2"",""12079""
","","","674.6000000089407","","","12","13287","5716","&#9730;","elianto","#3366ff99"," "," ","1","+10","[1526.0999999940395]","1","1","","","13287","1","1","1","win","go","0"
"pit-trial","119","920263","0.0-5.0","battery-v0.2","","""event"",""trial"",""time""
""fullscreenenter"",""1"",""2500""
""fullscreenexit"",""2"",""12079""
""blur"",""102"",""771944""
""focus"",""102"",""776148""
""blur"",""103"",""831086""
""focus"",""103"",""833203""
""blur"",""117"",""904658""
""focus"",""117"",""905377""
","""event"",""trial"",""time""
""blur"",""102"",""771944""
""blur"",""103"",""831086""
""blur"",""117"",""904658""
","""event"",""trial"",""time""
""focus"",""102"",""776148""
""focus"",""103"",""833203""
""focus"",""117"",""905377""
","""event"",""trial"",""time""
""fullscreenenter"",""1"",""2500""
","""event"",""trial"",""time""
""fullscreenexit"",""2"",""12079""
","","","-1","","","12","13287","5716","&#9752;","elianto","#f73b6a7A"," ","-1","0","-10","[]","0","1","","","13287","2","3","3","lose","go","0"
"pit-trial","120","925121","0.0-6.0","battery-v0.2","","""event"",""trial"",""time""
""fullscreenenter"",""1"",""2500""
""fullscreenexit"",""2"",""12079""
""blur"",""102"",""771944""
""focus"",""102"",""776148""
""blur"",""103"",""831086""
""focus"",""103"",""833203""
""blur"",""117"",""904658""
""focus"",""117"",""905377""
","""event"",""trial"",""time""
""blur"",""102"",""771944""
""blur"",""103"",""831086""
""blur"",""117"",""904658""
","""event"",""trial"",""time""
""focus"",""102"",""776148""
""focus"",""103"",""833203""
""focus"",""117"",""905377""
","""event"",""trial"",""time""
""fullscreenenter"",""1"",""2500""
","""event"",""trial"",""time""
""fullscreenexit"",""2"",""12079""
","","","-1","","","12","13287","5716","&#9728;","elianto","#f73b6a7A","-1","-1","1","-10","[]","0","1","","","13287","3","0","4","lose","no-go","1"
"pit-trial","121","928599","0.0-7.0","battery-v0.2","","""event"",""trial"",""time""
""fullscreenenter"",""1"",""2500""
""fullscreenexit"",""2"",""12079""
""blur"",""102"",""771944""
""focus"",""102"",""776148""
""blur"",""103"",""831086""
""focus"",""103"",""833203""
""blur"",""117"",""904658""
""focus"",""117"",""905377""
","""event"",""trial"",""time""
""blur"",""102"",""771944""
""blur"",""103"",""831086""
""blur"",""117"",""904658""
","""event"",""trial"",""time""
""focus"",""102"",""776148""
""focus"",""103"",""833203""
""focus"",""117"",""905377""
","""event"",""trial"",""time""
""fullscreenenter"",""1"",""2500""
","""event"",""trial"",""time""
""fullscreenexit"",""2"",""12079""
","","","619.9000000059605","","","12","13287","5716","&#9733;","elianto","#3366ff99","-1"," ","0","+10","[1470.800000011921]","1","1","","","13287","4","2","2","win","no-go","1"
"pit-trial","122","931526","0.0-8.0","battery-v0.2","","""event"",""trial"",""time""
""fullscreenenter"",""1"",""2500""
""fullscreenexit"",""2"",""12079""
""blur"",""102"",""771944""
""focus"",""102"",""776148""
""blur"",""103"",""831086""
""focus"",""103"",""833203""
""blur"",""117"",""904658""
""focus"",""117"",""905377""
","""event"",""trial"",""time""
""blur"",""102"",""771944""
""blur"",""103"",""831086""
""blur"",""117"",""904658""
","""event"",""trial"",""time""
""focus"",""102"",""776148""
""focus"",""103"",""833203""
""focus"",""117"",""905377""
","""event"",""trial"",""time""
""fullscreenenter"",""1"",""2500""
","""event"",""trial"",""time""
""fullscreenexit"",""2"",""12079""
","","","73.5","","","12","13287","5716","&#9730;","elianto","#3366ff99"," "," ","1","+10","[924.2999999970198,1455]","2","1","","","13287","5","1","1","win","go","0"
"pit-trial","123","934796","0.0-9.0","battery-v0.2","","""event"",""trial"",""time""
""fullscreenenter"",""1"",""2500""
""fullscreenexit"",""2"",""12079""
""blur"",""102"",""771944""
""focus"",""102"",""776148""
""blur"",""103"",""831086""
""focus"",""103"",""833203""
""blur"",""117"",""904658""
""focus"",""117"",""905377""
","""event"",""trial"",""time""
""blur"",""102"",""771944""
""blur"",""103"",""831086""
""blur"",""117"",""904658""
","""event"",""trial"",""time""
""focus"",""102"",""776148""
""focus"",""103"",""833203""
""focus"",""117"",""905377""
","""event"",""trial"",""time""
""fullscreenenter"",""1"",""2500""
","""event"",""trial"",""time""
""fullscreenexit"",""2"",""12079""
","","","411.3999999910593","","","12","13287","5716","&#9728;","elianto","#f73b6a7A","-1"," ","0","-10","[1262.9000000059605,3124.5]","2","1","","","13287","6","0","4","lose","no-go","0"
"pit-trial","124","938055","0.0-10.0","battery-v0.2","","""event"",""trial"",""time""
""fullscreenenter"",""1"",""2500""
""fullscreenexit"",""2"",""12079""
""blur"",""102"",""771944""
""focus"",""102"",""776148""
""blur"",""103"",""831086""
""focus"",""103"",""833203""
""blur"",""117"",""904658""
""focus"",""117"",""905377""
","""event"",""trial"",""time""
""blur"",""102"",""771944""
""blur"",""103"",""831086""
""blur"",""117"",""904658""
","""event"",""trial"",""time""
""focus"",""102"",""776148""
""focus"",""103"",""833203""
""focus"",""117"",""905377""
","""event"",""trial"",""time""
""fullscreenenter"",""1"",""2500""
","""event"",""trial"",""time""
""fullscreenexit"",""2"",""12079""
","","","402.09999999403954","","","12","13287","5716","&#9752;","elianto","#f73b6a7A"," "," ","1","0","[1254.6000000089407]","1","1","","","13287","7","3","3","lose","go","0"
"pit-trial","125","941692","0.0-11.0","battery-v0.2","","""event"",""trial"",""time""
""fullscreenenter"",""1"",""2500""
""fullscreenexit"",""2"",""12079""
""blur"",""102"",""771944""
""focus"",""102"",""776148""
""blur"",""103"",""831086""
""focus"",""103"",""833203""
""blur"",""117"",""904658""
""focus"",""117"",""905377""
","""event"",""trial"",""time""
""blur"",""102"",""771944""
""blur"",""103"",""831086""
""blur"",""117"",""904658""
","""event"",""trial"",""time""
""focus"",""102"",""776148""
""focus"",""103"",""833203""
""focus"",""117"",""905377""
","""event"",""trial"",""time""
""fullscreenenter"",""1"",""2500""
","""event"",""trial"",""time""
""fullscreenexit"",""2"",""12079""
","","","779.5999999940395","","","12","13287","5716","&#9733;","elianto","#3366ff99","-1"," ","0","0","[1630.0999999940395]","1","1","","","13287","8","2","2","win","no-go","0"
"pit-trial","126","945779","0.0-12.0","battery-v0.2","","""event"",""trial"",""time""
""fullscreenenter"",""1"",""2500""
""fullscreenexit"",""2"",""12079""
""blur"",""102"",""771944""
""focus"",""102"",""776148""
""blur"",""103"",""831086""
""focus"",""103"",""833203""
""blur"",""117"",""904658""
""focus"",""117"",""905377""
","""event"",""trial"",""time""
""blur"",""102"",""771944""
""blur"",""103"",""831086""
""blur"",""117"",""904658""
","""event"",""trial"",""time""
""focus"",""102"",""776148""
""focus"",""103"",""833203""
""focus"",""117"",""905377""
","""event"",""trial"",""time""
""fullscreenenter"",""1"",""2500""
","""event"",""trial"",""time""
""fullscreenexit"",""2"",""12079""
","","","1228","","","12","13287","5716","&#9752;","elianto","#f73b6a7A"," "," ","1","0","[2080.2999999970198]","1","1","","","13287","9","3","3","lose","go","0"
"pit-trial","127","950638","0.0-13.0","battery-v0.2","","""event"",""trial"",""time""
""fullscreenenter"",""1"",""2500""
""fullscreenexit"",""2"",""12079""
""blur"",""102"",""771944""
""focus"",""102"",""776148""
""blur"",""103"",""831086""
""focus"",""103"",""833203""
""blur"",""117"",""904658""
""focus"",""117"",""905377""
","""event"",""trial"",""time""
""blur"",""102"",""771944""
""blur"",""103"",""831086""
""blur"",""117"",""904658""
","""event"",""trial"",""time""
""focus"",""102"",""776148""
""focus"",""103"",""833203""
""focus"",""117"",""905377""
","""event"",""trial"",""time""
""fullscreenenter"",""1"",""2500""
","""event"",""trial"",""time""
""fullscreenexit"",""2"",""12079""
","","","-1","","","12","13287","5716","&#9733;","elianto","#3366ff99","-1","-1","1","+10","[]","0","1","","","13287","10","2","2","win","no-go","0"
"pit-trial","128","955497","0.0-14.0","battery-v0.2","","""event"",""trial"",""time""
""fullscreenenter"",""1"",""2500""
""fullscreenexit"",""2"",""12079""
""blur"",""102"",""771944""
""focus"",""102"",""776148""
""blur"",""103"",""831086""
""focus"",""103"",""833203""
""blur"",""117"",""904658""
""focus"",""117"",""905377""
","""event"",""trial"",""time""
""blur"",""102"",""771944""
""blur"",""103"",""831086""
""blur"",""117"",""904658""
","""event"",""trial"",""time""
""focus"",""102"",""776148""
""focus"",""103"",""833203""
""focus"",""117"",""905377""
","""event"",""trial"",""time""
""fullscreenenter"",""1"",""2500""
","""event"",""trial"",""time""
""fullscreenexit"",""2"",""12079""
","","","-1","","","12","13287","5716","&#9728;","elianto","#f73b6a7A","-1","-1","1","-10","[]","0","1","","","13287","11","0","4","lose","no-go","1"
"pit-trial","129","959625","0.0-15.0","battery-v0.2","","""event"",""trial"",""time""
""fullscreenenter"",""1"",""2500""
""fullscreenexit"",""2"",""12079""
""blur"",""102"",""771944""
""focus"",""102"",""776148""
""blur"",""103"",""831086""
""focus"",""103"",""833203""
""blur"",""117"",""904658""
""focus"",""117"",""905377""
","""event"",""trial"",""time""
""blur"",""102"",""771944""
""blur"",""103"",""831086""
""blur"",""117"",""904658""
","""event"",""trial"",""time""
""focus"",""102"",""776148""
""focus"",""103"",""833203""
""focus"",""117"",""905377""
","""event"",""trial"",""time""
""fullscreenenter"",""1"",""2500""
","""event"",""trial"",""time""
""fullscreenexit"",""2"",""12079""
","","","1271.9000000059605","","","12","13287","5716","&#9730;","elianto","#3366ff99"," "," ","1","0","[2123.1000000089407]","1","1","","","13287","12","1","1","win","go","1"
"pit-trial","130","963363","0.0-16.0","battery-v0.2","","""event"",""trial"",""time""
""fullscreenenter"",""1"",""2500""
""fullscreenexit"",""2"",""12079""
""blur"",""102"",""771944""
""focus"",""102"",""776148""
""blur"",""103"",""831086""
""focus"",""103"",""833203""
""blur"",""117"",""904658""
""focus"",""117"",""905377""
","""event"",""trial"",""time""
""blur"",""102"",""771944""
""blur"",""103"",""831086""
""blur"",""117"",""904658""
","""event"",""trial"",""time""
""focus"",""102"",""776148""
""focus"",""103"",""833203""
""focus"",""117"",""905377""
","""event"",""trial"",""time""
""fullscreenenter"",""1"",""2500""
","""event"",""trial"",""time""
""fullscreenexit"",""2"",""12079""
","","","882.5","","","12","13287","5716","&#9730;","elianto","#3366ff99"," "," ","1","0","[1733.2999999970198]","1","1","","","13287","13","1","1","win","go","1"
"pit-trial","131","968222","0.0-17.0","battery-v0.2","","""event"",""trial"",""time""
""fullscreenenter"",""1"",""2500""
""fullscreenexit"",""2"",""12079""
""blur"",""102"",""771944""
""focus"",""102"",""776148""
""blur"",""103"",""831086""
""focus"",""103"",""833203""
""blur"",""117"",""904658""
""focus"",""117"",""905377""
","""event"",""trial"",""time""
""blur"",""102"",""771944""
""blur"",""103"",""831086""
""blur"",""117"",""904658""
","""event"",""trial"",""time""
""focus"",""102"",""776148""
""focus"",""103"",""833203""
""focus"",""117"",""905377""
","""event"",""trial"",""time""
""fullscreenenter"",""1"",""2500""
","""event"",""trial"",""time""
""fullscreenexit"",""2"",""12079""
","","","-1","","","12","13287","5716","&#9733;","elianto","#3366ff99","-1","-1","1","0","[]","0","1","","","13287","14","2","2","win","no-go","1"
"pit-trial","132","971784","0.0-18.0","battery-v0.2","","""event"",""trial"",""time""
""fullscreenenter"",""1"",""2500""
""fullscreenexit"",""2"",""12079""
""blur"",""102"",""771944""
""focus"",""102"",""776148""
""blur"",""103"",""831086""
""focus"",""103"",""833203""
""blur"",""117"",""904658""
""focus"",""117"",""905377""
","""event"",""trial"",""time""
""blur"",""102"",""771944""
""blur"",""103"",""831086""
""blur"",""117"",""904658""
","""event"",""trial"",""time""
""focus"",""102"",""776148""
""focus"",""103"",""833203""
""focus"",""117"",""905377""
","""event"",""trial"",""time""
""fullscreenenter"",""1"",""2500""
","""event"",""trial"",""time""
""fullscreenexit"",""2"",""12079""
","","","702.7000000029802","","","12","13287","5716","&#9752;","elianto","#f73b6a7A"," "," ","1","0","[1554.2000000029802]","1","1","","","13287","15","3","3","lose","go","0"
"pit-trial","133","976344","0.0-19.0","battery-v0.2","","""event"",""trial"",""time""
""fullscreenenter"",""1"",""2500""
""fullscreenexit"",""2"",""12079""
""blur"",""102"",""771944""
""focus"",""102"",""776148""
""blur"",""103"",""831086""
""focus"",""103"",""833203""
""blur"",""117"",""904658""
""focus"",""117"",""905377""
","""event"",""trial"",""time""
""blur"",""102"",""771944""
""blur"",""103"",""831086""
""blur"",""117"",""904658""
","""event"",""trial"",""time""
""focus"",""102"",""776148""
""focus"",""103"",""833203""
""focus"",""117"",""905377""
","""event"",""trial"",""time""
""fullscreenenter"",""1"",""2500""
","""event"",""trial"",""time""
""fullscreenexit"",""2"",""12079""
","","","1703.2000000029802","","","12","13287","5716","&#9728;","elianto","#f73b6a7A","-1"," ","0","-10","[2554.8999999910593]","1","1","","","13287","16","0","4","lose","no-go","0"
"pit-trial","134","980266","0.0-20.0","battery-v0.2","","""event"",""trial"",""time""
""fullscreenenter"",""1"",""2500""
""fullscreenexit"",""2"",""12079""
""blur"",""102"",""771944""
""focus"",""102"",""776148""
""blur"",""103"",""831086""
""focus"",""103"",""833203""
""blur"",""117"",""904658""
""focus"",""117"",""905377""
","""event"",""trial"",""time""
""blur"",""102"",""771944""
""blur"",""103"",""831086""
""blur"",""117"",""904658""
","""event"",""trial"",""time""
""focus"",""102"",""776148""
""focus"",""103"",""833203""
""focus"",""117"",""905377""
","""event"",""trial"",""time""
""fullscreenenter"",""1"",""2500""
","""event"",""trial"",""time""
""fullscreenexit"",""2"",""12079""
","","","1063.5","","","12","13287","5716","&#9730;","elianto","#3366ff99"," "," ","1","+10","[1914.4000000059605]","1","1","","","13287","17","1","1","win","go","0"
"pit-trial","135","983600","0.0-21.0","battery-v0.2","","""event"",""trial"",""time""
""fullscreenenter"",""1"",""2500""
""fullscreenexit"",""2"",""12079""
""blur"",""102"",""771944""
""focus"",""102"",""776148""
""blur"",""103"",""831086""
""focus"",""103"",""833203""
""blur"",""117"",""904658""
""focus"",""117"",""905377""
","""event"",""trial"",""time""
""blur"",""102"",""771944""
""blur"",""103"",""831086""
""blur"",""117"",""904658""
","""event"",""trial"",""time""
""focus"",""102"",""776148""
""focus"",""103"",""833203""
""focus"",""117"",""905377""
","""event"",""trial"",""time""
""fullscreenenter"",""1"",""2500""
","""event"",""trial"",""time""
""fullscreenexit"",""2"",""12079""
","","","476.79999999701977","","","12","13287","5716","&#9733;","elianto","#3366ff99","-1"," ","0","0","[1327.7000000029802,2464.2000000029802,2759.5,3034.0999999940395,3300.3999999910593]","5","1","","","13287","18","2","2","win","no-go","0"
"pit-trial","136","987540","0.0-22.0","battery-v0.2","","""event"",""trial"",""time""
""fullscreenenter"",""1"",""2500""
""fullscreenexit"",""2"",""12079""
""blur"",""102"",""771944""
""focus"",""102"",""776148""
""blur"",""103"",""831086""
""focus"",""103"",""833203""
""blur"",""117"",""904658""
""focus"",""117"",""905377""
","""event"",""trial"",""time""
""blur"",""102"",""771944""
""blur"",""103"",""831086""
""blur"",""117"",""904658""
","""event"",""trial"",""time""
""focus"",""102"",""776148""
""focus"",""103"",""833203""
""focus"",""117"",""905377""
","""event"",""trial"",""time""
""fullscreenenter"",""1"",""2500""
","""event"",""trial"",""time""
""fullscreenexit"",""2"",""12079""
","","","1082.300000011921","","","12","13287","5716","&#9728;","elianto","#f73b6a7A","-1"," ","0","-10","[234.29999999701977,494.19999998807907,1933]","3","1","","","13287","19","0","4","lose","no-go","0"
"pit-trial","137","991054","0.0-23.0","battery-v0.2","","""event"",""trial"",""time""
""fullscreenenter"",""1"",""2500""
""fullscreenexit"",""2"",""12079""
""blur"",""102"",""771944""
""focus"",""102"",""776148""
""blur"",""103"",""831086""
""focus"",""103"",""833203""
""blur"",""117"",""904658""
""focus"",""117"",""905377""
""blur"",""138"",""996993""
""focus"",""138"",""1077270""
","""event"",""trial"",""time""
""blur"",""102"",""771944""
""blur"",""103"",""831086""
""blur"",""117"",""904658""
""blur"",""138"",""996993""
","""event"",""trial"",""time""
""focus"",""102"",""776148""
""focus"",""103"",""833203""
""focus"",""117"",""905377""
""focus"",""138"",""1077270""
","""event"",""trial"",""time""
""fullscreenenter"",""1"",""2500""
","""event"",""trial"",""time""
""fullscreenexit"",""2"",""12079""
","","","655.7999999970198","","","12","13287","5716","&#9752;","elianto","#f73b6a7A"," "," ","1","0","[1507]","1","1","","","13287","20","3","3","lose","go","0"
"pit-instructions","138","1077377","0.0-24.0","battery-v0.2","","""event"",""trial"",""time""
""fullscreenenter"",""1"",""2500""
""fullscreenexit"",""2"",""12079""
""blur"",""102"",""771944""
""focus"",""102"",""776148""
""blur"",""103"",""831086""
""focus"",""103"",""833203""
""blur"",""117"",""904658""
""focus"",""117"",""905377""
""blur"",""138"",""996993""
""focus"",""138"",""1077270""
","""event"",""trial"",""time""
""blur"",""102"",""771944""
""blur"",""103"",""831086""
""blur"",""117"",""904658""
""blur"",""138"",""996993""
","""event"",""trial"",""time""
""focus"",""102"",""776148""
""focus"",""103"",""833203""
""focus"",""117"",""905377""
""focus"",""138"",""1077270""
","""event"",""trial"",""time""
""fullscreenenter"",""1"",""2500""
","""event"",""trial"",""time""
""fullscreenexit"",""2"",""12079""
","","[{""page_index"":0,""viewing_time"":5739.79999999702},{""page_index"":1,""viewing_time"":80579.60000000894}]","86320.20000000298","","","","","","","","","","","","","","","","","","","","","","","",""
"pit-trial","139","1081213","0.0-25.0","battery-v0.2","","""event"",""trial"",""time""
""fullscreenenter"",""1"",""2500""
""fullscreenexit"",""2"",""12079""
""blur"",""102"",""771944""
""focus"",""102"",""776148""
""blur"",""103"",""831086""
""focus"",""103"",""833203""
""blur"",""117"",""904658""
""focus"",""117"",""905377""
""blur"",""138"",""996993""
""focus"",""138"",""1077270""
","""event"",""trial"",""time""
""blur"",""102"",""771944""
""blur"",""103"",""831086""
""blur"",""117"",""904658""
""blur"",""138"",""996993""
","""event"",""trial"",""time""
""focus"",""102"",""776148""
""focus"",""103"",""833203""
""focus"",""117"",""905377""
""focus"",""138"",""1077270""
","""event"",""trial"",""time""
""fullscreenenter"",""1"",""2500""
","""event"",""trial"",""time""
""fullscreenexit"",""2"",""12079""
","","","974.5999999940395","","","12","13287","5716","y","elianto","#f73b6a7A","-1"," ","0","-10","[1826.199999988079]","1","2","","","13287","21","2","4","lose","no-go","0"
"pit-trial","140","1084845","0.0-26.0","battery-v0.2","","""event"",""trial"",""time""
""fullscreenenter"",""1"",""2500""
""fullscreenexit"",""2"",""12079""
""blur"",""102"",""771944""
""focus"",""102"",""776148""
""blur"",""103"",""831086""
""focus"",""103"",""833203""
""blur"",""117"",""904658""
""focus"",""117"",""905377""
""blur"",""138"",""996993""
""focus"",""138"",""1077270""
","""event"",""trial"",""time""
""blur"",""102"",""771944""
""blur"",""103"",""831086""
""blur"",""117"",""904658""
""blur"",""138"",""996993""
","""event"",""trial"",""time""
""focus"",""102"",""776148""
""focus"",""103"",""833203""
""focus"",""117"",""905377""
""focus"",""138"",""1077270""
","""event"",""trial"",""time""
""fullscreenenter"",""1"",""2500""
","""event"",""trial"",""time""
""fullscreenexit"",""2"",""12079""
","","","777","","","12","13287","5716","r","elianto","#3366ff99"," "," ","1","+10","[1627.3999999910593]","1","2","","","13287","22","1","1","win","go","0"
"pit-trial","141","1089703","0.0-27.0","battery-v0.2","","""event"",""trial"",""time""
""fullscreenenter"",""1"",""2500""
""fullscreenexit"",""2"",""12079""
""blur"",""102"",""771944""
""focus"",""102"",""776148""
""blur"",""103"",""831086""
""focus"",""103"",""833203""
""blur"",""117"",""904658""
""focus"",""117"",""905377""
""blur"",""138"",""996993""
""focus"",""138"",""1077270""
","""event"",""trial"",""time""
""blur"",""102"",""771944""
""blur"",""103"",""831086""
""blur"",""117"",""904658""
""blur"",""138"",""996993""
","""event"",""trial"",""time""
""focus"",""102"",""776148""
""focus"",""103"",""833203""
""focus"",""117"",""905377""
""focus"",""138"",""1077270""
","""event"",""trial"",""time""
""fullscreenenter"",""1"",""2500""
","""event"",""trial"",""time""
""fullscreenexit"",""2"",""12079""
","","","-1","","","12","13287","5716","h","elianto","#f73b6a7A"," ","-1","0","-10","[]","0","2","","","13287","23","3","3","lose","go","0"
"pit-trial","142","1094562","0.0-28.0","battery-v0.2","","""event"",""trial"",""time""
""fullscreenenter"",""1"",""2500""
""fullscreenexit"",""2"",""12079""
""blur"",""102"",""771944""
""focus"",""102"",""776148""
""blur"",""103"",""831086""
""focus"",""103"",""833203""
""blur"",""117"",""904658""
""focus"",""117"",""905377""
""blur"",""138"",""996993""
""focus"",""138"",""1077270""
","""event"",""trial"",""time""
""blur"",""102"",""771944""
""blur"",""103"",""831086""
""blur"",""117"",""904658""
""blur"",""138"",""996993""
","""event"",""trial"",""time""
""focus"",""102"",""776148""
""focus"",""103"",""833203""
""focus"",""117"",""905377""
""focus"",""138"",""1077270""
","""event"",""trial"",""time""
""fullscreenenter"",""1"",""2500""
","""event"",""trial"",""time""
""fullscreenexit"",""2"",""12079""
","","","-1","","","12","13287","5716","m","elianto","#f73b6a7A","-1","-1","1","0","[]","0","2","","","13287","24","0","4","lose","no-go","0"
"pit-trial","143","1099080","0.0-29.0","battery-v0.2","","""event"",""trial"",""time""
""fullscreenenter"",""1"",""2500""
""fullscreenexit"",""2"",""12079""
""blur"",""102"",""771944""
""focus"",""102"",""776148""
""blur"",""103"",""831086""
""focus"",""103"",""833203""
""blur"",""117"",""904658""
""focus"",""117"",""905377""
""blur"",""138"",""996993""
""focus"",""138"",""1077270""
","""event"",""trial"",""time""
""blur"",""102"",""771944""
""blur"",""103"",""831086""
""blur"",""117"",""904658""
""blur"",""138"",""996993""
","""event"",""trial"",""time""
""focus"",""102"",""776148""
""focus"",""103"",""833203""
""focus"",""117"",""905377""
""focus"",""138"",""1077270""
","""event"",""trial"",""time""
""fullscreenenter"",""1"",""2500""
","""event"",""trial"",""time""
""fullscreenexit"",""2"",""12079""
","","","1658.6000000089407","","","12","13287","5716","h","elianto","#f73b6a7A"," "," ","1","-10","[2512.5]","1","2","","","13287","25","3","3","lose","go","1"
"pit-trial","144","1103938","0.0-30.0","battery-v0.2","","""event"",""trial"",""time""
""fullscreenenter"",""1"",""2500""
""fullscreenexit"",""2"",""12079""
""blur"",""102"",""771944""
""focus"",""102"",""776148""
""blur"",""103"",""831086""
""focus"",""103"",""833203""
""blur"",""117"",""904658""
""focus"",""117"",""905377""
""blur"",""138"",""996993""
""focus"",""138"",""1077270""
","""event"",""trial"",""time""
""blur"",""102"",""771944""
""blur"",""103"",""831086""
""blur"",""117"",""904658""
""blur"",""138"",""996993""
","""event"",""trial"",""time""
""focus"",""102"",""776148""
""focus"",""103"",""833203""
""focus"",""117"",""905377""
""focus"",""138"",""1077270""
","""event"",""trial"",""time""
""fullscreenenter"",""1"",""2500""
","""event"",""trial"",""time""
""fullscreenexit"",""2"",""12079""
","","","-1","","","12","13287","5716","m","elianto","#f73b6a7A","-1","-1","1","0","[]","0","2","","","13287","26","0","4","lose","no-go","0"
"pit-trial","145","1108797","0.0-31.0","battery-v0.2","","""event"",""trial"",""time""
""fullscreenenter"",""1"",""2500""
""fullscreenexit"",""2"",""12079""
""blur"",""102"",""771944""
""focus"",""102"",""776148""
""blur"",""103"",""831086""
""focus"",""103"",""833203""
""blur"",""117"",""904658""
""focus"",""117"",""905377""
""blur"",""138"",""996993""
""focus"",""138"",""1077270""
","""event"",""trial"",""time""
""blur"",""102"",""771944""
""blur"",""103"",""831086""
""blur"",""117"",""904658""
""blur"",""138"",""996993""
","""event"",""trial"",""time""
""focus"",""102"",""776148""
""focus"",""103"",""833203""
""focus"",""117"",""905377""
""focus"",""138"",""1077270""
","""event"",""trial"",""time""
""fullscreenenter"",""1"",""2500""
","""event"",""trial"",""time""
""fullscreenexit"",""2"",""12079""
","","","-1","","","12","13287","5716","y","elianto","#f73b6a7A","-1","-1","1","0","[]","0","2","","","13287","27","2","4","lose","no-go","0"
"pit-trial","146","1112904","0.0-32.0","battery-v0.2","","""event"",""trial"",""time""
""fullscreenenter"",""1"",""2500""
""fullscreenexit"",""2"",""12079""
""blur"",""102"",""771944""
""focus"",""102"",""776148""
""blur"",""103"",""831086""
""focus"",""103"",""833203""
""blur"",""117"",""904658""
""focus"",""117"",""905377""
""blur"",""138"",""996993""
""focus"",""138"",""1077270""
","""event"",""trial"",""time""
""blur"",""102"",""771944""
""blur"",""103"",""831086""
""blur"",""117"",""904658""
""blur"",""138"",""996993""
","""event"",""trial"",""time""
""focus"",""102"",""776148""
""focus"",""103"",""833203""
""focus"",""117"",""905377""
""focus"",""138"",""1077270""
","""event"",""trial"",""time""
""fullscreenenter"",""1"",""2500""
","""event"",""trial"",""time""
""fullscreenexit"",""2"",""12079""
","","","1248.7999999970198","","","12","13287","5716","r","elianto","#3366ff99"," "," ","1","0","[2099.7000000029802]","1","2","","","13287","28","1","1","win","go","1"
"pit-trial","147","1116829","0.0-33.0","battery-v0.2","","""event"",""trial"",""time""
""fullscreenenter"",""1"",""2500""
""fullscreenexit"",""2"",""12079""
""blur"",""102"",""771944""
""focus"",""102"",""776148""
""blur"",""103"",""831086""
""focus"",""103"",""833203""
""blur"",""117"",""904658""
""focus"",""117"",""905377""
""blur"",""138"",""996993""
""focus"",""138"",""1077270""
","""event"",""trial"",""time""
""blur"",""102"",""771944""
""blur"",""103"",""831086""
""blur"",""117"",""904658""
""blur"",""138"",""996993""
","""event"",""trial"",""time""
""focus"",""102"",""776148""
""focus"",""103"",""833203""
""focus"",""117"",""905377""
""focus"",""138"",""1077270""
","""event"",""trial"",""time""
""fullscreenenter"",""1"",""2500""
","""event"",""trial"",""time""
""fullscreenexit"",""2"",""12079""
","","","1067","","","12","13287","5716","h","elianto","#f73b6a7A"," "," ","1","0","[1918.3999999910593]","1","2","","","13287","29","3","3","lose","go","0"
"pit-trial","148","1121688","0.0-34.0","battery-v0.2","","""event"",""trial"",""time""
""fullscreenenter"",""1"",""2500""
""fullscreenexit"",""2"",""12079""
""blur"",""102"",""771944""
""focus"",""102"",""776148""
""blur"",""103"",""831086""
""focus"",""103"",""833203""
""blur"",""117"",""904658""
""focus"",""117"",""905377""
""blur"",""138"",""996993""
""focus"",""138"",""1077270""
","""event"",""trial"",""time""
""blur"",""102"",""771944""
""blur"",""103"",""831086""
""blur"",""117"",""904658""
""blur"",""138"",""996993""
","""event"",""trial"",""time""
""focus"",""102"",""776148""
""focus"",""103"",""833203""
""focus"",""117"",""905377""
""focus"",""138"",""1077270""
","""event"",""trial"",""time""
""fullscreenenter"",""1"",""2500""
","""event"",""trial"",""time""
""fullscreenexit"",""2"",""12079""
","","","-1","","","12","13287","5716","y","elianto","#f73b6a7A","-1","-1","1","0","[]","0","2","","","13287","30","2","4","lose","no-go","0"
"pit-trial","149","1125239","0.0-35.0","battery-v0.2","","""event"",""trial"",""time""
""fullscreenenter"",""1"",""2500""
""fullscreenexit"",""2"",""12079""
""blur"",""102"",""771944""
""focus"",""102"",""776148""
""blur"",""103"",""831086""
""focus"",""103"",""833203""
""blur"",""117"",""904658""
""focus"",""117"",""905377""
""blur"",""138"",""996993""
""focus"",""138"",""1077270""
","""event"",""trial"",""time""
""blur"",""102"",""771944""
""blur"",""103"",""831086""
""blur"",""117"",""904658""
""blur"",""138"",""996993""
","""event"",""trial"",""time""
""focus"",""102"",""776148""
""focus"",""103"",""833203""
""focus"",""117"",""905377""
""focus"",""138"",""1077270""
","""event"",""trial"",""time""
""fullscreenenter"",""1"",""2500""
","""event"",""trial"",""time""
""fullscreenexit"",""2"",""12079""
","","","694.9000000059605","","","12","13287","5716","r","elianto","#3366ff99"," "," ","1","+10","[1546.4000000059605]","1","2","","","13287","31","1","1","win","go","0"
"pit-trial","150","1130099","0.0-36.0","battery-v0.2","","""event"",""trial"",""time""
""fullscreenenter"",""1"",""2500""
""fullscreenexit"",""2"",""12079""
""blur"",""102"",""771944""
""focus"",""102"",""776148""
""blur"",""103"",""831086""
""focus"",""103"",""833203""
""blur"",""117"",""904658""
""focus"",""117"",""905377""
""blur"",""138"",""996993""
""focus"",""138"",""1077270""
","""event"",""trial"",""time""
""blur"",""102"",""771944""
""blur"",""103"",""831086""
""blur"",""117"",""904658""
""blur"",""138"",""996993""
","""event"",""trial"",""time""
""focus"",""102"",""776148""
""focus"",""103"",""833203""
""focus"",""117"",""905377""
""focus"",""138"",""1077270""
","""event"",""trial"",""time""
""fullscreenenter"",""1"",""2500""
","""event"",""trial"",""time""
""fullscreenexit"",""2"",""12079""
","","","-1","","","12","13287","5716","m","elianto","#f73b6a7A","-1","-1","1","-10","[]","0","2","","","13287","32","0","4","lose","no-go","1"
"pit-trial","151","1133900","0.0-37.0","battery-v0.2","","""event"",""trial"",""time""
""fullscreenenter"",""1"",""2500""
""fullscreenexit"",""2"",""12079""
""blur"",""102"",""771944""
""focus"",""102"",""776148""
""blur"",""103"",""831086""
""focus"",""103"",""833203""
""blur"",""117"",""904658""
""focus"",""117"",""905377""
""blur"",""138"",""996993""
""focus"",""138"",""1077270""
","""event"",""trial"",""time""
""blur"",""102"",""771944""
""blur"",""103"",""831086""
""blur"",""117"",""904658""
""blur"",""138"",""996993""
","""event"",""trial"",""time""
""focus"",""102"",""776148""
""focus"",""103"",""833203""
""focus"",""117"",""905377""
""focus"",""138"",""1077270""
","""event"",""trial"",""time""
""fullscreenenter"",""1"",""2500""
","""event"",""trial"",""time""
""fullscreenexit"",""2"",""12079""
","","","945.8000000119209","","","12","13287","5716","m","elianto","#f73b6a7A","-1"," ","0","-10","[1796.5]","1","2","","","13287","33","0","4","lose","no-go","0"
"pit-trial","152","1138760","0.0-38.0","battery-v0.2","","""event"",""trial"",""time""
""fullscreenenter"",""1"",""2500""
""fullscreenexit"",""2"",""12079""
""blur"",""102"",""771944""
""focus"",""102"",""776148""
""blur"",""103"",""831086""
""focus"",""103"",""833203""
""blur"",""117"",""904658""
""focus"",""117"",""905377""
""blur"",""138"",""996993""
""focus"",""138"",""1077270""
","""event"",""trial"",""time""
""blur"",""102"",""771944""
""blur"",""103"",""831086""
""blur"",""117"",""904658""
""blur"",""138"",""996993""
","""event"",""trial"",""time""
""focus"",""102"",""776148""
""focus"",""103"",""833203""
""focus"",""117"",""905377""
""focus"",""138"",""1077270""
","""event"",""trial"",""time""
""fullscreenenter"",""1"",""2500""
","""event"",""trial"",""time""
""fullscreenexit"",""2"",""12079""
","","","-1","","","12","13287","5716","y","elianto","#f73b6a7A","-1","-1","1","-10","[]","0","2","","","13287","34","2","4","lose","no-go","1"
"pit-trial","153","1142520","0.0-39.0","battery-v0.2","","""event"",""trial"",""time""
""fullscreenenter"",""1"",""2500""
""fullscreenexit"",""2"",""12079""
""blur"",""102"",""771944""
""focus"",""102"",""776148""
""blur"",""103"",""831086""
""focus"",""103"",""833203""
""blur"",""117"",""904658""
""focus"",""117"",""905377""
""blur"",""138"",""996993""
""focus"",""138"",""1077270""
","""event"",""trial"",""time""
""blur"",""102"",""771944""
""blur"",""103"",""831086""
""blur"",""117"",""904658""
""blur"",""138"",""996993""
","""event"",""trial"",""time""
""focus"",""102"",""776148""
""focus"",""103"",""833203""
""focus"",""117"",""905377""
""focus"",""138"",""1077270""
","""event"",""trial"",""time""
""fullscreenenter"",""1"",""2500""
","""event"",""trial"",""time""
""fullscreenexit"",""2"",""12079""
","","","897.7999999970198","","","12","13287","5716","r","elianto","#3366ff99"," "," ","1","+10","[1752.2999999970198]","1","2","","","13287","35","1","1","win","go","0"
"pit-trial","154","1146656","0.0-40.0","battery-v0.2","","""event"",""trial"",""time""
""fullscreenenter"",""1"",""2500""
""fullscreenexit"",""2"",""12079""
""blur"",""102"",""771944""
""focus"",""102"",""776148""
""blur"",""103"",""831086""
""focus"",""103"",""833203""
""blur"",""117"",""904658""
""focus"",""117"",""905377""
""blur"",""138"",""996993""
""focus"",""138"",""1077270""
","""event"",""trial"",""time""
""blur"",""102"",""771944""
""blur"",""103"",""831086""
""blur"",""117"",""904658""
""blur"",""138"",""996993""
","""event"",""trial"",""time""
""focus"",""102"",""776148""
""focus"",""103"",""833203""
""focus"",""117"",""905377""
""focus"",""138"",""1077270""
","""event"",""trial"",""time""
""fullscreenenter"",""1"",""2500""
","""event"",""trial"",""time""
""fullscreenexit"",""2"",""12079""
","","","1278","","","12","13287","5716","h","elianto","#f73b6a7A"," "," ","1","0","[2129.2999999970198]","1","2","","","13287","36","3","3","lose","go","0"
"pit-trial","155","1150579","0.0-41.0","battery-v0.2","","""event"",""trial"",""time""
""fullscreenenter"",""1"",""2500""
""fullscreenexit"",""2"",""12079""
""blur"",""102"",""771944""
""focus"",""102"",""776148""
""blur"",""103"",""831086""
""focus"",""103"",""833203""
""blur"",""117"",""904658""
""focus"",""117"",""905377""
""blur"",""138"",""996993""
""focus"",""138"",""1077270""
","""event"",""trial"",""time""
""blur"",""102"",""771944""
""blur"",""103"",""831086""
""blur"",""117"",""904658""
""blur"",""138"",""996993""
","""event"",""trial"",""time""
""focus"",""102"",""776148""
""focus"",""103"",""833203""
""focus"",""117"",""905377""
""focus"",""138"",""1077270""
","""event"",""trial"",""time""
""fullscreenenter"",""1"",""2500""
","""event"",""trial"",""time""
""fullscreenexit"",""2"",""12079""
","","","1065.5","","","12","13287","5716","h","elianto","#f73b6a7A"," "," ","1","0","[1916.300000011921]","1","2","","","13287","37","3","3","lose","go","0"
"pit-trial","156","1155438","0.0-42.0","battery-v0.2","","""event"",""trial"",""time""
""fullscreenenter"",""1"",""2500""
""fullscreenexit"",""2"",""12079""
""blur"",""102"",""771944""
""focus"",""102"",""776148""
""blur"",""103"",""831086""
""focus"",""103"",""833203""
""blur"",""117"",""904658""
""focus"",""117"",""905377""
""blur"",""138"",""996993""
""focus"",""138"",""1077270""
","""event"",""trial"",""time""
""blur"",""102"",""771944""
""blur"",""103"",""831086""
""blur"",""117"",""904658""
""blur"",""138"",""996993""
","""event"",""trial"",""time""
""focus"",""102"",""776148""
""focus"",""103"",""833203""
""focus"",""117"",""905377""
""focus"",""138"",""1077270""
","""event"",""trial"",""time""
""fullscreenenter"",""1"",""2500""
","""event"",""trial"",""time""
""fullscreenexit"",""2"",""12079""
","","","-1","","","12","13287","5716","m","elianto","#f73b6a7A","-1","-1","1","0","[]","0","2","","","13287","38","0","4","lose","no-go","0"
"pit-trial","157","1159304","0.0-43.0","battery-v0.2","","""event"",""trial"",""time""
""fullscreenenter"",""1"",""2500""
""fullscreenexit"",""2"",""12079""
""blur"",""102"",""771944""
""focus"",""102"",""776148""
""blur"",""103"",""831086""
""focus"",""103"",""833203""
""blur"",""117"",""904658""
""focus"",""117"",""905377""
""blur"",""138"",""996993""
""focus"",""138"",""1077270""
","""event"",""trial"",""time""
""blur"",""102"",""771944""
""blur"",""103"",""831086""
""blur"",""117"",""904658""
""blur"",""138"",""996993""
","""event"",""trial"",""time""
""focus"",""102"",""776148""
""focus"",""103"",""833203""
""focus"",""117"",""905377""
""focus"",""138"",""1077270""
","""event"",""trial"",""time""
""fullscreenenter"",""1"",""2500""
","""event"",""trial"",""time""
""fullscreenexit"",""2"",""12079""
","","","1013.0999999940395","","","12","13287","5716","r","elianto","#3366ff99"," "," ","1","0","[1864.2000000029802]","1","2","","","13287","39","1","1","win","go","1"
"pit-trial","158","1163240","0.0-44.0","battery-v0.2","","""event"",""trial"",""time""
""fullscreenenter"",""1"",""2500""
""fullscreenexit"",""2"",""12079""
