"trial_type","trial_index","time_elapsed","internal_node_id","task_version","subject_id","interactions","blur_events","focus_events","fullscreenenter_events","fullscreenexit_events","success","view_history","rt","responses","num_errors","age","subject","participantId","rune","rune_set","hex","correct","choice","accuracy","outcome","keys","total_keys","block","practice","value","sub","trial","stimulus","robot","valence","action","sham"
"pavlovia","0","13","0.0-0.0","battery-v0.2","","""event"",""trial"",""time""
""fullscreenenter"",""1"",""2480""
","
","
","""event"",""trial"",""time""
""fullscreenenter"",""1"",""2480""
","
","","","","","","","","","","","","","","","","","","","","","","","","","","",""
"fullscreen","1","3398","0.0-1.0","battery-v0.2","","""event"",""trial"",""time""
""fullscreenenter"",""1"",""2480""
","
","
","""event"",""trial"",""time""
""fullscreenenter"",""1"",""2480""
","
","true","","","","","","","","","","","","","","","","","","","","","","","","","",""
"pit-instructions","2","7834","0.0-2.0-0.0","battery-v0.2","","""event"",""trial"",""time""
""fullscreenenter"",""1"",""2480""
","
","
","""event"",""trial"",""time""
""fullscreenenter"",""1"",""2480""
","
","","[{""page_index"":0,""viewing_time"":4426.399999976158}]","4426.799999952316","","","","","","","","","","","","","","","","","","","","","","","",""
"pit-comprehension","3","13074","0.0-2.0-1.0-0.0","battery-v0.2","","""event"",""trial"",""time""
""fullscreenenter"",""1"",""2480""
","
","
","""event"",""trial"",""time""
""fullscreenenter"",""1"",""2480""
","
","","","5236.100000023842","[""shark""]","0","11","7082","3849","","","","","","","","","","","","","","","","","","",""
"pit-instructions","4","17521","0.0-2.0-1.0-1.0","battery-v0.2","","""event"",""trial"",""time""
""fullscreenenter"",""1"",""2480""
","
","
","""event"",""trial"",""time""
""fullscreenenter"",""1"",""2480""
","
","","[{""page_index"":0,""viewing_time"":4369}]","4369.300000071526","","","","","","","","","","","","","","","","","","","","","","","",""
"pit-comprehension","5","21170","0.0-2.0-2.0-0.0","battery-v0.2","","""event"",""trial"",""time""
""fullscreenenter"",""1"",""2480""
","
","
","""event"",""trial"",""time""
""fullscreenenter"",""1"",""2480""
","
","","","3644.600000023842","[""tiger""]","0","11","7082","3849","","","","","","","","","","","","","","","","","","",""
"pit-instructions","6","22721","0.0-2.0-2.0-1.0","battery-v0.2","","""event"",""trial"",""time""
""fullscreenenter"",""1"",""2480""
","
","
","""event"",""trial"",""time""
""fullscreenenter"",""1"",""2480""
","
","","[{""page_index"":0,""viewing_time"":1547.3000000715256}]","1547.7000000476837","","","","","","","","","","","","","","","","","","","","","","","",""
"pit-instructions","7","118664","0.0-2.0-3.0","battery-v0.2","","""event"",""trial"",""time""
""fullscreenenter"",""1"",""2480""
","
","
","""event"",""trial"",""time""
""fullscreenenter"",""1"",""2480""
","
","","[{""page_index"":0,""viewing_time"":9108.700000047684},{""page_index"":1,""viewing_time"":7103.899999976158},{""page_index"":2,""viewing_time"":6295.699999928474},{""page_index"":3,""viewing_time"":5256.200000047684},{""page_index"":4,""viewing_time"":6919.799999952316},{""page_index"":5,""viewing_time"":6279.800000071526},{""page_index"":6,""viewing_time"":6488.100000023842},{""page_index"":7,""viewing_time"":6743.899999976158},{""page_index"":8,""viewing_time"":6135.899999976158},{""page_index"":9,""viewing_time"":8039.799999952316},{""page_index"":10,""viewing_time"":7392.100000023842},{""page_index"":11,""viewing_time"":8991.800000071526},{""page_index"":12,""viewing_time"":6231.799999952316},{""page_index"":13,""viewing_time"":4952}]","95939.79999995232","","","","","","","","","","","","","","","","","","","","","","","",""
"pit-trial","8","122767","0.0-2.0-4.0-0.0","battery-v0.2","","""event"",""trial"",""time""
""fullscreenenter"",""1"",""2480""
","
","
","""event"",""trial"",""time""
""fullscreenenter"",""1"",""2480""
","
","","","1226.1000000238419","","","11","7082","3849","&#9784;","elianto","#FFFFF080"," "," ","1","&#10004","[2079.2000000476837]","1","0","0","","","","","","","",""
"pit-trial","9","126827","0.0-2.0-4.1-0.1","battery-v0.2","","""event"",""trial"",""time""
""fullscreenenter"",""1"",""2480""
","
","
","""event"",""trial"",""time""
""fullscreenenter"",""1"",""2480""
","
","","","1186.3000000715256","","","11","7082","3849","&#9784;","elianto","#FFFFF080"," "," ","1","&#10004","[2037.5]","1","0","0","","","","","","","",""
"pit-trial","10","130306","0.0-2.0-4.2-0.2","battery-v0.2","","""event"",""trial"",""time""
""fullscreenenter"",""1"",""2480""
","
","
","""event"",""trial"",""time""
""fullscreenenter"",""1"",""2480""
","
","","","622.6999999284744","","","11","7082","3849","&#9784;","elianto","#FFFFF080"," "," ","1","&#10004","[1473.1000000238419]","1","0","0","","","","","","","",""
"pit-trial","11","134087","0.0-2.0-4.3-0.3","battery-v0.2","","""event"",""trial"",""time""
""fullscreenenter"",""1"",""2480""
","
","
","""event"",""trial"",""time""
""fullscreenenter"",""1"",""2480""
","
","","","923.1000000238419","","","11","7082","3849","&#9784;","elianto","#FFFFF080"," "," ","1","&#10004","[1773.1000000238419]","1","0","0","","","","","","","",""
"pit-trial","12","137636","0.0-2.0-4.4-0.4","battery-v0.2","","""event"",""trial"",""time""
""fullscreenenter"",""1"",""2480""
","
","
","""event"",""trial"",""time""
""fullscreenenter"",""1"",""2480""
","
","","","678.3999999761581","","","11","7082","3849","&#9784;","elianto","#FFFFF080"," "," ","1","&#10004","[1532.5]","1","0","0","","","","","","","",""
"pit-instructions","13","156255","0.0-2.0-5.0","battery-v0.2","","""event"",""trial"",""time""
""fullscreenenter"",""1"",""2480""
","
","
","""event"",""trial"",""time""
""fullscreenenter"",""1"",""2480""
","
","","[{""page_index"":0,""viewing_time"":4349.900000095367},{""page_index"":1,""viewing_time"":5039.899999976158},{""page_index"":2,""viewing_time"":4055.7999999523163},{""page_index"":3,""viewing_time"":5168}]","18613.900000095367","","","","","","","","","","","","","","","","","","","","","","","",""
"pit-trial","14","161136","0.0-2.0-6.0-0.0","battery-v0.2","","""event"",""trial"",""time""
""fullscreenenter"",""1"",""2480""
","
","
","""event"",""trial"",""time""
""fullscreenenter"",""1"",""2480""
","
","","","-1","","","11","7082","3849","&#9854;","elianto","#FFFFF080","-1","-1","1","&#10004","[]","0","0","1","","","","","","","",""
"pit-trial","15","166006","0.0-2.0-6.1-0.1","battery-v0.2","","""event"",""trial"",""time""
""fullscreenenter"",""1"",""2480""
","
","
","""event"",""trial"",""time""
""fullscreenenter"",""1"",""2480""
","
","","","-1","","","11","7082","3849","&#9854;","elianto","#FFFFF080","-1","-1","1","&#10004","[]","0","0","1","","","","","","","",""
"pit-trial","16","170886","0.0-2.0-6.2-0.2","battery-v0.2","","""event"",""trial"",""time""
""fullscreenenter"",""1"",""2480""
","
","
","""event"",""trial"",""time""
""fullscreenenter"",""1"",""2480""
","
","","","-1","","","11","7082","3849","&#9854;","elianto","#FFFFF080","-1","-1","1","&#10004","[]","0","0","1","","","","","","","",""
"pit-trial","17","175766","0.0-2.0-6.3-0.3","battery-v0.2","","""event"",""trial"",""time""
""fullscreenenter"",""1"",""2480""
","
","
","""event"",""trial"",""time""
""fullscreenenter"",""1"",""2480""
","
","","","-1","","","11","7082","3849","&#9854;","elianto","#FFFFF080","-1","-1","1","&#10004","[]","0","0","1","","","","","","","",""
"pit-trial","18","180636","0.0-2.0-6.4-0.4","battery-v0.2","","""event"",""trial"",""time""
""fullscreenenter"",""1"",""2480""
","
","
","""event"",""trial"",""time""
""fullscreenenter"",""1"",""2480""
","
","","","-1","","","11","7082","3849","&#9854;","elianto","#FFFFF080","-1","-1","1","&#10004","[]","0","0","1","","","","","","","",""
"pit-instructions","19","297686","0.0-2.0-7.0","battery-v0.2","","""event"",""trial"",""time""
""fullscreenenter"",""1"",""2480""
","
","
","""event"",""trial"",""time""
""fullscreenenter"",""1"",""2480""
","
","","[{""page_index"":0,""viewing_time"":6062.199999928474},{""page_index"":1,""viewing_time"":6575.600000023842},{""page_index"":2,""viewing_time"":5352},{""page_index"":3,""viewing_time"":6344},{""page_index"":4,""viewing_time"":5399.899999976158},{""page_index"":5,""viewing_time"":6391.700000047684},{""page_index"":6,""viewing_time"":4832},{""page_index"":7,""viewing_time"":9360.399999976158},{""page_index"":8,""viewing_time"":6847.5},{""page_index"":9,""viewing_time"":5335.899999976158},{""page_index"":10,""viewing_time"":6863.899999976158},{""page_index"":11,""viewing_time"":6256},{""page_index"":12,""viewing_time"":6335.900000095367},{""page_index"":13,""viewing_time"":7671.899999976158},{""page_index"":14,""viewing_time"":8327.600000023842},{""page_index"":15,""viewing_time"":6104.299999952316},{""page_index"":16,""viewing_time"":5904.100000023842},{""page_index"":15,""viewing_time"":967.6999999284744},{""page_index"":16,""viewing_time"":5127.900000095367},{""page_index"":17,""viewing_time"":984}]","117044.89999997616","","","","","","","","","","","","","","","","","","","","","","","",""
"pit-trial","20","302555","0.0-2.0-8.0-0.0","battery-v0.2","","""event"",""trial"",""time""
""fullscreenenter"",""1"",""2480""
","
","
","""event"",""trial"",""time""
""fullscreenenter"",""1"",""2480""
","
","","","-1","","","11","7082","3849","&#9776;","elianto","#3366ff99"," ","-1","0","0","[4006.399999976158]","1","0","1","","","","","","","",""
"pit-trial","21","305987","0.0-2.0-8.0-1.0","battery-v0.2","","""event"",""trial"",""time""
""fullscreenenter"",""1"",""2480""
","
","
","""event"",""trial"",""time""
""fullscreenenter"",""1"",""2480""
","
","","","560.5","","","11","7082","3849","&#9776;","elianto","#3366ff99"," "," ","1","+10","[1421.5]","1","0","1","","","","","","","",""
"pit-trial","22","309114","0.0-2.0-8.0-2.0","battery-v0.2","","""event"",""trial"",""time""
""fullscreenenter"",""1"",""2480""
","
","
","""event"",""trial"",""time""
""fullscreenenter"",""1"",""2480""
","
","","","270.2000000476837","","","11","7082","3849","&#9776;","elianto","#3366ff99"," "," ","1","+10","[1121.8999999761581]","1","0","1","","","","","","","",""
"pit-trial","23","312464","0.0-2.0-8.0-3.0","battery-v0.2","","""event"",""trial"",""time""
""fullscreenenter"",""1"",""2480""
","
","
","""event"",""trial"",""time""
""fullscreenenter"",""1"",""2480""
","
","","","467.09999990463257","","","11","7082","3849","&#9776;","elianto","#3366ff99"," "," ","1","0","[1327.8999999761581]","1","0","1","","","","","","","",""
"pit-trial","24","315674","0.0-2.0-8.0-4.0","battery-v0.2","","""event"",""trial"",""time""
""fullscreenenter"",""1"",""2480""
","
","
","""event"",""trial"",""time""
""fullscreenenter"",""1"",""2480""
","
","","","341.5","","","11","7082","3849","&#9776;","elianto","#3366ff99"," "," ","1","+10","[1200.6000000238419]","1","0","1","","","","","","","",""
"pit-trial","25","319230","0.0-2.0-8.1-0.1","battery-v0.2","","""event"",""trial"",""time""
""fullscreenenter"",""1"",""2480""
","
","
","""event"",""trial"",""time""
""fullscreenenter"",""1"",""2480""
","
","","","694.1000000238419","","","11","7082","3849","&#9776;","elianto","#3366ff99"," "," ","1","+10","[1551.7000000476837]","1","0","1","","","","","","","",""
"pit-trial","26","323144","0.0-2.0-8.1-1.1","battery-v0.2","","""event"",""trial"",""time""
""fullscreenenter"",""1"",""2480""
","
","
","""event"",""trial"",""time""
""fullscreenenter"",""1"",""2480""
","
","","","1056.8000000715256","","","11","7082","3849","&#9776;","elianto","#3366ff99"," "," ","1","+10","[1909.1000000238419]","1","0","1","","","","","","","",""
"pit-trial","27","326565","0.0-2.0-8.1-2.1","battery-v0.2","","""event"",""trial"",""time""
""fullscreenenter"",""1"",""2480""
","
","
","""event"",""trial"",""time""
""fullscreenenter"",""1"",""2480""
","
","","","567.2999999523163","","","11","7082","3849","&#9776;","elianto","#3366ff99"," "," ","1","+10","[1419]","1","0","1","","","","","","","",""
"pit-trial","28","329976","0.0-2.0-8.1-3.1","battery-v0.2","","""event"",""trial"",""time""
""fullscreenenter"",""1"",""2480""
","
","
","""event"",""trial"",""time""
""fullscreenenter"",""1"",""2480""
","
","","","549.5","","","11","7082","3849","&#9776;","elianto","#3366ff99"," "," ","1","0","[1407.8000000715256]","1","0","1","","","","","","","",""
"pit-trial","29","333678","0.0-2.0-8.1-4.1","battery-v0.2","","""event"",""trial"",""time""
""fullscreenenter"",""1"",""2480""
","
","
","""event"",""trial"",""time""
""fullscreenenter"",""1"",""2480""
","
","","","840.6999999284744","","","11","7082","3849","&#9776;","elianto","#3366ff99"," "," ","1","+10","[1691.2999999523163,3567.2000000476837]","2","0","1","","","","","","","",""
"pit-trial","30","338533","0.0-2.0-8.2-0.2","battery-v0.2","","""event"",""trial"",""time""
""fullscreenenter"",""1"",""2480""
","
","
","""event"",""trial"",""time""
""fullscreenenter"",""1"",""2480""
","
","","","-1","","","11","7082","3849","&#9776;","elianto","#3366ff99"," ","-1","0","0","[]","0","0","1","","","","","","","",""
"pit-trial","31","343387","0.0-2.0-8.2-1.2","battery-v0.2","","""event"",""trial"",""time""
""fullscreenenter"",""1"",""2480""
","
","
","""event"",""trial"",""time""
""fullscreenenter"",""1"",""2480""
","
","","","-1","","","11","7082","3849","&#9776;","elianto","#3366ff99"," ","-1","0","0","[]","0","0","1","","","","","","","",""
"pit-trial","32","348240","0.0-2.0-8.2-2.2","battery-v0.2","","""event"",""trial"",""time""
""fullscreenenter"",""1"",""2480""
","
","
","""event"",""trial"",""time""
""fullscreenenter"",""1"",""2480""
","
","","","-1","","","11","7082","3849","&#9776;","elianto","#3366ff99"," ","-1","0","0","[3569.7999999523163,3949.399999976158,4338.600000023842,4487.899999976158,4847.299999952316]","5","0","1","","","","","","","",""
"pit-trial","33","351265","0.0-2.0-8.2-3.2","battery-v0.2","","""event"",""trial"",""time""
""fullscreenenter"",""1"",""2480""
","
","
","""event"",""trial"",""time""
""fullscreenenter"",""1"",""2480""
","
","","","171.19999992847443","","","11","7082","3849","&#9776;","elianto","#3366ff99"," "," ","1","0","[243.39999997615814,823.5,1021.8999999761581,1491,1970.2000000476837,2449.2000000476837,2947.8000000715256]","7","0","1","","","","","","","",""
"pit-trial","34","354329","0.0-2.0-8.2-4.2","battery-v0.2","","""event"",""trial"",""time""
""fullscreenenter"",""1"",""2480""
","
","
","""event"",""trial"",""time""
""fullscreenenter"",""1"",""2480""
","
","","","209.60000002384186","","","11","7082","3849","&#9776;","elianto","#3366ff99"," "," ","1","+10","[381.10000002384186,729.3000000715256,1059.8000000715256,1309.3000000715256,2247.100000023842,2446.7000000476837,2806.3000000715256]","7","0","1","","","","","","","",""
"call-function","35","354334","0.0-2.0-9.0","battery-v0.2","","""event"",""trial"",""time""
""fullscreenenter"",""1"",""2480""
","
","
","""event"",""trial"",""time""
""fullscreenenter"",""1"",""2480""
","
","","","","","","","","","","","","","","","","","","","","","","","","","","",""
"pit-instructions","36","402365","0.0-2.0-10.0","battery-v0.2","","""event"",""trial"",""time""
""fullscreenenter"",""1"",""2480""
","
","
","""event"",""trial"",""time""
""fullscreenenter"",""1"",""2480""
","
","","[{""page_index"":0,""viewing_time"":5173.300000071526},{""page_index"":1,""viewing_time"":6647.799999952316},{""page_index"":2,""viewing_time"":9255.899999976158},{""page_index"":3,""viewing_time"":19895.600000023842},{""page_index"":4,""viewing_time"":7056}]","48029.10000002384","","","","","","","","","","","","","","","","","","","","","","","",""
"pit-trial","37","407242","0.0-2.0-11.0-0.0","battery-v0.2","","""event"",""trial"",""time""
""fullscreenenter"",""1"",""2480""
","
","
","""event"",""trial"",""time""
""fullscreenenter"",""1"",""2480""
","
","","","-1","","","11","7082","3849","&#9761;","elianto","#3366ff99","-1","-1","1","+10","[]","0","0","2","","","","","","","",""
"pit-trial","38","412122","0.0-2.0-11.0-1.0","battery-v0.2","","""event"",""trial"",""time""
""fullscreenenter"",""1"",""2480""
","
","
","""event"",""trial"",""time""
""fullscreenenter"",""1"",""2480""
","
","","","-1","","","11","7082","3849","&#9761;","elianto","#3366ff99","-1","-1","1","+10","[]","0","0","2","","","","","","","",""
"pit-trial","39","416992","0.0-2.0-11.0-2.0","battery-v0.2","","""event"",""trial"",""time""
""fullscreenenter"",""1"",""2480""
","
","
","""event"",""trial"",""time""
""fullscreenenter"",""1"",""2480""
","
","","","-1","","","11","7082","3849","&#9761;","elianto","#3366ff99","-1","-1","1","+10","[3808.3000000715256,3987.4000000953674,4357.800000071526,4597.200000047684,4836.600000023842]","5","0","2","","","","","","","",""
"pit-trial","40","419929","0.0-2.0-11.0-3.0","battery-v0.2","","""event"",""trial"",""time""
""fullscreenenter"",""1"",""2480""
","
","
","""event"",""trial"",""time""
""fullscreenenter"",""1"",""2480""
","
","","","68.29999995231628","","","11","7082","3849","&#9761;","elianto","#3366ff99","-1"," ","0","+10","[194.80000007152557,484.5,684.9000000953674,926,1124,1333.5,1992.3000000715256,2241.5,2490.9000000953674,2710.2000000476837]","10","0","2","","","","","","","",""
"pit-trial","41","422862","0.0-2.0-11.0-4.0","battery-v0.2","","""event"",""trial"",""time""
""fullscreenenter"",""1"",""2480""
","
","
","""event"",""trial"",""time""
""fullscreenenter"",""1"",""2480""
","
","","","69.89999997615814","","","11","7082","3849","&#9761;","elianto","#3366ff99","-1"," ","0","0","[4.899999976158142,202.10000002384186,604.3999999761581,920.8999999761581,1090.3999999761581,1270.7000000476837,1440.2000000476837,1599.6000000238419,1939,2118.5,2288,2457.600000023842,2658]","13","0","2","","","","","","","",""
"pit-trial","42","425803","0.0-2.0-11.1-0.1","battery-v0.2","","""event"",""trial"",""time""
""fullscreenenter"",""1"",""2480""
","
","
","""event"",""trial"",""time""
""fullscreenenter"",""1"",""2480""
","
","","","79.80000007152557","","","11","7082","3849","&#9761;","elianto","#3366ff99","-1"," ","0","0","[930.2000000476837,1659.7999999523163,2108.399999976158,2338.5,2575.7999999523163]","5","0","2","","","","","","","",""
"pit-trial","43","428790","0.0-2.0-11.1-1.1","battery-v0.2","","""event"",""trial"",""time""
""fullscreenenter"",""1"",""2480""
","
","
","""event"",""trial"",""time""
""fullscreenenter"",""1"",""2480""
","
","","","130.09999990463257","","","11","7082","3849","&#9761;","elianto","#3366ff99","-1"," ","0","0","[983.7999999523163,1873.2999999523163]","2","0","2","","","","","","","",""
"pit-trial","44","431696","0.0-2.0-11.1-2.1","battery-v0.2","","""event"",""trial"",""time""
""fullscreenenter"",""1"",""2480""
","
","
","""event"",""trial"",""time""
""fullscreenenter"",""1"",""2480""
","
","","","52.89999997615814","","","11","7082","3849","&#9761;","elianto","#3366ff99","-1"," ","0","0","[903.1999999284744,1720.1999999284744]","2","0","2","","","","","","","",""
"pit-trial","45","434688","0.0-2.0-11.1-3.1","battery-v0.2","","""event"",""trial"",""time""
""fullscreenenter"",""1"",""2480""
","
","
","""event"",""trial"",""time""
""fullscreenenter"",""1"",""2480""
","
","","","135.20000004768372","","","11","7082","3849","&#9761;","elianto","#3366ff99","-1"," ","0","+10","[988.7999999523163]","1","0","2","","","","","","","",""
"pit-trial","46","437882","0.0-2.0-11.1-4.1","battery-v0.2","","""event"",""trial"",""time""
""fullscreenenter"",""1"",""2480""
","
","
","""event"",""trial"",""time""
""fullscreenenter"",""1"",""2480""
","
","","","340","","","11","7082","3849","&#9761;","elianto","#3366ff99","-1"," ","0","0","[212.29999995231628,1190.1999999284744]","2","0","2","","","","","","","",""
"pit-trial","47","442683","0.0-2.0-11.2-0.2","battery-v0.2","","""event"",""trial"",""time""
""fullscreenenter"",""1"",""2480""
","
","
","""event"",""trial"",""time""
""fullscreenenter"",""1"",""2480""
","
","","","1943.7000000476837","","","11","7082","3849","&#9761;","elianto","#3366ff99","-1"," ","0","0","[2795.1999999284744]","1","0","2","","","","","","","",""
"pit-trial","48","447537","0.0-2.0-11.2-1.2","battery-v0.2","","""event"",""trial"",""time""
""fullscreenenter"",""1"",""2480""
","
","
","""event"",""trial"",""time""
""fullscreenenter"",""1"",""2480""
","
","","","-1","","","11","7082","3849","&#9761;","elianto","#3366ff99","-1","-1","1","+10","[4293,4662]","2","0","2","","","","","","","",""
"pit-trial","49","450585","0.0-2.0-11.2-2.2","battery-v0.2","","""event"",""trial"",""time""
""fullscreenenter"",""1"",""2480""
","
","
","""event"",""trial"",""time""
""fullscreenenter"",""1"",""2480""
","
","","","191.60000002384186","","","11","7082","3849","&#9761;","elianto","#3366ff99","-1"," ","0","0","[47.5,274.7999999523163,1043.3999999761581,1253.8999999761581,1414.8999999761581,1603.7999999523163,1833.1999999284744,2182.100000023842,2432]","9","0","2","","","","","","","",""
"pit-trial","50","453630","0.0-2.0-11.2-3.2","battery-v0.2","","""event"",""trial"",""time""
""fullscreenenter"",""1"",""2480""
","
","
","""event"",""trial"",""time""
""fullscreenenter"",""1"",""2480""
","
","","","188.80000007152557","","","11","7082","3849","&#9761;","elianto","#3366ff99","-1"," ","0","+10","[323.10000002384186,591.7000000476837,822,1040.7000000476837,3037.2999999523163]","5","0","2","","","","","","","",""
"pit-trial","51","456903","0.0-2.0-11.2-4.2","battery-v0.2","","""event"",""trial"",""time""
""fullscreenenter"",""1"",""2480""
","
","
","""event"",""trial"",""time""
""fullscreenenter"",""1"",""2480""
","
","","","417.90000009536743","","","11","7082","3849","&#9761;","elianto","#3366ff99","-1"," ","0","0","[289.10000002384186,539.5,799.5,1268.7000000476837,1568.2999999523163,1817.1000000238419,2066.7999999523163]","7","0","2","","","","","","","",""
"pit-trial","52","460407","0.0-2.0-11.3-0.3","battery-v0.2","","""event"",""trial"",""time""
""fullscreenenter"",""1"",""2480""
","
","
","""event"",""trial"",""time""
""fullscreenenter"",""1"",""2480""
","
","","","649","","","11","7082","3849","&#9761;","elianto","#3366ff99","-1"," ","0","0","[1499.6000000238419,1739.2000000476837]","2","0","2","","","","","","","",""
"pit-trial","53","465262","0.0-2.0-11.3-1.3","battery-v0.2","","""event"",""trial"",""time""
""fullscreenenter"",""1"",""2480""
","
","
","""event"",""trial"",""time""
""fullscreenenter"",""1"",""2480""
","
","","","-1","","","11","7082","3849","&#9761;","elianto","#3366ff99","-1","-1","1","+10","[]","0","0","2","","","","","","","",""
"pit-trial","54","468931","0.0-2.0-11.3-2.3","battery-v0.2","","""event"",""trial"",""time""
""fullscreenenter"",""1"",""2480""
","
","
","""event"",""trial"",""time""
""fullscreenenter"",""1"",""2480""
","
","","","814.8000000715256","","","11","7082","3849","&#9761;","elianto","#3366ff99","-1"," ","0","0","[1664.7000000476837]","1","0","2","","","","","","","",""
"pit-trial","55","473152","0.0-2.0-11.3-3.3","battery-v0.2","","""event"",""trial"",""time""
""fullscreenenter"",""1"",""2480""
","
","
","""event"",""trial"",""time""
""fullscreenenter"",""1"",""2480""
","
","","","1366.5","","","11","7082","3849","&#9761;","elianto","#3366ff99","-1"," ","0","+10","[2217.100000023842]","1","0","2","","","","","","","",""
"pit-trial","56","476215","0.0-2.0-11.3-4.3","battery-v0.2","","""event"",""trial"",""time""
""fullscreenenter"",""1"",""2480""
","
","
","""event"",""trial"",""time""
""fullscreenenter"",""1"",""2480""
","
","","","208.10000002384186","","","11","7082","3849","&#9761;","elianto","#3366ff99","-1"," ","0","0","[1059.3999999761581]","1","0","2","","","","","","","",""
"call-function","57","476216","0.0-2.0-12.0","battery-v0.2","","""event"",""trial"",""time""
""fullscreenenter"",""1"",""2480""
","
","
","""event"",""trial"",""time""
""fullscreenenter"",""1"",""2480""
","
","","","","","","","","","","","","","","","","","","","","","","","","","","",""
"pit-instructions","58","509555","0.0-2.0-13.0","battery-v0.2","","""event"",""trial"",""time""
""fullscreenenter"",""1"",""2480""
","
","
","""event"",""trial"",""time""
""fullscreenenter"",""1"",""2480""
","
","","[{""page_index"":0,""viewing_time"":4210.5},{""page_index"":1,""viewing_time"":8119.700000047684},{""page_index"":2,""viewing_time"":3904.2000000476837},{""page_index"":3,""viewing_time"":10823.5},{""page_index"":4,""viewing_time"":6280}]","33338.300000071526","","","","","","","","","","","","","","","","","","","","","","","",""
"pit-trial","59","514166","0.0-2.0-14.0-0.0","battery-v0.2","","""event"",""trial"",""time""
""fullscreenenter"",""1"",""2480""
","
","
","""event"",""trial"",""time""
""fullscreenenter"",""1"",""2480""
","
","","","1752.2000000476837","","","11","7082","3849","&#9826;","elianto","#f73b6a7A","-1"," ","0","-10","[2605.100000023842]","1","0","3","","","","","","","",""
"pit-trial","60","519047","0.0-2.0-14.0-1.0","battery-v0.2","","""event"",""trial"",""time""
""fullscreenenter"",""1"",""2480""
","
","
","""event"",""trial"",""time""
""fullscreenenter"",""1"",""2480""
","
","","","-1","","","11","7082","3849","&#9826;","elianto","#f73b6a7A","-1","-1","1","0","[]","0","0","3","","","","","","","",""
"pit-trial","61","522686","0.0-2.0-14.0-2.0","battery-v0.2","","""event"",""trial"",""time""
""fullscreenenter"",""1"",""2480""
","
","
","""event"",""trial"",""time""
""fullscreenenter"",""1"",""2480""
","
","","","776.6000000238419","","","11","7082","3849","&#9826;","elianto","#f73b6a7A","-1"," ","0","-10","[1629.6000000238419]","1","0","3","","","","","","","",""
"pit-trial","62","525901","0.0-2.0-14.0-3.0","battery-v0.2","","""event"",""trial"",""time""
""fullscreenenter"",""1"",""2480""
","
","
","""event"",""trial"",""time""
""fullscreenenter"",""1"",""2480""
","
","","","344.6999999284744","","","11","7082","3849","&#9826;","elianto","#f73b6a7A","-1"," ","0","0","[1199.8999999761581,2143.399999976158]","2","0","3","","","","","","","",""
"pit-trial","63","530785","0.0-2.0-14.0-4.0","battery-v0.2","","""event"",""trial"",""time""
""fullscreenenter"",""1"",""2480""
","
","
","""event"",""trial"",""time""
""fullscreenenter"",""1"",""2480""
","
","","","-1","","","11","7082","3849","&#9826;","elianto","#f73b6a7A","-1","-1","1","0","[3463]","1","0","3","","","","","","","",""
"pit-trial","64","535666","0.0-2.0-14.1-0.1","battery-v0.2","","""event"",""trial"",""time""
""fullscreenenter"",""1"",""2480""
","
","
","""event"",""trial"",""time""
""fullscreenenter"",""1"",""2480""
","
","","","-1","","","11","7082","3849","&#9826;","elianto","#f73b6a7A","-1","-1","1","0","[383.6999999284744,593]","2","0","3","","","","","","","",""
"pit-trial","65","540520","0.0-2.0-14.1-1.1","battery-v0.2","","""event"",""trial"",""time""
""fullscreenenter"",""1"",""2480""
","
","
","""event"",""trial"",""time""
""fullscreenenter"",""1"",""2480""
","
","","","-1","","","11","7082","3849","&#9826;","elianto","#f73b6a7A","-1","-1","1","0","[]","0","0","3","","","","","","","",""
"pit-trial","66","545375","0.0-2.0-14.1-2.1","battery-v0.2","","""event"",""trial"",""time""
""fullscreenenter"",""1"",""2480""
","
","
","""event"",""trial"",""time""
""fullscreenenter"",""1"",""2480""
","
","","","-1","","","11","7082","3849","&#9826;","elianto","#f73b6a7A","-1","-1","1","0","[]","0","0","3","","","","","","","",""
"pit-trial","67","550230","0.0-2.0-14.1-3.1","battery-v0.2","","""event"",""trial"",""time""
""fullscreenenter"",""1"",""2480""
","
","
","""event"",""trial"",""time""
""fullscreenenter"",""1"",""2480""
","
","","","-1","","","11","7082","3849","&#9826;","elianto","#f73b6a7A","-1","-1","1","-10","[]","0","0","3","","","","","","","",""
"pit-trial","68","553090","0.0-2.0-14.1-4.1","battery-v0.2","","""event"",""trial"",""time""
""fullscreenenter"",""1"",""2480""
","
","
","""event"",""trial"",""time""
""fullscreenenter"",""1"",""2480""
","
","","","4.800000071525574","","","11","7082","3849","&#9826;","elianto","#f73b6a7A","-1"," ","0","-10","[855.2000000476837,1134.9000000953674]","2","0","3","","","","","","","",""
"pit-trial","69","556005","0.0-2.0-14.2-0.2","battery-v0.2","","""event"",""trial"",""time""
""fullscreenenter"",""1"",""2480""
","
","
","""event"",""trial"",""time""
""fullscreenenter"",""1"",""2480""
","
","","","60.5","","","11","7082","3849","&#9826;","elianto","#f73b6a7A","-1"," ","0","-10","[911.2000000476837,1120.8000000715256,1380.8000000715256,1530.7000000476837,1730.7000000476837,1920.3000000715256,2140.3000000715256,2469.600000023842,2689.399999976158,2899.100000023842]","10","0","3","","","","","","","",""
"pit-trial","70","558863","0.0-2.0-14.2-1.2","battery-v0.2","","""event"",""trial"",""time""
""fullscreenenter"",""1"",""2480""
","
","
","""event"",""trial"",""time""
""fullscreenenter"",""1"",""2480""
","
","","","2.299999952316284","","","11","7082","3849","&#9826;","elianto","#f73b6a7A","-1"," ","0","-10","[223.69999992847443,444.10000002384186,725.5,855.2999999523163,1063.7999999523163,1233.6000000238419,1433.2999999523163,1562.8999999761581,1742.6999999284744,2022.3999999761581,2262.2999999523163]","11","0","3","","","","","","","",""
"pit-trial","71","563719","0.0-2.0-14.2-2.2","battery-v0.2","","""event"",""trial"",""time""
""fullscreenenter"",""1"",""2480""
","
","
","""event"",""trial"",""time""
""fullscreenenter"",""1"",""2480""
","
","","","-1","","","11","7082","3849","&#9826;","elianto","#f73b6a7A","-1","-1","1","0","[]","0","0","3","","","","","","","",""
"pit-trial","72","568573","0.0-2.0-14.2-3.2","battery-v0.2","","""event"",""trial"",""time""
""fullscreenenter"",""1"",""2480""
","
","
","""event"",""trial"",""time""
""fullscreenenter"",""1"",""2480""
","
","","","-1","","","11","7082","3849","&#9826;","elianto","#f73b6a7A","-1","-1","1","-10","[]","0","0","3","","","","","","","",""
"pit-trial","73","571805","0.0-2.0-14.2-4.2","battery-v0.2","","""event"",""trial"",""time""
""fullscreenenter"",""1"",""2480""
","
","
","""event"",""trial"",""time""
""fullscreenenter"",""1"",""2480""
","
","","","378.5","","","11","7082","3849","&#9826;","elianto","#f73b6a7A","-1"," ","0","-10","[1229.3000000715256]","1","0","3","","","","","","","",""
"pit-trial","74","576661","0.0-2.0-14.3-0.3","battery-v0.2","","""event"",""trial"",""time""
""fullscreenenter"",""1"",""2480""
","
","
","""event"",""trial"",""time""
""fullscreenenter"",""1"",""2480""
","
","","","-1","","","11","7082","3849","&#9826;","elianto","#f73b6a7A","-1","-1","1","0","[]","0","0","3","","","","","","","",""
"pit-trial","75","581516","0.0-2.0-14.3-1.3","battery-v0.2","","""event"",""trial"",""time""
""fullscreenenter"",""1"",""2480""
","
","
","""event"",""trial"",""time""
""fullscreenenter"",""1"",""2480""
","
","","","-1","","","11","7082","3849","&#9826;","elianto","#f73b6a7A","-1","-1","1","0","[]","0","0","3","","","","","","","",""
"pit-trial","76","586370","0.0-2.0-14.3-2.3","battery-v0.2","","""event"",""trial"",""time""
""fullscreenenter"",""1"",""2480""
","
","
","""event"",""trial"",""time""
""fullscreenenter"",""1"",""2480""
","
","","","-1","","","11","7082","3849","&#9826;","elianto","#f73b6a7A","-1","-1","1","0","[]","0","0","3","","","","","","","",""
"pit-trial","77","591224","0.0-2.0-14.3-3.3","battery-v0.2","","""event"",""trial"",""time""
""fullscreenenter"",""1"",""2480""
","
","
","""event"",""trial"",""time""
""fullscreenenter"",""1"",""2480""
","
","","","-1","","","11","7082","3849","&#9826;","elianto","#f73b6a7A","-1","-1","1","-10","[]","0","0","3","","","","","","","",""
"pit-trial","78","596078","0.0-2.0-14.3-4.3","battery-v0.2","","""event"",""trial"",""time""
""fullscreenenter"",""1"",""2480""
","
","
","""event"",""trial"",""time""
""fullscreenenter"",""1"",""2480""
","
","","","-1","","","11","7082","3849","&#9826;","elianto","#f73b6a7A","-1","-1","1","0","[]","0","0","3","","","","","","","",""
"call-function","79","596080","0.0-2.0-15.0","battery-v0.2","","""event"",""trial"",""time""
""fullscreenenter"",""1"",""2480""
","
","
","""event"",""trial"",""time""
""fullscreenenter"",""1"",""2480""
","
","","","","","","","","","","","","","","","","","","","","","","","","","","",""
"pit-instructions","80","627106","0.0-2.0-16.0","battery-v0.2","","""event"",""trial"",""time""
""fullscreenenter"",""1"",""2480""
","
","
","""event"",""trial"",""time""
""fullscreenenter"",""1"",""2480""
","
","","[{""page_index"":0,""viewing_time"":8688.300000071526},{""page_index"":1,""viewing_time"":13887.899999976158},{""page_index"":2,""viewing_time"":4240.100000023842},{""page_index"":3,""viewing_time"":4207.899999976158}]","31024.700000047684","","","","","","","","","","","","","","","","","","","","","","","",""
"pit-trial","81","630503","0.0-2.0-17.0-0.0","battery-v0.2","","""event"",""trial"",""time""
""fullscreenenter"",""1"",""2480""
","
","
","""event"",""trial"",""time""
""fullscreenenter"",""1"",""2480""
","
","","","538.4000000953674","","","11","7082","3849","&#9789;","elianto","#f73b6a7A"," "," ","1","0","[1389.2000000476837]","1","0","4","","","","","","","",""
"pit-trial","82","633587","0.0-2.0-17.0-1.0","battery-v0.2","","""event"",""trial"",""time""
""fullscreenenter"",""1"",""2480""
","
","
","""event"",""trial"",""time""
""fullscreenenter"",""1"",""2480""
","
","","","206.59999990463257","","","11","7082","3849","&#9789;","elianto","#f73b6a7A"," "," ","1","0","[777.2999999523163,1067.7000000476837,1507.8999999761581,1987.3999999761581,2167.2999999523163,2367.2000000476837,2527,2816.2999999523163,3036.7999999523163]","9","0","4","","","","","","","",""
"pit-trial","83","636526","0.0-2.0-17.0-2.0","battery-v0.2","","""event"",""trial"",""time""
""fullscreenenter"",""1"",""2480""
","
","
","""event"",""trial"",""time""
""fullscreenenter"",""1"",""2480""
","
","","","74.39999997615814","","","11","7082","3849","&#9789;","elianto","#f73b6a7A"," "," ","1","0","[182.40000009536743,501.90000009536743,611,931.9000000953674,1071.1000000238419,1361.7000000476837,1601.6000000238419,1780.9000000953674,1931.2000000476837,2140.9000000953674,2380.9000000953674,2600.5,2790.5]","13","0","4","","","","","","","",""
"pit-trial","84","639587","0.0-2.0-17.0-3.0","battery-v0.2","","""event"",""trial"",""time""
""fullscreenenter"",""1"",""2480""
","
","
","""event"",""trial"",""time""
""fullscreenenter"",""1"",""2480""
","
","","","187.39999997615814","","","11","7082","3849","&#9789;","elianto","#f73b6a7A"," "," ","1","-10","[59.800000071525574,250,461.5,640,839.8999999761581,1039.7000000476837,1239.6000000238419,1409.8000000715256,1599.5,1819.5,2139.7000000476837,2349.100000023842,2558.8000000715256,2758.7000000476837,2948.8000000715256]","15","0","4","","","","","","","",""
"pit-trial","85","642616","0.0-2.0-17.0-4.0","battery-v0.2","","""event"",""trial"",""time""
""fullscreenenter"",""1"",""2480""
","
","
","""event"",""trial"",""time""
""fullscreenenter"",""1"",""2480""
","
","","","157.10000002384186","","","11","7082","3849","&#9789;","elianto","#f73b6a7A"," "," ","1","0","[88.5,287.89999997615814,477.5,817.5,1009.2000000476837,1166.8999999761581,1387,1806.8000000715256,1966.5,2106.3000000715256,2596.100000023842,2885.7000000476837]","12","0","4","","","","","","","",""
"pit-trial","86","645691","0.0-2.0-17.1-0.1","battery-v0.2","","""event"",""trial"",""time""
""fullscreenenter"",""1"",""2480""
","
","
","""event"",""trial"",""time""
""fullscreenenter"",""1"",""2480""
","
","","","202.89999997615814","","","11","7082","3849","&#9789;","elianto","#f73b6a7A"," "," ","1","0","[36.39999997615814,163.5,564.8999999761581,1054.3999999761581,2532.7000000476837,2762.7000000476837]","6","0","4","","","","","","","",""
"pit-trial","87","648616","0.0-2.0-17.1-1.1","battery-v0.2","","""event"",""trial"",""time""
""fullscreenenter"",""1"",""2480""
","
","
","""event"",""trial"",""time""
""fullscreenenter"",""1"",""2480""
","
","","","61.199999928474426","","","11","7082","3849","&#9789;","elianto","#f73b6a7A"," "," ","1","0","[198.59999990463257,919.1999999284744,1628,1827.5999999046326,2267.1999999284744,2626.899999976158,2827.0999999046326]","7","0","4","","","","","","","",""
"pit-trial","88","651677","0.0-2.0-17.1-2.1","battery-v0.2","","""event"",""trial"",""time""
""fullscreenenter"",""1"",""2480""
","
","
","""event"",""trial"",""time""
""fullscreenenter"",""1"",""2480""
","
","","","199.5","","","11","7082","3849","&#9789;","elianto","#f73b6a7A"," "," ","1","0","[102.19999992847443,382.2999999523163,630.7999999523163,851,1050.6000000238419,1260.7999999523163,1440.5,1640.3999999761581,1870.5]","9","0","4","","","","","","","",""
"pit-trial","89","654876","0.0-2.0-17.1-3.1","battery-v0.2","","""event"",""trial"",""time""
""fullscreenenter"",""1"",""2480""
","
","
","""event"",""trial"",""time""
""fullscreenenter"",""1"",""2480""
","
","","","324.39999997615814","","","11","7082","3849","&#9789;","elianto","#f73b6a7A"," "," ","1","-10","[1177.6000000238419]","1","0","4","","","","","","","",""
"pit-trial","90","658126","0.0-2.0-17.1-4.1","battery-v0.2","","""event"",""trial"",""time""
""fullscreenenter"",""1"",""2480""
","
","
","""event"",""trial"",""time""
""fullscreenenter"",""1"",""2480""
","
","","","394.2999999523163","","","11","7082","3849","&#9789;","elianto","#f73b6a7A"," "," ","1","0","[1245.6000000238419,2145.2000000476837,2414.899999976158,2694.8000000715256]","4","0","4","","","","","","","",""
"pit-trial","91","662982","0.0-2.0-17.2-0.2","battery-v0.2","","""event"",""trial"",""time""
""fullscreenenter"",""1"",""2480""
","
","
","""event"",""trial"",""time""
""fullscreenenter"",""1"",""2480""
","
","","","-1","","","11","7082","3849","&#9789;","elianto","#f73b6a7A"," ","-1","0","-10","[3051.2999999523163]","1","0","4","","","","","","","",""
"pit-trial","92","666440","0.0-2.0-17.2-1.2","battery-v0.2","","""event"",""trial"",""time""
""fullscreenenter"",""1"",""2480""
","
","
","""event"",""trial"",""time""
""fullscreenenter"",""1"",""2480""
","
","","","603.5","","","11","7082","3849","&#9789;","elianto","#f73b6a7A"," "," ","1","0","[1454.7999999523163,1634.7999999523163,1904.6000000238419,2284.2000000476837]","4","0","4","","","","","","","",""
"pit-trial","93","670119","0.0-2.0-17.2-2.2","battery-v0.2","","""event"",""trial"",""time""
""fullscreenenter"",""1"",""2480""
","
","
","""event"",""trial"",""time""
""fullscreenenter"",""1"",""2480""
","
","","","824.7999999523163","","","11","7082","3849","&#9789;","elianto","#f73b6a7A"," "," ","1","0","[1675,2104.8000000715256]","2","0","4","","","","","","","",""
"pit-trial","94","674687","0.0-2.0-17.2-3.2","battery-v0.2","","""event"",""trial"",""time""
""fullscreenenter"",""1"",""2480""
","
","
","""event"",""trial"",""time""
""fullscreenenter"",""1"",""2480""
","
","","","1713.8999999761581","","","11","7082","3849","&#9789;","elianto","#f73b6a7A"," "," ","1","-10","[2563.899999976158,2963.399999976158,3233.7000000476837,3353.899999976158,3863.5,4063.2999999523163,4443.100000023842]","7","0","4","","","","","","","",""
"pit-trial","95","677675","0.0-2.0-17.2-4.2","battery-v0.2","","""event"",""trial"",""time""
""fullscreenenter"",""1"",""2480""
","
","
","""event"",""trial"",""time""
""fullscreenenter"",""1"",""2480""
","
","","","132.30000007152557","","","11","7082","3849","&#9789;","elianto","#f73b6a7A"," "," ","1","0","[153,373.5,543,702.9000000953674,983.7000000476837,1173.7000000476837,1353.6000000238419,1543.6000000238419,1763.6000000238419,1933.8000000715256,2123.5,2312.100000023842,2553.5,2802.9000000953674]","14","0","4","","","","","","","",""
"pit-trial","96","680583","0.0-2.0-17.3-0.3","battery-v0.2","","""event"",""trial"",""time""
""fullscreenenter"",""1"",""2480""
","
","
","""event"",""trial"",""time""
""fullscreenenter"",""1"",""2480""
","
","","","52.199999928474426","","","11","7082","3849","&#9789;","elianto","#f73b6a7A"," "," ","1","0","[32.800000071525574,233.89999997615814,433.60000002384186,903,1092.8999999761581,1682.8000000715256,1992.3000000715256,2192.399999976158,2352.3000000715256,2522.399999976158,2882.2000000476837]","11","0","4","","","","","","","",""
"pit-trial","97","684222","0.0-2.0-17.3-1.3","battery-v0.2","","""event"",""trial"",""time""
""fullscreenenter"",""1"",""2480""
","
","
","""event"",""trial"",""time""
""fullscreenenter"",""1"",""2480""
","
","","","784.6000000238419","","","11","7082","3849","&#9789;","elianto","#f73b6a7A"," "," ","1","0","[1635,1854.1000000238419,2104.100000023842,2433.7999999523163,2664.2999999523163,3083.399999976158]","6","0","4","","","","","","","",""
"pit-trial","98","688279","0.0-2.0-17.3-2.3","battery-v0.2","","""event"",""trial"",""time""
""fullscreenenter"",""1"",""2480""
","
","
","""event"",""trial"",""time""
""fullscreenenter"",""1"",""2480""
","
","","","1201.7999999523163","","","11","7082","3849","&#9789;","elianto","#f73b6a7A"," "," ","1","0","[633.1000000238419,823.1000000238419,2053.2000000476837,2323,2497.600000023842,2722.7999999523163,2911.5,3332.399999976158,3481.100000023842]","9","0","4","","","","","","","",""
"pit-trial","99","691517","0.0-2.0-17.3-3.3","battery-v0.2","","""event"",""trial"",""time""
""fullscreenenter"",""1"",""2480""
","
","
","""event"",""trial"",""time""
""fullscreenenter"",""1"",""2480""
","
","","","382.5","","","11","7082","3849","&#9789;","elianto","#f73b6a7A"," "," ","1","-10","[603.1000000238419,1233,1438.3999999761581,1583.3000000715256,1792.7000000476837]","5","0","4","","","","","","","",""
"pit-trial","100","695696","0.0-2.0-17.3-4.3","battery-v0.2","","""event"",""trial"",""time""
""fullscreenenter"",""1"",""2480""
","
","
","""event"",""trial"",""time""
""fullscreenenter"",""1"",""2480""
","
","","","1324.1999999284744","","","11","7082","3849","&#9789;","elianto","#f73b6a7A"," "," ","1","0","[114,2175,2634.6999999284744,3733.899999976158]","4","0","4","","","","","","","",""
"call-function","101","695700","0.0-2.0-18.0","battery-v0.2","","""event"",""trial"",""time""
""fullscreenenter"",""1"",""2480""
","
","
","""event"",""trial"",""time""
""fullscreenenter"",""1"",""2480""
","
","","","","","","","","","","","","","","","","","","","","","","","","","","",""
"pit-instructions","102","761520","0.0-2.0-19.0","battery-v0.2","","""event"",""trial"",""time""
""fullscreenenter"",""1"",""2480""
","
","
","""event"",""trial"",""time""
""fullscreenenter"",""1"",""2480""
","
","","[{""page_index"":0,""viewing_time"":6764},{""page_index"":1,""viewing_time"":4280},{""page_index"":2,""viewing_time"":13799.899999976158},{""page_index"":3,""viewing_time"":8311.699999928474},{""page_index"":4,""viewing_time"":8816},{""page_index"":5,""viewing_time"":8847.900000095367},{""page_index"":6,""viewing_time"":4055.899999976158},{""page_index"":7,""viewing_time"":6311.899999976158},{""page_index"":8,""viewing_time"":4632}]","65819.69999992847","","","","","","","","","","","","","","","","","","","","","","","",""
"pit-comprehension","103","767976","0.0-2.0-20.0-0.0","battery-v0.2","","""event"",""trial"",""time""
""fullscreenenter"",""1"",""2480""
","
","
","""event"",""trial"",""time""
""fullscreenenter"",""1"",""2480""
","
","","","6452.300000071526","[""SPACE""]","0","11","7082","3849","","","","","","","","","","","","","","","","","","",""
"pit-instructions","104","773575","0.0-2.0-20.0-1.0","battery-v0.2","","""event"",""trial"",""time""
""fullscreenenter"",""1"",""2480""
","
","
","""event"",""trial"",""time""
""fullscreenenter"",""1"",""2480""
","
","","[{""page_index"":0,""viewing_time"":5469.100000023842}]","5469.5","","","","","","","","","","","","","","","","","","","","","","","",""
"pit-comprehension","105","789176","0.0-2.0-21.0-0.0","battery-v0.2","","""event"",""trial"",""time""
""fullscreenenter"",""1"",""2480""
","
","
","""event"",""trial"",""time""
""fullscreenenter"",""1"",""2480""
","
","","","15596.199999928474","[""10""]","0","11","7082","3849","","","","","","","","","","","","","","","","","","",""
"pit-instructions","106","793135","0.0-2.0-21.0-1.0","battery-v0.2","","""event"",""trial"",""time""
""fullscreenenter"",""1"",""2480""
","
","
","""event"",""trial"",""time""
""fullscreenenter"",""1"",""2480""
","
","","[{""page_index"":0,""viewing_time"":3905}]","3905.399999976158","","","","","","","","","","","","","","","","","","","","","","","",""
"pit-comprehension","107","799448","0.0-2.0-22.0-0.0","battery-v0.2","","""event"",""trial"",""time""
""fullscreenenter"",""1"",""2480""
","
","
","""event"",""trial"",""time""
""fullscreenenter"",""1"",""2480""
","
","","","6308.899999976158","[""-10""]","1","11","7082","3849","","","","","","","","","","","","","","","","","","",""
"pit-instructions","108","804335","0.0-2.0-22.0-1.0","battery-v0.2","","""event"",""trial"",""time""
""fullscreenenter"",""1"",""2480""
","
","
","""event"",""trial"",""time""
""fullscreenenter"",""1"",""2480""
","
","","[{""page_index"":0,""viewing_time"":4826.799999952316}]","4827.099999904633","","","","","","","","","","","","","","","","","","","","","","","",""
"pit-instructions","109","806535","0.0-2.0-22.0-2.0-0.0","battery-v0.2","","""event"",""trial"",""time""
""fullscreenenter"",""1"",""2480""
","
","
","""event"",""trial"",""time""
""fullscreenenter"",""1"",""2480""
","
","","[{""page_index"":0,""viewing_time"":2197.899999976158}]","2198.1999999284744","","","","","","","","","","","","","","","","","","","","","","","",""
"pit-comprehension","110","813095","0.0-2.0-22.1-0.1","battery-v0.2","","""event"",""trial"",""time""
""fullscreenenter"",""1"",""2480""
","
","
","""event"",""trial"",""time""
""fullscreenenter"",""1"",""2480""
","
","","","6557.099999904633","[""-10""]","1","11","7082","3849","","","","","","","","","","","","","","","","","","",""
"pit-instructions","111","816079","0.0-2.0-22.1-1.1","battery-v0.2","","""event"",""trial"",""time""
""fullscreenenter"",""1"",""2480""
","
","
","""event"",""trial"",""time""
""fullscreenenter"",""1"",""2480""
","
","","[{""page_index"":0,""viewing_time"":2925.899999976158}]","2926.2999999523163","","","","","","","","","","","","","","","","","","","","","","","",""
"pit-instructions","112","816695","0.0-2.0-22.1-2.1-0.1","battery-v0.2","","""event"",""trial"",""time""
""fullscreenenter"",""1"",""2480""
","
","
","""event"",""trial"",""time""
""fullscreenenter"",""1"",""2480""
","
","","[{""page_index"":0,""viewing_time"":614.2999999523163}]","614.7999999523163","","","","","","","","","","","","","","","","","","","","","","","",""
"pit-comprehension","113","824743","0.0-2.0-22.2-0.2","battery-v0.2","","""event"",""trial"",""time""
""fullscreenenter"",""1"",""2480""
","
","
","""event"",""trial"",""time""
""fullscreenenter"",""1"",""2480""
","
","","","8045.899999976158","[""0""]","0","11","7082","3849","","","","","","","","","","","","","","","","","","",""
"pit-instructions","114","826535","0.0-2.0-22.2-1.2","battery-v0.2","","""event"",""trial"",""time""
""fullscreenenter"",""1"",""2480""
","
","
","""event"",""trial"",""time""
""fullscreenenter"",""1"",""2480""
","
","","[{""page_index"":0,""viewing_time"":1722.8999999761581}]","1723.2999999523163","","","","","","","","","","","","","","","","","","","","","","","",""
"pit-comprehension","115","839423","0.0-2.0-23.0-0.0","battery-v0.2","","""event"",""trial"",""time""
""fullscreenenter"",""1"",""2480""
","
","
","""event"",""trial"",""time""
""fullscreenenter"",""1"",""2480""
","
","","","12885.399999976158","[""True""]","0","11","7082","3849","","","","","","","","","","","","","","","","","","",""
"pit-instructions","116","842479","0.0-2.0-23.0-1.0","battery-v0.2","","""event"",""trial"",""time""
""fullscreenenter"",""1"",""2480""
","
","
","""event"",""trial"",""time""
""fullscreenenter"",""1"",""2480""
","
","","[{""page_index"":0,""viewing_time"":2993.899999976158}]","2994.1999999284744","","","","","","","","","","","","","","","","","","","","","","","",""
"pit-comprehension","117","850983","0.0-2.0-24.0-0.0","battery-v0.2","","""event"",""trial"",""time""
""fullscreenenter"",""1"",""2480""
","
","
","""event"",""trial"",""time""
""fullscreenenter"",""1"",""2480""
","
","","","8501.200000047684","[""True""]","0","11","7082","3849","","","","","","","","","","","","","","","","","","",""
"pit-instructions","118","855782","0.0-2.0-24.0-1.0","battery-v0.2","","""event"",""trial"",""time""
""fullscreenenter"",""1"",""2480""
","
","
","""event"",""trial"",""time""
""fullscreenenter"",""1"",""2480""
","
","","[{""page_index"":0,""viewing_time"":4730}]","4730.400000095367","","","","","","","","","","","","","","","","","","","","","","","",""
"pit-comprehension","119","862143","0.0-2.0-25.0-0.0","battery-v0.2","","""event"",""trial"",""time""
""fullscreenenter"",""1"",""2480""
","
","
","""event"",""trial"",""time""
""fullscreenenter"",""1"",""2480""
","
","","","6356.799999952316","[""True""]","0","11","7082","3849","","","","","","","","","","","","","","","","","","",""
"pit-instructions","120","864462","0.0-2.0-25.0-1.0","battery-v0.2","","""event"",""trial"",""time""
""fullscreenenter"",""1"",""2480""
","
","
","""event"",""trial"",""time""
""fullscreenenter"",""1"",""2480""
","
","","[{""page_index"":0,""viewing_time"":2256.2000000476837}]","2256.5","","","","","","","","","","","","","","","","","","","","","","","",""
"pit-comprehension","121","869247","0.0-2.0-26.0-0.0","battery-v0.2","","""event"",""trial"",""time""
""fullscreenenter"",""1"",""2480""
","
","
","""event"",""trial"",""time""
""fullscreenenter"",""1"",""2480""
","
","","","4780.5","[""False""]","0","11","7082","3849","","","","","","","","","","","","","","","","","","",""
"pit-instructions","122","871990","0.0-2.0-26.0-1.0","battery-v0.2","","""event"",""trial"",""time""
""fullscreenenter"",""1"",""2480""
","
","
","""event"",""trial"",""time""
""fullscreenenter"",""1"",""2480""
","
","","[{""page_index"":0,""viewing_time"":2676.5}]","2676.8000000715256","","","","","","","","","","","","","","","","","","","","","","","",""
"pit-instructions","123","889062","0.0-3.0","battery-v0.2","","""event"",""trial"",""time""
""fullscreenenter"",""1"",""2480""
","
","
","""event"",""trial"",""time""
""fullscreenenter"",""1"",""2480""
","
","","[{""page_index"":0,""viewing_time"":4654},{""page_index"":1,""viewing_time"":5479.899999976158},{""page_index"":2,""viewing_time"":6935.899999976158}]","17070.100000023842","","","","","","","","","","","","","","","","","","","","","","","",""
"pit-trial","124","893145","0.0-4.0","battery-v0.2","","""event"",""trial"",""time""
""fullscreenenter"",""1"",""2480""
","
","
","""event"",""trial"",""time""
""fullscreenenter"",""1"",""2480""
","
","","","1213.5999999046326","","","11","7082","3849","&#9733;","elianto","#3366ff99","-1"," ","0","0","[2066.600000023842]","1","1","","","7082","1","2","2","win","no-go","0"
"pit-trial","125","896521","0.0-5.0","battery-v0.2","","""event"",""trial"",""time""
""fullscreenenter"",""1"",""2480""
","
","
","""event"",""trial"",""time""
""fullscreenenter"",""1"",""2480""
","
","","","507.5","","","11","7082","3849","&#9728;","elianto","#f73b6a7A","-1"," ","0","-10","[1357.8999999761581]","1","1","","","7082","2","0","4","lose","no-go","0"
"pit-trial","126","900385","0.0-6.0","battery-v0.2","","""event"",""trial"",""time""
""fullscreenenter"",""1"",""2480""
","
","
","""event"",""trial"",""time""
""fullscreenenter"",""1"",""2480""
","
","","","999","","","11","7082","3849","&#9752;","elianto","#f73b6a7A"," "," ","1","0","[1853.9000000953674]","1","1","","","7082","3","3","3","lose","go","0"
"pit-trial","127","904535","0.0-7.0","battery-v0.2","","""event"",""trial"",""time""
""fullscreenenter"",""1"",""2480""
","
","
","""event"",""trial"",""time""
""fullscreenenter"",""1"",""2480""
","
","","","1281.2000000476837","","","11","7082","3849","&#9730;","elianto","#3366ff99"," "," ","1","+10","[2133.899999976158]","1","1","","","7082","4","1","1","win","go","0"
"pit-trial","128","909424","0.0-8.0","battery-v0.2","","""event"",""trial"",""time""
""fullscreenenter"",""1"",""2480""
","
","
","""event"",""trial"",""time""
""fullscreenenter"",""1"",""2480""
","
","","","-1","","","11","7082","3849","&#9728;","elianto","#f73b6a7A","-1","-1","1","0","[]","0","1","","","7082","5","0","4","lose","no-go","0"
"pit-trial","129","914214","0.0-9.0","battery-v0.2","","""event"",""trial"",""time""
""fullscreenenter"",""1"",""2480""
","
","
","""event"",""trial"",""time""
""fullscreenenter"",""1"",""2480""
","
","","","1927.3999999761581","","","11","7082","3849","&#9752;","elianto","#f73b6a7A"," "," ","1","0","[2782]","1","1","","","7082","6","3","3","lose","go","0"
"pit-trial","130","917604","0.0-10.0","battery-v0.2","","""event"",""trial"",""time""
""fullscreenenter"",""1"",""2480""
","
","
","""event"",""trial"",""time""
""fullscreenenter"",""1"",""2480""
","
","","","532.7999999523163","","","11","7082","3849","&#9730;","elianto","#3366ff99"," "," ","1","+10","[1385]","1","1","","","7082","7","1","1","win","go","0"
"pit-trial","131","921766","0.0-11.0","battery-v0.2","","""event"",""trial"",""time""
""fullscreenenter"",""1"",""2480""
","
","
","""event"",""trial"",""time""
""fullscreenenter"",""1"",""2480""
","
","","","1306.5","","","11","7082","3849","&#9733;","elianto","#3366ff99","-1"," ","0","0","[2157.5]","1","1","","","7082","8","2","2","win","no-go","0"
"pit-trial","132","925358","0.0-12.0","battery-v0.2","","""event"",""trial"",""time""
""fullscreenenter"",""1"",""2480""
","
","
","""event"",""trial"",""time""
""fullscreenenter"",""1"",""2480""
","
","","","738.2999999523163","","","11","7082","3849","&#9733;","elianto","#3366ff99","-1"," ","0","+10","[1588.5]","1","1","","","7082","9","2","2","win","no-go","1"
"pit-trial","133","930214","0.0-13.0","battery-v0.2","","""event"",""trial"",""time""
""fullscreenenter"",""1"",""2480""
","
","
","""event"",""trial"",""time""
""fullscreenenter"",""1"",""2480""
","
","","","-1","","","11","7082","3849","&#9752;","elianto","#f73b6a7A"," ","-1","0","0","[]","0","1","","","7082","10","3","3","lose","go","1"
"pit-trial","134","934235","0.0-14.0","battery-v0.2","","""event"",""trial"",""time""
""fullscreenenter"",""1"",""2480""
","
","
","""event"",""trial"",""time""
""fullscreenenter"",""1"",""2480""
","
","","","1165.8999999761581","","","11","7082","3849","&#9730;","elianto","#3366ff99"," "," ","1","+10","[2017.3999999761581]","1","1","","","7082","11","1","1","win","go","0"
"pit-trial","135","939089","0.0-15.0","battery-v0.2","","""event"",""trial"",""time""
""fullscreenenter"",""1"",""2480""
","
","
","""event"",""trial"",""time""
""fullscreenenter"",""1"",""2480""
","
","","","-1","","","11","7082","3849","&#9728;","elianto","#f73b6a7A","-1","-1","1","-10","[]","0","1","","","7082","12","0","4","lose","no-go","1"
"pit-trial","136","942600","0.0-16.0","battery-v0.2","","""event"",""trial"",""time""
""fullscreenenter"",""1"",""2480""
","
","
","""event"",""trial"",""time""
""fullscreenenter"",""1"",""2480""
","
","","","657.1000000238419","","","11","7082","3849","&#9730;","elianto","#3366ff99"," "," ","1","+10","[1507.7000000476837]","1","1","","","7082","13","1","1","win","go","0"
"pit-trial","137","946474","0.0-17.0","battery-v0.2","","""event"",""trial"",""time""
""fullscreenenter"",""1"",""2480""
","
","
","""event"",""trial"",""time""
""fullscreenenter"",""1"",""2480""
","
","","","1019.2999999523163","","","11","7082","3849","&#9728;","elianto","#f73b6a7A","-1"," ","0","-10","[1870.1999999284744]","1","1","","","7082","14","0","4","lose","no-go","0"
"pit-trial","138","950595","0.0-18.0","battery-v0.2","","""event"",""trial"",""time""
""fullscreenenter"",""1"",""2480""
","
","
","""event"",""trial"",""time""
""fullscreenenter"",""1"",""2480""
","
","","","1267.8999999761581","","","11","7082","3849","&#9733;","elianto","#3366ff99","-1"," ","0","0","[2119.100000023842]","1","1","","","7082","15","2","2","win","no-go","0"
"pit-trial","139","954108","0.0-19.0","battery-v0.2","","""event"",""trial"",""time""
""fullscreenenter"",""1"",""2480""
","
","
","""event"",""trial"",""time""
""fullscreenenter"",""1"",""2480""
","
","","","660.1000000238419","","","11","7082","3849","&#9752;","elianto","#f73b6a7A"," "," ","1","0","[1510.3999999761581]","1","1","","","7082","16","3","3","lose","go","0"
"pit-trial","140","957724","0.0-20.0","battery-v0.2","","""event"",""trial"",""time""
""fullscreenenter"",""1"",""2480""
","
","
","""event"",""trial"",""time""
""fullscreenenter"",""1"",""2480""
","
","","","751.7999999523163","","","11","7082","3849","&#9730;","elianto","#3366ff99"," "," ","1","+10","[509.7000000476837,1601.9000000953674]","2","1","","","7082","17","1","1","win","go","0"
"pit-trial","141","961567","0.0-21.0","battery-v0.2","","""event"",""trial"",""time""
""fullscreenenter"",""1"",""2480""
","
","
","""event"",""trial"",""time""
""fullscreenenter"",""1"",""2480""
","
","","","987.5","","","11","7082","3849","&#9752;","elianto","#f73b6a7A"," "," ","1","0","[1838.2000000476837]","1","1","","","7082","18","3","3","lose","go","0"
"pit-trial","142","966421","0.0-22.0","battery-v0.2","","""event"",""trial"",""time""
""fullscreenenter"",""1"",""2480""
","
","
","""event"",""trial"",""time""
""fullscreenenter"",""1"",""2480""
","
","","","-1","","","11","7082","3849","&#9728;","elianto","#f73b6a7A","-1","-1","1","-10","[]","0","1","","","7082","19","0","4","lose","no-go","1"
"pit-trial","143","970359","0.0-23.0","battery-v0.2","","""event"",""trial"",""time""
""fullscreenenter"",""1"",""2480""
","
","
","""event"",""trial"",""time""
""fullscreenenter"",""1"",""2480""
","
","","","1084.7999999523163","","","11","7082","3849","&#9733;","elianto","#3366ff99","-1"," ","0","0","[1935]","1","1","","","7082","20","2","2","win","no-go","0"
"pit-instructions","144","982925","0.0-24.0","battery-v0.2","","""event"",""trial"",""time""
""fullscreenenter"",""1"",""2480""
","
","
","""event"",""trial"",""time""
""fullscreenenter"",""1"",""2480""
","
","","[{""page_index"":0,""viewing_time"":5380},{""page_index"":1,""viewing_time"":7184.100000023842}]","12564.5","","","","","","","","","","","","","","","","","","","","","","","",""
"pit-trial","145","987029","0.0-25.0","battery-v0.2","","""event"",""trial"",""time""
""fullscreenenter"",""1"",""2480""
","
","
","""event"",""trial"",""time""
""fullscreenenter"",""1"",""2480""
","
","","","1226.1000000238419","","","11","7082","3849","d","elianto","#3366ff99"," "," ","1","0","[2082.7000000476837]","1","2","","","7082","21","1","1","win","go","1"
"pit-trial","146","990369","0.0-26.0","battery-v0.2","","""event"",""trial"",""time""
""fullscreenenter"",""1"",""2480""
","
","
","""event"",""trial"",""time""
""fullscreenenter"",""1"",""2480""
","
","","","465.10000002384186","","","11","7082","3849","e","elianto","#f73b6a7A","-1"," ","0","0","[1319.3999999761581]","1","2","","","7082","22","2","4","lose","no-go","1"
"pit-trial","147","994759","0.0-27.0","battery-v0.2","","""event"",""trial"",""time""
""fullscreenenter"",""1"",""2480""
","
","
","""event"",""trial"",""time""
""fullscreenenter"",""1"",""2480""
","
","","","1523.5","","","11","7082","3849","j","elianto","#f73b6a7A","-1"," ","0","-10","[2383]","1","2","","","7082","23","0","4","lose","no-go","0"
"pit-trial","148","998588","0.0-28.0","battery-v0.2","","""event"",""trial"",""time""
""fullscreenenter"",""1"",""2480""
","
","
","""event"",""trial"",""time""
""fullscreenenter"",""1"",""2480""
","
","","","965","","","11","7082","3849","w","elianto","#f73b6a7A"," "," ","1","0","[1817.2999999523163]","1","2","","","7082","24","3","3","lose","go","0"
"pit-trial","149","1001869","0.0-29.0","battery-v0.2","","""event"",""trial"",""time""
""fullscreenenter"",""1"",""2480""
","
","
","""event"",""trial"",""time""
""fullscreenenter"",""1"",""2480""
","
","","","409.7000000476837","","","11","7082","3849","d","elianto","#3366ff99"," "," ","1","+10","[1260.2000000476837]","1","2","","","7082","25","1","1","win","go","0"
"pit-trial","150","1006740","0.0-30.0","battery-v0.2","","""event"",""trial"",""time""
""fullscreenenter"",""1"",""2480""
","
","
","""event"",""trial"",""time""
""fullscreenenter"",""1"",""2480""
","
","","","-1","","","11","7082","3849","w","elianto","#f73b6a7A"," ","-1","0","0","[]","0","2","","","7082","26","3","3","lose","go","1"
"pit-trial","151","1011615","0.0-31.0","battery-v0.2","","""event"",""trial"",""time""
""fullscreenenter"",""1"",""2480""
","
","
","""event"",""trial"",""time""
""fullscreenenter"",""1"",""2480""
","
","","","-1","","","11","7082","3849","j","elianto","#f73b6a7A","-1","-1","1","0","[]","0","2","","","7082","27","0","4","lose","no-go","0"
"pit-trial","152","1015343","0.0-32.0","battery-v0.2","","""event"",""trial"",""time""
""fullscreenenter"",""1"",""2480""
","
","
","""event"",""trial"",""time""
""fullscreenenter"",""1"",""2480""
","
","","","865","","","11","7082","3849","e","elianto","#f73b6a7A","-1"," ","0","-10","[1724.9000000953674]","1","2","","","7082","28","2","4","lose","no-go","0"
"pit-trial","153","1020198","0.0-33.0","battery-v0.2","","""event"",""trial"",""time""
""fullscreenenter"",""1"",""2480""
","
","
","""event"",""trial"",""time""
""fullscreenenter"",""1"",""2480""
","
","","","-1","","","11","7082","3849","w","elianto","#f73b6a7A"," ","-1","0","0","[]","0","2","","","7082","29","3","3","lose","go","1"
"pit-trial","154","1025052","0.0-34.0","battery-v0.2","","""event"",""trial"",""time""
""fullscreenenter"",""1"",""2480""
","
","
","""event"",""trial"",""time""
""fullscreenenter"",""1"",""2480""
","
","","","-1","","","11","7082","3849","j","elianto","#f73b6a7A","-1","-1","1","0","[]","0","2","","","7082","30","0","4","lose","no-go","0"
"pit-trial","155","1028854","0.0-35.0","battery-v0.2","","""event"",""trial"",""time""
""fullscreenenter"",""1"",""2480""
","
","
","""event"",""trial"",""time""
""fullscreenenter"",""1"",""2480""
","
","","","948.0999999046326","","","11","7082","3849","d","elianto","#3366ff99"," "," ","1","+10","[1798.8999999761581]","1","2","","","7082","31","1","1","win","go","0"
"pit-trial","156","1033709","0.0-36.0","battery-v0.2","","""event"",""trial"",""time""
""fullscreenenter"",""1"",""2480""
","
","
","""event"",""trial"",""time""
""fullscreenenter"",""1"",""2480""
","
","","","-1","","","11","7082","3849","e","elianto","#f73b6a7A","-1","-1","1","0","[]","0","2","","","7082","32","2","4","lose","no-go","0"
"pit-trial","157","1038564","0.0-37.0","battery-v0.2","","""event"",""trial"",""time""
""fullscreenenter"",""1"",""2480""
","
","
","""event"",""trial"",""time""
""fullscreenenter"",""1"",""2480""
","
","","","-1","","","11","7082","3849","e","elianto","#f73b6a7A","-1","-1","1","0","[]","0","2","","","7082","33","2","4","lose","no-go","0"
"pit-trial","158","1042958","0.0-38.0","battery-v0.2","","""event"",""trial"",""time""
""fullscreenenter"",""1"",""2480""
","
","
","""event"",""trial"",""time""
""fullscreenenter"",""1"",""2480""
","
","","","1538.7000000476837","","","11","7082","3849","j","elianto","#f73b6a7A","-1"," ","0","-10","[2389.399999976158]","1","2","","","7082","34","0","4","lose","no-go","0"
"pit-trial","159","1047723","0.0-39.0","battery-v0.2","","""event"",""trial"",""time""
""fullscreenenter"",""1"",""2480""
","
","
","""event"",""trial"",""time""
""fullscreenenter"",""1"",""2480""
","
","","","1910.5","","","11","7082","3849","d","elianto","#3366ff99"," "," ","1","0","[2761.2999999523163,3292.100000023842]","2","2","","","7082","35","1","1","win","go","1"
"pit-trial","160","1051997","0.0-40.0","battery-v0.2","","""event"",""trial"",""time""
""fullscreenenter"",""1"",""2480""
","
","
","""event"",""trial"",""time""
""fullscreenenter"",""1"",""2480""
","
","","","1418.1000000238419","","","11","7082","3849","w","elianto","#f73b6a7A"," "," ","1","0","[2270.1999999284744]","1","2","","","7082","36","3","3","lose","go","0"
"pit-trial","161","1056852","0.0-41.0","battery-v0.2","","""event"",""trial"",""time""
""fullscreenenter"",""1"",""2480""
","
","
","""event"",""trial"",""time""
""fullscreenenter"",""1"",""2480""
","
","","","-1","","","11","7082","3849","e","elianto","#f73b6a7A","-1","-1","1","-10","[]","0","2","","","7082","37","2","4","lose","no-go","1"
"pit-trial","162","1060564","0.0-42.0","battery-v0.2","","""event"",""trial"",""time""
""fullscreenenter"",""1"",""2480""
","
","
","""event"",""trial"",""time""
""fullscreenenter"",""1"",""2480""
","
","","","857.6999999284744","","","11","7082","3849","w","elianto","#f73b6a7A"," "," ","1","-10","[1708.1999999284744]","1","2","","","7082","38","3","3","lose","go","1"
"pit-trial","163","1064187","0.0-43.0","battery-v0.2","","""event"",""trial"",""time""
""fullscreenenter"",""1"",""2480""
","
","
","""event"",""trial"",""time""
""fullscreenenter"",""1"",""2480""
","
","","","767.3999999761581","","","11","7082","3849","d","elianto","#3366ff99"," "," ","1","+10","[1618]","1","2","","","7082","39","1","1","win","go","0"
"pit-trial","164","1069041","0.0-44.0","battery-v0.2","","""event"",""trial"",""time""
""fullscreenenter"",""1"",""2480""
","
","
","""event"",""trial"",""time""
""fullscreenenter"",""1"",""2480""
","
","","","-1","","","11","7082","3849","j","elianto","#f73b6a7A","-1","-1","1","0","[]","0","2","","","7082","40","0","4","lose","no-go","0"
"pit-trial","165","1073895","0.0-45.0","battery-v0.2","","""event"",""trial"",""time""
""fullscreenenter"",""1"",""2480""
","
","
","""event"",""trial"",""time""
""fullscreenenter"",""1"",""2480""
","
","","","-1","","","11","7082","3849","e","elianto","#f73b6a7A","-1","-1","1","0","[]","0","2","","","7082","41","2","4","lose","no-go","0"
"pit-trial","166","1077547","0.0-46.0","battery-v0.2","","""event"",""trial"",""time""
""fullscreenenter"",""1"",""2480""
","
","
","""event"",""trial"",""time""
""fullscreenenter"",""1"",""2480""
","
","","","797","","","11","7082","3849","d","elianto","#3366ff99"," "," ","1","+10","[1647.6999999284744]","1","2","","","7082","42","1","1","win","go","0"
"pit-trial","167","1082401","0.0-47.0","battery-v0.2","","""event"",""trial"",""time""
""fullscreenenter"",""1"",""2480""
","
","
","""event"",""trial"",""time""
""fullscreenenter"",""1"",""2480""
","
","","","-1","","","11","7082","3849","j","elianto","#f73b6a7A","-1","-1","1","0","[]","0","2","","","7082","43","0","4","lose","no-go","0"
"pit-trial","168","1087256","0.0-48.0","battery-v0.2","","""event"",""trial"",""time""
""fullscreenenter"",""1"",""2480""
","
","
","""event"",""trial"",""time""
""fullscreenenter"",""1"",""2480""
","
","","","-1","","","11","7082","3849","w","elianto","#f73b6a7A"," ","-1","0","-10","[]","0","2","","","7082","44","3","3","lose","go","0"
"pit-trial","169","1091537","0.0-49.0","battery-v0.2","","""event"",""trial"",""time""
""fullscreenenter"",""1"",""2480""
","
","
","""event"",""trial"",""time""
""fullscreenenter"",""1"",""2480""
","
","","","1426.4000000953674","","","11","7082","3849","s","elianto","#3366ff99","-1"," ","0","0","[2277.100000023842,2957.100000023842]","2","2","","","7082","45","4","2","win","no-go","0"
"pit-trial","170","1096392","0.0-50.0","battery-v0.2","","""event"",""trial"",""time""
""fullscreenenter"",""1"",""2480""
","
","
","""event"",""trial"",""time""
""fullscreenenter"",""1"",""2480""
","
","","","-1","","","11","7082","3849","j","elianto","#f73b6a7A","-1","-1","1","0","[]","0","2","","","7082","46","0","4","lose","no-go","0"
"pit-trial","171","1101246","0.0-51.0","battery-v0.2","","""event"",""trial"",""time""
""fullscreenenter"",""1"",""2480""
","
","
","""event"",""trial"",""time""
""fullscreenenter"",""1"",""2480""
","
","","","-1","","","11","7082","3849","w","elianto","#f73b6a7A"," ","-1","0","0","[]","0","2","","","7082","47","3","3","lose","go","1"
"pit-trial","172","1106100","0.0-52.0","battery-v0.2","","""event"",""trial"",""time""
""fullscreenenter"",""1"",""2480""
","
","
","""event"",""trial"",""time""
""fullscreenenter"",""1"",""2480""
","
","","","-1","","","11","7082","3849","e","elianto","#f73b6a7A","-1","-1","1","0","[]","0","2","","","7082","48","2","4","lose","no-go","0"
"pit-trial","173","1109769","0.0-53.0","battery-v0.2","","""event"",""trial"",""time""
""fullscreenenter"",""1"",""2480""
","
","
","""event"",""trial"",""time""
""fullscreenenter"",""1"",""2480""
","
","","","814.2999999523163","","","11","7082","3849","d","elianto","#3366ff99"," "," ","1","+10","[1665.3000000715256]","1","2","","","7082","49","1","1","win","go","0"
"pit-trial","174","1114624","0.0-54.0","battery-v0.2","","""event"",""trial"",""time""
""fullscreenenter"",""1"",""2480""
","
","
","""event"",""trial"",""time""
""fullscreenenter"",""1"",""2480""
","
","","","-1","","","11","7082","3849","j","elianto","#f73b6a7A","-1","-1","1","-10","[]","0","2","","","7082","50","0","4","lose","no-go","1"
"pit-trial","175","1119478","0.0-55.0","battery-v0.2","","""event"",""trial"",""time""
""fullscreenenter"",""1"",""2480""
","
","
","""event"",""trial"",""time""
""fullscreenenter"",""1"",""2480""
","
","","","-1","","","11","7082","3849","w","elianto","#f73b6a7A"," ","-1","0","0","[]","0","2","","","7082","51","3","3","lose","go","1"
"pit-trial","176","1123187","0.0-56.0","battery-v0.2","","""event"",""trial"",""time""
""fullscreenenter"",""1"",""2480""
","
","
","""event"",""trial"",""time""
""fullscreenenter"",""1"",""2480""
","
","","","854.9000000953674","","","11","7082","3849","s","elianto","#3366ff99","-1"," ","0","0","[1705.5]","1","2","","","7082","52","4","2","win","no-go","0"
"pit-trial","177","1126988","0.0-57.0","battery-v0.2","","""event"",""trial"",""time""
""fullscreenenter"",""1"",""2480""
","
","
","""event"",""trial"",""time""
""fullscreenenter"",""1"",""2480""
","
","","","948.3000000715256","","","11","7082","3849","d","elianto","#3366ff99"," "," ","1","+10","[1798.6000000238419]","1","2","","","7082","53","1","1","win","go","0"
"pit-trial","178","1130670","0.0-58.0","battery-v0.2","","""event"",""trial"",""time""
""fullscreenenter"",""1"",""2480""
","
","
","""event"",""trial"",""time""
""fullscreenenter"",""1"",""2480""
","
","","","827.6000000238419","","","11","7082","3849","s","elianto","#3366ff99","-1"," ","0","0","[1678]","1","2","","","7082","54","4","2","win","no-go","0"
"pit-trial","179","1135524","0.0-59.0","battery-v0.2","","""event"",""trial"",""time""
""fullscreenenter"",""1"",""2480""
","
","
","""event"",""trial"",""time""
""fullscreenenter"",""1"",""2480""
","
","","","-1","","","11","7082","3849","j","elianto","#f73b6a7A","-1","-1","1","0","[]","0","2","","","7082","55","0","4","lose","no-go","0"
"pit-trial","180","1140378","0.0-60.0","battery-v0.2","","""event"",""trial"",""time""
""fullscreenenter"",""1"",""2480""
","
","
","""event"",""trial"",""time""
""fullscreenenter"",""1"",""2480""
","
","","","-1","","","11","7082","3849","e","elianto","#f73b6a7A","-1","-1","1","0","[]","0","2","","","7082","56","2","4","lose","no-go","0"
"pit-trial","181","1145233","0.0-61.0","battery-v0.2","","""event"",""trial"",""time""
""fullscreenenter"",""1"",""2480""
","
","
","""event"",""trial"",""time""
""fullscreenenter"",""1"",""2480""
","
","","","-1","","","11","7082","3849","j","elianto","#f73b6a7A","-1","-1","1","0","[]","0","2","","","7082","57","0","4","lose","no-go","0"
"pit-trial","182","1149679","0.0-62.0","battery-v0.2","","""event"",""trial"",""time""
""fullscreenenter"",""1"",""2480""
","
","
","""event"",""trial"",""time""
""fullscreenenter"",""1"",""2480""
","
","","","1592.2000000476837","","","11","7082","3849","w","elianto","#f73b6a7A"," "," ","1","0","[2442.5]","1","2","","","7082","58","3","3","lose","go","0"
"pit-trial","183","1153372","0.0-63.0","battery-v0.2","","""event"",""trial"",""time""
""fullscreenenter"",""1"",""2480""
","
","
","""event"",""trial"",""time""
""fullscreenenter"",""1"",""2480""
","
","","","836.6000000238419","","","11","7082","3849","d","elianto","#3366ff99"," "," ","1","+10","[1688.5]","1","2","","","7082","59","1","1","win","go","0"
"pit-trial","184","1158227","0.0-64.0","battery-v0.2","","""event"",""trial"",""time""
""fullscreenenter"",""1"",""2480""
","
","
","""event"",""trial"",""time""
""fullscreenenter"",""1"",""2480""
","
","","","-1","","","11","7082","3849","s","elianto","#3366ff99","-1","-1","1","+10","[]","0","2","","","7082","60","4","2","win","no-go","0"
"pit-trial","185","1163080","0.0-65.0","battery-v0.2","","""event"",""trial"",""time""
""fullscreenenter"",""1"",""2480""
","
","
","""event"",""trial"",""time""
""fullscreenenter"",""1"",""2480""
","
","","","-1","","","11","7082","3849","e","elianto","#f73b6a7A","-1","-1","1","0","[]","0","2","","","7082","61","2","4","lose","no-go","0"
"pit-trial","186","1167936","0.0-66.0","battery-v0.2","","""event"",""trial"",""time""
""fullscreenenter"",""1"",""2480""
","
","
","""event"",""trial"",""time""
""fullscreenenter"",""1"",""2480""
","
","","","-1","","","11","7082","3849","w","elianto","#f73b6a7A"," ","-1","0","0","[]","0","2","","","7082","62","3","3","lose","go","1"
"pit-trial","187","1171449","0.0-67.0","battery-v0.2","","""event"",""trial"",""time""
""fullscreenenter"",""1"",""2480""
","
","
","""event"",""trial"",""time""
""fullscreenenter"",""1"",""2480""
","
","","","659.5","","","11","7082","3849","d","elianto","#3366ff99"," "," ","1","+10","[1510.1999999284744]","1","2","","","7082","63","1","1","win","go","0"
"pit-trial","188","1175361","0.0-68.0","battery-v0.2","","""event"",""trial"",""time""
""fullscreenenter"",""1"",""2480""
","
","
","""event"",""trial"",""time""
""fullscreenenter"",""1"",""2480""
","
","","","1057","","","11","7082","3849","s","elianto","#3366ff99","-1"," ","0","0","[1907.0999999046326]","1","2","","","7082","64","4","2","win","no-go","0"
"pit-trial","189","1180216","0.0-69.0","battery-v0.2","","""event"",""trial"",""time""
""fullscreenenter"",""1"",""2480""
","
","
","""event"",""trial"",""time""
""fullscreenenter"",""1"",""2480""
","
","","","-1","","","11","7082","3849","d","elianto","#3366ff99"," ","-1","0","0","[3198.100000023842,4438.5]","2","2","","","7082","65","1","1","win","go","0"
"pit-trial","190","1185071","0.0-70.0","battery-v0.2","","""event"",""trial"",""time""
""fullscreenenter"",""1"",""2480""
","
","
","""event"",""trial"",""time""
""fullscreenenter"",""1"",""2480""
","
","","","-1","","","11","7082","3849","e","elianto","#f73b6a7A","-1","-1","1","-10","[643.7000000476837]","1","2","","","7082","66","2","4","lose","no-go","1"
"pit-trial","191","1189926","0.0-71.0","battery-v0.2","","""event"",""trial"",""time""
""fullscreenenter"",""1"",""2480""
","
","
","""event"",""trial"",""time""
""fullscreenenter"",""1"",""2480""
","
","","","-1","","","11","7082","3849","w","elianto","#f73b6a7A"," ","-1","0","-10","[]","0","2","","","7082","67","3","3","lose","go","0"
"pit-trial","192","1194781","0.0-72.0","battery-v0.2","","""event"",""trial"",""time""
""fullscreenenter"",""1"",""2480""
","
","
","""event"",""trial"",""time""
""fullscreenenter"",""1"",""2480""
","
","","","-1","","","11","7082","3849","s","elianto","#3366ff99","-1","-1","1","+10","[3060.5]","1","2","","","7082","68","4","2","win","no-go","0"
"pit-trial","193","1199201","0.0-73.0","battery-v0.2","","""event"",""trial"",""time""
""fullscreenenter"",""1"",""2480""
","
","
","""event"",""trial"",""time""
""fullscreenenter"",""1"",""2480""
","
","","","1565.8000000715256","","","11","7082","3849","d","elianto","#3366ff99"," "," ","1","0","[2416.600000023842]","1","2","","","7082","69","1","1","win","go","1"
"pit-trial","194","1203383","0.0-74.0","battery-v0.2","","""event"",""trial"",""time""
""fullscreenenter"",""1"",""2480""
","
","
","""event"",""trial"",""time""
""fullscreenenter"",""1"",""2480""
","
","","","1324.3000000715256","","","11","7082","3849","s","elianto","#3366ff99","-1"," ","0","+10","[2177]","1","2","","","7082","70","4","2","win","no-go","1"
"pit-trial","195","1208237","0.0-75.0","battery-v0.2","","""event"",""trial"",""time""
""fullscreenenter"",""1"",""2480""
","
","
","""event"",""trial"",""time""
""fullscreenenter"",""1"",""2480""
","
","","","-1","","","11","7082","3849","w","elianto","#f73b6a7A"," ","-1","0","-10","[]","0","2","","","7082","71","3","3","lose","go","0"
"pit-trial","196","1213093","0.0-76.0","battery-v0.2","","""event"",""trial"",""time""
""fullscreenenter"",""1"",""2480""
","
","
","""event"",""trial"",""time""
""fullscreenenter"",""1"",""2480""
","
","","","-1","","","11","7082","3849","p","elianto","#3366ff99"," ","-1","0","0","[3435.100000023842]","1","2","","","7082","72","5","1","win","go","0"
"pit-trial","197","1217948","0.0-77.0","battery-v0.2","","""event"",""trial"",""time""
""fullscreenenter"",""1"",""2480""
","
","
","""event"",""trial"",""time""
""fullscreenenter"",""1"",""2480""
","
","","","-1","","","11","7082","3849","w","elianto","#f73b6a7A"," ","-1","0","-10","[]","0","2","","","7082","73","3","3","lose","go","0"
"pit-trial","198","1221713","0.0-78.0","battery-v0.2","","""event"",""trial"",""time""
""fullscreenenter"",""1"",""2480""
","
","
","""event"",""trial"",""time""
""fullscreenenter"",""1"",""2480""
","
","","","896.3999999761581","","","11","7082","3849","d","elianto","#3366ff99"," "," ","1","+10","[1746.7000000476837]","1","2","","","7082","74","1","1","win","go","0"
"pit-trial","199","1225440","0.0-79.0","battery-v0.2","","""event"",""trial"",""time""
""fullscreenenter"",""1"",""2480""
","
","
","""event"",""trial"",""time""
""fullscreenenter"",""1"",""2480""
","
","","","869.3999999761581","","","11","7082","3849","p","elianto","#3366ff99"," "," ","1","+10","[1722.3999999761581,3052.7000000476837,3402.899999976158,3602.899999976158]","4","2","","","7082","75","5","1","win","go","0"
"pit-trial","200","1228940","0.0-80.0","battery-v0.2","","""event"",""trial"",""time""
""fullscreenenter"",""1"",""2480""
","
","
","""event"",""trial"",""time""
""fullscreenenter"",""1"",""2480""
","
","","","646.6999999284744","","","11","7082","3849","s","elianto","#3366ff99","-1"," ","0","0","[1496.7999999523163,3357.5]","2","2","","","7082","76","4","2","win","no-go","0"
"pit-trial","201","1233795","0.0-81.0","battery-v0.2","","""event"",""trial"",""time""
""fullscreenenter"",""1"",""2480""
","
","
","""event"",""trial"",""time""
""fullscreenenter"",""1"",""2480""
","
","","","-1","","","11","7082","3849","g","elianto","#f73b6a7A","-1","-1","1","0","[]","0","2","","","7082","77","6","4","lose","no-go","0"
"pit-trial","202","1238650","0.0-82.0","battery-v0.2","","""event"",""trial"",""time""
""fullscreenenter"",""1"",""2480""
","
","
","""event"",""trial"",""time""
""fullscreenenter"",""1"",""2480""
","
","","","-1","","","11","7082","3849","w","elianto","#f73b6a7A"," ","-1","0","0","[]","0","2","","","7082","78","3","3","lose","go","1"
"pit-trial","203","1242374","0.0-83.0","battery-v0.2","","""event"",""trial"",""time""
""fullscreenenter"",""1"",""2480""
","
","
","""event"",""trial"",""time""
""fullscreenenter"",""1"",""2480""
","
","","","870.2000000476837","","","11","7082","3849","p","elianto","#3366ff99"," "," ","1","+10","[1720.5]","1","2","","","7082","79","5","1","win","go","0"
"pit-trial","204","1247229","0.0-84.0","battery-v0.2","","""event"",""trial"",""time""
""fullscreenenter"",""1"",""2480""
","
","
","""event"",""trial"",""time""
""fullscreenenter"",""1"",""2480""
","
","","","-1","","","11","7082","3849","s","elianto","#3366ff99","-1","-1","1","+10","[3227.5,4757.899999976158]","2","2","","","7082","80","4","2","win","no-go","0"
"pit-trial","205","1252084","0.0-85.0","battery-v0.2","","""event"",""trial"",""time""
""fullscreenenter"",""1"",""2480""
","
","
","""event"",""trial"",""time""
""fullscreenenter"",""1"",""2480""
","
","","","-1","","","11","7082","3849","s","elianto","#3366ff99","-1","-1","1","+10","[3324.100000023842]","1","2","","","7082","81","4","2","win","no-go","0"
"pit-trial","206","1256939","0.0-86.0","battery-v0.2","","""event"",""trial"",""time""
""fullscreenenter"",""1"",""2480""
","
","
","""event"",""trial"",""time""
""fullscreenenter"",""1"",""2480""
","
","","","-1","","","11","7082","3849","g","elianto","#f73b6a7A","-1","-1","1","0","[]","0","2","","","7082","82","6","4","lose","no-go","0"
"pit-trial","207","1261794","0.0-87.0","battery-v0.2","","""event"",""trial"",""time""
""fullscreenenter"",""1"",""2480""
","
","
","""event"",""trial"",""time""
""fullscreenenter"",""1"",""2480""
","
","","","-1","","","11","7082","3849","a","elianto","#f73b6a7A"," ","-1","0","-10","[]","0","2","","","7082","83","7","3","lose","go","0"
"pit-trial","208","1266421","0.0-88.0","battery-v0.2","","""event"",""trial"",""time""
""fullscreenenter"",""1"",""2480""
","
","
","""event"",""trial"",""time""
""fullscreenenter"",""1"",""2480""
","
","","","1772.6000000238419","","","11","7082","3849","p","elianto","#3366ff99"," "," ","1","0","[2622.7999999523163]","1","2","","","7082","84","5","1","win","go","1"
"pit-trial","209","1271275","0.0-89.0","battery-v0.2","","""event"",""trial"",""time""
""fullscreenenter"",""1"",""2480""
","
","
","""event"",""trial"",""time""
""fullscreenenter"",""1"",""2480""
","
","","","-1","","","11","7082","3849","a","elianto","#f73b6a7A"," ","-1","0","-10","[]","0","2","","","7082","85","7","3","lose","go","0"
"pit-trial","210","1276131","0.0-90.0","battery-v0.2","","""event"",""trial"",""time""
""fullscreenenter"",""1"",""2480""
","
","
","""event"",""trial"",""time""
""fullscreenenter"",""1"",""2480""
","
","","","-1","","","11","7082","3849","g","elianto","#f73b6a7A","-1","-1","1","0","[]","0","2","","","7082","86","6","4","lose","no-go","0"
"pit-trial","211","1279883","0.0-91.0","battery-v0.2","","""event"",""trial"",""time""
""fullscreenenter"",""1"",""2480""
","
","
","""event"",""trial"",""time""
""fullscreenenter"",""1"",""2480""
","
","","","897.6000000238419","","","11","7082","3849","s","elianto","#3366ff99","-1"," ","0","0","[1748.3999999761581]","1","2","","","7082","87","4","2","win","no-go","0"
"pit-trial","212","1283434","0.0-92.0","battery-v0.2","","""event"",""trial"",""time""
""fullscreenenter"",""1"",""2480""
","
","
","""event"",""trial"",""time""
""fullscreenenter"",""1"",""2480""
","
","","","695.8999999761581","","","11","7082","3849","p","elianto","#3366ff99"," "," ","1","+10","[366.40000009536743,1547]","2","2","","","7082","88","5","1","win","go","0"
"pit-trial","213","1287244","0.0-93.0","battery-v0.2","","""event"",""trial"",""time""
""fullscreenenter"",""1"",""2480""
","
","
","""event"",""trial"",""time""
""fullscreenenter"",""1"",""2480""
","
","","","956","","","11","7082","3849","s","elianto","#3366ff99","-1"," ","0","0","[1806.2000000476837,3511.7000000476837]","2","2","","","7082","89","4","2","win","no-go","0"
"pit-trial","214","1292099","0.0-94.0","battery-v0.2","","""event"",""trial"",""time""
""fullscreenenter"",""1"",""2480""
","
","
","""event"",""trial"",""time""
""fullscreenenter"",""1"",""2480""
","
","","","-1","","","11","7082","3849","g","elianto","#f73b6a7A","-1","-1","1","-10","[]","0","2","","","7082","90","6","4","lose","no-go","1"
"pit-trial","215","1295536","0.0-95.0","battery-v0.2","","""event"",""trial"",""time""
""fullscreenenter"",""1"",""2480""
","
","
","""event"",""trial"",""time""
""fullscreenenter"",""1"",""2480""
","
","","","583.1000000238419","","","11","7082","3849","p","elianto","#3366ff99"," "," ","1","+10","[783.5,1433.1999999284744,1848.6999999284744,3213.7999999523163]","4","2","","","7082","91","5","1","win","go","0"
"pit-trial","216","1299997","0.0-96.0","battery-v0.2","","""event"",""trial"",""time""
""fullscreenenter"",""1"",""2480""
","
","
","""event"",""trial"",""time""
""fullscreenenter"",""1"",""2480""
","
","","","1606.6000000238419","","","11","7082","3849","a","elianto","#f73b6a7A"," "," ","1","0","[2456.5999999046326,3116.899999976158]","2","2","","","7082","92","7","3","lose","go","0"
"pit-trial","217","1303588","0.0-97.0","battery-v0.2","","""event"",""trial"",""time""
""fullscreenenter"",""1"",""2480""
","
","
","""event"",""trial"",""time""
""fullscreenenter"",""1"",""2480""
","
","","","736.8999999761581","","","11","7082","3849","l","elianto","#3366ff99","-1"," ","0","0","[1587]","1","2","","","7082","93","8","2","win","no-go","0"
"pit-trial","218","1308444","0.0-98.0","battery-v0.2","","""event"",""trial"",""time""
""fullscreenenter"",""1"",""2480""
","
","
","""event"",""trial"",""time""
""fullscreenenter"",""1"",""2480""
","
","","","-1","","","11","7082","3849","g","elianto","#f73b6a7A","-1","-1","1","0","[]","0","2","","","7082","94","6","4","lose","no-go","0"
"pit-trial","219","1313089","0.0-99.0","battery-v0.2","","""event"",""trial"",""time""
""fullscreenenter"",""1"",""2480""
","
","
","""event"",""trial"",""time""
""fullscreenenter"",""1"",""2480""
","
","","","1791.6999999284744","","","11","7082","3849","p","elianto","#3366ff99"," "," ","1","+10","[2642]","1","2","","","7082","95","5","1","win","go","0"
"pit-trial","220","1317944","0.0-100.0","battery-v0.2","","""event"",""trial"",""time""
""fullscreenenter"",""1"",""2480""
","
","
","""event"",""trial"",""time""
""fullscreenenter"",""1"",""2480""
","
","","","-1","","","11","7082","3849","a","elianto","#f73b6a7A"," ","-1","0","-10","[]","0","2","","","7082","96","7","3","lose","go","0"
"pit-trial","221","1321440","0.0-101.0","battery-v0.2","","""event"",""trial"",""time""
""fullscreenenter"",""1"",""2480""
","
","
","""event"",""trial"",""time""
""fullscreenenter"",""1"",""2480""
","
","","","641.5","","","11","7082","3849","l","elianto","#3366ff99","-1"," ","0","0","[1492.3999999761581,2702.7000000476837]","2","2","","","7082","97","8","2","win","no-go","0"
"pit-trial","222","1324320","0.0-102.0","battery-v0.2","","""event"",""trial"",""time""
""fullscreenenter"",""1"",""2480""
","
","
","""event"",""trial"",""time""
""fullscreenenter"",""1"",""2480""
","
","","","25.800000071525574","","","11","7082","3849","g","elianto","#f73b6a7A","-1"," ","0","-10","[476.8000000715256,876.7000000476837]","2","2","","","7082","98","6","4","lose","no-go","0"
"pit-trial","223","1329174","0.0-103.0","battery-v0.2","","""event"",""trial"",""time""
""fullscreenenter"",""1"",""2480""
","
","
","""event"",""trial"",""time""
""fullscreenenter"",""1"",""2480""
","
","","","-1","","","11","7082","3849","a","elianto","#f73b6a7A"," ","-1","0","-10","[]","0","2","","","7082","99","7","3","lose","go","0"
"pit-trial","224","1332672","0.0-104.0","battery-v0.2","","""event"",""trial"",""time""
""fullscreenenter"",""1"",""2480""
","
","
","""event"",""trial"",""time""
""fullscreenenter"",""1"",""2480""
","
","","","643.3999999761581","","","11","7082","3849","p","elianto","#3366ff99"," "," ","1","+10","[1494.2999999523163]","1","2","","","7082","100","5","1","win","go","0"
"pit-trial","225","1336262","0.0-105.0","battery-v0.2","","""event"",""trial"",""time""
""fullscreenenter"",""1"",""2480""
","
","
","""event"",""trial"",""time""
""fullscreenenter"",""1"",""2480""
","
","","","735.2999999523163","","","11","7082","3849","p","elianto","#3366ff99"," "," ","1","+10","[1586.1000000238419]","1","2","","","7082","101","5","1","win","go","0"
"pit-trial","226","1339984","0.0-106.0","battery-v0.2","","""event"",""trial"",""time""
""fullscreenenter"",""1"",""2480""
","
","
","""event"",""trial"",""time""
""fullscreenenter"",""1"",""2480""
","
","","","865.6000000238419","","","11","7082","3849","u","elianto","#3366ff99","-1"," ","0","0","[1716.5,2726.7999999523163]","2","2","","","7082","102","9","2","win","no-go","0"
"pit-trial","227","1344837","0.0-107.0","battery-v0.2","","""event"",""trial"",""time""
""fullscreenenter"",""1"",""2480""
","
","
","""event"",""trial"",""time""
""fullscreenenter"",""1"",""2480""
","
","","","-1","","","11","7082","3849","g","elianto","#f73b6a7A","-1","-1","1","0","[]","0","2","","","7082","103","6","4","lose","no-go","0"
"pit-trial","228","1348435","0.0-108.0","battery-v0.2","","""event"",""trial"",""time""
""fullscreenenter"",""1"",""2480""
","
","
","""event"",""trial"",""time""
""fullscreenenter"",""1"",""2480""
","
","","","744.2000000476837","","","11","7082","3849","l","elianto","#3366ff99","-1"," ","0","0","[1594.3999999761581]","1","2","","","7082","104","8","2","win","no-go","0"
"pit-trial","229","1353288","0.0-109.0","battery-v0.2","","""event"",""trial"",""time""
""fullscreenenter"",""1"",""2480""
","
","
","""event"",""trial"",""time""
""fullscreenenter"",""1"",""2480""
","
","","","-1","","","11","7082","3849","l","elianto","#3366ff99","-1","-1","1","+10","[]","0","2","","","7082","105","8","2","win","no-go","0"
"pit-trial","230","1358143","0.0-110.0","battery-v0.2","","""event"",""trial"",""time""
""fullscreenenter"",""1"",""2480""
","
","
","""event"",""trial"",""time""
""fullscreenenter"",""1"",""2480""
","
","","","-1","","","11","7082","3849","u","elianto","#3366ff99","-1","-1","1","+10","[3015.5]","1","2","","","7082","106","9","2","win","no-go","0"
"pit-trial","231","1362998","0.0-111.0","battery-v0.2","","""event"",""trial"",""time""
""fullscreenenter"",""1"",""2480""
","
","
","""event"",""trial"",""time""
""fullscreenenter"",""1"",""2480""
","
","","","-1","","","11","7082","3849","g","elianto","#f73b6a7A","-1","-1","1","0","[]","0","2","","","7082","107","6","4","lose","no-go","0"
"pit-trial","232","1367358","0.0-112.0","battery-v0.2","","""event"",""trial"",""time""
""fullscreenenter"",""1"",""2480""
","
","
","""event"",""trial"",""time""
""fullscreenenter"",""1"",""2480""
","
","","","1506","","","11","7082","3849","p","elianto","#3366ff99"," "," ","1","+10","[2356.5]","1","2","","","7082","108","5","1","win","go","0"
"pit-trial","233","1372212","0.0-113.0","battery-v0.2","","""event"",""trial"",""time""
""fullscreenenter"",""1"",""2480""
","
","
","""event"",""trial"",""time""
""fullscreenenter"",""1"",""2480""
","
","","","-1","","","11","7082","3849","g","elianto","#f73b6a7A","-1","-1","1","0","[]","0","2","","","7082","109","6","4","lose","no-go","0"
"pit-trial","234","1376389","0.0-114.0","battery-v0.2","","""event"",""trial"",""time""
""fullscreenenter"",""1"",""2480""
","
","
","""event"",""trial"",""time""
""fullscreenenter"",""1"",""2480""
","
","","","1322.3999999761581","","","11","7082","3849","u","elianto","#3366ff99","-1"," ","0","+10","[2173.2000000476837]","1","2","","","7082","110","9","2","win","no-go","1"
"pit-trial","235","1379859","0.0-115.0","battery-v0.2","","""event"",""trial"",""time""
""fullscreenenter"",""1"",""2480""
","
","
","""event"",""trial"",""time""
""fullscreenenter"",""1"",""2480""
","
","","","614.3000000715256","","","11","7082","3849","l","elianto","#3366ff99","-1"," ","0","0","[1465.5]","1","2","","","7082","111","8","2","win","no-go","0"
"pit-trial","236","1383479","0.0-116.0","battery-v0.2","","""event"",""trial"",""time""
""fullscreenenter"",""1"",""2480""
","
","
","""event"",""trial"",""time""
""fullscreenenter"",""1"",""2480""
","
","","","766.6000000238419","","","11","7082","3849","p","elianto","#3366ff99"," "," ","1","+10","[1617.1000000238419,2066.7999999523163]","2","2","","","7082","112","5","1","win","go","0"
"pit-trial","237","1387110","0.0-117.0","battery-v0.2","","""event"",""trial"",""time""
""fullscreenenter"",""1"",""2480""
","
","
","""event"",""trial"",""time""
""fullscreenenter"",""1"",""2480""
","
","","","777.5999999046326","","","11","7082","3849","u","elianto","#3366ff99","-1"," ","0","0","[1627.8000000715256]","1","2","","","7082","113","9","2","win","no-go","0"
"pit-trial","238","1390660","0.0-118.0","battery-v0.2","","""event"",""trial"",""time""
""fullscreenenter"",""1"",""2480""
","
","
","""event"",""trial"",""time""
""fullscreenenter"",""1"",""2480""
","
","","","692.5","","","11","7082","3849","p","elianto","#3366ff99"," "," ","1","0","[1546.1999999284744]","1","2","","","7082","114","5","1","win","go","1"
"pit-trial","239","1395514","0.0-119.0","battery-v0.2","","""event"",""trial"",""time""
""fullscreenenter"",""1"",""2480""
","
","
","""event"",""trial"",""time""
""fullscreenenter"",""1"",""2480""
","
","","","-1","","","11","7082","3849","l","elianto","#3366ff99","-1","-1","1","+10","[]","0","2","","","7082","115","8","2","win","no-go","0"
"pit-trial","240","1400368","0.0-120.0","battery-v0.2","","""event"",""trial"",""time""
""fullscreenenter"",""1"",""2480""
","
","
","""event"",""trial"",""time""
""fullscreenenter"",""1"",""2480""
","
","","","-1","","","11","7082","3849","a","elianto","#f73b6a7A"," ","-1","0","-10","[]","0","2","","","7082","116","7","3","lose","go","0"
"pit-trial","241","1405222","0.0-121.0","battery-v0.2","","""event"",""trial"",""time""
""fullscreenenter"",""1"",""2480""
","
","
","""event"",""trial"",""time""
""fullscreenenter"",""1"",""2480""
","
","","","-1","","","11","7082","3849","g","elianto","#f73b6a7A","-1","-1","1","0","[]","0","2","","","7082","117","6","4","lose","no-go","0"
"pit-trial","242","1408850","0.0-122.0","battery-v0.2","","""event"",""trial"",""time""
""fullscreenenter"",""1"",""2480""
","
","
","""event"",""trial"",""time""
""fullscreenenter"",""1"",""2480""
","
","","","773.8000000715256","","","11","7082","3849","p","elianto","#3366ff99"," "," ","1","+10","[1623.9000000953674]","1","2","","","7082","118","5","1","win","go","0"
"pit-trial","243","1412970","0.0-123.0","battery-v0.2","","""event"",""trial"",""time""
""fullscreenenter"",""1"",""2480""
","
","
","""event"",""trial"",""time""
""fullscreenenter"",""1"",""2480""
","
","","","1265.0999999046326","","","11","7082","3849","l","elianto","#3366ff99","-1"," ","0","0","[2116]","1","2","","","7082","119","8","2","win","no-go","0"
"pit-trial","244","1416421","0.0-124.0","battery-v0.2","","""event"",""trial"",""time""
""fullscreenenter"",""1"",""2480""
","
","
","""event"",""trial"",""time""
""fullscreenenter"",""1"",""2480""
","
","","","594.2000000476837","","","11","7082","3849","u","elianto","#3366ff99","-1"," ","0","0","[1444.9000000953674,2375]","2","2","","","7082","120","9","2","win","no-go","0"
"pit-trial","245","1421276","0.0-125.0","battery-v0.2","","""event"",""trial"",""time""
""fullscreenenter"",""1"",""2480""
","
","
","""event"",""trial"",""time""
""fullscreenenter"",""1"",""2480""
","
","","","-1","","","11","7082","3849","u","elianto","#3366ff99","-1","-1","1","+10","[]","0","2","","","7082","121","9","2","win","no-go","0"
"pit-trial","246","1425580","0.0-126.0","battery-v0.2","","""event"",""trial"",""time""
""fullscreenenter"",""1"",""2480""
","
","
","""event"",""trial"",""time""
""fullscreenenter"",""1"",""2480""
","
","","","1449.8999999761581","","","11","7082","3849","p","elianto","#3366ff99"," "," ","1","+10","[2300.899999976158]","1","2","","","7082","122","5","1","win","go","0"
"pit-trial","247","1430436","0.0-127.0","battery-v0.2","","""event"",""trial"",""time""
""fullscreenenter"",""1"",""2480""
","
","
","""event"",""trial"",""time""
""fullscreenenter"",""1"",""2480""
","
","","","-1","","","11","7082","3849","l","elianto","#3366ff99","-1","-1","1","+10","[]","0","2","","","7082","123","8","2","win","no-go","0"
"pit-trial","248","1435290","0.0-128.0","battery-v0.2","","""event"",""trial"",""time""
""fullscreenenter"",""1"",""2480""
","
","
","""event"",""trial"",""time""
""fullscreenenter"",""1"",""2480""
","
","","","-1","","","11","7082","3849","a","elianto","#f73b6a7A"," ","-1","0","-10","[]","0","2","","","7082","124","7","3","lose","go","0"
"pit-trial","249","1440145","0.0-129.0","battery-v0.2","","""event"",""trial"",""time""
""fullscreenenter"",""1"",""2480""
","
","
","""event"",""trial"",""time""
""fullscreenenter"",""1"",""2480""
","
","","","-1","","","11","7082","3849","g","elianto","#f73b6a7A","-1","-1","1","-10","[]","0","2","","","7082","125","6","4","lose","no-go","1"
"pit-trial","250","1445000","0.0-130.0","battery-v0.2","","""event"",""trial"",""time""
""fullscreenenter"",""1"",""2480""
","
","
","""event"",""trial"",""time""
""fullscreenenter"",""1"",""2480""
","
","","","-1","","","11","7082","3849","a","elianto","#f73b6a7A"," ","-1","0","-10","[]","0","2","","","7082","126","7","3","lose","go","0"
"pit-trial","251","1449855","0.0-131.0","battery-v0.2","","""event"",""trial"",""time""
""fullscreenenter"",""1"",""2480""
","
","
","""event"",""trial"",""time""
""fullscreenenter"",""1"",""2480""
","
","","","-1","","","11","7082","3849","u","elianto","#3366ff99","-1","-1","1","+10","[]","0","2","","","7082","127","9","2","win","no-go","0"
"pit-trial","252","1454710","0.0-132.0","battery-v0.2","","""event"",""trial"",""time""
""fullscreenenter"",""1"",""2480""
","
","
","""event"",""trial"",""time""
""fullscreenenter"",""1"",""2480""
","
","","","-1","","","11","7082","3849","l","elianto","#3366ff99","-1","-1","1","0","[]","0","2","","","7082","128","8","2","win","no-go","1"
"pit-trial","253","1459565","0.0-133.0","battery-v0.2","","""event"",""trial"",""time""
""fullscreenenter"",""1"",""2480""
","
","
","""event"",""trial"",""time""
""fullscreenenter"",""1"",""2480""
","
","","","-1","","","11","7082","3849","a","elianto","#f73b6a7A"," ","-1","0","-10","[]","0","2","","","7082","129","7","3","lose","go","0"
"pit-trial","254","1464420","0.0-134.0","battery-v0.2","","""event"",""trial"",""time""
""fullscreenenter"",""1"",""2480""
","
","
","""event"",""trial"",""time""
""fullscreenenter"",""1"",""2480""
","
","","","-1","","","11","7082","3849","g","elianto","#f73b6a7A","-1","-1","1","0","[]","0","2","","","7082","130","6","4","lose","no-go","0"
"pit-trial","255","1469274","0.0-135.0","battery-v0.2","","""event"",""trial"",""time""
""fullscreenenter"",""1"",""2480""
","
","
","""event"",""trial"",""time""
""fullscreenenter"",""1"",""2480""
","
","","","-1","","","11","7082","3849","l","elianto","#3366ff99","-1","-1","1","+10","[]","0","2","","","7082","131","8","2","win","no-go","0"
"pit-trial","256","1474128","0.0-136.0","battery-v0.2","","""event"",""trial"",""time""
""fullscreenenter"",""1"",""2480""
","
","
","""event"",""trial"",""time""
""fullscreenenter"",""1"",""2480""
","
","","","-1","","","11","7082","3849","u","elianto","#3366ff99","-1","-1","1","+10","[]","0","2","","","7082","132","9","2","win","no-go","0"
"pit-trial","257","1478985","0.0-137.0","battery-v0.2","","""event"",""trial"",""time""
