"trial_type","trial_index","time_elapsed","internal_node_id","task_version","subject_id","interactions","blur_events","focus_events","fullscreenenter_events","fullscreenexit_events","success","view_history","rt","responses","num_errors","age","subject","participantId","rune","rune_set","hex","correct","choice","accuracy","outcome","keys","total_keys","block","practice","value","sub","trial","stimulus","robot","valence","action","sham"
"pavlovia","0","93","0.0-0.0","battery-v0.2","","""event"",""trial"",""time""
""blur"",""1"",""3379""
""focus"",""1"",""9136""
""fullscreenenter"",""1"",""10771""
","""event"",""trial"",""time""
""blur"",""1"",""3379""
","""event"",""trial"",""time""
""focus"",""1"",""9136""
","""event"",""trial"",""time""
""fullscreenenter"",""1"",""10771""
","
","","","","","","","","","","","","","","","","","","","","","","","","","","",""
"fullscreen","1","11701","0.0-1.0","battery-v0.2","","""event"",""trial"",""time""
""blur"",""1"",""3379""
""focus"",""1"",""9136""
""fullscreenenter"",""1"",""10771""
","""event"",""trial"",""time""
""blur"",""1"",""3379""
","""event"",""trial"",""time""
""focus"",""1"",""9136""
","""event"",""trial"",""time""
""fullscreenenter"",""1"",""10771""
","
","true","","","","","","","","","","","","","","","","","","","","","","","","","",""
"pit-instructions","2","18074","0.0-2.0-0.0","battery-v0.2","","""event"",""trial"",""time""
""blur"",""1"",""3379""
""focus"",""1"",""9136""
""fullscreenenter"",""1"",""10771""
","""event"",""trial"",""time""
""blur"",""1"",""3379""
","""event"",""trial"",""time""
""focus"",""1"",""9136""
","""event"",""trial"",""time""
""fullscreenenter"",""1"",""10771""
","
","","[{""page_index"":0,""viewing_time"":6359.199999999255}]","6361.800000000745","","","","","","","","","","","","","","","","","","","","","","","",""
"pit-comprehension","3","24404","0.0-2.0-1.0-0.0","battery-v0.2","","""event"",""trial"",""time""
""blur"",""1"",""3379""
""focus"",""1"",""9136""
""fullscreenenter"",""1"",""10771""
","""event"",""trial"",""time""
""blur"",""1"",""3379""
","""event"",""trial"",""time""
""focus"",""1"",""9136""
","""event"",""trial"",""time""
""fullscreenenter"",""1"",""10771""
","
","","","6300","[""shark""]","0","23","16358","6309","","","","","","","","","","","","","","","","","","",""
"pit-instructions","4","26183","0.0-2.0-1.0-1.0","battery-v0.2","","""event"",""trial"",""time""
""blur"",""1"",""3379""
""focus"",""1"",""9136""
""fullscreenenter"",""1"",""10771""
","""event"",""trial"",""time""
""blur"",""1"",""3379""
","""event"",""trial"",""time""
""focus"",""1"",""9136""
","""event"",""trial"",""time""
""fullscreenenter"",""1"",""10771""
","
","","[{""page_index"":0,""viewing_time"":1720.9000000022352}]","1722.800000000745","","","","","","","","","","","","","","","","","","","","","","","",""
"pit-comprehension","5","29421","0.0-2.0-2.0-0.0","battery-v0.2","","""event"",""trial"",""time""
""blur"",""1"",""3379""
""focus"",""1"",""9136""
""fullscreenenter"",""1"",""10771""
","""event"",""trial"",""time""
""blur"",""1"",""3379""
","""event"",""trial"",""time""
""focus"",""1"",""9136""
","""event"",""trial"",""time""
""fullscreenenter"",""1"",""10771""
","
","","","3211.5","[""tiger""]","0","23","16358","6309","","","","","","","","","","","","","","","","","","",""
"pit-instructions","6","32194","0.0-2.0-2.0-1.0","battery-v0.2","","""event"",""trial"",""time""
""blur"",""1"",""3379""
""focus"",""1"",""9136""
""fullscreenenter"",""1"",""10771""
","""event"",""trial"",""time""
""blur"",""1"",""3379""
","""event"",""trial"",""time""
""focus"",""1"",""9136""
","""event"",""trial"",""time""
""fullscreenenter"",""1"",""10771""
","
","","[{""page_index"":0,""viewing_time"":2760.300000000745}]","2761.60000000149","","","","","","","","","","","","","","","","","","","","","","","",""
"pit-instructions","7","150091","0.0-2.0-3.0","battery-v0.2","","""event"",""trial"",""time""
""blur"",""1"",""3379""
""focus"",""1"",""9136""
""fullscreenenter"",""1"",""10771""
","""event"",""trial"",""time""
""blur"",""1"",""3379""
","""event"",""trial"",""time""
""focus"",""1"",""9136""
","""event"",""trial"",""time""
""fullscreenenter"",""1"",""10771""
","
","","[{""page_index"":0,""viewing_time"":15959},{""page_index"":1,""viewing_time"":8463.900000002235},{""page_index"":2,""viewing_time"":8458},{""page_index"":3,""viewing_time"":7298.199999999255},{""page_index"":4,""viewing_time"":7059.39999999851},{""page_index"":5,""viewing_time"":7031.10000000149},{""page_index"":6,""viewing_time"":8016.89999999851},{""page_index"":7,""viewing_time"":7782.60000000149},{""page_index"":8,""viewing_time"":7798.300000000745},{""page_index"":9,""viewing_time"":9170.29999999702},{""page_index"":10,""viewing_time"":7354.20000000298},{""page_index"":11,""viewing_time"":8721.099999997765},{""page_index"":12,""viewing_time"":7718.5},{""page_index"":13,""viewing_time"":7033.60000000149}]","117867.69999999925","","","","","","","","","","","","","","","","","","","","","","","",""
"pit-trial","8","153015","0.0-2.0-4.0-0.0","battery-v0.2","","""event"",""trial"",""time""
""blur"",""1"",""3379""
""focus"",""1"",""9136""
""fullscreenenter"",""1"",""10771""
","""event"",""trial"",""time""
""blur"",""1"",""3379""
","""event"",""trial"",""time""
""focus"",""1"",""9136""
","""event"",""trial"",""time""
""fullscreenenter"",""1"",""10771""
","
","","","57.79999999701977","","","23","16358","6309","&#9784;","elianto","#FFFFF080"," "," ","1","&#10004","[912.2000000029802]","1","0","0","","","","","","","",""
"pit-trial","9","156296","0.0-2.0-4.1-0.1","battery-v0.2","","""event"",""trial"",""time""
""blur"",""1"",""3379""
""focus"",""1"",""9136""
""fullscreenenter"",""1"",""10771""
","""event"",""trial"",""time""
""blur"",""1"",""3379""
","""event"",""trial"",""time""
""focus"",""1"",""9136""
","""event"",""trial"",""time""
""fullscreenenter"",""1"",""10771""
","
","","","414.79999999701977","","","23","16358","6309","&#9784;","elianto","#FFFFF080"," "," ","1","&#10004","[1267.3999999985099]","1","0","0","","","","","","","",""
"pit-trial","10","159569","0.0-2.0-4.2-0.2","battery-v0.2","","""event"",""trial"",""time""
""blur"",""1"",""3379""
""focus"",""1"",""9136""
""fullscreenenter"",""1"",""10771""
","""event"",""trial"",""time""
""blur"",""1"",""3379""
","""event"",""trial"",""time""
""focus"",""1"",""9136""
","""event"",""trial"",""time""
""fullscreenenter"",""1"",""10771""
","
","","","406.19999999925494","","","23","16358","6309","&#9784;","elianto","#FFFFF080"," "," ","1","&#10004","[1261.300000000745]","1","0","0","","","","","","","",""
"pit-trial","11","162900","0.0-2.0-4.3-0.3","battery-v0.2","","""event"",""trial"",""time""
""blur"",""1"",""3379""
""focus"",""1"",""9136""
""fullscreenenter"",""1"",""10771""
","""event"",""trial"",""time""
""blur"",""1"",""3379""
","""event"",""trial"",""time""
""focus"",""1"",""9136""
","""event"",""trial"",""time""
""fullscreenenter"",""1"",""10771""
","
","","","461.29999999701977","","","23","16358","6309","&#9784;","elianto","#FFFFF080"," "," ","1","&#10004","[1311.5]","1","0","0","","","","","","","",""
"pit-trial","12","166150","0.0-2.0-4.4-0.4","battery-v0.2","","""event"",""trial"",""time""
""blur"",""1"",""3379""
""focus"",""1"",""9136""
""fullscreenenter"",""1"",""10771""
","""event"",""trial"",""time""
""blur"",""1"",""3379""
","""event"",""trial"",""time""
""focus"",""1"",""9136""
","""event"",""trial"",""time""
""fullscreenenter"",""1"",""10771""
","
","","","387.5","","","23","16358","6309","&#9784;","elianto","#FFFFF080"," "," ","1","&#10004","[1237.5]","1","0","0","","","","","","","",""
"pit-instructions","13","193659","0.0-2.0-5.0","battery-v0.2","","""event"",""trial"",""time""
""blur"",""1"",""3379""
""focus"",""1"",""9136""
""fullscreenenter"",""1"",""10771""
","""event"",""trial"",""time""
""blur"",""1"",""3379""
","""event"",""trial"",""time""
""focus"",""1"",""9136""
","""event"",""trial"",""time""
""fullscreenenter"",""1"",""10771""
","
","","[{""page_index"":0,""viewing_time"":5935.39999999851},{""page_index"":1,""viewing_time"":6929.5},{""page_index"":2,""viewing_time"":8564.900000002235},{""page_index"":3,""viewing_time"":6061.699999999255}]","27493","","","","","","","","","","","","","","","","","","","","","","","",""
"pit-trial","14","198522","0.0-2.0-6.0-0.0","battery-v0.2","","""event"",""trial"",""time""
""blur"",""1"",""3379""
""focus"",""1"",""9136""
""fullscreenenter"",""1"",""10771""
","""event"",""trial"",""time""
""blur"",""1"",""3379""
","""event"",""trial"",""time""
""focus"",""1"",""9136""
","""event"",""trial"",""time""
""fullscreenenter"",""1"",""10771""
","
","","","-1","","","23","16358","6309","&#9854;","elianto","#FFFFF080","-1","-1","1","&#10004","[]","0","0","1","","","","","","","",""
"pit-trial","15","203387","0.0-2.0-6.1-0.1","battery-v0.2","","""event"",""trial"",""time""
""blur"",""1"",""3379""
""focus"",""1"",""9136""
""fullscreenenter"",""1"",""10771""
","""event"",""trial"",""time""
""blur"",""1"",""3379""
","""event"",""trial"",""time""
""focus"",""1"",""9136""
","""event"",""trial"",""time""
""fullscreenenter"",""1"",""10771""
","
","","","-1","","","23","16358","6309","&#9854;","elianto","#FFFFF080","-1","-1","1","&#10004","[]","0","0","1","","","","","","","",""
"pit-trial","16","208251","0.0-2.0-6.2-0.2","battery-v0.2","","""event"",""trial"",""time""
""blur"",""1"",""3379""
""focus"",""1"",""9136""
""fullscreenenter"",""1"",""10771""
","""event"",""trial"",""time""
""blur"",""1"",""3379""
","""event"",""trial"",""time""
""focus"",""1"",""9136""
","""event"",""trial"",""time""
""fullscreenenter"",""1"",""10771""
","
","","","-1","","","23","16358","6309","&#9854;","elianto","#FFFFF080","-1","-1","1","&#10004","[]","0","0","1","","","","","","","",""
"pit-trial","17","213115","0.0-2.0-6.3-0.3","battery-v0.2","","""event"",""trial"",""time""
""blur"",""1"",""3379""
""focus"",""1"",""9136""
""fullscreenenter"",""1"",""10771""
","""event"",""trial"",""time""
""blur"",""1"",""3379""
","""event"",""trial"",""time""
""focus"",""1"",""9136""
","""event"",""trial"",""time""
""fullscreenenter"",""1"",""10771""
","
","","","-1","","","23","16358","6309","&#9854;","elianto","#FFFFF080","-1","-1","1","&#10004","[]","0","0","1","","","","","","","",""
"pit-trial","18","217980","0.0-2.0-6.4-0.4","battery-v0.2","","""event"",""trial"",""time""
""blur"",""1"",""3379""
""focus"",""1"",""9136""
""fullscreenenter"",""1"",""10771""
","""event"",""trial"",""time""
""blur"",""1"",""3379""
","""event"",""trial"",""time""
""focus"",""1"",""9136""
","""event"",""trial"",""time""
""fullscreenenter"",""1"",""10771""
","
","","","-1","","","23","16358","6309","&#9854;","elianto","#FFFFF080","-1","-1","1","&#10004","[]","0","0","1","","","","","","","",""
"pit-instructions","19","507536","0.0-2.0-7.0","battery-v0.2","","""event"",""trial"",""time""
""blur"",""1"",""3379""
""focus"",""1"",""9136""
""fullscreenenter"",""1"",""10771""
","""event"",""trial"",""time""
""blur"",""1"",""3379""
","""event"",""trial"",""time""
""focus"",""1"",""9136""
","""event"",""trial"",""time""
""fullscreenenter"",""1"",""10771""
","
","","[{""page_index"":0,""viewing_time"":12489.800000000745},{""page_index"":1,""viewing_time"":16789.89999999851},{""page_index"":2,""viewing_time"":7753.300000000745},{""page_index"":3,""viewing_time"":8442},{""page_index"":4,""viewing_time"":6691.900000002235},{""page_index"":5,""viewing_time"":5684.79999999702},{""page_index"":6,""viewing_time"":5299.900000002235},{""page_index"":7,""viewing_time"":8870.199999999255},{""page_index"":8,""viewing_time"":7766.89999999851},{""page_index"":9,""viewing_time"":29775.400000002235},{""page_index"":10,""viewing_time"":7683},{""page_index"":11,""viewing_time"":6420},{""page_index"":12,""viewing_time"":9174.89999999851},{""page_index"":13,""viewing_time"":68858.19999999925},{""page_index"":14,""viewing_time"":47408.5},{""page_index"":15,""viewing_time"":7334.900000002235},{""page_index"":16,""viewing_time"":24900.599999997765},{""page_index"":17,""viewing_time"":8197.300000000745}]","289543.69999999925","","","","","","","","","","","","","","","","","","","","","","","",""
"pit-trial","20","511205","0.0-2.0-8.0-0.0","battery-v0.2","","""event"",""trial"",""time""
""blur"",""1"",""3379""
""focus"",""1"",""9136""
""fullscreenenter"",""1"",""10771""
","""event"",""trial"",""time""
""blur"",""1"",""3379""
","""event"",""trial"",""time""
""focus"",""1"",""9136""
","""event"",""trial"",""time""
""fullscreenenter"",""1"",""10771""
","
","","","806.7000000029802","","","23","16358","6309","&#9776;","elianto","#3366ff99"," "," ","1","+10","[1659.699999999255]","1","0","1","","","","","","","",""
"pit-trial","21","514762","0.0-2.0-8.0-1.0","battery-v0.2","","""event"",""trial"",""time""
""blur"",""1"",""3379""
""focus"",""1"",""9136""
""fullscreenenter"",""1"",""10771""
","""event"",""trial"",""time""
""blur"",""1"",""3379""
","""event"",""trial"",""time""
""focus"",""1"",""9136""
","""event"",""trial"",""time""
""fullscreenenter"",""1"",""10771""
","
","","","693.1999999992549","","","23","16358","6309","&#9776;","elianto","#3366ff99"," "," ","1","+10","[1544.5]","1","0","1","","","","","","","",""
"pit-trial","22","518248","0.0-2.0-8.0-2.0","battery-v0.2","","""event"",""trial"",""time""
""blur"",""1"",""3379""
""focus"",""1"",""9136""
""fullscreenenter"",""1"",""10771""
","""event"",""trial"",""time""
""blur"",""1"",""3379""
","""event"",""trial"",""time""
""focus"",""1"",""9136""
","""event"",""trial"",""time""
""fullscreenenter"",""1"",""10771""
","
","","","620","","","23","16358","6309","&#9776;","elianto","#3366ff99"," "," ","1","+10","[1475.800000000745]","1","0","1","","","","","","","",""
"pit-trial","23","521785","0.0-2.0-8.0-3.0","battery-v0.2","","""event"",""trial"",""time""
""blur"",""1"",""3379""
""focus"",""1"",""9136""
""fullscreenenter"",""1"",""10771""
","""event"",""trial"",""time""
""blur"",""1"",""3379""
","""event"",""trial"",""time""
""focus"",""1"",""9136""
","""event"",""trial"",""time""
""fullscreenenter"",""1"",""10771""
","
","","","675.3999999985099","","","23","16358","6309","&#9776;","elianto","#3366ff99"," "," ","1","0","[1524.5]","1","0","1","","","","","","","",""
"pit-trial","24","525156","0.0-2.0-8.0-4.0","battery-v0.2","","""event"",""trial"",""time""
""blur"",""1"",""3379""
""focus"",""1"",""9136""
""fullscreenenter"",""1"",""10771""
","""event"",""trial"",""time""
""blur"",""1"",""3379""
","""event"",""trial"",""time""
""focus"",""1"",""9136""
","""event"",""trial"",""time""
""fullscreenenter"",""1"",""10771""
","
","","","506","","","23","16358","6309","&#9776;","elianto","#3366ff99"," "," ","1","+10","[1358.5999999977648]","1","0","1","","","","","","","",""
"pit-trial","25","528524","0.0-2.0-8.1-0.1","battery-v0.2","","""event"",""trial"",""time""
""blur"",""1"",""3379""
""focus"",""1"",""9136""
""fullscreenenter"",""1"",""10771""
","""event"",""trial"",""time""
""blur"",""1"",""3379""
","""event"",""trial"",""time""
""focus"",""1"",""9136""
","""event"",""trial"",""time""
""fullscreenenter"",""1"",""10771""
","
","","","500.20000000298023","","","23","16358","6309","&#9776;","elianto","#3366ff99"," "," ","1","+10","[1352]","1","0","1","","","","","","","",""
"pit-trial","26","531840","0.0-2.0-8.1-1.1","battery-v0.2","","""event"",""trial"",""time""
""blur"",""1"",""3379""
""focus"",""1"",""9136""
""fullscreenenter"",""1"",""10771""
","""event"",""trial"",""time""
""blur"",""1"",""3379""
","""event"",""trial"",""time""
""focus"",""1"",""9136""
","""event"",""trial"",""time""
""fullscreenenter"",""1"",""10771""
","
","","","456.30000000074506","","","23","16358","6309","&#9776;","elianto","#3366ff99"," "," ","1","+10","[1306.5]","1","0","1","","","","","","","",""
"pit-trial","27","535126","0.0-2.0-8.1-2.1","battery-v0.2","","""event"",""trial"",""time""
""blur"",""1"",""3379""
""focus"",""1"",""9136""
""fullscreenenter"",""1"",""10771""
","""event"",""trial"",""time""
""blur"",""1"",""3379""
","""event"",""trial"",""time""
""focus"",""1"",""9136""
","""event"",""trial"",""time""
""fullscreenenter"",""1"",""10771""
","
","","","421.80000000074506","","","23","16358","6309","&#9776;","elianto","#3366ff99"," "," ","1","+10","[1271.800000000745]","1","0","1","","","","","","","",""
"pit-trial","28","538422","0.0-2.0-8.1-3.1","battery-v0.2","","""event"",""trial"",""time""
""blur"",""1"",""3379""
""focus"",""1"",""9136""
""fullscreenenter"",""1"",""10771""
","""event"",""trial"",""time""
""blur"",""1"",""3379""
","""event"",""trial"",""time""
""focus"",""1"",""9136""
","""event"",""trial"",""time""
""fullscreenenter"",""1"",""10771""
","
","","","432.20000000298023","","","23","16358","6309","&#9776;","elianto","#3366ff99"," "," ","1","0","[1286.300000000745]","1","0","1","","","","","","","",""
"pit-trial","29","541740","0.0-2.0-8.1-4.1","battery-v0.2","","""event"",""trial"",""time""
""blur"",""1"",""3379""
""focus"",""1"",""9136""
""fullscreenenter"",""1"",""10771""
","""event"",""trial"",""time""
""blur"",""1"",""3379""
","""event"",""trial"",""time""
""focus"",""1"",""9136""
","""event"",""trial"",""time""
""fullscreenenter"",""1"",""10771""
","
","","","453.80000000074506","","","23","16358","6309","&#9776;","elianto","#3366ff99"," "," ","1","+10","[1307.300000000745]","1","0","1","","","","","","","",""
"pit-trial","30","545042","0.0-2.0-8.2-0.2","battery-v0.2","","""event"",""trial"",""time""
""blur"",""1"",""3379""
""focus"",""1"",""9136""
""fullscreenenter"",""1"",""10771""
","""event"",""trial"",""time""
""blur"",""1"",""3379""
","""event"",""trial"",""time""
""focus"",""1"",""9136""
","""event"",""trial"",""time""
""fullscreenenter"",""1"",""10771""
","
","","","440.30000000074506","","","23","16358","6309","&#9776;","elianto","#3366ff99"," "," ","1","+10","[1290.3999999985099]","1","0","1","","","","","","","",""
"pit-trial","31","548576","0.0-2.0-8.2-1.2","battery-v0.2","","""event"",""trial"",""time""
""blur"",""1"",""3379""
""focus"",""1"",""9136""
""fullscreenenter"",""1"",""10771""
","""event"",""trial"",""time""
""blur"",""1"",""3379""
","""event"",""trial"",""time""
""focus"",""1"",""9136""
","""event"",""trial"",""time""
""fullscreenenter"",""1"",""10771""
","
","","","673.6999999992549","","","23","16358","6309","&#9776;","elianto","#3366ff99"," "," ","1","+10","[1523.699999999255]","1","0","1","","","","","","","",""
"pit-trial","32","551996","0.0-2.0-8.2-2.2","battery-v0.2","","""event"",""trial"",""time""
""blur"",""1"",""3379""
""focus"",""1"",""9136""
""fullscreenenter"",""1"",""10771""
","""event"",""trial"",""time""
""blur"",""1"",""3379""
","""event"",""trial"",""time""
""focus"",""1"",""9136""
","""event"",""trial"",""time""
""fullscreenenter"",""1"",""10771""
","
","","","554.5999999977648","","","23","16358","6309","&#9776;","elianto","#3366ff99"," "," ","1","+10","[1407.300000000745]","1","0","1","","","","","","","",""
"pit-trial","33","555332","0.0-2.0-8.2-3.2","battery-v0.2","","""event"",""trial"",""time""
""blur"",""1"",""3379""
""focus"",""1"",""9136""
""fullscreenenter"",""1"",""10771""
","""event"",""trial"",""time""
""blur"",""1"",""3379""
","""event"",""trial"",""time""
""focus"",""1"",""9136""
","""event"",""trial"",""time""
""fullscreenenter"",""1"",""10771""
","
","","","474.6000000014901","","","23","16358","6309","&#9776;","elianto","#3366ff99"," "," ","1","0","[1328]","1","0","1","","","","","","","",""
"pit-trial","34","558687","0.0-2.0-8.2-4.2","battery-v0.2","","""event"",""trial"",""time""
""blur"",""1"",""3379""
""focus"",""1"",""9136""
""fullscreenenter"",""1"",""10771""
","""event"",""trial"",""time""
""blur"",""1"",""3379""
","""event"",""trial"",""time""
""focus"",""1"",""9136""
","""event"",""trial"",""time""
""fullscreenenter"",""1"",""10771""
","
","","","490","","","23","16358","6309","&#9776;","elianto","#3366ff99"," "," ","1","+10","[1340.0999999977648]","1","0","1","","","","","","","",""
"call-function","35","558698","0.0-2.0-9.0","battery-v0.2","","""event"",""trial"",""time""
""blur"",""1"",""3379""
""focus"",""1"",""9136""
""fullscreenenter"",""1"",""10771""
","""event"",""trial"",""time""
""blur"",""1"",""3379""
","""event"",""trial"",""time""
""focus"",""1"",""9136""
","""event"",""trial"",""time""
""fullscreenenter"",""1"",""10771""
","
","","","","","","","","","","","","","","","","","","","","","","","","","","",""
"pit-instructions","36","608051","0.0-2.0-10.0","battery-v0.2","","""event"",""trial"",""time""
""blur"",""1"",""3379""
""focus"",""1"",""9136""
""fullscreenenter"",""1"",""10771""
","""event"",""trial"",""time""
""blur"",""1"",""3379""
","""event"",""trial"",""time""
""focus"",""1"",""9136""
","""event"",""trial"",""time""
""fullscreenenter"",""1"",""10771""
","
","","[{""page_index"":0,""viewing_time"":7584.10000000149},{""page_index"":1,""viewing_time"":8606.300000000745},{""page_index"":2,""viewing_time"":13259.89999999851},{""page_index"":3,""viewing_time"":9729.900000002235},{""page_index"":4,""viewing_time"":10167.79999999702}]","49350.60000000149","","","","","","","","","","","","","","","","","","","","","","","",""
"pit-trial","37","611565","0.0-2.0-11.0-0.0","battery-v0.2","","""event"",""trial"",""time""
""blur"",""1"",""3379""
""focus"",""1"",""9136""
""fullscreenenter"",""1"",""10771""
","""event"",""trial"",""time""
""blur"",""1"",""3379""
","""event"",""trial"",""time""
""focus"",""1"",""9136""
","""event"",""trial"",""time""
""fullscreenenter"",""1"",""10771""
","
","","","653.6999999992549","","","23","16358","6309","&#9761;","elianto","#3366ff99","-1"," ","0","0","[1503.800000000745]","1","0","2","","","","","","","",""
"pit-trial","38","614716","0.0-2.0-11.0-1.0","battery-v0.2","","""event"",""trial"",""time""
""blur"",""1"",""3379""
""focus"",""1"",""9136""
""fullscreenenter"",""1"",""10771""
","""event"",""trial"",""time""
""blur"",""1"",""3379""
","""event"",""trial"",""time""
""focus"",""1"",""9136""
","""event"",""trial"",""time""
""fullscreenenter"",""1"",""10771""
","
","","","288.19999999925494","","","23","16358","6309","&#9761;","elianto","#3366ff99","-1"," ","0","0","[1138.300000000745]","1","0","2","","","","","","","",""
"pit-trial","39","617706","0.0-2.0-11.0-2.0","battery-v0.2","","""event"",""trial"",""time""
""blur"",""1"",""3379""
""focus"",""1"",""9136""
""fullscreenenter"",""1"",""10771""
","""event"",""trial"",""time""
""blur"",""1"",""3379""
","""event"",""trial"",""time""
""focus"",""1"",""9136""
","""event"",""trial"",""time""
""fullscreenenter"",""1"",""10771""
","
","","","126.5","","","23","16358","6309","&#9761;","elianto","#3366ff99","-1"," ","0","0","[981.7000000029802]","1","0","2","","","","","","","",""
"pit-trial","40","622571","0.0-2.0-11.0-3.0","battery-v0.2","","""event"",""trial"",""time""
""blur"",""1"",""3379""
""focus"",""1"",""9136""
""fullscreenenter"",""1"",""10771""
","""event"",""trial"",""time""
""blur"",""1"",""3379""
","""event"",""trial"",""time""
""focus"",""1"",""9136""
","""event"",""trial"",""time""
""fullscreenenter"",""1"",""10771""
","
","","","-1","","","23","16358","6309","&#9761;","elianto","#3366ff99","-1","-1","1","0","[]","0","0","2","","","","","","","",""
"pit-trial","41","627432","0.0-2.0-11.0-4.0","battery-v0.2","","""event"",""trial"",""time""
""blur"",""1"",""3379""
""focus"",""1"",""9136""
""fullscreenenter"",""1"",""10771""
","""event"",""trial"",""time""
""blur"",""1"",""3379""
","""event"",""trial"",""time""
""focus"",""1"",""9136""
","""event"",""trial"",""time""
""fullscreenenter"",""1"",""10771""
","
","","","-1","","","23","16358","6309","&#9761;","elianto","#3366ff99","-1","-1","1","+10","[]","0","0","2","","","","","","","",""
"pit-trial","42","632297","0.0-2.0-11.1-0.1","battery-v0.2","","""event"",""trial"",""time""
""blur"",""1"",""3379""
""focus"",""1"",""9136""
""fullscreenenter"",""1"",""10771""
","""event"",""trial"",""time""
""blur"",""1"",""3379""
","""event"",""trial"",""time""
""focus"",""1"",""9136""
","""event"",""trial"",""time""
""fullscreenenter"",""1"",""10771""
","
","","","-1","","","23","16358","6309","&#9761;","elianto","#3366ff99","-1","-1","1","+10","[]","0","0","2","","","","","","","",""
"pit-trial","43","637162","0.0-2.0-11.1-1.1","battery-v0.2","","""event"",""trial"",""time""
""blur"",""1"",""3379""
""focus"",""1"",""9136""
""fullscreenenter"",""1"",""10771""
","""event"",""trial"",""time""
""blur"",""1"",""3379""
","""event"",""trial"",""time""
""focus"",""1"",""9136""
","""event"",""trial"",""time""
""fullscreenenter"",""1"",""10771""
","
","","","-1","","","23","16358","6309","&#9761;","elianto","#3366ff99","-1","-1","1","+10","[]","0","0","2","","","","","","","",""
"pit-trial","44","642024","0.0-2.0-11.1-2.1","battery-v0.2","","""event"",""trial"",""time""
""blur"",""1"",""3379""
""focus"",""1"",""9136""
""fullscreenenter"",""1"",""10771""
","""event"",""trial"",""time""
""blur"",""1"",""3379""
","""event"",""trial"",""time""
""focus"",""1"",""9136""
","""event"",""trial"",""time""
""fullscreenenter"",""1"",""10771""
","
","","","-1","","","23","16358","6309","&#9761;","elianto","#3366ff99","-1","-1","1","+10","[]","0","0","2","","","","","","","",""
"pit-trial","45","645360","0.0-2.0-11.1-3.1","battery-v0.2","","""event"",""trial"",""time""
""blur"",""1"",""3379""
""focus"",""1"",""9136""
""fullscreenenter"",""1"",""10771""
","""event"",""trial"",""time""
""blur"",""1"",""3379""
","""event"",""trial"",""time""
""focus"",""1"",""9136""
","""event"",""trial"",""time""
""fullscreenenter"",""1"",""10771""
","
","","","471","","","23","16358","6309","&#9761;","elianto","#3366ff99","-1"," ","0","+10","[1321.2000000029802]","1","0","2","","","","","","","",""
"pit-trial","46","648677","0.0-2.0-11.1-4.1","battery-v0.2","","""event"",""trial"",""time""
""blur"",""1"",""3379""
""focus"",""1"",""9136""
""fullscreenenter"",""1"",""10771""
","""event"",""trial"",""time""
""blur"",""1"",""3379""
","""event"",""trial"",""time""
""focus"",""1"",""9136""
","""event"",""trial"",""time""
""fullscreenenter"",""1"",""10771""
","
","","","454.5","","","23","16358","6309","&#9761;","elianto","#3366ff99","-1"," ","0","0","[1304.699999999255]","1","0","2","","","","","","","",""
"pit-trial","47","652132","0.0-2.0-11.2-0.2","battery-v0.2","","""event"",""trial"",""time""
""blur"",""1"",""3379""
""focus"",""1"",""9136""
""fullscreenenter"",""1"",""10771""
","""event"",""trial"",""time""
""blur"",""1"",""3379""
","""event"",""trial"",""time""
""focus"",""1"",""9136""
","""event"",""trial"",""time""
""fullscreenenter"",""1"",""10771""
","
","","","592","","","23","16358","6309","&#9761;","elianto","#3366ff99","-1"," ","0","0","[1442]","1","0","2","","","","","","","",""
"pit-trial","48","655506","0.0-2.0-11.2-1.2","battery-v0.2","","""event"",""trial"",""time""
""blur"",""1"",""3379""
""focus"",""1"",""9136""
""fullscreenenter"",""1"",""10771""
","""event"",""trial"",""time""
""blur"",""1"",""3379""
","""event"",""trial"",""time""
""focus"",""1"",""9136""
","""event"",""trial"",""time""
""fullscreenenter"",""1"",""10771""
","
","","","512.6999999992549","","","23","16358","6309","&#9761;","elianto","#3366ff99","-1"," ","0","0","[1364.3999999985099]","1","0","2","","","","","","","",""
"pit-trial","49","660373","0.0-2.0-11.2-2.2","battery-v0.2","","""event"",""trial"",""time""
""blur"",""1"",""3379""
""focus"",""1"",""9136""
""fullscreenenter"",""1"",""10771""
","""event"",""trial"",""time""
""blur"",""1"",""3379""
","""event"",""trial"",""time""
""focus"",""1"",""9136""
","""event"",""trial"",""time""
""fullscreenenter"",""1"",""10771""
","
","","","-1","","","23","16358","6309","&#9761;","elianto","#3366ff99","-1","-1","1","+10","[]","0","0","2","","","","","","","",""
"pit-trial","50","665239","0.0-2.0-11.2-3.2","battery-v0.2","","""event"",""trial"",""time""
""blur"",""1"",""3379""
""focus"",""1"",""9136""
""fullscreenenter"",""1"",""10771""
","""event"",""trial"",""time""
""blur"",""1"",""3379""
","""event"",""trial"",""time""
""focus"",""1"",""9136""
","""event"",""trial"",""time""
""fullscreenenter"",""1"",""10771""
","
","","","-1","","","23","16358","6309","&#9761;","elianto","#3366ff99","-1","-1","1","0","[]","0","0","2","","","","","","","",""
"pit-trial","51","670103","0.0-2.0-11.2-4.2","battery-v0.2","","""event"",""trial"",""time""
""blur"",""1"",""3379""
""focus"",""1"",""9136""
""fullscreenenter"",""1"",""10771""
","""event"",""trial"",""time""
""blur"",""1"",""3379""
","""event"",""trial"",""time""
""focus"",""1"",""9136""
","""event"",""trial"",""time""
""fullscreenenter"",""1"",""10771""
","
","","","-1","","","23","16358","6309","&#9761;","elianto","#3366ff99","-1","-1","1","+10","[]","0","0","2","","","","","","","",""
"pit-trial","52","674966","0.0-2.0-11.3-0.3","battery-v0.2","","""event"",""trial"",""time""
""blur"",""1"",""3379""
""focus"",""1"",""9136""
""fullscreenenter"",""1"",""10771""
","""event"",""trial"",""time""
""blur"",""1"",""3379""
","""event"",""trial"",""time""
""focus"",""1"",""9136""
","""event"",""trial"",""time""
""fullscreenenter"",""1"",""10771""
","
","","","-1","","","23","16358","6309","&#9761;","elianto","#3366ff99","-1","-1","1","+10","[]","0","0","2","","","","","","","",""
"pit-trial","53","679828","0.0-2.0-11.3-1.3","battery-v0.2","","""event"",""trial"",""time""
""blur"",""1"",""3379""
""focus"",""1"",""9136""
""fullscreenenter"",""1"",""10771""
","""event"",""trial"",""time""
""blur"",""1"",""3379""
","""event"",""trial"",""time""
""focus"",""1"",""9136""
","""event"",""trial"",""time""
""fullscreenenter"",""1"",""10771""
","
","","","-1","","","23","16358","6309","&#9761;","elianto","#3366ff99","-1","-1","1","+10","[]","0","0","2","","","","","","","",""
"pit-trial","54","684693","0.0-2.0-11.3-2.3","battery-v0.2","","""event"",""trial"",""time""
""blur"",""1"",""3379""
""focus"",""1"",""9136""
""fullscreenenter"",""1"",""10771""
","""event"",""trial"",""time""
""blur"",""1"",""3379""
","""event"",""trial"",""time""
""focus"",""1"",""9136""
","""event"",""trial"",""time""
""fullscreenenter"",""1"",""10771""
","
","","","-1","","","23","16358","6309","&#9761;","elianto","#3366ff99","-1","-1","1","+10","[]","0","0","2","","","","","","","",""
"pit-trial","55","688204","0.0-2.0-11.3-3.3","battery-v0.2","","""event"",""trial"",""time""
""blur"",""1"",""3379""
""focus"",""1"",""9136""
""fullscreenenter"",""1"",""10771""
","""event"",""trial"",""time""
""blur"",""1"",""3379""
","""event"",""trial"",""time""
""focus"",""1"",""9136""
","""event"",""trial"",""time""
""fullscreenenter"",""1"",""10771""
","
","","","640.6000000014901","","","23","16358","6309","&#9761;","elianto","#3366ff99","-1"," ","0","+10","[1495.699999999255]","1","0","2","","","","","","","",""
"pit-trial","56","691697","0.0-2.0-11.3-4.3","battery-v0.2","","""event"",""trial"",""time""
""blur"",""1"",""3379""
""focus"",""1"",""9136""
""fullscreenenter"",""1"",""10771""
","""event"",""trial"",""time""
""blur"",""1"",""3379""
","""event"",""trial"",""time""
""focus"",""1"",""9136""
","""event"",""trial"",""time""
""fullscreenenter"",""1"",""10771""
","
","","","633.5","","","23","16358","6309","&#9761;","elianto","#3366ff99","-1"," ","0","0","[1483.5]","1","0","2","","","","","","","",""
"call-function","57","691706","0.0-2.0-12.0","battery-v0.2","","""event"",""trial"",""time""
""blur"",""1"",""3379""
""focus"",""1"",""9136""
""fullscreenenter"",""1"",""10771""
","""event"",""trial"",""time""
""blur"",""1"",""3379""
","""event"",""trial"",""time""
""focus"",""1"",""9136""
","""event"",""trial"",""time""
""fullscreenenter"",""1"",""10771""
","
","","","","","","","","","","","","","","","","","","","","","","","","","","",""
"pit-instructions","58","727737","0.0-2.0-13.0","battery-v0.2","","""event"",""trial"",""time""
""blur"",""1"",""3379""
""focus"",""1"",""9136""
""fullscreenenter"",""1"",""10771""
","""event"",""trial"",""time""
""blur"",""1"",""3379""
","""event"",""trial"",""time""
""focus"",""1"",""9136""
","""event"",""trial"",""time""
""fullscreenenter"",""1"",""10771""
","
","","[{""page_index"":0,""viewing_time"":5572.699999999255},{""page_index"":1,""viewing_time"":7969.60000000149},{""page_index"":2,""viewing_time"":3901.199999999255},{""page_index"":3,""viewing_time"":12209.400000002235},{""page_index"":4,""viewing_time"":6372.199999999255}]","36028.699999999255","","","","","","","","","","","","","","","","","","","","","","","",""
"pit-trial","59","732601","0.0-2.0-14.0-0.0","battery-v0.2","","""event"",""trial"",""time""
""blur"",""1"",""3379""
""focus"",""1"",""9136""
""fullscreenenter"",""1"",""10771""
","""event"",""trial"",""time""
""blur"",""1"",""3379""
","""event"",""trial"",""time""
""focus"",""1"",""9136""
","""event"",""trial"",""time""
""fullscreenenter"",""1"",""10771""
","
","","","-1","","","23","16358","6309","&#9826;","elianto","#f73b6a7A","-1","-1","1","0","[]","0","0","3","","","","","","","",""
"pit-trial","60","737469","0.0-2.0-14.0-1.0","battery-v0.2","","""event"",""trial"",""time""
""blur"",""1"",""3379""
""focus"",""1"",""9136""
""fullscreenenter"",""1"",""10771""
","""event"",""trial"",""time""
""blur"",""1"",""3379""
","""event"",""trial"",""time""
""focus"",""1"",""9136""
","""event"",""trial"",""time""
""fullscreenenter"",""1"",""10771""
","
","","","-1","","","23","16358","6309","&#9826;","elianto","#f73b6a7A","-1","-1","1","0","[]","0","0","3","","","","","","","",""
"pit-trial","61","740799","0.0-2.0-14.0-2.0","battery-v0.2","","""event"",""trial"",""time""
""blur"",""1"",""3379""
""focus"",""1"",""9136""
""fullscreenenter"",""1"",""10771""
","""event"",""trial"",""time""
""blur"",""1"",""3379""
","""event"",""trial"",""time""
""focus"",""1"",""9136""
","""event"",""trial"",""time""
""fullscreenenter"",""1"",""10771""
","
","","","470.6000000014901","","","23","16358","6309","&#9826;","elianto","#f73b6a7A","-1"," ","0","-10","[1320.7000000029802]","1","0","3","","","","","","","",""
"pit-trial","62","744368","0.0-2.0-14.0-3.0","battery-v0.2","","""event"",""trial"",""time""
""blur"",""1"",""3379""
""focus"",""1"",""9136""
""fullscreenenter"",""1"",""10771""
","""event"",""trial"",""time""
""blur"",""1"",""3379""
","""event"",""trial"",""time""
""focus"",""1"",""9136""
","""event"",""trial"",""time""
""fullscreenenter"",""1"",""10771""
","
","","","705.3000000007451","","","23","16358","6309","&#9826;","elianto","#f73b6a7A","-1"," ","0","0","[1555.199999999255]","1","0","3","","","","","","","",""
"pit-trial","63","747642","0.0-2.0-14.0-4.0","battery-v0.2","","""event"",""trial"",""time""
""blur"",""1"",""3379""
""focus"",""1"",""9136""
""fullscreenenter"",""1"",""10771""
","""event"",""trial"",""time""
""blur"",""1"",""3379""
","""event"",""trial"",""time""
""focus"",""1"",""9136""
","""event"",""trial"",""time""
""fullscreenenter"",""1"",""10771""
","
","","","401.30000000074506","","","23","16358","6309","&#9826;","elianto","#f73b6a7A","-1"," ","0","-10","[1257.9000000022352]","1","0","3","","","","","","","",""
"pit-trial","64","750957","0.0-2.0-14.1-0.1","battery-v0.2","","""event"",""trial"",""time""
""blur"",""1"",""3379""
""focus"",""1"",""9136""
""fullscreenenter"",""1"",""10771""
","""event"",""trial"",""time""
""blur"",""1"",""3379""
","""event"",""trial"",""time""
""focus"",""1"",""9136""
","""event"",""trial"",""time""
""fullscreenenter"",""1"",""10771""
","
","","","445.4000000022352","","","23","16358","6309","&#9826;","elianto","#f73b6a7A","-1"," ","0","-10","[1295.5999999977648]","1","0","3","","","","","","","",""
"pit-trial","65","754231","0.0-2.0-14.1-1.1","battery-v0.2","","""event"",""trial"",""time""
""blur"",""1"",""3379""
""focus"",""1"",""9136""
""fullscreenenter"",""1"",""10771""
","""event"",""trial"",""time""
""blur"",""1"",""3379""
","""event"",""trial"",""time""
""focus"",""1"",""9136""
","""event"",""trial"",""time""
""fullscreenenter"",""1"",""10771""
","
","","","414.69999999925494","","","23","16358","6309","&#9826;","elianto","#f73b6a7A","-1"," ","0","-10","[1264.699999999255]","1","0","3","","","","","","","",""
"pit-trial","66","759095","0.0-2.0-14.1-2.1","battery-v0.2","","""event"",""trial"",""time""
""blur"",""1"",""3379""
""focus"",""1"",""9136""
""fullscreenenter"",""1"",""10771""
","""event"",""trial"",""time""
""blur"",""1"",""3379""
","""event"",""trial"",""time""
""focus"",""1"",""9136""
","""event"",""trial"",""time""
""fullscreenenter"",""1"",""10771""
","
","","","-1","","","23","16358","6309","&#9826;","elianto","#f73b6a7A","-1","-1","1","0","[]","0","0","3","","","","","","","",""
"pit-trial","67","763960","0.0-2.0-14.1-3.1","battery-v0.2","","""event"",""trial"",""time""
""blur"",""1"",""3379""
""focus"",""1"",""9136""
""fullscreenenter"",""1"",""10771""
","""event"",""trial"",""time""
""blur"",""1"",""3379""
","""event"",""trial"",""time""
""focus"",""1"",""9136""
","""event"",""trial"",""time""
""fullscreenenter"",""1"",""10771""
","
","","","-1","","","23","16358","6309","&#9826;","elianto","#f73b6a7A","-1","-1","1","-10","[]","0","0","3","","","","","","","",""
"pit-trial","68","768825","0.0-2.0-14.1-4.1","battery-v0.2","","""event"",""trial"",""time""
""blur"",""1"",""3379""
""focus"",""1"",""9136""
""fullscreenenter"",""1"",""10771""
","""event"",""trial"",""time""
""blur"",""1"",""3379""
","""event"",""trial"",""time""
""focus"",""1"",""9136""
","""event"",""trial"",""time""
""fullscreenenter"",""1"",""10771""
","
","","","-1","","","23","16358","6309","&#9826;","elianto","#f73b6a7A","-1","-1","1","0","[]","0","0","3","","","","","","","",""
"pit-trial","69","773694","0.0-2.0-14.2-0.2","battery-v0.2","","""event"",""trial"",""time""
""blur"",""1"",""3379""
""focus"",""1"",""9136""
""fullscreenenter"",""1"",""10771""
","""event"",""trial"",""time""
""blur"",""1"",""3379""
","""event"",""trial"",""time""
""focus"",""1"",""9136""
","""event"",""trial"",""time""
""fullscreenenter"",""1"",""10771""
","
","","","-1","","","23","16358","6309","&#9826;","elianto","#f73b6a7A","-1","-1","1","0","[]","0","0","3","","","","","","","",""
"pit-trial","70","778556","0.0-2.0-14.2-1.2","battery-v0.2","","""event"",""trial"",""time""
""blur"",""1"",""3379""
""focus"",""1"",""9136""
""fullscreenenter"",""1"",""10771""
","""event"",""trial"",""time""
""blur"",""1"",""3379""
","""event"",""trial"",""time""
""focus"",""1"",""9136""
","""event"",""trial"",""time""
""fullscreenenter"",""1"",""10771""
","
","","","-1","","","23","16358","6309","&#9826;","elianto","#f73b6a7A","-1","-1","1","0","[]","0","0","3","","","","","","","",""
"pit-trial","71","783419","0.0-2.0-14.2-2.2","battery-v0.2","","""event"",""trial"",""time""
""blur"",""1"",""3379""
""focus"",""1"",""9136""
""fullscreenenter"",""1"",""10771""
","""event"",""trial"",""time""
""blur"",""1"",""3379""
","""event"",""trial"",""time""
""focus"",""1"",""9136""
","""event"",""trial"",""time""
""fullscreenenter"",""1"",""10771""
","
","","","-1","","","23","16358","6309","&#9826;","elianto","#f73b6a7A","-1","-1","1","0","[]","0","0","3","","","","","","","",""
"pit-trial","72","786730","0.0-2.0-14.2-3.2","battery-v0.2","","""event"",""trial"",""time""
""blur"",""1"",""3379""
""focus"",""1"",""9136""
""fullscreenenter"",""1"",""10771""
","""event"",""trial"",""time""
""blur"",""1"",""3379""
","""event"",""trial"",""time""
""focus"",""1"",""9136""
","""event"",""trial"",""time""
""fullscreenenter"",""1"",""10771""
","
","","","449.29999999701977","","","23","16358","6309","&#9826;","elianto","#f73b6a7A","-1"," ","0","0","[1300.5999999977648]","1","0","3","","","","","","","",""
"pit-trial","73","790021","0.0-2.0-14.2-4.2","battery-v0.2","","""event"",""trial"",""time""
""blur"",""1"",""3379""
""focus"",""1"",""9136""
""fullscreenenter"",""1"",""10771""
","""event"",""trial"",""time""
""blur"",""1"",""3379""
","""event"",""trial"",""time""
""focus"",""1"",""9136""
","""event"",""trial"",""time""
""fullscreenenter"",""1"",""10771""
","
","","","425.30000000074506","","","23","16358","6309","&#9826;","elianto","#f73b6a7A","-1"," ","0","-10","[1281.1000000014901]","1","0","3","","","","","","","",""
"pit-trial","74","793321","0.0-2.0-14.3-0.3","battery-v0.2","","""event"",""trial"",""time""
""blur"",""1"",""3379""
""focus"",""1"",""9136""
""fullscreenenter"",""1"",""10771""
","""event"",""trial"",""time""
""blur"",""1"",""3379""
","""event"",""trial"",""time""
""focus"",""1"",""9136""
","""event"",""trial"",""time""
""fullscreenenter"",""1"",""10771""
","
","","","425.3999999985099","","","23","16358","6309","&#9826;","elianto","#f73b6a7A","-1"," ","0","-10","[1281.9000000022352]","1","0","3","","","","","","","",""
"pit-trial","75","796600","0.0-2.0-14.3-1.3","battery-v0.2","","""event"",""trial"",""time""
""blur"",""1"",""3379""
""focus"",""1"",""9136""
""fullscreenenter"",""1"",""10771""
","""event"",""trial"",""time""
""blur"",""1"",""3379""
","""event"",""trial"",""time""
""focus"",""1"",""9136""
","""event"",""trial"",""time""
""fullscreenenter"",""1"",""10771""
","
","","","414.1000000014901","","","23","16358","6309","&#9826;","elianto","#f73b6a7A","-1"," ","0","-10","[1266.6000000014901]","1","0","3","","","","","","","",""
"pit-trial","76","799883","0.0-2.0-14.3-2.3","battery-v0.2","","""event"",""trial"",""time""
""blur"",""1"",""3379""
""focus"",""1"",""9136""
""fullscreenenter"",""1"",""10771""
","""event"",""trial"",""time""
""blur"",""1"",""3379""
","""event"",""trial"",""time""
""focus"",""1"",""9136""
","""event"",""trial"",""time""
""fullscreenenter"",""1"",""10771""
","
","","","424.80000000074506","","","23","16358","6309","&#9826;","elianto","#f73b6a7A","-1"," ","0","-10","[1275.300000000745]","1","0","3","","","","","","","",""
"pit-trial","77","804745","0.0-2.0-14.3-3.3","battery-v0.2","","""event"",""trial"",""time""
""blur"",""1"",""3379""
""focus"",""1"",""9136""
""fullscreenenter"",""1"",""10771""
","""event"",""trial"",""time""
""blur"",""1"",""3379""
","""event"",""trial"",""time""
""focus"",""1"",""9136""
","""event"",""trial"",""time""
""fullscreenenter"",""1"",""10771""
","
","","","-1","","","23","16358","6309","&#9826;","elianto","#f73b6a7A","-1","-1","1","-10","[]","0","0","3","","","","","","","",""
"pit-trial","78","809606","0.0-2.0-14.3-4.3","battery-v0.2","","""event"",""trial"",""time""
""blur"",""1"",""3379""
""focus"",""1"",""9136""
""fullscreenenter"",""1"",""10771""
","""event"",""trial"",""time""
""blur"",""1"",""3379""
","""event"",""trial"",""time""
""focus"",""1"",""9136""
","""event"",""trial"",""time""
""fullscreenenter"",""1"",""10771""
","
","","","-1","","","23","16358","6309","&#9826;","elianto","#f73b6a7A","-1","-1","1","0","[]","0","0","3","","","","","","","",""
"call-function","79","809615","0.0-2.0-15.0","battery-v0.2","","""event"",""trial"",""time""
""blur"",""1"",""3379""
""focus"",""1"",""9136""
""fullscreenenter"",""1"",""10771""
","""event"",""trial"",""time""
""blur"",""1"",""3379""
","""event"",""trial"",""time""
""focus"",""1"",""9136""
","""event"",""trial"",""time""
""fullscreenenter"",""1"",""10771""
","
","","","","","","","","","","","","","","","","","","","","","","","","","","",""
"pit-instructions","80","837857","0.0-2.0-16.0","battery-v0.2","","""event"",""trial"",""time""
""blur"",""1"",""3379""
""focus"",""1"",""9136""
""fullscreenenter"",""1"",""10771""
","""event"",""trial"",""time""
""blur"",""1"",""3379""
","""event"",""trial"",""time""
""focus"",""1"",""9136""
","""event"",""trial"",""time""
""fullscreenenter"",""1"",""10771""
","
","","[{""page_index"":0,""viewing_time"":6772.60000000149},{""page_index"":1,""viewing_time"":9466.89999999851},{""page_index"":2,""viewing_time"":5799.900000002235},{""page_index"":3,""viewing_time"":6197.29999999702}]","28239.400000002235","","","","","","","","","","","","","","","","","","","","","","","",""
"pit-trial","81","841389","0.0-2.0-17.0-0.0","battery-v0.2","","""event"",""trial"",""time""
""blur"",""1"",""3379""
""focus"",""1"",""9136""
""fullscreenenter"",""1"",""10771""
","""event"",""trial"",""time""
""blur"",""1"",""3379""
","""event"",""trial"",""time""
""focus"",""1"",""9136""
","""event"",""trial"",""time""
""fullscreenenter"",""1"",""10771""
","
","","","671.1999999992549","","","23","16358","6309","&#9789;","elianto","#f73b6a7A"," "," ","1","0","[1521.199999999255]","1","0","4","","","","","","","",""
"pit-trial","82","845245","0.0-2.0-17.0-1.0","battery-v0.2","","""event"",""trial"",""time""
""blur"",""1"",""3379""
""focus"",""1"",""9136""
""fullscreenenter"",""1"",""10771""
","""event"",""trial"",""time""
""blur"",""1"",""3379""
","""event"",""trial"",""time""
""focus"",""1"",""9136""
","""event"",""trial"",""time""
""fullscreenenter"",""1"",""10771""
","
","","","994.1000000014901","","","23","16358","6309","&#9789;","elianto","#f73b6a7A"," "," ","1","0","[1844.300000000745]","1","0","4","","","","","","","",""
"pit-trial","83","850086","0.0-2.0-17.0-2.0","battery-v0.2","","""event"",""trial"",""time""
""blur"",""1"",""3379""
""focus"",""1"",""9136""
""fullscreenenter"",""1"",""10771""
","""event"",""trial"",""time""
""blur"",""1"",""3379""
","""event"",""trial"",""time""
""focus"",""1"",""9136""
","""event"",""trial"",""time""
""fullscreenenter"",""1"",""10771""
","
","","","1977.300000000745","","","23","16358","6309","&#9789;","elianto","#f73b6a7A"," "," ","1","0","[2827.199999999255]","1","0","4","","","","","","","",""
"pit-trial","84","853613","0.0-2.0-17.0-3.0","battery-v0.2","","""event"",""trial"",""time""
""blur"",""1"",""3379""
""focus"",""1"",""9136""
""fullscreenenter"",""1"",""10771""
","""event"",""trial"",""time""
""blur"",""1"",""3379""
","""event"",""trial"",""time""
""focus"",""1"",""9136""
","""event"",""trial"",""time""
""fullscreenenter"",""1"",""10771""
","
","","","659","","","23","16358","6309","&#9789;","elianto","#f73b6a7A"," "," ","1","-10","[1514.800000000745]","1","0","4","","","","","","","",""
"pit-trial","85","857021","0.0-2.0-17.0-4.0","battery-v0.2","","""event"",""trial"",""time""
""blur"",""1"",""3379""
""focus"",""1"",""9136""
""fullscreenenter"",""1"",""10771""
","""event"",""trial"",""time""
""blur"",""1"",""3379""
","""event"",""trial"",""time""
""focus"",""1"",""9136""
","""event"",""trial"",""time""
""fullscreenenter"",""1"",""10771""
","
","","","548.8999999985099","","","23","16358","6309","&#9789;","elianto","#f73b6a7A"," "," ","1","0","[1399]","1","0","4","","","","","","","",""
"pit-trial","86","860440","0.0-2.0-17.1-0.1","battery-v0.2","","""event"",""trial"",""time""
""blur"",""1"",""3379""
""focus"",""1"",""9136""
""fullscreenenter"",""1"",""10771""
","""event"",""trial"",""time""
""blur"",""1"",""3379""
","""event"",""trial"",""time""
""focus"",""1"",""9136""
","""event"",""trial"",""time""
""fullscreenenter"",""1"",""10771""
","
","","","547.4000000022352","","","23","16358","6309","&#9789;","elianto","#f73b6a7A"," "," ","1","0","[1400.4000000022352]","1","0","4","","","","","","","",""
"pit-trial","87","863570","0.0-2.0-17.1-1.1","battery-v0.2","","""event"",""trial"",""time""
""blur"",""1"",""3379""
""focus"",""1"",""9136""
""fullscreenenter"",""1"",""10771""
","""event"",""trial"",""time""
""blur"",""1"",""3379""
","""event"",""trial"",""time""
""focus"",""1"",""9136""
","""event"",""trial"",""time""
""fullscreenenter"",""1"",""10771""
","
","","","266.80000000074506","","","23","16358","6309","&#9789;","elianto","#f73b6a7A"," "," ","1","0","[1119.1000000014901]","1","0","4","","","","","","","",""
"pit-trial","88","866861","0.0-2.0-17.1-2.1","battery-v0.2","","""event"",""trial"",""time""
""blur"",""1"",""3379""
""focus"",""1"",""9136""
""fullscreenenter"",""1"",""10771""
","""event"",""trial"",""time""
""blur"",""1"",""3379""
","""event"",""trial"",""time""
""focus"",""1"",""9136""
","""event"",""trial"",""time""
""fullscreenenter"",""1"",""10771""
","
","","","425.19999999925494","","","23","16358","6309","&#9789;","elianto","#f73b6a7A"," "," ","1","0","[1275.0999999977648]","1","0","4","","","","","","","",""
"pit-trial","89","870297","0.0-2.0-17.1-3.1","battery-v0.2","","""event"",""trial"",""time""
""blur"",""1"",""3379""
""focus"",""1"",""9136""
""fullscreenenter"",""1"",""10771""
","""event"",""trial"",""time""
""blur"",""1"",""3379""
","""event"",""trial"",""time""
""focus"",""1"",""9136""
","""event"",""trial"",""time""
""fullscreenenter"",""1"",""10771""
","
","","","573","","","23","16358","6309","&#9789;","elianto","#f73b6a7A"," "," ","1","-10","[1423.0999999977648]","1","0","4","","","","","","","",""
"pit-trial","90","873757","0.0-2.0-17.1-4.1","battery-v0.2","","""event"",""trial"",""time""
""blur"",""1"",""3379""
""focus"",""1"",""9136""
""fullscreenenter"",""1"",""10771""
","""event"",""trial"",""time""
""blur"",""1"",""3379""
","""event"",""trial"",""time""
""focus"",""1"",""9136""
","""event"",""trial"",""time""
""fullscreenenter"",""1"",""10771""
","
","","","602.1000000014901","","","23","16358","6309","&#9789;","elianto","#f73b6a7A"," "," ","1","0","[1452.1000000014901]","1","0","4","","","","","","","",""
"pit-trial","91","877436","0.0-2.0-17.2-0.2","battery-v0.2","","""event"",""trial"",""time""
""blur"",""1"",""3379""
""focus"",""1"",""9136""
""fullscreenenter"",""1"",""10771""
","""event"",""trial"",""time""
""blur"",""1"",""3379""
","""event"",""trial"",""time""
""focus"",""1"",""9136""
","""event"",""trial"",""time""
""fullscreenenter"",""1"",""10771""
","
","","","819.1000000014901","","","23","16358","6309","&#9789;","elianto","#f73b6a7A"," "," ","1","0","[1669.199999999255]","1","0","4","","","","","","","",""
"pit-trial","92","880741","0.0-2.0-17.2-1.2","battery-v0.2","","""event"",""trial"",""time""
""blur"",""1"",""3379""
""focus"",""1"",""9136""
""fullscreenenter"",""1"",""10771""
","""event"",""trial"",""time""
""blur"",""1"",""3379""
","""event"",""trial"",""time""
""focus"",""1"",""9136""
","""event"",""trial"",""time""
""fullscreenenter"",""1"",""10771""
","
","","","443.6000000014901","","","23","16358","6309","&#9789;","elianto","#f73b6a7A"," "," ","1","0","[1293.800000000745]","1","0","4","","","","","","","",""
"pit-trial","93","884075","0.0-2.0-17.2-2.2","battery-v0.2","","""event"",""trial"",""time""
""blur"",""1"",""3379""
""focus"",""1"",""9136""
""fullscreenenter"",""1"",""10771""
","""event"",""trial"",""time""
""blur"",""1"",""3379""
","""event"",""trial"",""time""
""focus"",""1"",""9136""
","""event"",""trial"",""time""
""fullscreenenter"",""1"",""10771""
","
","","","470.4000000022352","","","23","16358","6309","&#9789;","elianto","#f73b6a7A"," "," ","1","0","[1324.699999999255]","1","0","4","","","","","","","",""
"pit-trial","94","887488","0.0-2.0-17.2-3.2","battery-v0.2","","""event"",""trial"",""time""
""blur"",""1"",""3379""
""focus"",""1"",""9136""
""fullscreenenter"",""1"",""10771""
","""event"",""trial"",""time""
""blur"",""1"",""3379""
","""event"",""trial"",""time""
""focus"",""1"",""9136""
","""event"",""trial"",""time""
""fullscreenenter"",""1"",""10771""
","
","","","547.7999999970198","","","23","16358","6309","&#9789;","elianto","#f73b6a7A"," "," ","1","-10","[1401.6000000014901]","1","0","4","","","","","","","",""
"pit-trial","95","891029","0.0-2.0-17.2-4.2","battery-v0.2","","""event"",""trial"",""time""
""blur"",""1"",""3379""
""focus"",""1"",""9136""
""fullscreenenter"",""1"",""10771""
","""event"",""trial"",""time""
""blur"",""1"",""3379""
","""event"",""trial"",""time""
""focus"",""1"",""9136""
","""event"",""trial"",""time""
""fullscreenenter"",""1"",""10771""
","
","","","680.3999999985099","","","23","16358","6309","&#9789;","elianto","#f73b6a7A"," "," ","1","0","[1530.5]","1","0","4","","","","","","","",""
"pit-trial","96","894440","0.0-2.0-17.3-0.3","battery-v0.2","","""event"",""trial"",""time""
""blur"",""1"",""3379""
""focus"",""1"",""9136""
""fullscreenenter"",""1"",""10771""
","""event"",""trial"",""time""
""blur"",""1"",""3379""
","""event"",""trial"",""time""
""focus"",""1"",""9136""
","""event"",""trial"",""time""
""fullscreenenter"",""1"",""10771""
","
","","","545.0999999977648","","","23","16358","6309","&#9789;","elianto","#f73b6a7A"," "," ","1","0","[1398.300000000745]","1","0","4","","","","","","","",""
"pit-trial","97","897841","0.0-2.0-17.3-1.3","battery-v0.2","","""event"",""trial"",""time""
""blur"",""1"",""3379""
""focus"",""1"",""9136""
""fullscreenenter"",""1"",""10771""
","""event"",""trial"",""time""
""blur"",""1"",""3379""
","""event"",""trial"",""time""
""focus"",""1"",""9136""
","""event"",""trial"",""time""
""fullscreenenter"",""1"",""10771""
","
","","","534.1000000014901","","","23","16358","6309","&#9789;","elianto","#f73b6a7A"," "," ","1","0","[1389.5999999977648]","1","0","4","","","","","","","",""
"pit-trial","98","901221","0.0-2.0-17.3-2.3","battery-v0.2","","""event"",""trial"",""time""
""blur"",""1"",""3379""
""focus"",""1"",""9136""
""fullscreenenter"",""1"",""10771""
","""event"",""trial"",""time""
""blur"",""1"",""3379""
","""event"",""trial"",""time""
""focus"",""1"",""9136""
","""event"",""trial"",""time""
""fullscreenenter"",""1"",""10771""
","
","","","514.5","","","23","16358","6309","&#9789;","elianto","#f73b6a7A"," "," ","1","0","[1364.5999999977648]","1","0","4","","","","","","","",""
"pit-trial","99","904692","0.0-2.0-17.3-3.3","battery-v0.2","","""event"",""trial"",""time""
""blur"",""1"",""3379""
""focus"",""1"",""9136""
""fullscreenenter"",""1"",""10771""
","""event"",""trial"",""time""
""blur"",""1"",""3379""
","""event"",""trial"",""time""
""focus"",""1"",""9136""
","""event"",""trial"",""time""
""fullscreenenter"",""1"",""10771""
","
","","","603.6999999992549","","","23","16358","6309","&#9789;","elianto","#f73b6a7A"," "," ","1","-10","[1453.7999999970198]","1","0","4","","","","","","","",""
"pit-trial","100","907792","0.0-2.0-17.3-4.3","battery-v0.2","","""event"",""trial"",""time""
""blur"",""1"",""3379""
""focus"",""1"",""9136""
""fullscreenenter"",""1"",""10771""
","""event"",""trial"",""time""
""blur"",""1"",""3379""
","""event"",""trial"",""time""
""focus"",""1"",""9136""
","""event"",""trial"",""time""
""fullscreenenter"",""1"",""10771""
","
","","","240.5","","","23","16358","6309","&#9789;","elianto","#f73b6a7A"," "," ","1","0","[1090.800000000745]","1","0","4","","","","","","","",""
"call-function","101","907804","0.0-2.0-18.0","battery-v0.2","","""event"",""trial"",""time""
""blur"",""1"",""3379""
""focus"",""1"",""9136""
""fullscreenenter"",""1"",""10771""
","""event"",""trial"",""time""
""blur"",""1"",""3379""
","""event"",""trial"",""time""
""focus"",""1"",""9136""
","""event"",""trial"",""time""
""fullscreenenter"",""1"",""10771""
","
","","","","","","","","","","","","","","","","","","","","","","","","","","",""
"pit-instructions","102","985291","0.0-2.0-19.0","battery-v0.2","","""event"",""trial"",""time""
""blur"",""1"",""3379""
""focus"",""1"",""9136""
""fullscreenenter"",""1"",""10771""
","""event"",""trial"",""time""
""blur"",""1"",""3379""
","""event"",""trial"",""time""
""focus"",""1"",""9136""
","""event"",""trial"",""time""
""fullscreenenter"",""1"",""10771""
","
","","[{""page_index"":0,""viewing_time"":7552.599999997765},{""page_index"":1,""viewing_time"":8301.199999999255},{""page_index"":2,""viewing_time"":13931.20000000298},{""page_index"":3,""viewing_time"":8205.79999999702},{""page_index"":4,""viewing_time"":9287.800000000745},{""page_index"":5,""viewing_time"":9641.10000000149},{""page_index"":6,""viewing_time"":9457.5},{""page_index"":7,""viewing_time"":6431.599999997765},{""page_index"":8,""viewing_time"":4675.400000002235}]","77485.09999999776","","","","","","","","","","","","","","","","","","","","","","","",""
"pit-comprehension","103","990300","0.0-2.0-20.0-0.0","battery-v0.2","","""event"",""trial"",""time""
""blur"",""1"",""3379""
""focus"",""1"",""9136""
""fullscreenenter"",""1"",""10771""
","""event"",""trial"",""time""
""blur"",""1"",""3379""
","""event"",""trial"",""time""
""focus"",""1"",""9136""
","""event"",""trial"",""time""
""fullscreenenter"",""1"",""10771""
","
","","","4991.800000000745","[""SPACE""]","0","23","16358","6309","","","","","","","","","","","","","","","","","","",""
"pit-instructions","104","995298","0.0-2.0-20.0-1.0","battery-v0.2","","""event"",""trial"",""time""
""blur"",""1"",""3379""
""focus"",""1"",""9136""
""fullscreenenter"",""1"",""10771""
","""event"",""trial"",""time""
""blur"",""1"",""3379""
","""event"",""trial"",""time""
""focus"",""1"",""9136""
","""event"",""trial"",""time""
""fullscreenenter"",""1"",""10771""
","
","","[{""page_index"":0,""viewing_time"":4864.39999999851}]","4865.800000000745","","","","","","","","","","","","","","","","","","","","","","","",""
"pit-comprehension","105","1002398","0.0-2.0-21.0-0.0","battery-v0.2","","""event"",""trial"",""time""
""blur"",""1"",""3379""
""focus"",""1"",""9136""
""fullscreenenter"",""1"",""10771""
","""event"",""trial"",""time""
""blur"",""1"",""3379""
","""event"",""trial"",""time""
""focus"",""1"",""9136""
","""event"",""trial"",""time""
""fullscreenenter"",""1"",""10771""
","
","","","7073.199999999255","[""10""]","0","23","16358","6309","","","","","","","","","","","","","","","","","","",""
"pit-instructions","106","1004299","0.0-2.0-21.0-1.0","battery-v0.2","","""event"",""trial"",""time""
""blur"",""1"",""3379""
""focus"",""1"",""9136""
""fullscreenenter"",""1"",""10771""
","""event"",""trial"",""time""
""blur"",""1"",""3379""
","""event"",""trial"",""time""
""focus"",""1"",""9136""
","""event"",""trial"",""time""
""fullscreenenter"",""1"",""10771""
","
","","[{""page_index"":0,""viewing_time"":1780.2000000029802}]","1781.7000000029802","","","","","","","","","","","","","","","","","","","","","","","",""
"pit-comprehension","107","1013139","0.0-2.0-22.0-0.0","battery-v0.2","","""event"",""trial"",""time""
""blur"",""1"",""3379""
""focus"",""1"",""9136""
""fullscreenenter"",""1"",""10771""
","""event"",""trial"",""time""
""blur"",""1"",""3379""
","""event"",""trial"",""time""
""focus"",""1"",""9136""
","""event"",""trial"",""time""
""fullscreenenter"",""1"",""10771""
","
","","","8822.599999997765","[""0""]","0","23","16358","6309","","","","","","","","","","","","","","","","","","",""
"pit-instructions","108","1014876","0.0-2.0-22.0-1.0","battery-v0.2","","""event"",""trial"",""time""
""blur"",""1"",""3379""
""focus"",""1"",""9136""
""fullscreenenter"",""1"",""10771""
","""event"",""trial"",""time""
""blur"",""1"",""3379""
","""event"",""trial"",""time""
""focus"",""1"",""9136""
","""event"",""trial"",""time""
""fullscreenenter"",""1"",""10771""
","
","","[{""page_index"":0,""viewing_time"":1624.300000000745}]","1626.300000000745","","","","","","","","","","","","","","","","","","","","","","","",""
"pit-comprehension","109","1024062","0.0-2.0-23.0-0.0","battery-v0.2","","""event"",""trial"",""time""
""blur"",""1"",""3379""
""focus"",""1"",""9136""
""fullscreenenter"",""1"",""10771""
","""event"",""trial"",""time""
""blur"",""1"",""3379""
","""event"",""trial"",""time""
""focus"",""1"",""9136""
","""event"",""trial"",""time""
""fullscreenenter"",""1"",""10771""
","
","","","9174.20000000298","[""True""]","0","23","16358","6309","","","","","","","","","","","","","","","","","","",""
"pit-instructions","110","1025694","0.0-2.0-23.0-1.0","battery-v0.2","","""event"",""trial"",""time""
""blur"",""1"",""3379""
""focus"",""1"",""9136""
""fullscreenenter"",""1"",""10771""
","""event"",""trial"",""time""
""blur"",""1"",""3379""
","""event"",""trial"",""time""
""focus"",""1"",""9136""
","""event"",""trial"",""time""
""fullscreenenter"",""1"",""10771""
","
","","[{""page_index"":0,""viewing_time"":1498.5999999977648}]","1500.199999999255","","","","","","","","","","","","","","","","","","","","","","","",""
"pit-comprehension","111","1033681","0.0-2.0-24.0-0.0","battery-v0.2","","""event"",""trial"",""time""
""blur"",""1"",""3379""
""focus"",""1"",""9136""
""fullscreenenter"",""1"",""10771""
","""event"",""trial"",""time""
""blur"",""1"",""3379""
","""event"",""trial"",""time""
""focus"",""1"",""9136""
","""event"",""trial"",""time""
""fullscreenenter"",""1"",""10771""
","
","","","7951.10000000149","[""True""]","0","23","16358","6309","","","","","","","","","","","","","","","","","","",""
"pit-instructions","112","1035450","0.0-2.0-24.0-1.0","battery-v0.2","","""event"",""trial"",""time""
""blur"",""1"",""3379""
""focus"",""1"",""9136""
""fullscreenenter"",""1"",""10771""
","""event"",""trial"",""time""
""blur"",""1"",""3379""
","""event"",""trial"",""time""
""focus"",""1"",""9136""
","""event"",""trial"",""time""
""fullscreenenter"",""1"",""10771""
","
","","[{""page_index"":0,""viewing_time"":1643.4000000022352}]","1644.5","","","","","","","","","","","","","","","","","","","","","","","",""
"pit-comprehension","113","1042644","0.0-2.0-25.0-0.0","battery-v0.2","","""event"",""trial"",""time""
""blur"",""1"",""3379""
""focus"",""1"",""9136""
""fullscreenenter"",""1"",""10771""
","""event"",""trial"",""time""
""blur"",""1"",""3379""
","""event"",""trial"",""time""
""focus"",""1"",""9136""
","""event"",""trial"",""time""
""fullscreenenter"",""1"",""10771""
","
","","","7176.099999997765","[""True""]","0","23","16358","6309","","","","","","","","","","","","","","","","","","",""
"pit-instructions","114","1044362","0.0-2.0-25.0-1.0","battery-v0.2","","""event"",""trial"",""time""
""blur"",""1"",""3379""
""focus"",""1"",""9136""
""fullscreenenter"",""1"",""10771""
","""event"",""trial"",""time""
""blur"",""1"",""3379""
","""event"",""trial"",""time""
""focus"",""1"",""9136""
","""event"",""trial"",""time""
""fullscreenenter"",""1"",""10771""
","
","","[{""page_index"":0,""viewing_time"":1614.199999999255}]","1615.7999999970198","","","","","","","","","","","","","","","","","","","","","","","",""
"pit-comprehension","115","1050676","0.0-2.0-26.0-0.0","battery-v0.2","","""event"",""trial"",""time""
""blur"",""1"",""3379""
""focus"",""1"",""9136""
""fullscreenenter"",""1"",""10771""
","""event"",""trial"",""time""
""blur"",""1"",""3379""
","""event"",""trial"",""time""
""focus"",""1"",""9136""
","""event"",""trial"",""time""
""fullscreenenter"",""1"",""10771""
","
","","","6299.39999999851","[""False""]","0","23","16358","6309","","","","","","","","","","","","","","","","","","",""
"pit-instructions","116","1052314","0.0-2.0-26.0-1.0","battery-v0.2","","""event"",""trial"",""time""
""blur"",""1"",""3379""
""focus"",""1"",""9136""
""fullscreenenter"",""1"",""10771""
","""event"",""trial"",""time""
""blur"",""1"",""3379""
","""event"",""trial"",""time""
""focus"",""1"",""9136""
","""event"",""trial"",""time""
""fullscreenenter"",""1"",""10771""
","
","","[{""page_index"":0,""viewing_time"":1510.199999999255}]","1511.5","","","","","","","","","","","","","","","","","","","","","","","",""
"pit-instructions","117","1068927","0.0-3.0","battery-v0.2","","""event"",""trial"",""time""
""blur"",""1"",""3379""
""focus"",""1"",""9136""
""fullscreenenter"",""1"",""10771""
","""event"",""trial"",""time""
""blur"",""1"",""3379""
","""event"",""trial"",""time""
""focus"",""1"",""9136""
","""event"",""trial"",""time""
""fullscreenenter"",""1"",""10771""
","
","","[{""page_index"":0,""viewing_time"":3727},{""page_index"":1,""viewing_time"":5244.20000000298},{""page_index"":2,""viewing_time"":7630.39999999851}]","16604.20000000298","","","","","","","","","","","","","","","","","","","","","","","",""
"pit-trial","118","1072276","0.0-4.0","battery-v0.2","","""event"",""trial"",""time""
""blur"",""1"",""3379""
""focus"",""1"",""9136""
""fullscreenenter"",""1"",""10771""
","""event"",""trial"",""time""
""blur"",""1"",""3379""
","""event"",""trial"",""time""
""focus"",""1"",""9136""
","""event"",""trial"",""time""
""fullscreenenter"",""1"",""10771""
","
","","","468.5","","","23","16358","6309","&#9730;","elianto","#3366ff99"," "," ","1","+10","[1326.5]","1","1","","","16358","1","1","1","win","go","0"
"pit-trial","119","1077137","0.0-5.0","battery-v0.2","","""event"",""trial"",""time""
""blur"",""1"",""3379""
""focus"",""1"",""9136""
""fullscreenenter"",""1"",""10771""
","""event"",""trial"",""time""
""blur"",""1"",""3379""
","""event"",""trial"",""time""
""focus"",""1"",""9136""
","""event"",""trial"",""time""
""fullscreenenter"",""1"",""10771""
","
","","","-1","","","23","16358","6309","&#9728;","elianto","#f73b6a7A","-1","-1","1","-10","[]","0","1","","","16358","2","0","4","lose","no-go","1"
"pit-trial","120","1080439","0.0-6.0","battery-v0.2","","""event"",""trial"",""time""
""blur"",""1"",""3379""
""focus"",""1"",""9136""
""fullscreenenter"",""1"",""10771""
","""event"",""trial"",""time""
""blur"",""1"",""3379""
","""event"",""trial"",""time""
""focus"",""1"",""9136""
","""event"",""trial"",""time""
""fullscreenenter"",""1"",""10771""
","
","","","442.19999999925494","","","23","16358","6309","&#9733;","elianto","#3366ff99","-1"," ","0","0","[1292.199999999255]","1","1","","","16358","3","2","2","win","no-go","0"
"pit-trial","121","1085302","0.0-7.0","battery-v0.2","","""event"",""trial"",""time""
""blur"",""1"",""3379""
""focus"",""1"",""9136""
""fullscreenenter"",""1"",""10771""
","""event"",""trial"",""time""
""blur"",""1"",""3379""
","""event"",""trial"",""time""
""focus"",""1"",""9136""
","""event"",""trial"",""time""
""fullscreenenter"",""1"",""10771""
","
","","","-1","","","23","16358","6309","&#9752;","elianto","#f73b6a7A"," ","-1","0","-10","[]","0","1","","","16358","4","3","3","lose","go","0"
"pit-trial","122","1090165","0.0-8.0","battery-v0.2","","""event"",""trial"",""time""
""blur"",""1"",""3379""
""focus"",""1"",""9136""
""fullscreenenter"",""1"",""10771""
","""event"",""trial"",""time""
""blur"",""1"",""3379""
","""event"",""trial"",""time""
""focus"",""1"",""9136""
","""event"",""trial"",""time""
""fullscreenenter"",""1"",""10771""
","
","","","-1","","","23","16358","6309","&#9752;","elianto","#f73b6a7A"," ","-1","0","-10","[]","0","1","","","16358","5","3","3","lose","go","0"
"pit-trial","123","1095026","0.0-9.0","battery-v0.2","","""event"",""trial"",""time""
""blur"",""1"",""3379""
""focus"",""1"",""9136""
""fullscreenenter"",""1"",""10771""
","""event"",""trial"",""time""
""blur"",""1"",""3379""
","""event"",""trial"",""time""
""focus"",""1"",""9136""
","""event"",""trial"",""time""
""fullscreenenter"",""1"",""10771""
","
","","","-1","","","23","16358","6309","&#9728;","elianto","#f73b6a7A","-1","-1","1","0","[]","0","1","","","16358","6","0","4","lose","no-go","0"
"pit-trial","124","1098480","0.0-10.0","battery-v0.2","","""event"",""trial"",""time""
""blur"",""1"",""3379""
""focus"",""1"",""9136""
""fullscreenenter"",""1"",""10771""
","""event"",""trial"",""time""
""blur"",""1"",""3379""
","""event"",""trial"",""time""
""focus"",""1"",""9136""
","""event"",""trial"",""time""
""fullscreenenter"",""1"",""10771""
","
","","","595.6999999992549","","","23","16358","6309","&#9733;","elianto","#3366ff99","-1"," ","0","0","[1445.800000000745]","1","1","","","16358","7","2","2","win","no-go","0"
"pit-trial","125","1101902","0.0-11.0","battery-v0.2","","""event"",""trial"",""time""
""blur"",""1"",""3379""
""focus"",""1"",""9136""
""fullscreenenter"",""1"",""10771""
","""event"",""trial"",""time""
""blur"",""1"",""3379""
","""event"",""trial"",""time""
""focus"",""1"",""9136""
","""event"",""trial"",""time""
""fullscreenenter"",""1"",""10771""
","
","","","562.0999999977648","","","23","16358","6309","&#9730;","elianto","#3366ff99"," "," ","1","+10","[1412.5999999977648]","1","1","","","16358","8","1","1","win","go","0"
"pit-trial","126","1106769","0.0-12.0","battery-v0.2","","""event"",""trial"",""time""
""blur"",""1"",""3379""
""focus"",""1"",""9136""
""fullscreenenter"",""1"",""10771""
","""event"",""trial"",""time""
""blur"",""1"",""3379""
","""event"",""trial"",""time""
""focus"",""1"",""9136""
","""event"",""trial"",""time""
""fullscreenenter"",""1"",""10771""
","
","","","-1","","","23","16358","6309","&#9728;","elianto","#f73b6a7A","-1","-1","1","0","[]","0","1","","","16358","9","0","4","lose","no-go","0"
"pit-trial","127","1110259","0.0-13.0","battery-v0.2","","""event"",""trial"",""time""
""blur"",""1"",""3379""
""focus"",""1"",""9136""
""fullscreenenter"",""1"",""10771""
","""event"",""trial"",""time""
""blur"",""1"",""3379""
","""event"",""trial"",""time""
""focus"",""1"",""9136""
","""event"",""trial"",""time""
""fullscreenenter"",""1"",""10771""
","
","","","627.5","","","23","16358","6309","&#9733;","elianto","#3366ff99","-1"," ","0","+10","[1477.7999999970198]","1","1","","","16358","10","2","2","win","no-go","1"
"pit-trial","128","1113687","0.0-14.0","battery-v0.2","","""event"",""trial"",""time""
""blur"",""1"",""3379""
""focus"",""1"",""9136""
""fullscreenenter"",""1"",""10771""
","""event"",""trial"",""time""
""blur"",""1"",""3379""
","""event"",""trial"",""time""
""focus"",""1"",""9136""
","""event"",""trial"",""time""
""fullscreenenter"",""1"",""10771""
","
","","","557.3000000007451","","","23","16358","6309","&#9730;","elianto","#3366ff99"," "," ","1","+10","[1413.1000000014901]","1","1","","","16358","11","1","1","win","go","0"
"pit-trial","129","1118550","0.0-15.0","battery-v0.2","","""event"",""trial"",""time""
""blur"",""1"",""3379""
""focus"",""1"",""9136""
""fullscreenenter"",""1"",""10771""
","""event"",""trial"",""time""
""blur"",""1"",""3379""
","""event"",""trial"",""time""
""focus"",""1"",""9136""
","""event"",""trial"",""time""
""fullscreenenter"",""1"",""10771""
","
","","","-1","","","23","16358","6309","&#9752;","elianto","#f73b6a7A"," ","-1","0","-10","[]","0","1","","","16358","12","3","3","lose","go","0"
"pit-trial","130","1121936","0.0-16.0","battery-v0.2","","""event"",""trial"",""time""
""blur"",""1"",""3379""
""focus"",""1"",""9136""
""fullscreenenter"",""1"",""10771""
","""event"",""trial"",""time""
""blur"",""1"",""3379""
","""event"",""trial"",""time""
""focus"",""1"",""9136""
","""event"",""trial"",""time""
""fullscreenenter"",""1"",""10771""
","
","","","520.1999999992549","","","23","16358","6309","&#9730;","elianto","#3366ff99"," "," ","1","+10","[1370.4000000022352]","1","1","","","16358","13","1","1","win","go","0"
"pit-trial","131","1126128","0.0-17.0","battery-v0.2","","""event"",""trial"",""time""
""blur"",""1"",""3379""
""focus"",""1"",""9136""
""fullscreenenter"",""1"",""10771""
","""event"",""trial"",""time""
""blur"",""1"",""3379""
","""event"",""trial"",""time""
""focus"",""1"",""9136""
","""event"",""trial"",""time""
""fullscreenenter"",""1"",""10771""
","
","","","1329","","","23","16358","6309","&#9728;","elianto","#f73b6a7A","-1"," ","0","-10","[2179.7999999970198]","1","1","","","16358","14","0","4","lose","no-go","0"
"pit-trial","132","1130987","0.0-18.0","battery-v0.2","","""event"",""trial"",""time""
""blur"",""1"",""3379""
""focus"",""1"",""9136""
""fullscreenenter"",""1"",""10771""
","""event"",""trial"",""time""
""blur"",""1"",""3379""
","""event"",""trial"",""time""
""focus"",""1"",""9136""
","""event"",""trial"",""time""
""fullscreenenter"",""1"",""10771""
","
","","","-1","","","23","16358","6309","&#9752;","elianto","#f73b6a7A"," ","-1","0","-10","[]","0","1","","","16358","15","3","3","lose","go","0"
"pit-trial","133","1134408","0.0-19.0","battery-v0.2","","""event"",""trial"",""time""
""blur"",""1"",""3379""
""focus"",""1"",""9136""
""fullscreenenter"",""1"",""10771""
","""event"",""trial"",""time""
""blur"",""1"",""3379""
","""event"",""trial"",""time""
""focus"",""1"",""9136""
","""event"",""trial"",""time""
""fullscreenenter"",""1"",""10771""
","
","","","560.9000000022352","","","23","16358","6309","&#9733;","elianto","#3366ff99","-1"," ","0","0","[1411]","1","1","","","16358","16","2","2","win","no-go","0"
"pit-trial","134","1137889","0.0-20.0","battery-v0.2","","""event"",""trial"",""time""
""blur"",""1"",""3379""
""focus"",""1"",""9136""
""fullscreenenter"",""1"",""10771""
","""event"",""trial"",""time""
""blur"",""1"",""3379""
","""event"",""trial"",""time""
""focus"",""1"",""9136""
","""event"",""trial"",""time""
""fullscreenenter"",""1"",""10771""
","
","","","614.6999999992549","","","23","16358","6309","&#9730;","elianto","#3366ff99"," "," ","1","+10","[1467.699999999255]","1","1","","","16358","17","1","1","win","go","0"
"pit-trial","135","1141324","0.0-21.0","battery-v0.2","","""event"",""trial"",""time""
""blur"",""1"",""3379""
""focus"",""1"",""9136""
""fullscreenenter"",""1"",""10771""
","""event"",""trial"",""time""
""blur"",""1"",""3379""
","""event"",""trial"",""time""
""focus"",""1"",""9136""
","""event"",""trial"",""time""
""fullscreenenter"",""1"",""10771""
","
","","","573","","","23","16358","6309","&#9733;","elianto","#3366ff99","-1"," ","0","0","[1426.1000000014901]","1","1","","","16358","18","2","2","win","no-go","0"
"pit-trial","136","1146187","0.0-22.0","battery-v0.2","","""event"",""trial"",""time""
""blur"",""1"",""3379""
""focus"",""1"",""9136""
""fullscreenenter"",""1"",""10771""
","""event"",""trial"",""time""
""blur"",""1"",""3379""
","""event"",""trial"",""time""
""focus"",""1"",""9136""
","""event"",""trial"",""time""
""fullscreenenter"",""1"",""10771""
","
","","","-1","","","23","16358","6309","&#9728;","elianto","#f73b6a7A","-1","-1","1","0","[]","0","1","","","16358","19","0","4","lose","no-go","0"
"pit-trial","137","1151053","0.0-23.0","battery-v0.2","","""event"",""trial"",""time""
""blur"",""1"",""3379""
""focus"",""1"",""9136""
""fullscreenenter"",""1"",""10771""
","""event"",""trial"",""time""
""blur"",""1"",""3379""
","""event"",""trial"",""time""
""focus"",""1"",""9136""
","""event"",""trial"",""time""
""fullscreenenter"",""1"",""10771""
","
","","","-1","","","23","16358","6309","&#9752;","elianto","#f73b6a7A"," ","-1","0","-10","[]","0","1","","","16358","20","3","3","lose","go","0"
"pit-instructions","138","1164494","0.0-24.0","battery-v0.2","","""event"",""trial"",""time""
""blur"",""1"",""3379""
""focus"",""1"",""9136""
""fullscreenenter"",""1"",""10771""
","""event"",""trial"",""time""
""blur"",""1"",""3379""
","""event"",""trial"",""time""
""focus"",""1"",""9136""
","""event"",""trial"",""time""
""fullscreenenter"",""1"",""10771""
","
","","[{""page_index"":0,""viewing_time"":6261.5},{""page_index"":1,""viewing_time"":7170.10000000149}]","13433.199999999255","","","","","","","","","","","","","","","","","","","","","","","",""
"pit-trial","139","1168067","0.0-25.0","battery-v0.2","","""event"",""trial"",""time""
""blur"",""1"",""3379""
""focus"",""1"",""9136""
""fullscreenenter"",""1"",""10771""
","""event"",""trial"",""time""
""blur"",""1"",""3379""
","""event"",""trial"",""time""
""focus"",""1"",""9136""
","""event"",""trial"",""time""
""fullscreenenter"",""1"",""10771""
","
","","","691","","","23","16358","6309","r","elianto","#3366ff99"," "," ","1","+10","[1542.699999999255]","1","2","","","16358","21","1","1","win","go","0"
"pit-trial","140","1171506","0.0-26.0","battery-v0.2","","""event"",""trial"",""time""
""blur"",""1"",""3379""
""focus"",""1"",""9136""
""fullscreenenter"",""1"",""10771""
","""event"",""trial"",""time""
""blur"",""1"",""3379""
","""event"",""trial"",""time""
""focus"",""1"",""9136""
","""event"",""trial"",""time""
""fullscreenenter"",""1"",""10771""
","
","","","575.2000000029802","","","23","16358","6309","h","elianto","#f73b6a7A"," "," ","1","-10","[1425.0999999977648]","1","2","","","16358","22","3","3","lose","go","1"
"pit-trial","141","1176370","0.0-27.0","battery-v0.2","","""event"",""trial"",""time""
""blur"",""1"",""3379""
""focus"",""1"",""9136""
""fullscreenenter"",""1"",""10771""
","""event"",""trial"",""time""
""blur"",""1"",""3379""
","""event"",""trial"",""time""
""focus"",""1"",""9136""
","""event"",""trial"",""time""
""fullscreenenter"",""1"",""10771""
","
","","","-1","","","23","16358","6309","m","elianto","#f73b6a7A","-1","-1","1","0","[]","0","2","","","16358","23","0","4","lose","no-go","0"
"pit-trial","142","1181232","0.0-28.0","battery-v0.2","","""event"",""trial"",""time""
""blur"",""1"",""3379""
""focus"",""1"",""9136""
""fullscreenenter"",""1"",""10771""
","""event"",""trial"",""time""
""blur"",""1"",""3379""
","""event"",""trial"",""time""
""focus"",""1"",""9136""
","""event"",""trial"",""time""
""fullscreenenter"",""1"",""10771""
","
","","","-1","","","23","16358","6309","y","elianto","#f73b6a7A","-1","-1","1","0","[]","0","2","","","16358","24","2","4","lose","no-go","0"
"pit-trial","143","1185420","0.0-29.0","battery-v0.2","","""event"",""trial"",""time""
""blur"",""1"",""3379""
""focus"",""1"",""9136""
""fullscreenenter"",""1"",""10771""
","""event"",""trial"",""time""
""blur"",""1"",""3379""
","""event"",""trial"",""time""
""focus"",""1"",""9136""
","""event"",""trial"",""time""
""fullscreenenter"",""1"",""10771""
","
","","","1321.5","","","23","16358","6309","y","elianto","#f73b6a7A","-1"," ","0","-10","[2174.699999999255]","1","2","","","16358","25","2","4","lose","no-go","0"
"pit-trial","144","1190284","0.0-30.0","battery-v0.2","","""event"",""trial"",""time""
""blur"",""1"",""3379""
""focus"",""1"",""9136""
""fullscreenenter"",""1"",""10771""
","""event"",""trial"",""time""
""blur"",""1"",""3379""
","""event"",""trial"",""time""
""focus"",""1"",""9136""
","""event"",""trial"",""time""
""fullscreenenter"",""1"",""10771""
","
","","","-1","","","23","16358","6309","h","elianto","#f73b6a7A"," ","-1","0","-10","[]","0","2","","","16358","26","3","3","lose","go","0"
"pit-trial","145","1194403","0.0-31.0","battery-v0.2","","""event"",""trial"",""time""
""blur"",""1"",""3379""
""focus"",""1"",""9136""
""fullscreenenter"",""1"",""10771""
","""event"",""trial"",""time""
""blur"",""1"",""3379""
","""event"",""trial"",""time""
""focus"",""1"",""9136""
","""event"",""trial"",""time""
""fullscreenenter"",""1"",""10771""
","
","","","1250","","","23","16358","6309","m","elianto","#f73b6a7A","-1"," ","0","-10","[2103.199999999255]","1","2","","","16358","27","0","4","lose","no-go","0"
"pit-trial","146","1197821","0.0-32.0","battery-v0.2","","""event"",""trial"",""time""
""blur"",""1"",""3379""
""focus"",""1"",""9136""
""fullscreenenter"",""1"",""10771""
","""event"",""trial"",""time""
""blur"",""1"",""3379""
","""event"",""trial"",""time""
""focus"",""1"",""9136""
","""event"",""trial"",""time""
""fullscreenenter"",""1"",""10771""
","
","","","553.8999999985099","","","23","16358","6309","r","elianto","#3366ff99"," "," ","1","+10","[1403.9000000022352]","1","2","","","16358","28","1","1","win","go","0"
"pit-trial","147","1201317","0.0-33.0","battery-v0.2","","""event"",""trial"",""time""
""blur"",""1"",""3379""
""focus"",""1"",""9136""
""fullscreenenter"",""1"",""10771""
","""event"",""trial"",""time""
""blur"",""1"",""3379""
","""event"",""trial"",""time""
""focus"",""1"",""9136""
","""event"",""trial"",""time""
""fullscreenenter"",""1"",""10771""
","
","","","636.8000000007451","","","23","16358","6309","r","elianto","#3366ff99"," "," ","1","+10","[1486.800000000745]","1","2","","","16358","29","1","1","win","go","0"
"pit-trial","148","1206177","0.0-34.0","battery-v0.2","","""event"",""trial"",""time""
""blur"",""1"",""3379""
""focus"",""1"",""9136""
""fullscreenenter"",""1"",""10771""
","""event"",""trial"",""time""
""blur"",""1"",""3379""
","""event"",""trial"",""time""
""focus"",""1"",""9136""
","""event"",""trial"",""time""
""fullscreenenter"",""1"",""10771""
","
","","","-1","","","23","16358","6309","y","elianto","#f73b6a7A","-1","-1","1","0","[]","0","2","","","16358","30","2","4","lose","no-go","0"
"pit-trial","149","1211039","0.0-35.0","battery-v0.2","","""event"",""trial"",""time""
""blur"",""1"",""3379""
""focus"",""1"",""9136""
""fullscreenenter"",""1"",""10771""
","""event"",""trial"",""time""
""blur"",""1"",""3379""
","""event"",""trial"",""time""
""focus"",""1"",""9136""
","""event"",""trial"",""time""
""fullscreenenter"",""1"",""10771""
","
","","","-1","","","23","16358","6309","h","elianto","#f73b6a7A"," ","-1","0","0","[]","0","2","","","16358","31","3","3","lose","go","1"
"pit-trial","150","1215905","0.0-36.0","battery-v0.2","","""event"",""trial"",""time""
""blur"",""1"",""3379""
""focus"",""1"",""9136""
""fullscreenenter"",""1"",""10771""
","""event"",""trial"",""time""
""blur"",""1"",""3379""
","""event"",""trial"",""time""
""focus"",""1"",""9136""
","""event"",""trial"",""time""
""fullscreenenter"",""1"",""10771""
","
","","","-1","","","23","16358","6309","m","elianto","#f73b6a7A","-1","-1","1","0","[]","0","2","","","16358","32","0","4","lose","no-go","0"
"pit-trial","151","1220766","0.0-37.0","battery-v0.2","","""event"",""trial"",""time""
""blur"",""1"",""3379""
""focus"",""1"",""9136""
""fullscreenenter"",""1"",""10771""
","""event"",""trial"",""time""
""blur"",""1"",""3379""
","""event"",""trial"",""time""
""focus"",""1"",""9136""
","""event"",""trial"",""time""
""fullscreenenter"",""1"",""10771""
","
","","","-1","","","23","16358","6309","y","elianto","#f73b6a7A","-1","-1","1","-10","[]","0","2","","","16358","33","2","4","lose","no-go","1"
"pit-trial","152","1224178","0.0-38.0","battery-v0.2","","""event"",""trial"",""time""
""blur"",""1"",""3379""
""focus"",""1"",""9136""
""fullscreenenter"",""1"",""10771""
","""event"",""trial"",""time""
""blur"",""1"",""3379""
","""event"",""trial"",""time""
""focus"",""1"",""9136""
","""event"",""trial"",""time""
""fullscreenenter"",""1"",""10771""
","
","","","554.1000000014901","","","23","16358","6309","r","elianto","#3366ff99"," "," ","1","+10","[1404.300000000745]","1","2","","","16358","34","1","1","win","go","0"
"pit-trial","153","1229042","0.0-39.0","battery-v0.2","","""event"",""trial"",""time""
""blur"",""1"",""3379""
""focus"",""1"",""9136""
""fullscreenenter"",""1"",""10771""
","""event"",""trial"",""time""
""blur"",""1"",""3379""
","""event"",""trial"",""time""
""focus"",""1"",""9136""
","""event"",""trial"",""time""
""fullscreenenter"",""1"",""10771""
","
","","","-1","","","23","16358","6309","h","elianto","#f73b6a7A"," ","-1","0","-10","[]","0","2","","","16358","35","3","3","lose","go","0"
"pit-trial","154","1233908","0.0-40.0","battery-v0.2","","""event"",""trial"",""time""
""blur"",""1"",""3379""
""focus"",""1"",""9136""
""fullscreenenter"",""1"",""10771""
","""event"",""trial"",""time""
""blur"",""1"",""3379""
","""event"",""trial"",""time""
""focus"",""1"",""9136""
","""event"",""trial"",""time""
""fullscreenenter"",""1"",""10771""
","
","","","-1","","","23","16358","6309","m","elianto","#f73b6a7A","-1","-1","1","0","[]","0","2","","","16358","36","0","4","lose","no-go","0"
"pit-trial","155","1238772","0.0-41.0","battery-v0.2","","""event"",""trial"",""time""
""blur"",""1"",""3379""
""focus"",""1"",""9136""
""fullscreenenter"",""1"",""10771""
","""event"",""trial"",""time""
""blur"",""1"",""3379""
","""event"",""trial"",""time""
""focus"",""1"",""9136""
","""event"",""trial"",""time""
""fullscreenenter"",""1"",""10771""
","
","","","-1","","","23","16358","6309","m","elianto","#f73b6a7A","-1","-1","1","0","[]","0","2","","","16358","37","0","4","lose","no-go","0"
"pit-trial","156","1243635","0.0-42.0","battery-v0.2","","""event"",""trial"",""time""
""blur"",""1"",""3379""
""focus"",""1"",""9136""
""fullscreenenter"",""1"",""10771""
","""event"",""trial"",""time""
""blur"",""1"",""3379""
","""event"",""trial"",""time""
""focus"",""1"",""9136""
","""event"",""trial"",""time""
""fullscreenenter"",""1"",""10771""
","
","","","-1","","","23","16358","6309","h","elianto","#f73b6a7A"," ","-1","0","-10","[]","0","2","","","16358","38","3","3","lose","go","0"
"pit-trial","157","1247130","0.0-43.0","battery-v0.2","","""event"",""trial"",""time""
""blur"",""1"",""3379""
""focus"",""1"",""9136""
""fullscreenenter"",""1"",""10771""
","""event"",""trial"",""time""
""blur"",""1"",""3379""
","""event"",""trial"",""time""
""focus"",""1"",""9136""
","""event"",""trial"",""time""
""fullscreenenter"",""1"",""10771""
","
","","","632.6000000014901","","","23","16358","6309","r","elianto","#3366ff99"," "," ","1","0","[1482.800000000745]","1","2","","","16358","39","1","1","win","go","1"
"pit-trial","158","1251996","0.0-44.0","battery-v0.2","","""event"",""trial"",""time""
""blur"",""1"",""3379""
""focus"",""1"",""9136""
""fullscreenenter"",""1"",""10771""
","""event"",""trial"",""time""
""blur"",""1"",""3379""
","""event"",""trial"",""time""
""focus"",""1"",""9136""
","""event"",""trial"",""time""
""fullscreenenter"",""1"",""10771""
","
","","","-1","","","23","16358","6309","y","elianto","#f73b6a7A","-1","-1","1","0","[]","0","2","","","16358","40","2","4","lose","no-go","0"
"pit-trial","159","1256861","0.0-45.0","battery-v0.2","","""event"",""trial"",""time""
""blur"",""1"",""3379""
""focus"",""1"",""9136""
""fullscreenenter"",""1"",""10771""
","""event"",""trial"",""time""
""blur"",""1"",""3379""
","""event"",""trial"",""time""
""focus"",""1"",""9136""
","""event"",""trial"",""time""
""fullscreenenter"",""1"",""10771""
","
","","","-1","","","23","16358","6309","y","elianto","#f73b6a7A","-1","-1","1","0","[]","0","2","","","16358","41","2","4","lose","no-go","0"
"pit-trial","160","1260252","0.0-46.0","battery-v0.2","","""event"",""trial"",""time""
""blur"",""1"",""3379""
""focus"",""1"",""9136""
""fullscreenenter"",""1"",""10771""
","""event"",""trial"",""time""
""blur"",""1"",""3379""
","""event"",""trial"",""time""
""focus"",""1"",""9136""
","""event"",""trial"",""time""
""fullscreenenter"",""1"",""10771""
","
","","","523.8000000007451","","","23","16358","6309","r","elianto","#3366ff99"," "," ","1","+10","[1378]","1","2","","","16358","42","1","1","win","go","0"
"pit-trial","161","1265113","0.0-47.0","battery-v0.2","","""event"",""trial"",""time""
""blur"",""1"",""3379""
""focus"",""1"",""9136""
""fullscreenenter"",""1"",""10771""
","""event"",""trial"",""time""
""blur"",""1"",""3379""
","""event"",""trial"",""time""
""focus"",""1"",""9136""
","""event"",""trial"",""time""
""fullscreenenter"",""1"",""10771""
","
","","","-1","","","23","16358","6309","m","elianto","#f73b6a7A","-1","-1","1","0","[]","0","2","","","16358","43","0","4","lose","no-go","0"
"pit-trial","162","1268906","0.0-48.0","battery-v0.2","","""event"",""trial"",""time""
""blur"",""1"",""3379""
""focus"",""1"",""9136""
""fullscreenenter"",""1"",""10771""
","""event"",""trial"",""time""
""blur"",""1"",""3379""
","""event"",""trial"",""time""
""focus"",""1"",""9136""
","""event"",""trial"",""time""
""fullscreenenter"",""1"",""10771""
","
","","","924.2000000029802","","","23","16358","6309","h","elianto","#f73b6a7A"," "," ","1","0","[1774.300000000745]","1","2","","","16358","44","3","3","lose","go","0"
"pit-trial","163","1272689","0.0-49.0","battery-v0.2","","""event"",""trial"",""time""
""blur"",""1"",""3379""
""focus"",""1"",""9136""
""fullscreenenter"",""1"",""10771""
","""event"",""trial"",""time""
""blur"",""1"",""3379""
","""event"",""trial"",""time""
""focus"",""1"",""9136""
","""event"",""trial"",""time""
""fullscreenenter"",""1"",""10771""
","
","","","914.7000000029802","","","23","16358","6309","y","elianto","#f73b6a7A","-1"," ","0","-10","[1769.5]","1","2","","","16358","45","2","4","lose","no-go","0"
"pit-trial","164","1276354","0.0-50.0","battery-v0.2","","""event"",""trial"",""time""
""blur"",""1"",""3379""
""focus"",""1"",""9136""
""fullscreenenter"",""1"",""10771""
","""event"",""trial"",""time""
""blur"",""1"",""3379""
","""event"",""trial"",""time""
""focus"",""1"",""9136""
","""event"",""trial"",""time""
""fullscreenenter"",""1"",""10771""
","
","","","795.5","","","23","16358","6309","h","elianto","#f73b6a7A"," "," ","1","0","[1649]","1","2","","","16358","46","3","3","lose","go","0"
"pit-trial","165","1279745","0.0-51.0","battery-v0.2","","""event"",""trial"",""time""
""blur"",""1"",""3379""
""focus"",""1"",""9136""
""fullscreenenter"",""1"",""10771""
","""event"",""trial"",""time""
""blur"",""1"",""3379""
","""event"",""trial"",""time""
""focus"",""1"",""9136""
","""event"",""trial"",""time""
""fullscreenenter"",""1"",""10771""
","
","","","527","","","23","16358","6309","z","elianto","#3366ff99","-1"," ","0","0","[1377.8999999985099]","1","2","","","16358","47","4","2","win","no-go","0"
"pit-trial","166","1284608","0.0-52.0","battery-v0.2","","""event"",""trial"",""time""
""blur"",""1"",""3379""
""focus"",""1"",""9136""
""fullscreenenter"",""1"",""10771""
","""event"",""trial"",""time""
""blur"",""1"",""3379""
","""event"",""trial"",""time""
""focus"",""1"",""9136""
","""event"",""trial"",""time""
""fullscreenenter"",""1"",""10771""
","
","","","-1","","","23","16358","6309","m","elianto","#f73b6a7A","-1","-1","1","0","[]","0","2","","","16358","48","0","4","lose","no-go","0"
"pit-trial","167","1289473","0.0-53.0","battery-v0.2","","""event"",""trial"",""time""
""blur"",""1"",""3379""
""focus"",""1"",""9136""
""fullscreenenter"",""1"",""10771""
","""event"",""trial"",""time""
""blur"",""1"",""3379""
","""event"",""trial"",""time""
""focus"",""1"",""9136""
","""event"",""trial"",""time""
""fullscreenenter"",""1"",""10771""
","
","","","-1","","","23","16358","6309","h","elianto","#f73b6a7A"," ","-1","0","-10","[]","0","2","","","16358","49","3","3","lose","go","0"
"pit-trial","168","1294337","0.0-54.0","battery-v0.2","","""event"",""trial"",""time""
""blur"",""1"",""3379""
""focus"",""1"",""9136""
""fullscreenenter"",""1"",""10771""
","""event"",""trial"",""time""
""blur"",""1"",""3379""
","""event"",""trial"",""time""
""focus"",""1"",""9136""
","""event"",""trial"",""time""
""fullscreenenter"",""1"",""10771""
","
","","","-1","","","23","16358","6309","m","elianto","#f73b6a7A","-1","-1","1","0","[]","0","2","","","16358","50","0","4","lose","no-go","0"
"pit-trial","169","1297810","0.0-55.0","battery-v0.2","","""event"",""trial"",""time""
""blur"",""1"",""3379""
""focus"",""1"",""9136""
""fullscreenenter"",""1"",""10771""
","""event"",""trial"",""time""
""blur"",""1"",""3379""
","""event"",""trial"",""time""
""focus"",""1"",""9136""
","""event"",""trial"",""time""
""fullscreenenter"",""1"",""10771""
","
","","","609.6000000014901","","","23","16358","6309","z","elianto","#3366ff99","-1"," ","0","0","[1461.6000000014901]","1","2","","","16358","51","4","2","win","no-go","0"
"pit-trial","170","1301180","0.0-56.0","battery-v0.2","","""event"",""trial"",""time""
""blur"",""1"",""3379""
""focus"",""1"",""9136""
""fullscreenenter"",""1"",""10771""
","""event"",""trial"",""time""
""blur"",""1"",""3379""
","""event"",""trial"",""time""
""focus"",""1"",""9136""
","""event"",""trial"",""time""
""fullscreenenter"",""1"",""10771""
","
","","","497.3999999985099","","","23","16358","6309","r","elianto","#3366ff99"," "," ","1","0","[1354.1000000014901]","1","2","","","16358","52","1","1","win","go","1"
"pit-trial","171","1304535","0.0-57.0","battery-v0.2","","""event"",""trial"",""time""
""blur"",""1"",""3379""
""focus"",""1"",""9136""
""fullscreenenter"",""1"",""10771""
","""event"",""trial"",""time""
""blur"",""1"",""3379""
","""event"",""trial"",""time""
""focus"",""1"",""9136""
","""event"",""trial"",""time""
""fullscreenenter"",""1"",""10771""
","
","","","493.0999999977648","","","23","16358","6309","r","elianto","#3366ff99"," "," ","1","+10","[1344.300000000745]","1","2","","","16358","53","1","1","win","go","0"
"pit-trial","172","1309399","0.0-58.0","battery-v0.2","","""event"",""trial"",""time""
""blur"",""1"",""3379""
""focus"",""1"",""9136""
""fullscreenenter"",""1"",""10771""
","""event"",""trial"",""time""
""blur"",""1"",""3379""
","""event"",""trial"",""time""
""focus"",""1"",""9136""
","""event"",""trial"",""time""
""fullscreenenter"",""1"",""10771""
","
","","","-1","","","23","16358","6309","y","elianto","#f73b6a7A","-1","-1","1","0","[]","0","2","","","16358","54","2","4","lose","no-go","0"
"pit-trial","173","1314259","0.0-59.0","battery-v0.2","","""event"",""trial"",""time""
""blur"",""1"",""3379""
""focus"",""1"",""9136""
""fullscreenenter"",""1"",""10771""
","""event"",""trial"",""time""
""blur"",""1"",""3379""
","""event"",""trial"",""time""
""focus"",""1"",""9136""
","""event"",""trial"",""time""
""fullscreenenter"",""1"",""10771""
","
","","","-1","","","23","16358","6309","m","elianto","#f73b6a7A","-1","-1","1","0","[]","0","2","","","16358","55","0","4","lose","no-go","0"
"pit-trial","174","1317695","0.0-60.0","battery-v0.2","","""event"",""trial"",""time""
""blur"",""1"",""3379""
""focus"",""1"",""9136""
""fullscreenenter"",""1"",""10771""
","""event"",""trial"",""time""
""blur"",""1"",""3379""
","""event"",""trial"",""time""
""focus"",""1"",""9136""
","""event"",""trial"",""time""
""fullscreenenter"",""1"",""10771""
","
","","","573","","","23","16358","6309","z","elianto","#3366ff99","-1"," ","0","+10","[1423]","1","2","","","16358","56","4","2","win","no-go","1"
"pit-trial","175","1322555","0.0-61.0","battery-v0.2","","""event"",""trial"",""time""
""blur"",""1"",""3379""
""focus"",""1"",""9136""
""fullscreenenter"",""1"",""10771""
","""event"",""trial"",""time""
""blur"",""1"",""3379""
","""event"",""trial"",""time""
""focus"",""1"",""9136""
","""event"",""trial"",""time""
""fullscreenenter"",""1"",""10771""
","
","","","-1","","","23","16358","6309","m","elianto","#f73b6a7A","-1","-1","1","0","[]","0","2","","","16358","57","0","4","lose","no-go","0"
"pit-trial","176","1327420","0.0-62.0","battery-v0.2","","""event"",""trial"",""time""
""blur"",""1"",""3379""
""focus"",""1"",""9136""
""fullscreenenter"",""1"",""10771""
","""event"",""trial"",""time""
""blur"",""1"",""3379""
","""event"",""trial"",""time""
""focus"",""1"",""9136""
","""event"",""trial"",""time""
""fullscreenenter"",""1"",""10771""
","
","","","-1","","","23","16358","6309","h","elianto","#f73b6a7A"," ","-1","0","-10","[]","0","2","","","16358","58","3","3","lose","go","0"
"pit-trial","177","1331402","0.0-63.0","battery-v0.2","","""event"",""trial"",""time""
""blur"",""1"",""3379""
""focus"",""1"",""9136""
""fullscreenenter"",""1"",""10771""
","""event"",""trial"",""time""
""blur"",""1"",""3379""
","""event"",""trial"",""time""
""focus"",""1"",""9136""
","""event"",""trial"",""time""
""fullscreenenter"",""1"",""10771""
","
","","","1116.300000000745","","","23","16358","6309","z","elianto","#3366ff99","-1"," ","0","0","[1970.0999999977648]","1","2","","","16358","59","4","2","win","no-go","0"
"pit-trial","178","1334867","0.0-64.0","battery-v0.2","","""event"",""trial"",""time""
""blur"",""1"",""3379""
""focus"",""1"",""9136""
""fullscreenenter"",""1"",""10771""
","""event"",""trial"",""time""
""blur"",""1"",""3379""
","""event"",""trial"",""time""
""focus"",""1"",""9136""
","""event"",""trial"",""time""
""fullscreenenter"",""1"",""10771""
","
","","","601.8000000007451","","","23","16358","6309","r","elianto","#3366ff99"," "," ","1","+10","[1454]","1","2","","","16358","60","1","1","win","go","0"
"pit-trial","179","1339732","0.0-65.0","battery-v0.2","","""event"",""trial"",""time""
""blur"",""1"",""3379""
""focus"",""1"",""9136""
""fullscreenenter"",""1"",""10771""
","""event"",""trial"",""time""
""blur"",""1"",""3379""
","""event"",""trial"",""time""
""focus"",""1"",""9136""
","""event"",""trial"",""time""
""fullscreenenter"",""1"",""10771""
","
","","","-1","","","23","16358","6309","y","elianto","#f73b6a7A","-1","-1","1","0","[]","0","2","","","16358","61","2","4","lose","no-go","0"
"pit-trial","180","1343302","0.0-66.0","battery-v0.2","","""event"",""trial"",""time""
""blur"",""1"",""3379""
""focus"",""1"",""9136""
""fullscreenenter"",""1"",""10771""
","""event"",""trial"",""time""
""blur"",""1"",""3379""
","""event"",""trial"",""time""
""focus"",""1"",""9136""
","""event"",""trial"",""time""
""fullscreenenter"",""1"",""10771""
","
","","","706.4000000022352","","","23","16358","6309","r","elianto","#3366ff99"," "," ","1","+10","[1555.300000000745]","1","2","","","16358","62","1","1","win","go","0"
"pit-trial","181","1348165","0.0-67.0","battery-v0.2","","""event"",""trial"",""time""
""blur"",""1"",""3379""
""focus"",""1"",""9136""
""fullscreenenter"",""1"",""10771""
","""event"",""trial"",""time""
""blur"",""1"",""3379""
","""event"",""trial"",""time""
""focus"",""1"",""9136""
","""event"",""trial"",""time""
""fullscreenenter"",""1"",""10771""
","
","","","-1","","","23","16358","6309","h","elianto","#f73b6a7A"," ","-1","0","-10","[]","0","2","","","16358","63","3","3","lose","go","0"
"pit-trial","182","1351656","0.0-68.0","battery-v0.2","","""event"",""trial"",""time""
""blur"",""1"",""3379""
""focus"",""1"",""9136""
""fullscreenenter"",""1"",""10771""
","""event"",""trial"",""time""
""blur"",""1"",""3379""
","""event"",""trial"",""time""
""focus"",""1"",""9136""
","""event"",""trial"",""time""
""fullscreenenter"",""1"",""10771""
","
","","","617.1000000014901","","","23","16358","6309","z","elianto","#3366ff99","-1"," ","0","0","[1478.800000000745]","1","2","","","16358","64","4","2","win","no-go","0"
"pit-trial","183","1356523","0.0-69.0","battery-v0.2","","""event"",""trial"",""time""
""blur"",""1"",""3379""
""focus"",""1"",""9136""
""fullscreenenter"",""1"",""10771""
","""event"",""trial"",""time""
""blur"",""1"",""3379""
","""event"",""trial"",""time""
""focus"",""1"",""9136""
","""event"",""trial"",""time""
""fullscreenenter"",""1"",""10771""
","
","","","-1","","","23","16358","6309","h","elianto","#f73b6a7A"," ","-1","0","-10","[]","0","2","","","16358","65","3","3","lose","go","0"
"pit-trial","184","1361385","0.0-70.0","battery-v0.2","","""event"",""trial"",""time""
""blur"",""1"",""3379""
""focus"",""1"",""9136""
""fullscreenenter"",""1"",""10771""
","""event"",""trial"",""time""
""blur"",""1"",""3379""
","""event"",""trial"",""time""
""focus"",""1"",""9136""
","""event"",""trial"",""time""
""fullscreenenter"",""1"",""10771""
","
","","","-1","","","23","16358","6309","y","elianto","#f73b6a7A","-1","-1","1","0","[]","0","2","","","16358","66","2","4","lose","no-go","0"
"pit-trial","185","1364914","0.0-71.0","battery-v0.2","","""event"",""trial"",""time""
""blur"",""1"",""3379""
""focus"",""1"",""9136""
""fullscreenenter"",""1"",""10771""
","""event"",""trial"",""time""
""blur"",""1"",""3379""
