"trial_type","trial_index","time_elapsed","internal_node_id","task_version","subject_id","interactions","blur_events","focus_events","fullscreenenter_events","fullscreenexit_events","success","view_history","rt","responses","num_errors","age","subject","participantId","rune","rune_set","hex","correct","choice","accuracy","outcome","keys","total_keys","block","practice","value","sub","trial","stimulus","robot","valence","action","sham"
"pavlovia","0","14","0.0-0.0","battery-v0.2","","""event"",""trial"",""time""
""fullscreenenter"",""1"",""1317""
","
","
","""event"",""trial"",""time""
""fullscreenenter"",""1"",""1317""
","
","","","","","","","","","","","","","","","","","","","","","","","","","","",""
"fullscreen","1","2313","0.0-1.0","battery-v0.2","","""event"",""trial"",""time""
""fullscreenenter"",""1"",""1317""
","
","
","""event"",""trial"",""time""
""fullscreenenter"",""1"",""1317""
","
","true","","","","","","","","","","","","","","","","","","","","","","","","","",""
"pit-instructions","2","13443","0.0-2.0-0.0","battery-v0.2","","""event"",""trial"",""time""
""fullscreenenter"",""1"",""1317""
","
","
","""event"",""trial"",""time""
""fullscreenenter"",""1"",""1317""
","
","","[{""page_index"":0,""viewing_time"":11127.299999952316}]","11127.799999952316","","","","","","","","","","","","","","","","","","","","","","","",""
"pit-comprehension","3","16227","0.0-2.0-1.0-0.0","battery-v0.2","","""event"",""trial"",""time""
""fullscreenenter"",""1"",""1317""
","
","
","""event"",""trial"",""time""
""fullscreenenter"",""1"",""1317""
","
","","","2781.9000000953674","[""shark""]","0","15","3542","390","","","","","","","","","","","","","","","","","","",""
"pit-instructions","4","22309","0.0-2.0-1.0-1.0","battery-v0.2","","""event"",""trial"",""time""
""fullscreenenter"",""1"",""1317""
","
","
","""event"",""trial"",""time""
""fullscreenenter"",""1"",""1317""
","
","","[{""page_index"":0,""viewing_time"":6071.599999904633}]","6071.700000047684","","","","","","","","","","","","","","","","","","","","","","","",""
"pit-comprehension","5","25709","0.0-2.0-2.0-0.0","battery-v0.2","","""event"",""trial"",""time""
""fullscreenenter"",""1"",""1317""
","
","
","""event"",""trial"",""time""
""fullscreenenter"",""1"",""1317""
","
","","","3397.4000000953674","[""tiger""]","0","15","3542","390","","","","","","","","","","","","","","","","","","",""
"pit-instructions","6","27575","0.0-2.0-2.0-1.0","battery-v0.2","","""event"",""trial"",""time""
""fullscreenenter"",""1"",""1317""
","
","
","""event"",""trial"",""time""
""fullscreenenter"",""1"",""1317""
","
","","[{""page_index"":0,""viewing_time"":1864.1999998092651}]","1864.2999999523163","","","","","","","","","","","","","","","","","","","","","","","",""
"pit-instructions","7","118472","0.0-2.0-3.0","battery-v0.2","","""event"",""trial"",""time""
""fullscreenenter"",""1"",""1317""
","
","
","""event"",""trial"",""time""
""fullscreenenter"",""1"",""1317""
","
","","[{""page_index"":0,""viewing_time"":7581.200000047684},{""page_index"":1,""viewing_time"":5533.099999904633},{""page_index"":2,""viewing_time"":6150.5},{""page_index"":3,""viewing_time"":5599.200000047684},{""page_index"":4,""viewing_time"":6666.700000047684},{""page_index"":5,""viewing_time"":6183},{""page_index"":6,""viewing_time"":6933.199999809265},{""page_index"":7,""viewing_time"":6434.600000143051},{""page_index"":8,""viewing_time"":6115.899999856949},{""page_index"":9,""viewing_time"":7382.600000143051},{""page_index"":10,""viewing_time"":7850.099999904633},{""page_index"":11,""viewing_time"":6744.799999952316},{""page_index"":12,""viewing_time"":6604.600000143051},{""page_index"":13,""viewing_time"":5116}]","90895.70000004768","","","","","","","","","","","","","","","","","","","","","","","",""
"pit-trial","8","122026","0.0-2.0-4.0-0.0","battery-v0.2","","""event"",""trial"",""time""
""fullscreenenter"",""1"",""1317""
","
","
","""event"",""trial"",""time""
""fullscreenenter"",""1"",""1317""
","
","","","693.7999999523163","","","15","3542","390","&#9784;","elianto","#FFFFF080"," "," ","1","&#10004","[1546.0999999046326]","1","0","0","","","","","","","",""
"pit-trial","9","125644","0.0-2.0-4.1-0.1","battery-v0.2","","""event"",""trial"",""time""
""fullscreenenter"",""1"",""1317""
","
","
","""event"",""trial"",""time""
""fullscreenenter"",""1"",""1317""
","
","","","762.4000000953674","","","15","3542","390","&#9784;","elianto","#FFFFF080"," "," ","1","&#10004","[1613.2000000476837]","1","0","0","","","","","","","",""
"pit-trial","10","129186","0.0-2.0-4.2-0.2","battery-v0.2","","""event"",""trial"",""time""
""fullscreenenter"",""1"",""1317""
","
","
","""event"",""trial"",""time""
""fullscreenenter"",""1"",""1317""
","
","","","687.5","","","15","3542","390","&#9784;","elianto","#FFFFF080"," "," ","1","&#10004","[1537.5]","1","0","0","","","","","","","",""
"pit-trial","11","132594","0.0-2.0-4.3-0.3","battery-v0.2","","""event"",""trial"",""time""
""fullscreenenter"",""1"",""1317""
","
","
","""event"",""trial"",""time""
""fullscreenenter"",""1"",""1317""
","
","","","552.2999999523163","","","15","3542","390","&#9784;","elianto","#FFFFF080"," "," ","1","&#10004","[1402.2999999523163]","1","0","0","","","","","","","",""
"pit-trial","12","136394","0.0-2.0-4.4-0.4","battery-v0.2","","""event"",""trial"",""time""
""fullscreenenter"",""1"",""1317""
","
","
","""event"",""trial"",""time""
""fullscreenenter"",""1"",""1317""
","
","","","946.8000001907349","","","15","3542","390","&#9784;","elianto","#FFFFF080"," "," ","1","&#10004","[1796.8000001907349]","1","0","0","","","","","","","",""
"pit-instructions","13","155505","0.0-2.0-5.0","battery-v0.2","","""event"",""trial"",""time""
""fullscreenenter"",""1"",""1317""
","
","
","""event"",""trial"",""time""
""fullscreenenter"",""1"",""1317""
","
","","[{""page_index"":0,""viewing_time"":4626.5},{""page_index"":1,""viewing_time"":5249.399999856949},{""page_index"":2,""viewing_time"":4016.7999999523163},{""page_index"":3,""viewing_time"":5216.800000190735}]","19109.799999952316","","","","","","","","","","","","","","","","","","","","","","","",""
"pit-trial","14","160362","0.0-2.0-6.0-0.0","battery-v0.2","","""event"",""trial"",""time""
""fullscreenenter"",""1"",""1317""
","
","
","""event"",""trial"",""time""
""fullscreenenter"",""1"",""1317""
","
","","","-1","","","15","3542","390","&#9854;","elianto","#FFFFF080","-1","-1","1","&#10004","[]","0","0","1","","","","","","","",""
"pit-trial","15","165218","0.0-2.0-6.1-0.1","battery-v0.2","","""event"",""trial"",""time""
""fullscreenenter"",""1"",""1317""
","
","
","""event"",""trial"",""time""
""fullscreenenter"",""1"",""1317""
","
","","","-1","","","15","3542","390","&#9854;","elianto","#FFFFF080","-1","-1","1","&#10004","[]","0","0","1","","","","","","","",""
"pit-trial","16","170077","0.0-2.0-6.2-0.2","battery-v0.2","","""event"",""trial"",""time""
""fullscreenenter"",""1"",""1317""
","
","
","""event"",""trial"",""time""
""fullscreenenter"",""1"",""1317""
","
","","","-1","","","15","3542","390","&#9854;","elianto","#FFFFF080","-1","-1","1","&#10004","[]","0","0","1","","","","","","","",""
"pit-trial","17","174937","0.0-2.0-6.3-0.3","battery-v0.2","","""event"",""trial"",""time""
""fullscreenenter"",""1"",""1317""
","
","
","""event"",""trial"",""time""
""fullscreenenter"",""1"",""1317""
","
","","","-1","","","15","3542","390","&#9854;","elianto","#FFFFF080","-1","-1","1","&#10004","[]","0","0","1","","","","","","","",""
"pit-trial","18","179793","0.0-2.0-6.4-0.4","battery-v0.2","","""event"",""trial"",""time""
""fullscreenenter"",""1"",""1317""
","
","
","""event"",""trial"",""time""
""fullscreenenter"",""1"",""1317""
","
","","","-1","","","15","3542","390","&#9854;","elianto","#FFFFF080","-1","-1","1","&#10004","[]","0","0","1","","","","","","","",""
"pit-instructions","19","314017","0.0-2.0-7.0","battery-v0.2","","""event"",""trial"",""time""
""fullscreenenter"",""1"",""1317""
","
","
","""event"",""trial"",""time""
""fullscreenenter"",""1"",""1317""
","
","","[{""page_index"":0,""viewing_time"":5608.799999952316},{""page_index"":1,""viewing_time"":6083},{""page_index"":2,""viewing_time"":5767.100000143051},{""page_index"":3,""viewing_time"":5432.5},{""page_index"":4,""viewing_time"":6133.899999856949},{""page_index"":5,""viewing_time"":7000.400000095367},{""page_index"":6,""viewing_time"":8348.299999952316},{""page_index"":7,""viewing_time"":7616.600000143051},{""page_index"":8,""viewing_time"":6533.199999809265},{""page_index"":9,""viewing_time"":23232.900000095367},{""page_index"":10,""viewing_time"":7633.900000095367},{""page_index"":11,""viewing_time"":4949.699999809265},{""page_index"":12,""viewing_time"":6432.400000095367},{""page_index"":13,""viewing_time"":6917.400000095367},{""page_index"":14,""viewing_time"":6749.199999809265},{""page_index"":15,""viewing_time"":6982.800000190735},{""page_index"":16,""viewing_time"":6050.099999904633},{""page_index"":17,""viewing_time"":6749.900000095367}]","134222.29999995232","","","","","","","","","","","","","","","","","","","","","","","",""
"pit-trial","20","317498","0.0-2.0-8.0-0.0","battery-v0.2","","""event"",""trial"",""time""
""fullscreenenter"",""1"",""1317""
","
","
","""event"",""trial"",""time""
""fullscreenenter"",""1"",""1317""
","
","","","627.5","","","15","3542","390","&#9776;","elianto","#3366ff99"," "," ","1","+10","[1478.7000000476837]","1","0","1","","","","","","","",""
"pit-trial","21","320962","0.0-2.0-8.0-1.0","battery-v0.2","","""event"",""trial"",""time""
""fullscreenenter"",""1"",""1317""
","
","
","""event"",""trial"",""time""
""fullscreenenter"",""1"",""1317""
","
","","","608.2000000476837","","","15","3542","390","&#9776;","elianto","#3366ff99"," "," ","1","+10","[1458.2999999523163]","1","0","1","","","","","","","",""
"pit-trial","22","324291","0.0-2.0-8.0-2.0","battery-v0.2","","""event"",""trial"",""time""
""fullscreenenter"",""1"",""1317""
","
","
","""event"",""trial"",""time""
""fullscreenenter"",""1"",""1317""
","
","","","473.09999990463257","","","15","3542","390","&#9776;","elianto","#3366ff99"," "," ","1","+10","[1323.2999999523163]","1","0","1","","","","","","","",""
"pit-trial","23","327696","0.0-2.0-8.0-3.0","battery-v0.2","","""event"",""trial"",""time""
""fullscreenenter"",""1"",""1317""
","
","
","""event"",""trial"",""time""
""fullscreenenter"",""1"",""1317""
","
","","","551.4000000953674","","","15","3542","390","&#9776;","elianto","#3366ff99"," "," ","1","0","[1401.7000000476837]","1","0","1","","","","","","","",""
"pit-trial","24","331057","0.0-2.0-8.0-4.0","battery-v0.2","","""event"",""trial"",""time""
""fullscreenenter"",""1"",""1317""
","
","
","""event"",""trial"",""time""
""fullscreenenter"",""1"",""1317""
","
","","","508.09999990463257","","","15","3542","390","&#9776;","elianto","#3366ff99"," "," ","1","+10","[1358.7999999523163]","1","0","1","","","","","","","",""
"call-function","25","331059","0.0-2.0-9.0","battery-v0.2","","""event"",""trial"",""time""
""fullscreenenter"",""1"",""1317""
","
","
","""event"",""trial"",""time""
""fullscreenenter"",""1"",""1317""
","
","","","","","","","","","","","","","","","","","","","","","","","","","","",""
"pit-instructions","26","372765","0.0-2.0-10.0","battery-v0.2","","""event"",""trial"",""time""
""fullscreenenter"",""1"",""1317""
","
","
","""event"",""trial"",""time""
""fullscreenenter"",""1"",""1317""
","
","","[{""page_index"":0,""viewing_time"":5723.299999952316},{""page_index"":1,""viewing_time"":8816.5},{""page_index"":2,""viewing_time"":9833.299999952316},{""page_index"":3,""viewing_time"":9849.5},{""page_index"":4,""viewing_time"":7482.599999904633}]","41705.5","","","","","","","","","","","","","","","","","","","","","","","",""
"pit-trial","27","376462","0.0-2.0-11.0-0.0","battery-v0.2","","""event"",""trial"",""time""
""fullscreenenter"",""1"",""1317""
","
","
","""event"",""trial"",""time""
""fullscreenenter"",""1"",""1317""
","
","","","839.8999998569489","","","15","3542","390","&#9761;","elianto","#3366ff99","-1"," ","0","0","[1691.5]","1","0","2","","","","","","","",""
"pit-trial","28","381323","0.0-2.0-11.0-1.0","battery-v0.2","","""event"",""trial"",""time""
""fullscreenenter"",""1"",""1317""
","
","
","""event"",""trial"",""time""
""fullscreenenter"",""1"",""1317""
","
","","","-1","","","15","3542","390","&#9761;","elianto","#3366ff99","-1","-1","1","+10","[]","0","0","2","","","","","","","",""
"pit-trial","29","386178","0.0-2.0-11.0-2.0","battery-v0.2","","""event"",""trial"",""time""
""fullscreenenter"",""1"",""1317""
","
","
","""event"",""trial"",""time""
""fullscreenenter"",""1"",""1317""
","
","","","-1","","","15","3542","390","&#9761;","elianto","#3366ff99","-1","-1","1","+10","[]","0","0","2","","","","","","","",""
"pit-trial","30","391037","0.0-2.0-11.0-3.0","battery-v0.2","","""event"",""trial"",""time""
""fullscreenenter"",""1"",""1317""
","
","
","""event"",""trial"",""time""
""fullscreenenter"",""1"",""1317""
","
","","","-1","","","15","3542","390","&#9761;","elianto","#3366ff99","-1","-1","1","0","[]","0","0","2","","","","","","","",""
"pit-trial","31","395892","0.0-2.0-11.0-4.0","battery-v0.2","","""event"",""trial"",""time""
""fullscreenenter"",""1"",""1317""
","
","
","""event"",""trial"",""time""
""fullscreenenter"",""1"",""1317""
","
","","","-1","","","15","3542","390","&#9761;","elianto","#3366ff99","-1","-1","1","+10","[]","0","0","2","","","","","","","",""
"call-function","32","395893","0.0-2.0-12.0","battery-v0.2","","""event"",""trial"",""time""
""fullscreenenter"",""1"",""1317""
","
","
","""event"",""trial"",""time""
""fullscreenenter"",""1"",""1317""
","
","","","","","","","","","","","","","","","","","","","","","","","","","","",""
"pit-instructions","33","430514","0.0-2.0-13.0","battery-v0.2","","""event"",""trial"",""time""
""fullscreenenter"",""1"",""1317""
","
","
","""event"",""trial"",""time""
""fullscreenenter"",""1"",""1317""
","
","","[{""page_index"":0,""viewing_time"":7920},{""page_index"":1,""viewing_time"":7116.599999904633},{""page_index"":2,""viewing_time"":4416.300000190735},{""page_index"":3,""viewing_time"":10383.099999904633},{""page_index"":4,""viewing_time"":4784.099999904633}]","34620.5","","","","","","","","","","","","","","","","","","","","","","","",""
"pit-trial","34","434036","0.0-2.0-14.0-0.0","battery-v0.2","","""event"",""trial"",""time""
""fullscreenenter"",""1"",""1317""
","
","
","""event"",""trial"",""time""
""fullscreenenter"",""1"",""1317""
","
","","","666.2000000476837","","","15","3542","390","&#9826;","elianto","#f73b6a7A","-1"," ","0","-10","[1516.2999999523163]","1","0","3","","","","","","","",""
"pit-trial","35","438891","0.0-2.0-14.0-1.0","battery-v0.2","","""event"",""trial"",""time""
""fullscreenenter"",""1"",""1317""
","
","
","""event"",""trial"",""time""
""fullscreenenter"",""1"",""1317""
","
","","","-1","","","15","3542","390","&#9826;","elianto","#f73b6a7A","-1","-1","1","0","[]","0","0","3","","","","","","","",""
"pit-trial","36","443752","0.0-2.0-14.0-2.0","battery-v0.2","","""event"",""trial"",""time""
""fullscreenenter"",""1"",""1317""
","
","
","""event"",""trial"",""time""
""fullscreenenter"",""1"",""1317""
","
","","","-1","","","15","3542","390","&#9826;","elianto","#f73b6a7A","-1","-1","1","0","[]","0","0","3","","","","","","","",""
"pit-trial","37","448607","0.0-2.0-14.0-3.0","battery-v0.2","","""event"",""trial"",""time""
""fullscreenenter"",""1"",""1317""
","
","
","""event"",""trial"",""time""
""fullscreenenter"",""1"",""1317""
","
","","","-1","","","15","3542","390","&#9826;","elianto","#f73b6a7A","-1","-1","1","-10","[]","0","0","3","","","","","","","",""
"pit-trial","38","453464","0.0-2.0-14.0-4.0","battery-v0.2","","""event"",""trial"",""time""
""fullscreenenter"",""1"",""1317""
","
","
","""event"",""trial"",""time""
""fullscreenenter"",""1"",""1317""
","
","","","-1","","","15","3542","390","&#9826;","elianto","#f73b6a7A","-1","-1","1","0","[]","0","0","3","","","","","","","",""
"call-function","39","453465","0.0-2.0-15.0","battery-v0.2","","""event"",""trial"",""time""
""fullscreenenter"",""1"",""1317""
","
","
","""event"",""trial"",""time""
""fullscreenenter"",""1"",""1317""
","
","","","","","","","","","","","","","","","","","","","","","","","","","","",""
"pit-instructions","40","478812","0.0-2.0-16.0","battery-v0.2","","""event"",""trial"",""time""
""fullscreenenter"",""1"",""1317""
","
","
","""event"",""trial"",""time""
""fullscreenenter"",""1"",""1317""
","
","","[{""page_index"":0,""viewing_time"":7796.5},{""page_index"":1,""viewing_time"":8133.299999952316},{""page_index"":2,""viewing_time"":4449.599999904633},{""page_index"":3,""viewing_time"":4966.600000143051}]","25346.299999952316","","","","","","","","","","","","","","","","","","","","","","","",""
"pit-trial","41","482284","0.0-2.0-17.0-0.0","battery-v0.2","","""event"",""trial"",""time""
""fullscreenenter"",""1"",""1317""
","
","
","""event"",""trial"",""time""
""fullscreenenter"",""1"",""1317""
","
","","","619.1000001430511","","","15","3542","390","&#9789;","elianto","#f73b6a7A"," "," ","1","0","[1469.3999998569489]","1","0","4","","","","","","","",""
"pit-trial","42","485466","0.0-2.0-17.0-1.0","battery-v0.2","","""event"",""trial"",""time""
""fullscreenenter"",""1"",""1317""
","
","
","""event"",""trial"",""time""
""fullscreenenter"",""1"",""1317""
","
","","","327.59999990463257","","","15","3542","390","&#9789;","elianto","#f73b6a7A"," "," ","1","0","[1180.5999999046326]","1","0","4","","","","","","","",""
"pit-trial","43","488523","0.0-2.0-17.0-2.0","battery-v0.2","","""event"",""trial"",""time""
""fullscreenenter"",""1"",""1317""
","
","
","""event"",""trial"",""time""
""fullscreenenter"",""1"",""1317""
","
","","","199.19999980926514","","","15","3542","390","&#9789;","elianto","#f73b6a7A"," "," ","1","0","[1051.5999999046326]","1","0","4","","","","","","","",""
"pit-trial","44","493382","0.0-2.0-17.0-3.0","battery-v0.2","","""event"",""trial"",""time""
""fullscreenenter"",""1"",""1317""
","
","
","""event"",""trial"",""time""
""fullscreenenter"",""1"",""1317""
","
","","","-1","","","15","3542","390","&#9789;","elianto","#f73b6a7A"," ","-1","0","0","[]","0","0","4","","","","","","","",""
"pit-trial","45","496355","0.0-2.0-17.0-4.0","battery-v0.2","","""event"",""trial"",""time""
""fullscreenenter"",""1"",""1317""
","
","
","""event"",""trial"",""time""
""fullscreenenter"",""1"",""1317""
","
","","","121","","","15","3542","390","&#9789;","elianto","#f73b6a7A"," "," ","1","0","[971]","1","0","4","","","","","","","",""
"pit-trial","46","499430","0.0-2.0-17.1-0.1","battery-v0.2","","""event"",""trial"",""time""
""fullscreenenter"",""1"",""1317""
","
","
","""event"",""trial"",""time""
""fullscreenenter"",""1"",""1317""
","
","","","217","","","15","3542","390","&#9789;","elianto","#f73b6a7A"," "," ","1","0","[1067.6000001430511]","1","0","4","","","","","","","",""
"pit-trial","47","502682","0.0-2.0-17.1-1.1","battery-v0.2","","""event"",""trial"",""time""
""fullscreenenter"",""1"",""1317""
","
","
","""event"",""trial"",""time""
""fullscreenenter"",""1"",""1317""
","
","","","397.40000009536743","","","15","3542","390","&#9789;","elianto","#f73b6a7A"," "," ","1","0","[1249]","1","0","4","","","","","","","",""
"pit-trial","48","505983","0.0-2.0-17.1-2.1","battery-v0.2","","""event"",""trial"",""time""
""fullscreenenter"",""1"",""1317""
","
","
","""event"",""trial"",""time""
""fullscreenenter"",""1"",""1317""
","
","","","443.90000009536743","","","15","3542","390","&#9789;","elianto","#f73b6a7A"," "," ","1","0","[1294.5999999046326]","1","0","4","","","","","","","",""
"pit-trial","49","510841","0.0-2.0-17.1-3.1","battery-v0.2","","""event"",""trial"",""time""
""fullscreenenter"",""1"",""1317""
","
","
","""event"",""trial"",""time""
""fullscreenenter"",""1"",""1317""
","
","","","-1","","","15","3542","390","&#9789;","elianto","#f73b6a7A"," ","-1","0","0","[]","0","0","4","","","","","","","",""
"pit-trial","50","514062","0.0-2.0-17.1-4.1","battery-v0.2","","""event"",""trial"",""time""
""fullscreenenter"",""1"",""1317""
","
","
","""event"",""trial"",""time""
""fullscreenenter"",""1"",""1317""
","
","","","365.59999990463257","","","15","3542","390","&#9789;","elianto","#f73b6a7A"," "," ","1","0","[1215.7000000476837]","1","0","4","","","","","","","",""
"pit-trial","51","517188","0.0-2.0-17.2-0.2","battery-v0.2","","""event"",""trial"",""time""
""fullscreenenter"",""1"",""1317""
","
","
","""event"",""trial"",""time""
""fullscreenenter"",""1"",""1317""
","
","","","269.59999990463257","","","15","3542","390","&#9789;","elianto","#f73b6a7A"," "," ","1","0","[1121.0999999046326]","1","0","4","","","","","","","",""
"pit-trial","52","520235","0.0-2.0-17.2-1.2","battery-v0.2","","""event"",""trial"",""time""
""fullscreenenter"",""1"",""1317""
","
","
","""event"",""trial"",""time""
""fullscreenenter"",""1"",""1317""
","
","","","191.90000009536743","","","15","3542","390","&#9789;","elianto","#f73b6a7A"," "," ","1","0","[1043.2000000476837]","1","0","4","","","","","","","",""
"pit-trial","53","525091","0.0-2.0-17.2-2.2","battery-v0.2","","""event"",""trial"",""time""
""fullscreenenter"",""1"",""1317""
","
","
","""event"",""trial"",""time""
""fullscreenenter"",""1"",""1317""
","
","","","-1","","","15","3542","390","&#9789;","elianto","#f73b6a7A"," ","-1","0","-10","[]","0","0","4","","","","","","","",""
"pit-trial","54","529753","0.0-2.0-17.2-3.2","battery-v0.2","","""event"",""trial"",""time""
""fullscreenenter"",""1"",""1317""
","
","
","""event"",""trial"",""time""
""fullscreenenter"",""1"",""1317""
","
","","","1804.2000000476837","","","15","3542","390","&#9789;","elianto","#f73b6a7A"," "," ","1","-10","[815.5,2654.9000000953674]","2","0","4","","","","","","","",""
"pit-trial","55","533059","0.0-2.0-17.2-4.2","battery-v0.2","","""event"",""trial"",""time""
""fullscreenenter"",""1"",""1317""
","
","
","""event"",""trial"",""time""
""fullscreenenter"",""1"",""1317""
","
","","","452.60000014305115","","","15","3542","390","&#9789;","elianto","#f73b6a7A"," "," ","1","0","[1303.6000001430511]","1","0","4","","","","","","","",""
"pit-trial","56","536121","0.0-2.0-17.3-0.3","battery-v0.2","","""event"",""trial"",""time""
""fullscreenenter"",""1"",""1317""
","
","
","""event"",""trial"",""time""
""fullscreenenter"",""1"",""1317""
","
","","","206.5","","","15","3542","390","&#9789;","elianto","#f73b6a7A"," "," ","1","0","[1057.7999999523163]","1","0","4","","","","","","","",""
"pit-trial","57","539782","0.0-2.0-17.3-1.3","battery-v0.2","","""event"",""trial"",""time""
""fullscreenenter"",""1"",""1317""
","
","
","""event"",""trial"",""time""
""fullscreenenter"",""1"",""1317""
","
","","","804.9000000953674","","","15","3542","390","&#9789;","elianto","#f73b6a7A"," "," ","1","0","[803.7999999523163,1655]","2","0","4","","","","","","","",""
"pit-trial","58","542723","0.0-2.0-17.3-2.3","battery-v0.2","","""event"",""trial"",""time""
""fullscreenenter"",""1"",""1317""
","
","
","""event"",""trial"",""time""
""fullscreenenter"",""1"",""1317""
","
","","","85","","","15","3542","390","&#9789;","elianto","#f73b6a7A"," "," ","1","0","[936.5999999046326]","1","0","4","","","","","","","",""
"pit-trial","59","545710","0.0-2.0-17.3-3.3","battery-v0.2","","""event"",""trial"",""time""
""fullscreenenter"",""1"",""1317""
","
","
","""event"",""trial"",""time""
""fullscreenenter"",""1"",""1317""
","
","","","134.10000014305115","","","15","3542","390","&#9789;","elianto","#f73b6a7A"," "," ","1","-10","[984.3000001907349]","1","0","4","","","","","","","",""
"pit-trial","60","549038","0.0-2.0-17.3-4.3","battery-v0.2","","""event"",""trial"",""time""
""fullscreenenter"",""1"",""1317""
","
","
","""event"",""trial"",""time""
""fullscreenenter"",""1"",""1317""
","
","","","472.90000009536743","","","15","3542","390","&#9789;","elianto","#f73b6a7A"," "," ","1","0","[1323]","1","0","4","","","","","","","",""
"call-function","61","549039","0.0-2.0-18.0","battery-v0.2","","""event"",""trial"",""time""
""fullscreenenter"",""1"",""1317""
","
","
","""event"",""trial"",""time""
""fullscreenenter"",""1"",""1317""
","
","","","","","","","","","","","","","","","","","","","","","","","","","","",""
"pit-instructions","62","621291","0.0-2.0-19.0","battery-v0.2","","""event"",""trial"",""time""
""fullscreenenter"",""1"",""1317""
","
","
","""event"",""trial"",""time""
""fullscreenenter"",""1"",""1317""
","
","","[{""page_index"":0,""viewing_time"":6536.099999904633},{""page_index"":1,""viewing_time"":8466.600000143051},{""page_index"":2,""viewing_time"":13499.799999952316},{""page_index"":3,""viewing_time"":7982.799999952316},{""page_index"":4,""viewing_time"":8549.700000047684},{""page_index"":5,""viewing_time"":8833.400000095367},{""page_index"":6,""viewing_time"":8482.799999952316},{""page_index"":7,""viewing_time"":5967.5},{""page_index"":8,""viewing_time"":3932.2000000476837}]","72251.29999995232","","","","","","","","","","","","","","","","","","","","","","","",""
"pit-comprehension","63","625741","0.0-2.0-20.0-0.0","battery-v0.2","","""event"",""trial"",""time""
""fullscreenenter"",""1"",""1317""
","
","
","""event"",""trial"",""time""
""fullscreenenter"",""1"",""1317""
","
","","","4448.099999904633","[""SPACE""]","0","15","3542","390","","","","","","","","","","","","","","","","","","",""
"pit-instructions","64","629775","0.0-2.0-20.0-1.0","battery-v0.2","","""event"",""trial"",""time""
""fullscreenenter"",""1"",""1317""
","
","
","""event"",""trial"",""time""
""fullscreenenter"",""1"",""1317""
","
","","[{""page_index"":0,""viewing_time"":4017.4000000953674}]","4017.7000000476837","","","","","","","","","","","","","","","","","","","","","","","",""
"pit-comprehension","65","634941","0.0-2.0-21.0-0.0","battery-v0.2","","""event"",""trial"",""time""
""fullscreenenter"",""1"",""1317""
","
","
","""event"",""trial"",""time""
""fullscreenenter"",""1"",""1317""
","
","","","5163.600000143051","[""10""]","0","15","3542","390","","","","","","","","","","","","","","","","","","",""
"pit-instructions","66","636524","0.0-2.0-21.0-1.0","battery-v0.2","","""event"",""trial"",""time""
""fullscreenenter"",""1"",""1317""
","
","
","""event"",""trial"",""time""
""fullscreenenter"",""1"",""1317""
","
","","[{""page_index"":0,""viewing_time"":1566.4000000953674}]","1566.7000000476837","","","","","","","","","","","","","","","","","","","","","","","",""
"pit-comprehension","67","642924","0.0-2.0-22.0-0.0","battery-v0.2","","""event"",""trial"",""time""
""fullscreenenter"",""1"",""1317""
","
","
","""event"",""trial"",""time""
""fullscreenenter"",""1"",""1317""
","
","","","6398.5","[""0""]","0","15","3542","390","","","","","","","","","","","","","","","","","","",""
"pit-instructions","68","644057","0.0-2.0-22.0-1.0","battery-v0.2","","""event"",""trial"",""time""
""fullscreenenter"",""1"",""1317""
","
","
","""event"",""trial"",""time""
""fullscreenenter"",""1"",""1317""
","
","","[{""page_index"":0,""viewing_time"":1116.0999999046326}]","1116.5","","","","","","","","","","","","","","","","","","","","","","","",""
"pit-comprehension","69","653391","0.0-2.0-23.0-0.0","battery-v0.2","","""event"",""trial"",""time""
""fullscreenenter"",""1"",""1317""
","
","
","""event"",""trial"",""time""
""fullscreenenter"",""1"",""1317""
","
","","","9331.100000143051","[""True""]","0","15","3542","390","","","","","","","","","","","","","","","","","","",""
"pit-instructions","70","654840","0.0-2.0-23.0-1.0","battery-v0.2","","""event"",""trial"",""time""
""fullscreenenter"",""1"",""1317""
","
","
","""event"",""trial"",""time""
""fullscreenenter"",""1"",""1317""
","
","","[{""page_index"":0,""viewing_time"":1431.8999998569489}]","1432.0999999046326","","","","","","","","","","","","","","","","","","","","","","","",""
"pit-comprehension","71","661973","0.0-2.0-24.0-0.0","battery-v0.2","","""event"",""trial"",""time""
""fullscreenenter"",""1"",""1317""
","
","
","""event"",""trial"",""time""
""fullscreenenter"",""1"",""1317""
","
","","","7131.299999952316","[""True""]","0","15","3542","390","","","","","","","","","","","","","","","","","","",""
"pit-instructions","72","663907","0.0-2.0-24.0-1.0","battery-v0.2","","""event"",""trial"",""time""
""fullscreenenter"",""1"",""1317""
","
","
","""event"",""trial"",""time""
""fullscreenenter"",""1"",""1317""
","
","","[{""page_index"":0,""viewing_time"":1916.9000000953674}]","1917.1000001430511","","","","","","","","","","","","","","","","","","","","","","","",""
"pit-comprehension","73","670274","0.0-2.0-25.0-0.0","battery-v0.2","","""event"",""trial"",""time""
""fullscreenenter"",""1"",""1317""
","
","
","""event"",""trial"",""time""
""fullscreenenter"",""1"",""1317""
","
","","","6365.5","[""True""]","0","15","3542","390","","","","","","","","","","","","","","","","","","",""
"pit-instructions","74","671723","0.0-2.0-25.0-1.0","battery-v0.2","","""event"",""trial"",""time""
""fullscreenenter"",""1"",""1317""
","
","
","""event"",""trial"",""time""
""fullscreenenter"",""1"",""1317""
","
","","[{""page_index"":0,""viewing_time"":1430.2999999523163}]","1430.5999999046326","","","","","","","","","","","","","","","","","","","","","","","",""
"pit-comprehension","75","676357","0.0-2.0-26.0-0.0","battery-v0.2","","""event"",""trial"",""time""
""fullscreenenter"",""1"",""1317""
","
","
","""event"",""trial"",""time""
""fullscreenenter"",""1"",""1317""
","
","","","4631.400000095367","[""False""]","0","15","3542","390","","","","","","","","","","","","","","","","","","",""
"pit-instructions","76","678372","0.0-2.0-26.0-1.0","battery-v0.2","","""event"",""trial"",""time""
""fullscreenenter"",""1"",""1317""
","
","
","""event"",""trial"",""time""
""fullscreenenter"",""1"",""1317""
","
","","[{""page_index"":0,""viewing_time"":1998}]","1998.2000000476837","","","","","","","","","","","","","","","","","","","","","","","",""
"pit-instructions","77","694789","0.0-3.0","battery-v0.2","","""event"",""trial"",""time""
""fullscreenenter"",""1"",""1317""
","
","
","""event"",""trial"",""time""
""fullscreenenter"",""1"",""1317""
","
","","[{""page_index"":0,""viewing_time"":4082},{""page_index"":1,""viewing_time"":5100.799999952316},{""page_index"":2,""viewing_time"":7232.200000047684}]","16415.299999952316","","","","","","","","","","","","","","","","","","","","","","","",""
"pit-trial","78","698261","0.0-4.0","battery-v0.2","","""event"",""trial"",""time""
""fullscreenenter"",""1"",""1317""
","
","
","""event"",""trial"",""time""
""fullscreenenter"",""1"",""1317""
","
","","","616.2999999523163","","","15","3542","390","&#9730;","elianto","#3366ff99"," "," ","1","+10","[1467.2000000476837]","1","1","","","3542","1","1","1","win","go","0"
"pit-trial","79","703119","0.0-5.0","battery-v0.2","","""event"",""trial"",""time""
""fullscreenenter"",""1"",""1317""
","
","
","""event"",""trial"",""time""
""fullscreenenter"",""1"",""1317""
","
","","","-1","","","15","3542","390","&#9728;","elianto","#f73b6a7A","-1","-1","1","0","[]","0","1","","","3542","2","0","4","lose","no-go","0"
"pit-trial","80","707981","0.0-6.0","battery-v0.2","","""event"",""trial"",""time""
""fullscreenenter"",""1"",""1317""
","
","
","""event"",""trial"",""time""
""fullscreenenter"",""1"",""1317""
","
","","","-1","","","15","3542","390","&#9752;","elianto","#f73b6a7A"," ","-1","0","-10","[]","0","1","","","3542","3","3","3","lose","go","0"
"pit-trial","81","711657","0.0-7.0","battery-v0.2","","""event"",""trial"",""time""
""fullscreenenter"",""1"",""1317""
","
","
","""event"",""trial"",""time""
""fullscreenenter"",""1"",""1317""
","
","","","818","","","15","3542","390","&#9733;","elianto","#3366ff99","-1"," ","0","0","[1671]","1","1","","","3542","4","2","2","win","no-go","0"
"pit-trial","82","715261","0.0-8.0","battery-v0.2","","""event"",""trial"",""time""
""fullscreenenter"",""1"",""1317""
","
","
","""event"",""trial"",""time""
""fullscreenenter"",""1"",""1317""
","
","","","751.5","","","15","3542","390","&#9752;","elianto","#f73b6a7A"," "," ","1","-10","[1602.4000000953674]","1","1","","","3542","5","3","3","lose","go","1"
"pit-trial","83","718917","0.0-9.0","battery-v0.2","","""event"",""trial"",""time""
""fullscreenenter"",""1"",""1317""
","
","
","""event"",""trial"",""time""
""fullscreenenter"",""1"",""1317""
","
","","","797.4000000953674","","","15","3542","390","&#9728;","elianto","#f73b6a7A","-1"," ","0","0","[1649.3999998569489]","1","1","","","3542","6","0","4","lose","no-go","1"
"pit-trial","84","722402","0.0-10.0","battery-v0.2","","""event"",""trial"",""time""
""fullscreenenter"",""1"",""1317""
","
","
","""event"",""trial"",""time""
""fullscreenenter"",""1"",""1317""
","
","","","630.9000000953674","","","15","3542","390","&#9730;","elianto","#3366ff99"," "," ","1","0","[1482]","1","1","","","3542","7","1","1","win","go","1"
"pit-trial","85","726068","0.0-11.0","battery-v0.2","","""event"",""trial"",""time""
""fullscreenenter"",""1"",""1317""
","
","
","""event"",""trial"",""time""
""fullscreenenter"",""1"",""1317""
","
","","","810.0999999046326","","","15","3542","390","&#9733;","elianto","#3366ff99","-1"," ","0","0","[1660.7999999523163]","1","1","","","3542","8","2","2","win","no-go","0"
"pit-trial","86","729468","0.0-12.0","battery-v0.2","","""event"",""trial"",""time""
""fullscreenenter"",""1"",""1317""
","
","
","""event"",""trial"",""time""
""fullscreenenter"",""1"",""1317""
","
","","","543.7999999523163","","","15","3542","390","&#9730;","elianto","#3366ff99"," "," ","1","+10","[1394.7999999523163]","1","1","","","3542","9","1","1","win","go","0"
"pit-trial","87","734329","0.0-13.0","battery-v0.2","","""event"",""trial"",""time""
""fullscreenenter"",""1"",""1317""
","
","
","""event"",""trial"",""time""
""fullscreenenter"",""1"",""1317""
","
","","","-1","","","15","3542","390","&#9752;","elianto","#f73b6a7A"," ","-1","0","-10","[]","0","1","","","3542","10","3","3","lose","go","0"
"pit-trial","88","738014","0.0-14.0","battery-v0.2","","""event"",""trial"",""time""
""fullscreenenter"",""1"",""1317""
","
","
","""event"",""trial"",""time""
""fullscreenenter"",""1"",""1317""
","
","","","829.7000000476837","","","15","3542","390","&#9728;","elianto","#f73b6a7A","-1"," ","0","0","[1681.6000001430511]","1","1","","","3542","11","0","4","lose","no-go","1"
"pit-trial","89","741487","0.0-15.0","battery-v0.2","","""event"",""trial"",""time""
""fullscreenenter"",""1"",""1317""
","
","
","""event"",""trial"",""time""
""fullscreenenter"",""1"",""1317""
","
","","","615.7000000476837","","","15","3542","390","&#9733;","elianto","#3366ff99","-1"," ","0","0","[1468.2999999523163]","1","1","","","3542","12","2","2","win","no-go","0"
"pit-trial","90","745044","0.0-16.0","battery-v0.2","","""event"",""trial"",""time""
""fullscreenenter"",""1"",""1317""
","
","
","""event"",""trial"",""time""
""fullscreenenter"",""1"",""1317""
","
","","","704.5999999046326","","","15","3542","390","&#9728;","elianto","#f73b6a7A","-1"," ","0","-10","[1554.7999999523163]","1","1","","","3542","13","0","4","lose","no-go","0"
"pit-trial","91","748506","0.0-17.0","battery-v0.2","","""event"",""trial"",""time""
""fullscreenenter"",""1"",""1317""
","
","
","""event"",""trial"",""time""
""fullscreenenter"",""1"",""1317""
","
","","","607.7999999523163","","","15","3542","390","&#9730;","elianto","#3366ff99"," "," ","1","0","[1459.7000000476837]","1","1","","","3542","14","1","1","win","go","1"
"pit-trial","92","751956","0.0-18.0","battery-v0.2","","""event"",""trial"",""time""
""fullscreenenter"",""1"",""1317""
","
","
","""event"",""trial"",""time""
""fullscreenenter"",""1"",""1317""
","
","","","597.2999999523163","","","15","3542","390","&#9733;","elianto","#3366ff99","-1"," ","0","0","[1448.0999999046326]","1","1","","","3542","15","2","2","win","no-go","0"
"pit-trial","93","755324","0.0-19.0","battery-v0.2","","""event"",""trial"",""time""
""fullscreenenter"",""1"",""1317""
","
","
","""event"",""trial"",""time""
""fullscreenenter"",""1"",""1317""
","
","","","513.0999999046326","","","15","3542","390","&#9752;","elianto","#f73b6a7A"," "," ","1","0","[1364.0999999046326]","1","1","","","3542","16","3","3","lose","go","0"
"pit-trial","94","760180","0.0-20.0","battery-v0.2","","""event"",""trial"",""time""
""fullscreenenter"",""1"",""1317""
","
","
","""event"",""trial"",""time""
""fullscreenenter"",""1"",""1317""
","
","","","-1","","","15","3542","390","&#9752;","elianto","#f73b6a7A"," ","-1","0","-10","[]","0","1","","","3542","17","3","3","lose","go","0"
"pit-trial","95","763807","0.0-21.0","battery-v0.2","","""event"",""trial"",""time""
""fullscreenenter"",""1"",""1317""
","
","
","""event"",""trial"",""time""
""fullscreenenter"",""1"",""1317""
","
","","","769.7000000476837","","","15","3542","390","&#9728;","elianto","#f73b6a7A","-1"," ","0","-10","[1622]","1","1","","","3542","18","0","4","lose","no-go","0"
"pit-trial","96","767359","0.0-22.0","battery-v0.2","","""event"",""trial"",""time""
""fullscreenenter"",""1"",""1317""
","
","
","""event"",""trial"",""time""
""fullscreenenter"",""1"",""1317""
","
","","","696.5","","","15","3542","390","&#9733;","elianto","#3366ff99","-1"," ","0","+10","[1546.8999998569489]","1","1","","","3542","19","2","2","win","no-go","1"
"pit-trial","97","772214","0.0-23.0","battery-v0.2","","""event"",""trial"",""time""
""fullscreenenter"",""1"",""1317""
","
","
","""event"",""trial"",""time""
""fullscreenenter"",""1"",""1317""
","
","","","-1","","","15","3542","390","&#9730;","elianto","#3366ff99"," ","-1","0","0","[]","0","1","","","3542","20","1","1","win","go","0"
"pit-instructions","98","784486","0.0-24.0","battery-v0.2","","""event"",""trial"",""time""
""fullscreenenter"",""1"",""1317""
","
","
","""event"",""trial"",""time""
""fullscreenenter"",""1"",""1317""
","
","","[{""page_index"":0,""viewing_time"":5670.5},{""page_index"":1,""viewing_time"":6599.799999952316}]","12270.699999809265","","","","","","","","","","","","","","","","","","","","","","","",""
"pit-trial","99","788184","0.0-25.0","battery-v0.2","","""event"",""trial"",""time""
""fullscreenenter"",""1"",""1317""
","
","
","""event"",""trial"",""time""
""fullscreenenter"",""1"",""1317""
","
","","","840.5999999046326","","","15","3542","390","y","elianto","#f73b6a7A","-1"," ","0","-10","[1690.7000000476837]","1","2","","","3542","21","2","4","lose","no-go","0"
"pit-trial","100","791904","0.0-26.0","battery-v0.2","","""event"",""trial"",""time""
""fullscreenenter"",""1"",""1317""
","
","
","""event"",""trial"",""time""
""fullscreenenter"",""1"",""1317""
","
","","","865.6999998092651","","","15","3542","390","h","elianto","#f73b6a7A"," "," ","1","-10","[1716.6999998092651]","1","2","","","3542","22","3","3","lose","go","1"
"pit-trial","101","795470","0.0-27.0","battery-v0.2","","""event"",""trial"",""time""
""fullscreenenter"",""1"",""1317""
","
","
","""event"",""trial"",""time""
""fullscreenenter"",""1"",""1317""
","
","","","712.2000000476837","","","15","3542","390","r","elianto","#3366ff99"," "," ","1","0","[1562.9000000953674]","1","2","","","3542","23","1","1","win","go","1"
"pit-trial","102","800329","0.0-28.0","battery-v0.2","","""event"",""trial"",""time""
""fullscreenenter"",""1"",""1317""
","
","
","""event"",""trial"",""time""
""fullscreenenter"",""1"",""1317""
","
","","","-1","","","15","3542","390","m","elianto","#f73b6a7A","-1","-1","1","0","[]","0","2","","","3542","24","0","4","lose","no-go","0"
"pit-trial","103","803897","0.0-29.0","battery-v0.2","","""event"",""trial"",""time""
""fullscreenenter"",""1"",""1317""
","
","
","""event"",""trial"",""time""
""fullscreenenter"",""1"",""1317""
","
","","","711.4000000953674","","","15","3542","390","h","elianto","#f73b6a7A"," "," ","1","-10","[1561.9000000953674]","1","2","","","3542","25","3","3","lose","go","1"
"pit-trial","104","808756","0.0-30.0","battery-v0.2","","""event"",""trial"",""time""
""fullscreenenter"",""1"",""1317""
","
","
","""event"",""trial"",""time""
""fullscreenenter"",""1"",""1317""
","
","","","-1","","","15","3542","390","m","elianto","#f73b6a7A","-1","-1","1","0","[]","0","2","","","3542","26","0","4","lose","no-go","0"
"pit-trial","105","813614","0.0-31.0","battery-v0.2","","""event"",""trial"",""time""
""fullscreenenter"",""1"",""1317""
","
","
","""event"",""trial"",""time""
""fullscreenenter"",""1"",""1317""
","
","","","-1","","","15","3542","390","r","elianto","#3366ff99"," ","-1","0","0","[]","0","2","","","3542","27","1","1","win","go","0"
"pit-trial","106","818473","0.0-32.0","battery-v0.2","","""event"",""trial"",""time""
""fullscreenenter"",""1"",""1317""
","
","
","""event"",""trial"",""time""
""fullscreenenter"",""1"",""1317""
","
","","","-1","","","15","3542","390","y","elianto","#f73b6a7A","-1","-1","1","0","[]","0","2","","","3542","28","2","4","lose","no-go","0"
"pit-trial","107","823331","0.0-33.0","battery-v0.2","","""event"",""trial"",""time""
""fullscreenenter"",""1"",""1317""
","
","
","""event"",""trial"",""time""
""fullscreenenter"",""1"",""1317""
","
","","","-1","","","15","3542","390","y","elianto","#f73b6a7A","-1","-1","1","-10","[]","0","2","","","3542","29","2","4","lose","no-go","1"
"pit-trial","108","828187","0.0-34.0","battery-v0.2","","""event"",""trial"",""time""
""fullscreenenter"",""1"",""1317""
","
","
","""event"",""trial"",""time""
""fullscreenenter"",""1"",""1317""
","
","","","-1","","","15","3542","390","h","elianto","#f73b6a7A"," ","-1","0","-10","[]","0","2","","","3542","30","3","3","lose","go","0"
"pit-trial","109","833043","0.0-35.0","battery-v0.2","","""event"",""trial"",""time""
""fullscreenenter"",""1"",""1317""
","
","
","""event"",""trial"",""time""
""fullscreenenter"",""1"",""1317""
","
","","","-1","","","15","3542","390","m","elianto","#f73b6a7A","-1","-1","1","0","[]","0","2","","","3542","31","0","4","lose","no-go","0"
"pit-trial","110","836409","0.0-36.0","battery-v0.2","","""event"",""trial"",""time""
""fullscreenenter"",""1"",""1317""
","
","
","""event"",""trial"",""time""
""fullscreenenter"",""1"",""1317""
","
","","","511.40000009536743","","","15","3542","390","r","elianto","#3366ff99"," "," ","1","+10","[1363.2000000476837]","1","2","","","3542","32","1","1","win","go","0"
"pit-trial","111","841266","0.0-37.0","battery-v0.2","","""event"",""trial"",""time""
""fullscreenenter"",""1"",""1317""
","
","
","""event"",""trial"",""time""
""fullscreenenter"",""1"",""1317""
","
","","","-1","","","15","3542","390","y","elianto","#f73b6a7A","-1","-1","1","0","[]","0","2","","","3542","33","2","4","lose","no-go","0"
"pit-trial","112","844800","0.0-38.0","battery-v0.2","","""event"",""trial"",""time""
""fullscreenenter"",""1"",""1317""
","
","
","""event"",""trial"",""time""
""fullscreenenter"",""1"",""1317""
","
","","","678.2000000476837","","","15","3542","390","r","elianto","#3366ff99"," "," ","1","+10","[1529.0999999046326]","1","2","","","3542","34","1","1","win","go","0"
"pit-trial","113","849076","0.0-39.0","battery-v0.2","","""event"",""trial"",""time""
""fullscreenenter"",""1"",""1317""
","
","
","""event"",""trial"",""time""
""fullscreenenter"",""1"",""1317""
","
","","","1422.2000000476837","","","15","3542","390","m","elianto","#f73b6a7A","-1"," ","0","0","[2272.2000000476837]","1","2","","","3542","35","0","4","lose","no-go","1"
"pit-trial","114","853933","0.0-40.0","battery-v0.2","","""event"",""trial"",""time""
""fullscreenenter"",""1"",""1317""
","
","
","""event"",""trial"",""time""
""fullscreenenter"",""1"",""1317""
","
","","","-1","","","15","3542","390","h","elianto","#f73b6a7A"," ","-1","0","0","[]","0","2","","","3542","36","3","3","lose","go","1"
"pit-trial","115","857507","0.0-41.0","battery-v0.2","","""event"",""trial"",""time""
""fullscreenenter"",""1"",""1317""
","
","
","""event"",""trial"",""time""
""fullscreenenter"",""1"",""1317""
","
","","","719.5999999046326","","","15","3542","390","y","elianto","#f73b6a7A","-1"," ","0","-10","[1569.7000000476837]","1","2","","","3542","37","2","4","lose","no-go","0"
"pit-trial","116","861266","0.0-42.0","battery-v0.2","","""event"",""trial"",""time""
""fullscreenenter"",""1"",""1317""
","
","
","""event"",""trial"",""time""
""fullscreenenter"",""1"",""1317""
","
","","","902.0999999046326","","","15","3542","390","r","elianto","#3366ff99"," "," ","1","+10","[1753.7999999523163]","1","2","","","3542","38","1","1","win","go","0"
"pit-trial","117","866124","0.0-43.0","battery-v0.2","","""event"",""trial"",""time""
""fullscreenenter"",""1"",""1317""
","
","
","""event"",""trial"",""time""
""fullscreenenter"",""1"",""1317""
","
","","","-1","","","15","3542","390","m","elianto","#f73b6a7A","-1","-1","1","0","[]","0","2","","","3542","39","0","4","lose","no-go","0"
"pit-trial","118","870980","0.0-44.0","battery-v0.2","","""event"",""trial"",""time""
""fullscreenenter"",""1"",""1317""
","
","
","""event"",""trial"",""time""
""fullscreenenter"",""1"",""1317""
","
","","","-1","","","15","3542","390","h","elianto","#f73b6a7A"," ","-1","0","-10","[]","0","2","","","3542","40","3","3","lose","go","0"
"pit-trial","119","874549","0.0-45.0","battery-v0.2","","""event"",""trial"",""time""
""fullscreenenter"",""1"",""1317""
","
","
","""event"",""trial"",""time""
""fullscreenenter"",""1"",""1317""
","
","","","712.7000000476837","","","15","3542","390","r","elianto","#3366ff99"," "," ","1","+10","[1564]","1","2","","","3542","41","1","1","win","go","0"
"pit-trial","120","879402","0.0-46.0","battery-v0.2","","""event"",""trial"",""time""
""fullscreenenter"",""1"",""1317""
","
","
","""event"",""trial"",""time""
""fullscreenenter"",""1"",""1317""
","
","","","-1","","","15","3542","390","y","elianto","#f73b6a7A","-1","-1","1","-10","[]","0","2","","","3542","42","2","4","lose","no-go","1"
"pit-trial","121","883140","0.0-47.0","battery-v0.2","","""event"",""trial"",""time""
""fullscreenenter"",""1"",""1317""
","
","
","""event"",""trial"",""time""
""fullscreenenter"",""1"",""1317""
","
","","","882","","","15","3542","390","h","elianto","#f73b6a7A"," "," ","1","0","[1732.5999999046326]","1","2","","","3542","43","3","3","lose","go","0"
"pit-trial","122","887038","0.0-48.0","battery-v0.2","","""event"",""trial"",""time""
""fullscreenenter"",""1"",""1317""
","
","
","""event"",""trial"",""time""
""fullscreenenter"",""1"",""1317""
","
","","","1042.7000000476837","","","15","3542","390","m","elianto","#f73b6a7A","-1"," ","0","-10","[1892.7999999523163]","1","2","","","3542","44","0","4","lose","no-go","0"
"pit-trial","123","891897","0.0-49.0","battery-v0.2","","""event"",""trial"",""time""
""fullscreenenter"",""1"",""1317""
","
","
","""event"",""trial"",""time""
""fullscreenenter"",""1"",""1317""
","
","","","-1","","","15","3542","390","h","elianto","#f73b6a7A"," ","-1","0","-10","[]","0","2","","","3542","45","3","3","lose","go","0"
"pit-trial","124","896756","0.0-50.0","battery-v0.2","","""event"",""trial"",""time""
""fullscreenenter"",""1"",""1317""
","
","
","""event"",""trial"",""time""
""fullscreenenter"",""1"",""1317""
","
","","","-1","","","15","3542","390","z","elianto","#3366ff99","-1","-1","1","+10","[]","0","2","","","3542","46","4","2","win","no-go","0"
"pit-trial","125","900569","0.0-51.0","battery-v0.2","","""event"",""trial"",""time""
""fullscreenenter"",""1"",""1317""
","
","
","""event"",""trial"",""time""
""fullscreenenter"",""1"",""1317""
","
","","","956.2000000476837","","","15","3542","390","y","elianto","#f73b6a7A","-1"," ","0","-10","[1807.7000000476837]","1","2","","","3542","47","2","4","lose","no-go","0"
"pit-trial","126","905428","0.0-52.0","battery-v0.2","","""event"",""trial"",""time""
""fullscreenenter"",""1"",""1317""
","
","
","""event"",""trial"",""time""
""fullscreenenter"",""1"",""1317""
","
","","","-1","","","15","3542","390","m","elianto","#f73b6a7A","-1","-1","1","-10","[]","0","2","","","3542","48","0","4","lose","no-go","1"
"pit-trial","127","908753","0.0-53.0","battery-v0.2","","""event"",""trial"",""time""
""fullscreenenter"",""1"",""1317""
","
","
","""event"",""trial"",""time""
""fullscreenenter"",""1"",""1317""
","
","","","466.2999999523163","","","15","3542","390","r","elianto","#3366ff99"," "," ","1","+10","[1318.0999999046326]","1","2","","","3542","49","1","1","win","go","0"
"pit-trial","128","912228","0.0-54.0","battery-v0.2","","""event"",""trial"",""time""
""fullscreenenter"",""1"",""1317""
","
","
","""event"",""trial"",""time""
""fullscreenenter"",""1"",""1317""
","
","","","620.8000001907349","","","15","3542","390","z","elianto","#3366ff99","-1"," ","0","0","[1471.5]","1","2","","","3542","50","4","2","win","no-go","0"
"pit-trial","129","915748","0.0-55.0","battery-v0.2","","""event"",""trial"",""time""
""fullscreenenter"",""1"",""1317""
","
","
","""event"",""trial"",""time""
""fullscreenenter"",""1"",""1317""
","
","","","661.6999998092651","","","15","3542","390","h","elianto","#f73b6a7A"," "," ","1","-10","[1513.5]","1","2","","","3542","51","3","3","lose","go","1"
"pit-trial","130","920603","0.0-56.0","battery-v0.2","","""event"",""trial"",""time""
""fullscreenenter"",""1"",""1317""
","
","
","""event"",""trial"",""time""
""fullscreenenter"",""1"",""1317""
","
","","","-1","","","15","3542","390","m","elianto","#f73b6a7A","-1","-1","1","0","[]","0","2","","","3542","52","0","4","lose","no-go","0"
"pit-trial","131","924132","0.0-57.0","battery-v0.2","","""event"",""trial"",""time""
""fullscreenenter"",""1"",""1317""
","
","
","""event"",""trial"",""time""
""fullscreenenter"",""1"",""1317""
","
","","","672","","","15","3542","390","y","elianto","#f73b6a7A","-1"," ","0","0","[1522.3999998569489]","1","2","","","3542","53","2","4","lose","no-go","1"
"pit-trial","132","927540","0.0-58.0","battery-v0.2","","""event"",""trial"",""time""
""fullscreenenter"",""1"",""1317""
","
","
","""event"",""trial"",""time""
""fullscreenenter"",""1"",""1317""
","
","","","553.7999999523163","","","15","3542","390","z","elianto","#3366ff99","-1"," ","0","0","[1403.9000000953674]","1","2","","","3542","54","4","2","win","no-go","0"
"pit-trial","133","931172","0.0-59.0","battery-v0.2","","""event"",""trial"",""time""
""fullscreenenter"",""1"",""1317""
","
","
","""event"",""trial"",""time""
""fullscreenenter"",""1"",""1317""
","
","","","776.5","","","15","3542","390","m","elianto","#f73b6a7A","-1"," ","0","-10","[1628.2999999523163]","1","2","","","3542","55","0","4","lose","no-go","0"
"pit-trial","134","934548","0.0-60.0","battery-v0.2","","""event"",""trial"",""time""
""fullscreenenter"",""1"",""1317""
","
","
","""event"",""trial"",""time""
""fullscreenenter"",""1"",""1317""
","
","","","521.8999998569489","","","15","3542","390","r","elianto","#3366ff99"," "," ","1","0","[1372.1999998092651]","1","2","","","3542","56","1","1","win","go","1"
"pit-trial","135","938265","0.0-61.0","battery-v0.2","","""event"",""trial"",""time""
""fullscreenenter"",""1"",""1317""
","
","
","""event"",""trial"",""time""
""fullscreenenter"",""1"",""1317""
","
","","","861.1000001430511","","","15","3542","390","h","elianto","#f73b6a7A"," "," ","1","0","[1711]","1","2","","","3542","57","3","3","lose","go","0"
"pit-trial","136","943124","0.0-62.0","battery-v0.2","","""event"",""trial"",""time""
""fullscreenenter"",""1"",""1317""
","
","
","""event"",""trial"",""time""
""fullscreenenter"",""1"",""1317""
","
","","","-1","","","15","3542","390","m","elianto","#f73b6a7A","-1","-1","1","0","[]","0","2","","","3542","58","0","4","lose","no-go","0"
"pit-trial","137","946857","0.0-63.0","battery-v0.2","","""event"",""trial"",""time""
""fullscreenenter"",""1"",""1317""
","
","
","""event"",""trial"",""time""
""fullscreenenter"",""1"",""1317""
","
","","","877.5999999046326","","","15","3542","390","z","elianto","#3366ff99","-1"," ","0","0","[1728.5999999046326]","1","2","","","3542","59","4","2","win","no-go","0"
"pit-trial","138","950505","0.0-64.0","battery-v0.2","","""event"",""trial"",""time""
""fullscreenenter"",""1"",""1317""
","
","
","""event"",""trial"",""time""
""fullscreenenter"",""1"",""1317""
","
","","","792","","","15","3542","390","r","elianto","#3366ff99"," "," ","1","+10","[1643.4000000953674]","1","2","","","3542","60","1","1","win","go","0"
"pit-trial","139","954910","0.0-65.0","battery-v0.2","","""event"",""trial"",""time""
""fullscreenenter"",""1"",""1317""
","
","
","""event"",""trial"",""time""
""fullscreenenter"",""1"",""1317""
","
","","","1550","","","15","3542","390","y","elianto","#f73b6a7A","-1"," ","0","-10","[2400.199999809265]","1","2","","","3542","61","2","4","lose","no-go","0"
"pit-trial","140","958669","0.0-66.0","battery-v0.2","","""event"",""trial"",""time""
""fullscreenenter"",""1"",""1317""
","
","
","""event"",""trial"",""time""
""fullscreenenter"",""1"",""1317""
","
","","","900.4000000953674","","","15","3542","390","r","elianto","#3366ff99"," "," ","1","+10","[1752]","1","2","","","3542","62","1","1","win","go","0"
"pit-trial","141","963529","0.0-67.0","battery-v0.2","","""event"",""trial"",""time""
""fullscreenenter"",""1"",""1317""
","
","
","""event"",""trial"",""time""
""fullscreenenter"",""1"",""1317""
","
","","","-1","","","15","3542","390","h","elianto","#f73b6a7A"," ","-1","0","0","[]","0","2","","","3542","63","3","3","lose","go","1"
"pit-trial","142","967038","0.0-68.0","battery-v0.2","","""event"",""trial"",""time""
""fullscreenenter"",""1"",""1317""
","
","
","""event"",""trial"",""time""
""fullscreenenter"",""1"",""1317""
","
","","","654.0999999046326","","","15","3542","390","z","elianto","#3366ff99","-1"," ","0","0","[1506.3999998569489]","1","2","","","3542","64","4","2","win","no-go","0"
"pit-trial","143","971897","0.0-69.0","battery-v0.2","","""event"",""trial"",""time""
""fullscreenenter"",""1"",""1317""
","
","
","""event"",""trial"",""time""
""fullscreenenter"",""1"",""1317""
","
","","","-1","","","15","3542","390","z","elianto","#3366ff99","-1","-1","1","0","[]","0","2","","","3542","65","4","2","win","no-go","1"
"pit-trial","144","975742","0.0-70.0","battery-v0.2","","""event"",""trial"",""time""
""fullscreenenter"",""1"",""1317""
","
","
","""event"",""trial"",""time""
""fullscreenenter"",""1"",""1317""
","
","","","992.7000000476837","","","15","3542","390","h","elianto","#f73b6a7A"," "," ","1","0","[1843.7000000476837]","1","2","","","3542","66","3","3","lose","go","0"
"pit-trial","145","980601","0.0-71.0","battery-v0.2","","""event"",""trial"",""time""
""fullscreenenter"",""1"",""1317""
","
","
","""event"",""trial"",""time""
""fullscreenenter"",""1"",""1317""
","
","","","-1","","","15","3542","390","y","elianto","#f73b6a7A","-1","-1","1","0","[]","0","2","","","3542","67","2","4","lose","no-go","0"
"pit-trial","146","984298","0.0-72.0","battery-v0.2","","""event"",""trial"",""time""
""fullscreenenter"",""1"",""1317""
","
","
","""event"",""trial"",""time""
""fullscreenenter"",""1"",""1317""
","
","","","841.6999998092651","","","15","3542","390","r","elianto","#3366ff99"," "," ","1","+10","[1691.5999999046326]","1","2","","","3542","68","1","1","win","go","0"
"pit-trial","147","988231","0.0-73.0","battery-v0.2","","""event"",""trial"",""time""
""fullscreenenter"",""1"",""1317""
","
","
","""event"",""trial"",""time""
""fullscreenenter"",""1"",""1317""
","
","","","1078","","","15","3542","390","h","elianto","#f73b6a7A"," "," ","1","0","[1928.1000001430511]","1","2","","","3542","69","3","3","lose","go","0"
"pit-trial","148","991764","0.0-74.0","battery-v0.2","","""event"",""trial"",""time""
""fullscreenenter"",""1"",""1317""
","
","
","""event"",""trial"",""time""
""fullscreenenter"",""1"",""1317""
","
","","","675.5","","","15","3542","390","r","elianto","#3366ff99"," "," ","1","0","[1527.0999999046326]","1","2","","","3542","70","1","1","win","go","1"
"pit-trial","149","995348","0.0-75.0","battery-v0.2","","""event"",""trial"",""time""
""fullscreenenter"",""1"",""1317""
","
","
","""event"",""trial"",""time""
""fullscreenenter"",""1"",""1317""
","
","","","727.9000000953674","","","15","3542","390","z","elianto","#3366ff99","-1"," ","0","0","[1578.7000000476837]","1","2","","","3542","71","4","2","win","no-go","0"
"pit-trial","150","999151","0.0-76.0","battery-v0.2","","""event"",""trial"",""time""
""fullscreenenter"",""1"",""1317""
","
","
","""event"",""trial"",""time""
""fullscreenenter"",""1"",""1317""
","
","","","944.9000000953674","","","15","3542","390","c","elianto","#3366ff99"," "," ","1","+10","[1795.7000000476837]","1","2","","","3542","72","5","1","win","go","0"
"pit-trial","151","1003241","0.0-77.0","battery-v0.2","","""event"",""trial"",""time""
""fullscreenenter"",""1"",""1317""
","
","
","""event"",""trial"",""time""
""fullscreenenter"",""1"",""1317""
","
","","","1236.2999999523163","","","15","3542","390","r","elianto","#3366ff99"," "," ","1","+10","[2086.399999856949]","1","2","","","3542","73","1","1","win","go","0"
"pit-trial","152","1007097","0.0-78.0","battery-v0.2","","""event"",""trial"",""time""
""fullscreenenter"",""1"",""1317""
","
","
","""event"",""trial"",""time""
""fullscreenenter"",""1"",""1317""
","
","","","999","","","15","3542","390","h","elianto","#f73b6a7A"," "," ","1","-10","[1850.7999999523163]","1","2","","","3542","74","3","3","lose","go","1"
"pit-trial","153","1010958","0.0-79.0","battery-v0.2","","""event"",""trial"",""time""
""fullscreenenter"",""1"",""1317""
","
","
","""event"",""trial"",""time""
""fullscreenenter"",""1"",""1317""
","
","","","1005.2000000476837","","","15","3542","390","c","elianto","#3366ff99"," "," ","1","+10","[1855.5]","1","2","","","3542","75","5","1","win","go","0"
"pit-trial","154","1014900","0.0-80.0","battery-v0.2","","""event"",""trial"",""time""
""fullscreenenter"",""1"",""1317""
","
","
","""event"",""trial"",""time""
""fullscreenenter"",""1"",""1317""
","
","","","1086.7999999523163","","","15","3542","390","z","elianto","#3366ff99","-1"," ","0","0","[1938.1999998092651]","1","2","","","3542","76","4","2","win","no-go","0"
"pit-trial","155","1018788","0.0-81.0","battery-v0.2","","""event"",""trial"",""time""
""fullscreenenter"",""1"",""1317""
","
","
","""event"",""trial"",""time""
""fullscreenenter"",""1"",""1317""
","
","","","1031.9000000953674","","","15","3542","390","h","elianto","#f73b6a7A"," "," ","1","0","[1882.1000001430511]","1","2","","","3542","77","3","3","lose","go","0"
"pit-trial","156","1023645","0.0-82.0","battery-v0.2","","""event"",""trial"",""time""
""fullscreenenter"",""1"",""1317""
","
","
","""event"",""trial"",""time""
""fullscreenenter"",""1"",""1317""
","
","","","-1","","","15","3542","390","z","elianto","#3366ff99","-1","-1","1","0","[]","0","2","","","3542","78","4","2","win","no-go","1"
"pit-trial","157","1027236","0.0-83.0","battery-v0.2","","""event"",""trial"",""time""
""fullscreenenter"",""1"",""1317""
","
","
","""event"",""trial"",""time""
""fullscreenenter"",""1"",""1317""
","
","","","734.4000000953674","","","15","3542","390","c","elianto","#3366ff99"," "," ","1","+10","[1585.5]","1","2","","","3542","79","5","1","win","go","0"
"pit-trial","158","1032094","0.0-84.0","battery-v0.2","","""event"",""trial"",""time""
""fullscreenenter"",""1"",""1317""
","
","
","""event"",""trial"",""time""
""fullscreenenter"",""1"",""1317""
","
","","","-1","","","15","3542","390","b","elianto","#f73b6a7A","-1","-1","1","0","[]","0","2","","","3542","80","6","4","lose","no-go","0"
"pit-trial","159","1036952","0.0-85.0","battery-v0.2","","""event"",""trial"",""time""
""fullscreenenter"",""1"",""1317""
","
","
","""event"",""trial"",""time""
""fullscreenenter"",""1"",""1317""
","
","","","-1","","","15","3542","390","b","elianto","#f73b6a7A","-1","-1","1","0","[]","0","2","","","3542","81","6","4","lose","no-go","0"
"pit-trial","160","1041811","0.0-86.0","battery-v0.2","","""event"",""trial"",""time""
""fullscreenenter"",""1"",""1317""
","
","
","""event"",""trial"",""time""
""fullscreenenter"",""1"",""1317""
","
","","","-1","","","15","3542","390","t","elianto","#f73b6a7A"," ","-1","0","0","[]","0","2","","","3542","82","7","3","lose","go","1"
"pit-trial","161","1045460","0.0-87.0","battery-v0.2","","""event"",""trial"",""time""
""fullscreenenter"",""1"",""1317""
","
","
","""event"",""trial"",""time""
""fullscreenenter"",""1"",""1317""
","
","","","792.4000000953674","","","15","3542","390","c","elianto","#3366ff99"," "," ","1","0","[1644.3999998569489]","1","2","","","3542","83","5","1","win","go","1"
"pit-trial","162","1049076","0.0-88.0","battery-v0.2","","""event"",""trial"",""time""
""fullscreenenter"",""1"",""1317""
","
","
","""event"",""trial"",""time""
""fullscreenenter"",""1"",""1317""
","
","","","760.7000000476837","","","15","3542","390","z","elianto","#3366ff99","-1"," ","0","0","[1613.2999999523163]","1","2","","","3542","84","4","2","win","no-go","0"
"pit-trial","163","1053934","0.0-89.0","battery-v0.2","","""event"",""trial"",""time""
""fullscreenenter"",""1"",""1317""
","
","
","""event"",""trial"",""time""
""fullscreenenter"",""1"",""1317""
","
","","","-1","","","15","3542","390","z","elianto","#3366ff99","-1","-1","1","0","[]","0","2","","","3542","85","4","2","win","no-go","1"
"pit-trial","164","1057849","0.0-90.0","battery-v0.2","","""event"",""trial"",""time""
""fullscreenenter"",""1"",""1317""
","
","
","""event"",""trial"",""time""
""fullscreenenter"",""1"",""1317""
","
","","","1058.2999999523163","","","15","3542","390","b","elianto","#f73b6a7A","-1"," ","0","0","[1909]","1","2","","","3542","86","6","4","lose","no-go","1"
"pit-trial","165","1061471","0.0-91.0","battery-v0.2","","""event"",""trial"",""time""
""fullscreenenter"",""1"",""1317""
","
","
","""event"",""trial"",""time""
""fullscreenenter"",""1"",""1317""
","
","","","767.5999999046326","","","15","3542","390","c","elianto","#3366ff99"," "," ","1","+10","[1617.5999999046326]","1","2","","","3542","87","5","1","win","go","0"
"pit-trial","166","1065463","0.0-92.0","battery-v0.2","","""event"",""trial"",""time""
""fullscreenenter"",""1"",""1317""
","
","
","""event"",""trial"",""time""
""fullscreenenter"",""1"",""1317""
","
","","","1136.0999999046326","","","15","3542","390","t","elianto","#f73b6a7A"," "," ","1","0","[1986.2999999523163]","1","2","","","3542","88","7","3","lose","go","0"
"pit-trial","167","1069177","0.0-93.0","battery-v0.2","","""event"",""trial"",""time""
""fullscreenenter"",""1"",""1317""
","
","
","""event"",""trial"",""time""
""fullscreenenter"",""1"",""1317""
","
","","","857.9000000953674","","","15","3542","390","c","elianto","#3366ff99"," "," ","1","+10","[1709.3000001907349]","1","2","","","3542","89","5","1","win","go","0"
"pit-trial","168","1073124","0.0-94.0","battery-v0.2","","""event"",""trial"",""time""
""fullscreenenter"",""1"",""1317""
","
","
","""event"",""trial"",""time""
""fullscreenenter"",""1"",""1317""
","
","","","1092.0999999046326","","","15","3542","390","t","elianto","#f73b6a7A"," "," ","1","0","[1943.2000000476837]","1","2","","","3542","90","7","3","lose","go","0"
"pit-trial","169","1076857","0.0-95.0","battery-v0.2","","""event"",""trial"",""time""
""fullscreenenter"",""1"",""1317""
","
","
","""event"",""trial"",""time""
""fullscreenenter"",""1"",""1317""
","
","","","875.5999999046326","","","15","3542","390","b","elianto","#f73b6a7A","-1"," ","0","-10","[1727.5]","1","2","","","3542","91","6","4","lose","no-go","0"
"pit-trial","170","1081716","0.0-96.0","battery-v0.2","","""event"",""trial"",""time""
""fullscreenenter"",""1"",""1317""
","
","
","""event"",""trial"",""time""
""fullscreenenter"",""1"",""1317""
","
","","","-1","","","15","3542","390","z","elianto","#3366ff99","-1","-1","1","+10","[]","0","2","","","3542","92","4","2","win","no-go","0"
"pit-trial","171","1085364","0.0-97.0","battery-v0.2","","""event"",""trial"",""time""
""fullscreenenter"",""1"",""1317""
","
","
","""event"",""trial"",""time""
""fullscreenenter"",""1"",""1317""
","
","","","795.2999999523163","","","15","3542","390","b","elianto","#f73b6a7A","-1"," ","0","0","[1645.5]","1","2","","","3542","93","6","4","lose","no-go","1"
"pit-trial","172","1089508","0.0-98.0","battery-v0.2","","""event"",""trial"",""time""
""fullscreenenter"",""1"",""1317""
","
","
","""event"",""trial"",""time""
""fullscreenenter"",""1"",""1317""
","
","","","1287.2000000476837","","","15","3542","390","c","elianto","#3366ff99"," "," ","1","+10","[2137.5999999046326]","1","2","","","3542","94","5","1","win","go","0"
"pit-trial","173","1094366","0.0-99.0","battery-v0.2","","""event"",""trial"",""time""
""fullscreenenter"",""1"",""1317""
","
","
","""event"",""trial"",""time""
""fullscreenenter"",""1"",""1317""
","
","","","-1","","","15","3542","390","t","elianto","#f73b6a7A"," ","-1","0","-10","[]","0","2","","","3542","95","7","3","lose","go","0"
"pit-trial","174","1097887","0.0-100.0","battery-v0.2","","""event"",""trial"",""time""
""fullscreenenter"",""1"",""1317""
","
","
","""event"",""trial"",""time""
""fullscreenenter"",""1"",""1317""
","
","","","667.6999998092651","","","15","3542","390","f","elianto","#3366ff99","-1"," ","0","0","[1518.1999998092651]","1","2","","","3542","96","8","2","win","no-go","0"
"pit-trial","175","1101779","0.0-101.0","battery-v0.2","","""event"",""trial"",""time""
""fullscreenenter"",""1"",""1317""
","
","
","""event"",""trial"",""time""
""fullscreenenter"",""1"",""1317""
","
","","","1037.0999999046326","","","15","3542","390","t","elianto","#f73b6a7A"," "," ","1","0","[1888]","1","2","","","3542","97","7","3","lose","go","0"
"pit-trial","176","1106635","0.0-102.0","battery-v0.2","","""event"",""trial"",""time""
""fullscreenenter"",""1"",""1317""
","
","
","""event"",""trial"",""time""
""fullscreenenter"",""1"",""1317""
","
","","","-1","","","15","3542","390","b","elianto","#f73b6a7A","-1","-1","1","0","[]","0","2","","","3542","98","6","4","lose","no-go","0"
"pit-trial","177","1110379","0.0-103.0","battery-v0.2","","""event"",""trial"",""time""
""fullscreenenter"",""1"",""1317""
","
","
","""event"",""trial"",""time""
""fullscreenenter"",""1"",""1317""
","
","","","890","","","15","3542","390","f","elianto","#3366ff99","-1"," ","0","0","[1740.2000000476837]","1","2","","","3542","99","8","2","win","no-go","0"
"pit-trial","178","1113846","0.0-104.0","battery-v0.2","","""event"",""trial"",""time""
""fullscreenenter"",""1"",""1317""
","
","
","""event"",""trial"",""time""
""fullscreenenter"",""1"",""1317""
","
","","","611.2000000476837","","","15","3542","390","c","elianto","#3366ff99"," "," ","1","+10","[1461.2999999523163]","1","2","","","3542","100","5","1","win","go","0"
"pit-trial","179","1117481","0.0-105.0","battery-v0.2","","""event"",""trial"",""time""
""fullscreenenter"",""1"",""1317""
","
","
","""event"",""trial"",""time""
""fullscreenenter"",""1"",""1317""
","
","","","780.5","","","15","3542","390","c","elianto","#3366ff99"," "," ","1","+10","[1631.5]","1","2","","","3542","101","5","1","win","go","0"
"pit-trial","180","1122340","0.0-106.0","battery-v0.2","","""event"",""trial"",""time""
""fullscreenenter"",""1"",""1317""
","
","
","""event"",""trial"",""time""
""fullscreenenter"",""1"",""1317""
","
","","","-1","","","15","3542","390","n","elianto","#3366ff99","-1","-1","1","0","[]","0","2","","","3542","102","9","2","win","no-go","1"
"pit-trial","181","1126041","0.0-107.0","battery-v0.2","","""event"",""trial"",""time""
""fullscreenenter"",""1"",""1317""
","
","
","""event"",""trial"",""time""
""fullscreenenter"",""1"",""1317""
","
","","","843.7000000476837","","","15","3542","390","b","elianto","#f73b6a7A","-1"," ","0","-10","[1695.7999999523163]","1","2","","","3542","103","6","4","lose","no-go","0"
"pit-trial","182","1129614","0.0-108.0","battery-v0.2","","""event"",""trial"",""time""
""fullscreenenter"",""1"",""1317""
","
","
","""event"",""trial"",""time""
""fullscreenenter"",""1"",""1317""
","
","","","716.4000000953674","","","15","3542","390","f","elianto","#3366ff99","-1"," ","0","0","[1568.5]","1","2","","","3542","104","8","2","win","no-go","0"
"pit-trial","183","1133429","0.0-109.0","battery-v0.2","","""event"",""trial"",""time""
""fullscreenenter"",""1"",""1317""
","
","
","""event"",""trial"",""time""
""fullscreenenter"",""1"",""1317""
","
","","","961","","","15","3542","390","b","elianto","#f73b6a7A","-1"," ","0","-10","[1811.2999999523163]","1","2","","","3542","105","6","4","lose","no-go","0"
"pit-trial","184","1137236","0.0-110.0","battery-v0.2","","""event"",""trial"",""time""
""fullscreenenter"",""1"",""1317""
","
","
","""event"",""trial"",""time""
""fullscreenenter"",""1"",""1317""
","
","","","952.4000000953674","","","15","3542","390","n","elianto","#3366ff99","-1"," ","0","0","[1802.7000000476837]","1","2","","","3542","106","9","2","win","no-go","0"
"pit-trial","185","1142094","0.0-111.0","battery-v0.2","","""event"",""trial"",""time""
""fullscreenenter"",""1"",""1317""
","
","
","""event"",""trial"",""time""
""fullscreenenter"",""1"",""1317""
","
","","","-1","","","15","3542","390","f","elianto","#3366ff99","-1","-1","1","+10","[]","0","2","","","3542","107","8","2","win","no-go","0"
"pit-trial","186","1146340","0.0-112.0","battery-v0.2","","""event"",""trial"",""time""
""fullscreenenter"",""1"",""1317""
","
","
","""event"",""trial"",""time""
""fullscreenenter"",""1"",""1317""
","
","","","1392.6000001430511","","","15","3542","390","c","elianto","#3366ff99"," "," ","1","+10","[2243.5]","1","2","","","3542","108","5","1","win","go","0"
"pit-trial","187","1150057","0.0-113.0","battery-v0.2","","""event"",""trial"",""time""
""fullscreenenter"",""1"",""1317""
","
","
","""event"",""trial"",""time""
""fullscreenenter"",""1"",""1317""
","
","","","858.9000000953674","","","15","3542","390","c","elianto","#3366ff99"," "," ","1","+10","[1711.0999999046326]","1","2","","","3542","109","5","1","win","go","0"
"pit-trial","188","1154916","0.0-114.0","battery-v0.2","","""event"",""trial"",""time""
""fullscreenenter"",""1"",""1317""
","
","
","""event"",""trial"",""time""
""fullscreenenter"",""1"",""1317""
","
","","","-1","","","15","3542","390","f","elianto","#3366ff99","-1","-1","1","0","[]","0","2","","","3542","110","8","2","win","no-go","1"
"pit-trial","189","1158537","0.0-115.0","battery-v0.2","","""event"",""trial"",""time""
""fullscreenenter"",""1"",""1317""
","
","
","""event"",""trial"",""time""
""fullscreenenter"",""1"",""1317""
","
","","","768.5999999046326","","","15","3542","390","n","elianto","#3366ff99","-1"," ","0","+10","[1618.9000000953674]","1","2","","","3542","111","9","2","win","no-go","1"
"pit-trial","190","1163342","0.0-116.0","battery-v0.2","","""event"",""trial"",""time""
""fullscreenenter"",""1"",""1317""
","
","
","""event"",""trial"",""time""
""fullscreenenter"",""1"",""1317""
","
","","","1948.8000001907349","","","15","3542","390","b","elianto","#f73b6a7A","-1"," ","0","-10","[2799]","1","2","","","3542","112","6","4","lose","no-go","0"
"pit-trial","191","1166980","0.0-117.0","battery-v0.2","","""event"",""trial"",""time""
""fullscreenenter"",""1"",""1317""
","
","
","""event"",""trial"",""time""
""fullscreenenter"",""1"",""1317""
","
","","","780.2000000476837","","","15","3542","390","c","elianto","#3366ff99"," "," ","1","+10","[1631.5999999046326]","1","2","","","3542","113","5","1","win","go","0"
"pit-trial","192","1171838","0.0-118.0","battery-v0.2","","""event"",""trial"",""time""
""fullscreenenter"",""1"",""1317""
","
","
","""event"",""trial"",""time""
""fullscreenenter"",""1"",""1317""
","
","","","-1","","","15","3542","390","f","elianto","#3366ff99","-1","-1","1","+10","[]","0","2","","","3542","114","8","2","win","no-go","0"
"pit-trial","193","1176697","0.0-119.0","battery-v0.2","","""event"",""trial"",""time""
""fullscreenenter"",""1"",""1317""
","
","
","""event"",""trial"",""time""
""fullscreenenter"",""1"",""1317""
","
","","","-1","","","15","3542","390","t","elianto","#f73b6a7A"," ","-1","0","-10","[]","0","2","","","3542","115","7","3","lose","go","0"
"pit-trial","194","1181556","0.0-120.0","battery-v0.2","","""event"",""trial"",""time""
""fullscreenenter"",""1"",""1317""
","
","
","""event"",""trial"",""time""
""fullscreenenter"",""1"",""1317""
","
","","","-1","","","15","3542","390","n","elianto","#3366ff99","-1","-1","1","+10","[]","0","2","","","3542","116","9","2","win","no-go","0"
"pit-trial","195","1185502","0.0-121.0","battery-v0.2","","""event"",""trial"",""time""
""fullscreenenter"",""1"",""1317""
","
","
","""event"",""trial"",""time""
""fullscreenenter"",""1"",""1317""
","
","","","1091.6000001430511","","","15","3542","390","b","elianto","#f73b6a7A","-1"," ","0","-10","[1943.1000001430511,3374.100000143051]","2","2","","","3542","117","6","4","lose","no-go","0"
"pit-trial","196","1189631","0.0-122.0","battery-v0.2","","""event"",""trial"",""time""
""fullscreenenter"",""1"",""1317""
","
","
","""event"",""trial"",""time""
""fullscreenenter"",""1"",""1317""
","
","","","1271.5","","","15","3542","390","f","elianto","#3366ff99","-1"," ","0","+10","[2122.5]","1","2","","","3542","118","8","2","win","no-go","1"
"pit-trial","197","1193193","0.0-123.0","battery-v0.2","","""event"",""trial"",""time""
""fullscreenenter"",""1"",""1317""
","
","
","""event"",""trial"",""time""
""fullscreenenter"",""1"",""1317""
","
","","","708.8999998569489","","","15","3542","390","c","elianto","#3366ff99"," "," ","1","0","[1559.3999998569489]","1","2","","","3542","119","5","1","win","go","1"
"pit-trial","198","1197161","0.0-124.0","battery-v0.2","","""event"",""trial"",""time""
""fullscreenenter"",""1"",""1317""
","
","
","""event"",""trial"",""time""
""fullscreenenter"",""1"",""1317""
","
","","","1114.5999999046326","","","15","3542","390","n","elianto","#3366ff99","-1"," ","0","+10","[1965.9000000953674]","1","2","","","3542","120","9","2","win","no-go","1"
"pit-trial","199","1201081","0.0-125.0","battery-v0.2","","""event"",""trial"",""time""
""fullscreenenter"",""1"",""1317""
","
","
","""event"",""trial"",""time""
""fullscreenenter"",""1"",""1317""
","
","","","1066.5","","","15","3542","390","f","elianto","#3366ff99","-1"," ","0","0","[1916.6000001430511]","1","2","","","3542","121","8","2","win","no-go","0"
"pit-trial","200","1204766","0.0-126.0","battery-v0.2","","""event"",""trial"",""time""
""fullscreenenter"",""1"",""1317""
","
","
","""event"",""trial"",""time""
""fullscreenenter"",""1"",""1317""
","
","","","832.4000000953674","","","15","3542","390","t","elianto","#f73b6a7A"," "," ","1","0","[1683.2999999523163]","1","2","","","3542","122","7","3","lose","go","0"
"pit-trial","201","1208724","0.0-127.0","battery-v0.2","","""event"",""trial"",""time""
""fullscreenenter"",""1"",""1317""
","
","
","""event"",""trial"",""time""
""fullscreenenter"",""1"",""1317""
","
","","","1102.5999999046326","","","15","3542","390","c","elianto","#3366ff99"," "," ","1","0","[1953.0999999046326]","1","2","","","3542","123","5","1","win","go","1"
"pit-trial","202","1212729","0.0-128.0","battery-v0.2","","""event"",""trial"",""time""
""fullscreenenter"",""1"",""1317""
","
","
","""event"",""trial"",""time""
""fullscreenenter"",""1"",""1317""
","
","","","1147.8999998569489","","","15","3542","390","n","elianto","#3366ff99","-1"," ","0","+10","[2000.5]","1","2","","","3542","124","9","2","win","no-go","1"
"pit-trial","203","1216404","0.0-129.0","battery-v0.2","","""event"",""trial"",""time""
""fullscreenenter"",""1"",""1317""
","
","
","""event"",""trial"",""time""
""fullscreenenter"",""1"",""1317""
","
","","","820.7999999523163","","","15","3542","390","b","elianto","#f73b6a7A","-1"," ","0","-10","[1670.8999998569489]","1","2","","","3542","125","6","4","lose","no-go","0"
"pit-trial","204","1220334","0.0-130.0","battery-v0.2","","""event"",""trial"",""time""
""fullscreenenter"",""1"",""1317""
","
","
","""event"",""trial"",""time""
""fullscreenenter"",""1"",""1317""
","
","","","1074.7000000476837","","","15","3542","390","n","elianto","#3366ff99","-1"," ","0","0","[1926.7999999523163]","1","2","","","3542","126","9","2","win","no-go","0"
"pit-trial","205","1224094","0.0-131.0","battery-v0.2","","""event"",""trial"",""time""
""fullscreenenter"",""1"",""1317""
","
","
","""event"",""trial"",""time""
""fullscreenenter"",""1"",""1317""
","
","","","905.4000000953674","","","15","3542","390","f","elianto","#3366ff99","-1"," ","0","0","[1755.2999999523163]","1","2","","","3542","127","8","2","win","no-go","0"
"pit-trial","206","1228025","0.0-132.0","battery-v0.2","","""event"",""trial"",""time""
""fullscreenenter"",""1"",""1317""
","
","
","""event"",""trial"",""time""
""fullscreenenter"",""1"",""1317""
","
","","","1076.3999998569489","","","15","3542","390","t","elianto","#f73b6a7A"," "," ","1","-10","[1926.5]","1","2","","","3542","128","7","3","lose","go","1"
"pit-trial","207","1232884","0.0-133.0","battery-v0.2","","""event"",""trial"",""time""
""fullscreenenter"",""1"",""1317""
","
","
","""event"",""trial"",""time""
""fullscreenenter"",""1"",""1317""
","
","","","-1","","","15","3542","390","t","elianto","#f73b6a7A"," ","-1","0","0","[]","0","2","","","3542","129","7","3","lose","go","1"
"pit-trial","208","1236382","0.0-134.0","battery-v0.2","","""event"",""trial"",""time""
""fullscreenenter"",""1"",""1317""
","
","
","""event"",""trial"",""time""
""fullscreenenter"",""1"",""1317""
","
","","","644.6000001430511","","","15","3542","390","f","elianto","#3366ff99","-1"," ","0","0","[1494.7000000476837]","1","2","","","3542","130","8","2","win","no-go","0"
"pit-trial","209","1241241","0.0-135.0","battery-v0.2","","""event"",""trial"",""time""
""fullscreenenter"",""1"",""1317""
","
","
","""event"",""trial"",""time""
""fullscreenenter"",""1"",""1317""
","
","","","-1","","","15","3542","390","b","elianto","#f73b6a7A","-1","-1","1","0","[]","0","2","","","3542","131","6","4","lose","no-go","0"
"pit-trial","210","1244711","0.0-136.0","battery-v0.2","","""event"",""trial"",""time""
""fullscreenenter"",""1"",""1317""
","
","
","""event"",""trial"",""time""
""fullscreenenter"",""1"",""1317""
","
","","","612.9000000953674","","","15","3542","390","n","elianto","#3366ff99","-1"," ","0","+10","[1464.0999999046326]","1","2","","","3542","132","9","2","win","no-go","1"
"pit-trial","211","1249572","0.0-137.0","battery-v0.2","","""event"",""trial"",""time""
""fullscreenenter"",""1"",""1317""
","
","
","""event"",""trial"",""time""
""fullscreenenter"",""1"",""1317""
","
","","","-1","","","15","3542","390","t","elianto","#f73b6a7A"," ","-1","0","-10","[]","0","2","","","3542","133","7","3","lose","go","0"
"pit-trial","212","1254430","0.0-138.0","battery-v0.2","","""event"",""trial"",""time""
""fullscreenenter"",""1"",""1317""
","
","
","""event"",""trial"",""time""
""fullscreenenter"",""1"",""1317""
","
","","","-1","","","15","3542","390","f","elianto","#3366ff99","-1","-1","1","0","[]","0","2","","","3542","134","8","2","win","no-go","1"
"pit-trial","213","1258377","0.0-139.0","battery-v0.2","","""event"",""trial"",""time""
""fullscreenenter"",""1"",""1317""
","
","
","""event"",""trial"",""time""
""fullscreenenter"",""1"",""1317""
","
","","","1092.2999999523163","","","15","3542","390","n","elianto","#3366ff99","-1"," ","0","+10","[1942.5]","1","2","","","3542","135","9","2","win","no-go","1"
"pit-trial","214","1262345","0.0-140.0","battery-v0.2","","""event"",""trial"",""time""
""fullscreenenter"",""1"",""1317""
","
","
","""event"",""trial"",""time""
""fullscreenenter"",""1"",""1317""
","
","","","1113.7000000476837","","","15","3542","390","b","elianto","#f73b6a7A","-1"," ","0","-10","[1964.7000000476837]","1","2","","","3542","136","6","4","lose","no-go","0"
"pit-trial","215","1266068","0.0-141.0","battery-v0.2","","""event"",""trial"",""time""
""fullscreenenter"",""1"",""1317""
","
","
","""event"",""trial"",""time""
""fullscreenenter"",""1"",""1317""
","
","","","870.5999999046326","","","15","3542","390","n","elianto","#3366ff99","-1"," ","0","0","[1720.7999999523163]","1","2","","","3542","137","9","2","win","no-go","0"
"pit-trial","216","1269049","0.0-142.0","battery-v0.2","","""event"",""trial"",""time""
""fullscreenenter"",""1"",""1317""
","
","
","""event"",""trial"",""time""
""fullscreenenter"",""1"",""1317""
","
","","","123.5","","","15","3542","390","t","elianto","#f73b6a7A"," "," ","1","0","[975.0999999046326]","1","2","","","3542","138","7","3","lose","go","0"
"pit-trial","217","1272980","0.0-143.0","battery-v0.2","","""event"",""trial"",""time""
""fullscreenenter"",""1"",""1317""
","
","
","""event"",""trial"",""time""
""fullscreenenter"",""1"",""1317""
","
","","","1072.5","","","15","3542","390","b","elianto","#f73b6a7A","-1"," ","0","-10","[1923.3999998569489]","1","2","","","3542","139","6","4","lose","no-go","0"
"pit-trial","218","1277838","0.0-144.0","battery-v0.2","","""event"",""trial"",""time""
""fullscreenenter"",""1"",""1317""
","
","
","""event"",""trial"",""time""
""fullscreenenter"",""1"",""1317""
","
","","","-1","","","15","3542","390","f","elianto","#3366ff99","-1","-1","1","+10","[]","0","2","","","3542","140","8","2","win","no-go","0"
"pit-instructions","219","1330737","0.0-145.0","battery-v0.2","","""event"",""trial"",""time""
""fullscreenenter"",""1"",""1317""
","
","
","""event"",""trial"",""time""
""fullscreenenter"",""1"",""1317""
","
","","[{""page_index"":0,""viewing_time"":23614.400000095367},{""page_index"":1,""viewing_time"":29283}]","52897.799999952316","","","","","","","","","","","","","","","","","","","","","","","",""
"pit-trial","220","1335596","0.0-146.0","battery-v0.2","","""event"",""trial"",""time""
""fullscreenenter"",""1"",""1317""
","
","
","""event"",""trial"",""time""
""fullscreenenter"",""1"",""1317""
","
","","","-1","","","15","3542","390","j","elianto","#f73b6a7A"," ","-1","0","-10","[]","0","3","","","3542","141","0","3","lose","go","0"
"pit-trial","221","1339076","0.0-147.0","battery-v0.2","","""event"",""trial"",""time""
""fullscreenenter"",""1"",""1317""
","
","
","""event"",""trial"",""time""
""fullscreenenter"",""1"",""1317""
","
","","","623.9000000953674","","","15","3542","390","d","elianto","#3366ff99","-1"," ","0","0","[1474]","1","3","","","3542","142","1","2","win","no-go","0"
"pit-trial","222","1343937","0.0-148.0","battery-v0.2","","""event"",""trial"",""time""
""fullscreenenter"",""1"",""1317""
","
","
","""event"",""trial"",""time""
""fullscreenenter"",""1"",""1317""
","
","","","-1","","","15","3542","390","w","elianto","#f73b6a7A","-1","-1","1","-10","[]","0","3","","","3542","143","3","4","lose","no-go","1"
"pit-trial","223","1347334","0.0-149.0","battery-v0.2","","""event"",""trial"",""time""
""fullscreenenter"",""1"",""1317""
","
","
","""event"",""trial"",""time""
""fullscreenenter"",""1"",""1317""
","
","","","539.2999999523163","","","15","3542","390","e","elianto","#f73b6a7A"," "," ","1","0","[1391.5]","1","3","","","3542","144","2","3","lose","go","0"
"pit-trial","224","1350934","0.0-150.0","battery-v0.2","","""event"",""trial"",""time""
""fullscreenenter"",""1"",""1317""
","
","
","""event"",""trial"",""time""
""fullscreenenter"",""1"",""1317""
","
","","","745","","","15","3542","390","e","elianto","#f73b6a7A"," "," ","1","0","[1596.8000001907349]","1","3","","","3542","145","2","3","lose","go","0"
"pit-trial","225","1355297","0.0-151.0","battery-v0.2","","""event"",""trial"",""time""
""fullscreenenter"",""1"",""1317""
","
","
","""event"",""trial"",""time""
""fullscreenenter"",""1"",""1317""
","
","","","1505","","","15","3542","390","j","elianto","#f73b6a7A"," "," ","1","-10","[2356.4000000953674]","1","3","","","3542","146","0","3","lose","go","1"
"pit-trial","226","1358897","0.0-152.0","battery-v0.2","","""event"",""trial"",""time""
""fullscreenenter"",""1"",""1317""
","
","
","""event"",""trial"",""time""
""fullscreenenter"",""1"",""1317""
","
","","","744.2000000476837","","","15","3542","390","w","elianto","#f73b6a7A","-1"," ","0","-10","[1595.1000001430511]","1","3","","","3542","147","3","4","lose","no-go","0"
"pit-trial","227","1362460","0.0-153.0","battery-v0.2","","""event"",""trial"",""time""
""fullscreenenter"",""1"",""1317""
","
","
","""event"",""trial"",""time""
""fullscreenenter"",""1"",""1317""
","
","","","706.5999999046326","","","15","3542","390","d","elianto","#3366ff99","-1"," ","0","+10","[1556.8999998569489]","1","3","","","3542","148","1","2","win","no-go","1"
"pit-trial","228","1367318","0.0-154.0","battery-v0.2","","""event"",""trial"",""time""
""fullscreenenter"",""1"",""1317""
","
","
","""event"",""trial"",""time""
""fullscreenenter"",""1"",""1317""
","
","","","-1","","","15","3542","390","e","elianto","#f73b6a7A"," ","-1","0","-10","[]","0","3","","","3542","149","2","3","lose","go","0"
"pit-trial","229","1370742","0.0-155.0","battery-v0.2","","""event"",""trial"",""time""
""fullscreenenter"",""1"",""1317""
","
","
","""event"",""trial"",""time""
""fullscreenenter"",""1"",""1317""
","
","","","567.5","","","15","3542","390","d","elianto","#3366ff99","-1"," ","0","+10","[1419.4000000953674]","1","3","","","3542","150","1","2","win","no-go","1"
"pit-trial","230","1374375","0.0-156.0","battery-v0.2","","""event"",""trial"",""time""
""fullscreenenter"",""1"",""1317""
","
","
","""event"",""trial"",""time""
""fullscreenenter"",""1"",""1317""
","
","","","775.7000000476837","","","15","3542","390","j","elianto","#f73b6a7A"," "," ","1","0","[1627]","1","3","","","3542","151","0","3","lose","go","0"
"pit-trial","231","1378171","0.0-157.0","battery-v0.2","","""event"",""trial"",""time""
""fullscreenenter"",""1"",""1317""
","
","
","""event"",""trial"",""time""
""fullscreenenter"",""1"",""1317""
","
","","","939.5999999046326","","","15","3542","390","w","elianto","#f73b6a7A","-1"," ","0","-10","[1790.9000000953674]","1","3","","","3542","152","3","4","lose","no-go","0"
"pit-trial","232","1383030","0.0-158.0","battery-v0.2","","""event"",""trial"",""time""
""fullscreenenter"",""1"",""1317""
","
","
","""event"",""trial"",""time""
""fullscreenenter"",""1"",""1317""
","
","","","-1","","","15","3542","390","w","elianto","#f73b6a7A","-1","-1","1","0","[]","0","3","","","3542","153","3","4","lose","no-go","0"
"pit-trial","233","1386513","0.0-159.0","battery-v0.2","","""event"",""trial"",""time""
""fullscreenenter"",""1"",""1317""
","
","
","""event"",""trial"",""time""
""fullscreenenter"",""1"",""1317""
","
","","","626.2000000476837","","","15","3542","390","e","elianto","#f73b6a7A"," "," ","1","-10","[1477]","1","3","","","3542","154","2","3","lose","go","1"
"pit-trial","234","1391372","0.0-160.0","battery-v0.2","","""event"",""trial"",""time""
""fullscreenenter"",""1"",""1317""
","
","
","""event"",""trial"",""time""
""fullscreenenter"",""1"",""1317""
","
","","","-1","","","15","3542","390","j","elianto","#f73b6a7A"," ","-1","0","-10","[]","0","3","","","3542","155","0","3","lose","go","0"
"pit-trial","235","1394518","0.0-161.0","battery-v0.2","","""event"",""trial"",""time""
""fullscreenenter"",""1"",""1317""
","
","
","""event"",""trial"",""time""
""fullscreenenter"",""1"",""1317""
","
","","","292.2000000476837","","","15","3542","390","d","elianto","#3366ff99","-1"," ","0","+10","[1143.7000000476837]","1","3","","","3542","156","1","2","win","no-go","1"
"pit-trial","236","1398145","0.0-162.0","battery-v0.2","","""event"",""trial"",""time""
""fullscreenenter"",""1"",""1317""
","
","
","""event"",""trial"",""time""
""fullscreenenter"",""1"",""1317""
","
","","","772.2000000476837","","","15","3542","390","e","elianto","#f73b6a7A"," "," ","1","-10","[1624]","1","3","","","3542","157","2","3","lose","go","1"
"pit-trial","237","1401777","0.0-163.0","battery-v0.2","","""event"",""trial"",""time""
""fullscreenenter"",""1"",""1317""
","
","
","""event"",""trial"",""time""
""fullscreenenter"",""1"",""1317""
","
","","","776.5","","","15","3542","390","d","elianto","#3366ff99","-1"," ","0","0","[1626.6999998092651]","1","3","","","3542","158","1","2","win","no-go","0"
"pit-trial","238","1405329","0.0-164.0","battery-v0.2","","""event"",""trial"",""time""
""fullscreenenter"",""1"",""1317""
","
","
","""event"",""trial"",""time""
""fullscreenenter"",""1"",""1317""
","
","","","695.8999998569489","","","15","3542","390","w","elianto","#f73b6a7A","-1"," ","0","-10","[1546.1000001430511]","1","3","","","3542","159","3","4","lose","no-go","0"
"pit-trial","239","1410188","0.0-165.0","battery-v0.2","","""event"",""trial"",""time""
""fullscreenenter"",""1"",""1317""
","
","
","""event"",""trial"",""time""
""fullscreenenter"",""1"",""1317""
","
","","","-1","","","15","3542","390","j","elianto","#f73b6a7A"," ","-1","0","0","[]","0","3","","","3542","160","0","3","lose","go","1"
"pit-trial","240","1415046","0.0-166.0","battery-v0.2","","""event"",""trial"",""time""
""fullscreenenter"",""1"",""1317""
","
","
","""event"",""trial"",""time""
""fullscreenenter"",""1"",""1317""
","
","","","-1","","","15","3542","390","j","elianto","#f73b6a7A"," ","-1","0","-10","[]","0","3","","","3542","161","0","3","lose","go","0"
"pit-trial","241","1418492","0.0-167.0","battery-v0.2","","""event"",""trial"",""time""
""fullscreenenter"",""1"",""1317""
","
","
","""event"",""trial"",""time""
""fullscreenenter"",""1"",""1317""
","
","","","591.9000000953674","","","15","3542","390","d","elianto","#3366ff99","-1"," ","0","0","[1442.7999999523163]","1","3","","","3542","162","1","2","win","no-go","0"
"pit-trial","242","1422129","0.0-168.0","battery-v0.2","","""event"",""trial"",""time""
""fullscreenenter"",""1"",""1317""
","
","
","""event"",""trial"",""time""
""fullscreenenter"",""1"",""1317""
","
","","","779.2999999523163","","","15","3542","390","w","elianto","#f73b6a7A","-1"," ","0","-10","[1630.5999999046326]","1","3","","","3542","163","3","4","lose","no-go","0"
"pit-trial","243","1426124","0.0-169.0","battery-v0.2","","""event"",""trial"",""time""
""fullscreenenter"",""1"",""1317""
","
","
","""event"",""trial"",""time""
""fullscreenenter"",""1"",""1317""
","
","","","1137.5","","","15","3542","390","e","elianto","#f73b6a7A"," "," ","1","0","[1988.0999999046326]","1","3","","","3542","164","2","3","lose","go","0"
"pit-trial","244","1430982","0.0-170.0","battery-v0.2","","""event"",""trial"",""time""
""fullscreenenter"",""1"",""1317""
","
","
","""event"",""trial"",""time""
""fullscreenenter"",""1"",""1317""
","
","","","-1","","","15","3542","390","w","elianto","#f73b6a7A","-1","-1","1","0","[]","0","3","","","3542","165","3","4","lose","no-go","0"
"pit-trial","245","1435841","0.0-171.0","battery-v0.2","","""event"",""trial"",""time""
""fullscreenenter"",""1"",""1317""
","
","
","""event"",""trial"",""time""
""fullscreenenter"",""1"",""1317""
","
","","","-1","","","15","3542","390","d","elianto","#3366ff99","-1","-1","1","+10","[]","0","3","","","3542","166","1","2","win","no-go","0"
"pit-trial","246","1439958","0.0-172.0","battery-v0.2","","""event"",""trial"",""time""
""fullscreenenter"",""1"",""1317""
","
","
","""event"",""trial"",""time""
""fullscreenenter"",""1"",""1317""
","
","","","1265.3999998569489","","","15","3542","390","e","elianto","#f73b6a7A"," "," ","1","-10","[2115.7000000476837]","1","3","","","3542","167","2","3","lose","go","1"
"pit-trial","247","1444251","0.0-173.0","battery-v0.2","","""event"",""trial"",""time""
""fullscreenenter"",""1"",""1317""
","
","
","""event"",""trial"",""time""
""fullscreenenter"",""1"",""1317""
","
","","","1435.8000001907349","","","15","3542","390","j","elianto","#f73b6a7A"," "," ","1","-10","[2286.2000000476837]","1","3","","","3542","168","0","3","lose","go","1"
"pit-trial","248","1449108","0.0-174.0","battery-v0.2","","""event"",""trial"",""time""
""fullscreenenter"",""1"",""1317""
","
","
","""event"",""trial"",""time""
""fullscreenenter"",""1"",""1317""
","
","","","-1","","","15","3542","390","w","elianto","#f73b6a7A","-1","-1","1","0","[]","0","3","","","3542","169","3","4","lose","no-go","0"
"pit-trial","249","1453968","0.0-175.0","battery-v0.2","","""event"",""trial"",""time""
""fullscreenenter"",""1"",""1317""
","
","
","""event"",""trial"",""time""
""fullscreenenter"",""1"",""1317""
","
","","","-1","","","15","3542","390","e","elianto","#f73b6a7A"," ","-1","0","-10","[]","0","3","","","3542","170","2","3","lose","go","0"
"pit-trial","250","1458769","0.0-176.0","battery-v0.2","","""event"",""trial"",""time""
""fullscreenenter"",""1"",""1317""
","
","
","""event"",""trial"",""time""
""fullscreenenter"",""1"",""1317""
","
","","","1946.5","","","15","3542","390","j","elianto","#f73b6a7A"," "," ","1","-10","[2798.600000143051]","1","3","","","3542","171","0","3","lose","go","1"
"pit-trial","251","1463627","0.0-177.0","battery-v0.2","","""event"",""trial"",""time""
""fullscreenenter"",""1"",""1317""
","
","
","""event"",""trial"",""time""
""fullscreenenter"",""1"",""1317""
","
","","","-1","","","15","3542","390","d","elianto","#3366ff99","-1","-1","1","+10","[]","0","3","","","3542","172","1","2","win","no-go","0"
"pit-trial","252","1467958","0.0-178.0","battery-v0.2","","""event"",""trial"",""time""
""fullscreenenter"",""1"",""1317""
","
","
","""event"",""trial"",""time""
""fullscreenenter"",""1"",""1317""
","
","","","1474.7999999523163","","","15","3542","390","j","elianto","#f73b6a7A"," "," ","1","0","[2325.5]","1","3","","","3542","173","0","3","lose","go","0"
"pit-trial","253","1472817","0.0-179.0","battery-v0.2","","""event"",""trial"",""time""
""fullscreenenter"",""1"",""1317""
","
","
","""event"",""trial"",""time""
""fullscreenenter"",""1"",""1317""
","
","","","-1","","","15","3542","390","d","elianto","#3366ff99","-1","-1","1","0","[]","0","3","","","3542","174","1","2","win","no-go","1"
"pit-trial","254","1477674","0.0-180.0","battery-v0.2","","""event"",""trial"",""time""
""fullscreenenter"",""1"",""1317""
","
","
","""event"",""trial"",""time""
""fullscreenenter"",""1"",""1317""
","
","","","-1","","","15","3542","390","e","elianto","#f73b6a7A"," ","-1","0","-10","[]","0","3","","","3542","175","2","3","lose","go","0"
"pit-trial","255","1482534","0.0-181.0","battery-v0.2","","""event"",""trial"",""time""
""fullscreenenter"",""1"",""1317""
","
","
","""event"",""trial"",""time""
""fullscreenenter"",""1"",""1317""
","
","","","-1","","","15","3542","390","w","elianto","#f73b6a7A","-1","-1","1","0","[]","0","3","","","3542","176","3","4","lose","no-go","0"
"pit-trial","256","1487390","0.0-182.0","battery-v0.2","","""event"",""trial"",""time""
""fullscreenenter"",""1"",""1317""
","
","
","""event"",""trial"",""time""
""fullscreenenter"",""1"",""1317""
","
","","","-1","","","15","3542","390","j","elianto","#f73b6a7A"," ","-1","0","-10","[]","0","3","","","3542","177","0","3","lose","go","0"
"pit-trial","257","1492251","0.0-183.0","battery-v0.2","","""event"",""trial"",""time""
""fullscreenenter"",""1"",""1317""
","
","
","""event"",""trial"",""time""
""fullscreenenter"",""1"",""1317""
","
","","","-1","","","15","3542","390","e","elianto","#f73b6a7A"," ","-1","0","-10","[]","0","3","","","3542","178","2","3","lose","go","0"
"pit-trial","258","1497110","0.0-184.0","battery-v0.2","","""event"",""trial"",""time""
""fullscreenenter"",""1"",""1317""
","
","
","""event"",""trial"",""time""
""fullscreenenter"",""1"",""1317""
","
","","","-1","","","15","3542","390","s","elianto","#3366ff99"," ","-1","0","0","[]","0","3","","","3542","179","4","1","win","go","0"
"pit-trial","259","1501969","0.0-185.0","battery-v0.2","","""event"",""trial"",""time""
""fullscreenenter"",""1"",""1317""
","
","
","""event"",""trial"",""time""
""fullscreenenter"",""1"",""1317""
","
","","","-1","","","15","3542","390","w","elianto","#f73b6a7A","-1","-1","1","0","[]","0","3","","","3542","180","3","4","lose","no-go","0"
"pit-trial","260","1505377","0.0-186.0","battery-v0.2","","""event"",""trial"",""time""
""fullscreenenter"",""1"",""1317""
","
","
","""event"",""trial"",""time""
""fullscreenenter"",""1"",""1317""
","
","","","550.5","","","15","3542","390","s","elianto","#3366ff99"," "," ","1","+10","[1402.1000001430511]","1","3","","","3542","181","4","1","win","go","0"
"pit-trial","261","1510236","0.0-187.0","battery-v0.2","","""event"",""trial"",""time""
""fullscreenenter"",""1"",""1317""
","
","
","""event"",""trial"",""time""
""fullscreenenter"",""1"",""1317""
","
","","","-1","","","15","3542","390","d","elianto","#3366ff99","-1","-1","1","+10","[]","0","3","","","3542","182","1","2","win","no-go","0"
"pit-trial","262","1515094","0.0-188.0","battery-v0.2","","""event"",""trial"",""time""
""fullscreenenter"",""1"",""1317""
","
","
","""event"",""trial"",""time""
""fullscreenenter"",""1"",""1317""
","
","","","-1","","","15","3542","390","w","elianto","#f73b6a7A","-1","-1","1","0","[]","0","3","","","3542","183","3","4","lose","no-go","0"
"pit-trial","263","1519192","0.0-189.0","battery-v0.2","","""event"",""trial"",""time""
""fullscreenenter"",""1"",""1317""
","
","
","""event"",""trial"",""time""
""fullscreenenter"",""1"",""1317""
","
","","","1242.5999999046326","","","15","3542","390","e","elianto","#f73b6a7A"," "," ","1","0","[2093.5999999046326]","1","3","","","3542","184","2","3","lose","go","0"
"pit-trial","264","1524046","0.0-190.0","battery-v0.2","","""event"",""trial"",""time""
""fullscreenenter"",""1"",""1317""
","
","
","""event"",""trial"",""time""
""fullscreenenter"",""1"",""1317""
","
","","","-1","","","15","3542","390","d","elianto","#3366ff99","-1","-1","1","0","[]","0","3","","","3542","185","1","2","win","no-go","1"
"pit-trial","265","1528908","0.0-191.0","battery-v0.2","","""event"",""trial"",""time""
""fullscreenenter"",""1"",""1317""
","
","
","""event"",""trial"",""time""
""fullscreenenter"",""1"",""1317""
","
","","","-1","","","15","3542","390","w","elianto","#f73b6a7A","-1","-1","1","0","[]","0","3","","","3542","186","3","4","lose","no-go","0"
"pit-trial","266","1532939","0.0-192.0","battery-v0.2","","""event"",""trial"",""time""
""fullscreenenter"",""1"",""1317""
","
","
","""event"",""trial"",""time""
""fullscreenenter"",""1"",""1317""
","
