"trial_type","trial_index","time_elapsed","internal_node_id","task_version","subject_id","interactions","blur_events","focus_events","fullscreenenter_events","fullscreenexit_events","success","view_history","rt","responses","num_errors","age","subject","participantId","rune","rune_set","hex","correct","choice","accuracy","outcome","keys","total_keys","block","practice","value","sub","trial","stimulus","robot","valence","action","sham"
"pavlovia","0","9","0.0-0.0","battery-v0.2","","""event"",""trial"",""time""
""fullscreenenter"",""1"",""2481""
","
","
","""event"",""trial"",""time""
""fullscreenenter"",""1"",""2481""
","
","","","","","","","","","","","","","","","","","","","","","","","","","","",""
"fullscreen","1","3453","0.0-1.0","battery-v0.2","","""event"",""trial"",""time""
""fullscreenenter"",""1"",""2481""
","
","
","""event"",""trial"",""time""
""fullscreenenter"",""1"",""2481""
","
","true","","","","","","","","","","","","","","","","","","","","","","","","","",""
"pit-instructions","2","10252","0.0-2.0-0.0","battery-v0.2","","""event"",""trial"",""time""
""fullscreenenter"",""1"",""2481""
","
","
","""event"",""trial"",""time""
""fullscreenenter"",""1"",""2481""
","
","","[{""page_index"":0,""viewing_time"":6793}]","6793","","","","","","","","","","","","","","","","","","","","","","","",""
"pit-comprehension","3","16905","0.0-2.0-1.0-0.0","battery-v0.2","","""event"",""trial"",""time""
""fullscreenenter"",""1"",""2481""
","
","
","""event"",""trial"",""time""
""fullscreenenter"",""1"",""2481""
","
","","","6645","[""shark""]","0","20","21058","7831","","","","","","","","","","","","","","","","","","",""
"pit-instructions","4","18268","0.0-2.0-1.0-1.0","battery-v0.2","","""event"",""trial"",""time""
""fullscreenenter"",""1"",""2481""
","
","
","""event"",""trial"",""time""
""fullscreenenter"",""1"",""2481""
","
","","[{""page_index"":0,""viewing_time"":1356}]","1357","","","","","","","","","","","","","","","","","","","","","","","",""
"pit-comprehension","5","22337","0.0-2.0-2.0-0.0","battery-v0.2","","""event"",""trial"",""time""
""fullscreenenter"",""1"",""2481""
","
","
","""event"",""trial"",""time""
""fullscreenenter"",""1"",""2481""
","
","","","4065","[""tiger""]","0","20","21058","7831","","","","","","","","","","","","","","","","","","",""
"pit-instructions","6","23499","0.0-2.0-2.0-1.0","battery-v0.2","","""event"",""trial"",""time""
""fullscreenenter"",""1"",""2481""
","
","
","""event"",""trial"",""time""
""fullscreenenter"",""1"",""2481""
","
","","[{""page_index"":0,""viewing_time"":1158}]","1159.0000000000036","","","","","","","","","","","","","","","","","","","","","","","",""
"pit-instructions","7","126416","0.0-2.0-3.0","battery-v0.2","","""event"",""trial"",""time""
""fullscreenenter"",""1"",""2481""
","
","
","""event"",""trial"",""time""
""fullscreenenter"",""1"",""2481""
","
","","[{""page_index"":0,""viewing_time"":9362.999999999996},{""page_index"":1,""viewing_time"":6267},{""page_index"":2,""viewing_time"":6498},{""page_index"":3,""viewing_time"":7201},{""page_index"":4,""viewing_time"":5850},{""page_index"":5,""viewing_time"":5900},{""page_index"":6,""viewing_time"":7533},{""page_index"":7,""viewing_time"":7051},{""page_index"":8,""viewing_time"":6050},{""page_index"":9,""viewing_time"":12867},{""page_index"":10,""viewing_time"":7786},{""page_index"":11,""viewing_time"":7966},{""page_index"":12,""viewing_time"":6966.000000000015},{""page_index"":13,""viewing_time"":5616.999999999985}]","102915","","","","","","","","","","","","","","","","","","","","","","","",""
"pit-trial","8","130030","0.0-2.0-4.0-0.0","battery-v0.2","","""event"",""trial"",""time""
""fullscreenenter"",""1"",""2481""
","
","
","""event"",""trial"",""time""
""fullscreenenter"",""1"",""2481""
","
","","","755.0000000000291","","","20","21058","7831","&#9784;","elianto","#FFFFF080"," "," ","1","&#10004","[1606.0000000000146]","1","0","0","","","","","","","",""
"pit-trial","9","133623","0.0-2.0-4.1-0.1","battery-v0.2","","""event"",""trial"",""time""
""fullscreenenter"",""1"",""2481""
","
","
","""event"",""trial"",""time""
""fullscreenenter"",""1"",""2481""
","
","","","734.0000000000291","","","20","21058","7831","&#9784;","elianto","#FFFFF080"," "," ","1","&#10004","[1585.000000000029]","1","0","0","","","","","","","",""
"pit-trial","10","137048","0.0-2.0-4.2-0.2","battery-v0.2","","""event"",""trial"",""time""
""fullscreenenter"",""1"",""2481""
","
","
","""event"",""trial"",""time""
""fullscreenenter"",""1"",""2481""
","
","","","566","","","20","21058","7831","&#9784;","elianto","#FFFFF080"," "," ","1","&#10004","[1417]","1","0","0","","","","","","","",""
"pit-trial","11","140601","0.0-2.0-4.3-0.3","battery-v0.2","","""event"",""trial"",""time""
""fullscreenenter"",""1"",""2481""
","
","
","""event"",""trial"",""time""
""fullscreenenter"",""1"",""2481""
","
","","","696","","","20","21058","7831","&#9784;","elianto","#FFFFF080"," "," ","1","&#10004","[1546]","1","0","0","","","","","","","",""
"pit-trial","12","144036","0.0-2.0-4.4-0.4","battery-v0.2","","""event"",""trial"",""time""
""fullscreenenter"",""1"",""2481""
","
","
","""event"",""trial"",""time""
""fullscreenenter"",""1"",""2481""
","
","","","577","","","20","21058","7831","&#9784;","elianto","#FFFFF080"," "," ","1","&#10004","[1427]","1","0","0","","","","","","","",""
"pit-instructions","13","168282","0.0-2.0-5.0","battery-v0.2","","""event"",""trial"",""time""
""fullscreenenter"",""1"",""2481""
","
","
","""event"",""trial"",""time""
""fullscreenenter"",""1"",""2481""
","
","","[{""page_index"":0,""viewing_time"":5622},{""page_index"":1,""viewing_time"":7100},{""page_index"":2,""viewing_time"":5517.000000000029},{""page_index"":3,""viewing_time"":6000}]","24240","","","","","","","","","","","","","","","","","","","","","","","",""
"pit-trial","14","173139","0.0-2.0-6.0-0.0","battery-v0.2","","""event"",""trial"",""time""
""fullscreenenter"",""1"",""2481""
","
","
","""event"",""trial"",""time""
""fullscreenenter"",""1"",""2481""
","
","","","-1","","","20","21058","7831","&#9854;","elianto","#FFFFF080","-1","-1","1","&#10004","[]","0","0","1","","","","","","","",""
"pit-trial","15","177998","0.0-2.0-6.1-0.1","battery-v0.2","","""event"",""trial"",""time""
""fullscreenenter"",""1"",""2481""
","
","
","""event"",""trial"",""time""
""fullscreenenter"",""1"",""2481""
","
","","","-1","","","20","21058","7831","&#9854;","elianto","#FFFFF080","-1","-1","1","&#10004","[]","0","0","1","","","","","","","",""
"pit-trial","16","182856","0.0-2.0-6.2-0.2","battery-v0.2","","""event"",""trial"",""time""
""fullscreenenter"",""1"",""2481""
","
","
","""event"",""trial"",""time""
""fullscreenenter"",""1"",""2481""
","
","","","-1","","","20","21058","7831","&#9854;","elianto","#FFFFF080","-1","-1","1","&#10004","[]","0","0","1","","","","","","","",""
"pit-trial","17","187714","0.0-2.0-6.3-0.3","battery-v0.2","","""event"",""trial"",""time""
""fullscreenenter"",""1"",""2481""
","
","
","""event"",""trial"",""time""
""fullscreenenter"",""1"",""2481""
","
","","","-1","","","20","21058","7831","&#9854;","elianto","#FFFFF080","-1","-1","1","&#10004","[]","0","0","1","","","","","","","",""
"pit-trial","18","192573","0.0-2.0-6.4-0.4","battery-v0.2","","""event"",""trial"",""time""
""fullscreenenter"",""1"",""2481""
","
","
","""event"",""trial"",""time""
""fullscreenenter"",""1"",""2481""
","
","","","-1","","","20","21058","7831","&#9854;","elianto","#FFFFF080","-1","-1","1","&#10004","[]","0","0","1","","","","","","","",""
"pit-instructions","19","344815","0.0-2.0-7.0","battery-v0.2","","""event"",""trial"",""time""
""fullscreenenter"",""1"",""2481""
","
","
","""event"",""trial"",""time""
""fullscreenenter"",""1"",""2481""
","
","","[{""page_index"":0,""viewing_time"":5586},{""page_index"":1,""viewing_time"":7216},{""page_index"":2,""viewing_time"":6351},{""page_index"":3,""viewing_time"":6650},{""page_index"":4,""viewing_time"":5616},{""page_index"":5,""viewing_time"":5636},{""page_index"":6,""viewing_time"":5031},{""page_index"":7,""viewing_time"":9283},{""page_index"":8,""viewing_time"":8217},{""page_index"":9,""viewing_time"":12369},{""page_index"":10,""viewing_time"":7148},{""page_index"":11,""viewing_time"":9151},{""page_index"":12,""viewing_time"":10935},{""page_index"":13,""viewing_time"":7549},{""page_index"":14,""viewing_time"":9801},{""page_index"":15,""viewing_time"":6867.000000000058},{""page_index"":16,""viewing_time"":21283.99999999994},{""page_index"":17,""viewing_time"":7551}]","152242","","","","","","","","","","","","","","","","","","","","","","","",""
"pit-trial","20","348540","0.0-2.0-8.0-0.0","battery-v0.2","","""event"",""trial"",""time""
""fullscreenenter"",""1"",""2481""
","
","
","""event"",""trial"",""time""
""fullscreenenter"",""1"",""2481""
","
","","","866","","","20","21058","7831","&#9776;","elianto","#3366ff99"," "," ","1","+10","[1717]","1","0","1","","","","","","","",""
"pit-trial","21","352138","0.0-2.0-8.0-1.0","battery-v0.2","","""event"",""trial"",""time""
""fullscreenenter"",""1"",""2481""
","
","
","""event"",""trial"",""time""
""fullscreenenter"",""1"",""2481""
","
","","","739.9999999999418","","","20","21058","7831","&#9776;","elianto","#3366ff99"," "," ","1","+10","[1590]","1","0","1","","","","","","","",""
"pit-trial","22","355580","0.0-2.0-8.0-2.0","battery-v0.2","","""event"",""trial"",""time""
""fullscreenenter"",""1"",""2481""
","
","
","""event"",""trial"",""time""
""fullscreenenter"",""1"",""2481""
","
","","","582","","","20","21058","7831","&#9776;","elianto","#3366ff99"," "," ","1","+10","[1434]","1","0","1","","","","","","","",""
"pit-trial","23","359011","0.0-2.0-8.0-3.0","battery-v0.2","","""event"",""trial"",""time""
""fullscreenenter"",""1"",""2481""
","
","
","""event"",""trial"",""time""
""fullscreenenter"",""1"",""2481""
","
","","","574","","","20","21058","7831","&#9776;","elianto","#3366ff99"," "," ","1","0","[1425]","1","0","1","","","","","","","",""
"pit-trial","24","362376","0.0-2.0-8.0-4.0","battery-v0.2","","""event"",""trial"",""time""
""fullscreenenter"",""1"",""2481""
","
","
","""event"",""trial"",""time""
""fullscreenenter"",""1"",""2481""
","
","","","507.9999999999418","","","20","21058","7831","&#9776;","elianto","#3366ff99"," "," ","1","+10","[1358]","1","0","1","","","","","","","",""
"pit-trial","25","365808","0.0-2.0-8.1-0.1","battery-v0.2","","""event"",""trial"",""time""
""fullscreenenter"",""1"",""2481""
","
","
","""event"",""trial"",""time""
""fullscreenenter"",""1"",""2481""
","
","","","575","","","20","21058","7831","&#9776;","elianto","#3366ff99"," "," ","1","+10","[1425]","1","0","1","","","","","","","",""
"pit-trial","26","369223","0.0-2.0-8.1-1.1","battery-v0.2","","""event"",""trial"",""time""
""fullscreenenter"",""1"",""2481""
","
","
","""event"",""trial"",""time""
""fullscreenenter"",""1"",""2481""
","
","","","556.9999999999418","","","20","21058","7831","&#9776;","elianto","#3366ff99"," "," ","1","+10","[1408]","1","0","1","","","","","","","",""
"pit-trial","27","373097","0.0-2.0-8.1-2.1","battery-v0.2","","""event"",""trial"",""time""
""fullscreenenter"",""1"",""2481""
","
","
","""event"",""trial"",""time""
""fullscreenenter"",""1"",""2481""
","
","","","1014","","","20","21058","7831","&#9776;","elianto","#3366ff99"," "," ","1","+10","[1867]","1","0","1","","","","","","","",""
"pit-trial","28","376885","0.0-2.0-8.1-3.1","battery-v0.2","","""event"",""trial"",""time""
""fullscreenenter"",""1"",""2481""
","
","
","""event"",""trial"",""time""
""fullscreenenter"",""1"",""2481""
","
","","","932","","","20","21058","7831","&#9776;","elianto","#3366ff99"," "," ","1","0","[1783]","1","0","1","","","","","","","",""
"pit-trial","29","381204","0.0-2.0-8.1-4.1","battery-v0.2","","""event"",""trial"",""time""
""fullscreenenter"",""1"",""2481""
","
","
","""event"",""trial"",""time""
""fullscreenenter"",""1"",""2481""
","
","","","1461.9999999999418","","","20","21058","7831","&#9776;","elianto","#3366ff99"," "," ","1","+10","[2312]","1","0","1","","","","","","","",""
"pit-trial","30","384690","0.0-2.0-8.2-0.2","battery-v0.2","","""event"",""trial"",""time""
""fullscreenenter"",""1"",""2481""
","
","
","""event"",""trial"",""time""
""fullscreenenter"",""1"",""2481""
","
","","","627","","","20","21058","7831","&#9776;","elianto","#3366ff99"," "," ","1","+10","[1480]","1","0","1","","","","","","","",""
"pit-trial","31","388272","0.0-2.0-8.2-1.2","battery-v0.2","","""event"",""trial"",""time""
""fullscreenenter"",""1"",""2481""
","
","
","""event"",""trial"",""time""
""fullscreenenter"",""1"",""2481""
","
","","","725","","","20","21058","7831","&#9776;","elianto","#3366ff99"," "," ","1","+10","[1575]","1","0","1","","","","","","","",""
"pit-trial","32","391882","0.0-2.0-8.2-2.2","battery-v0.2","","""event"",""trial"",""time""
""fullscreenenter"",""1"",""2481""
","
","
","""event"",""trial"",""time""
""fullscreenenter"",""1"",""2481""
","
","","","751","","","20","21058","7831","&#9776;","elianto","#3366ff99"," "," ","1","+10","[1603]","1","0","1","","","","","","","",""
"pit-trial","33","395383","0.0-2.0-8.2-3.2","battery-v0.2","","""event"",""trial"",""time""
""fullscreenenter"",""1"",""2481""
","
","
","""event"",""trial"",""time""
""fullscreenenter"",""1"",""2481""
","
","","","644.0000000000582","","","20","21058","7831","&#9776;","elianto","#3366ff99"," "," ","1","0","[1495.0000000000582]","1","0","1","","","","","","","",""
"pit-trial","34","398901","0.0-2.0-8.2-4.2","battery-v0.2","","""event"",""trial"",""time""
""fullscreenenter"",""1"",""2481""
","
","
","""event"",""trial"",""time""
""fullscreenenter"",""1"",""2481""
","
","","","662.0000000000582","","","20","21058","7831","&#9776;","elianto","#3366ff99"," "," ","1","+10","[1512]","1","0","1","","","","","","","",""
"call-function","35","398906","0.0-2.0-9.0","battery-v0.2","","""event"",""trial"",""time""
""fullscreenenter"",""1"",""2481""
","
","
","""event"",""trial"",""time""
""fullscreenenter"",""1"",""2481""
","
","","","","","","","","","","","","","","","","","","","","","","","","","","",""
"pit-instructions","36","491864","0.0-2.0-10.0","battery-v0.2","","""event"",""trial"",""time""
""fullscreenenter"",""1"",""2481""
","
","
","""event"",""trial"",""time""
""fullscreenenter"",""1"",""2481""
","
","","[{""page_index"":0,""viewing_time"":5673},{""page_index"":1,""viewing_time"":24718},{""page_index"":2,""viewing_time"":28234},{""page_index"":3,""viewing_time"":26602},{""page_index"":4,""viewing_time"":7734}]","92962","","","","","","","","","","","","","","","","","","","","","","","",""
"pit-trial","37","495859","0.0-2.0-11.0-0.0","battery-v0.2","","""event"",""trial"",""time""
""fullscreenenter"",""1"",""2481""
","
","
","""event"",""trial"",""time""
""fullscreenenter"",""1"",""2481""
","
","","","1138.9999999999418","","","20","21058","7831","&#9761;","elianto","#3366ff99","-1"," ","0","0","[1990]","1","0","2","","","","","","","",""
"pit-trial","38","499338","0.0-2.0-11.0-1.0","battery-v0.2","","""event"",""trial"",""time""
""fullscreenenter"",""1"",""2481""
","
","
","""event"",""trial"",""time""
""fullscreenenter"",""1"",""2481""
","
","","","621","","","20","21058","7831","&#9761;","elianto","#3366ff99","-1"," ","0","0","[1471]","1","0","2","","","","","","","",""
"pit-trial","39","504195","0.0-2.0-11.0-2.0","battery-v0.2","","""event"",""trial"",""time""
""fullscreenenter"",""1"",""2481""
","
","
","""event"",""trial"",""time""
""fullscreenenter"",""1"",""2481""
","
","","","-1","","","20","21058","7831","&#9761;","elianto","#3366ff99","-1","-1","1","+10","[]","0","0","2","","","","","","","",""
"pit-trial","40","509053","0.0-2.0-11.0-3.0","battery-v0.2","","""event"",""trial"",""time""
""fullscreenenter"",""1"",""2481""
","
","
","""event"",""trial"",""time""
""fullscreenenter"",""1"",""2481""
","
","","","-1","","","20","21058","7831","&#9761;","elianto","#3366ff99","-1","-1","1","0","[]","0","0","2","","","","","","","",""
"pit-trial","41","513910","0.0-2.0-11.0-4.0","battery-v0.2","","""event"",""trial"",""time""
""fullscreenenter"",""1"",""2481""
","
","
","""event"",""trial"",""time""
""fullscreenenter"",""1"",""2481""
","
","","","-1","","","20","21058","7831","&#9761;","elianto","#3366ff99","-1","-1","1","+10","[]","0","0","2","","","","","","","",""
"pit-trial","42","518770","0.0-2.0-11.1-0.1","battery-v0.2","","""event"",""trial"",""time""
""fullscreenenter"",""1"",""2481""
","
","
","""event"",""trial"",""time""
""fullscreenenter"",""1"",""2481""
","
","","","-1","","","20","21058","7831","&#9761;","elianto","#3366ff99","-1","-1","1","+10","[]","0","0","2","","","","","","","",""
"pit-trial","43","523628","0.0-2.0-11.1-1.1","battery-v0.2","","""event"",""trial"",""time""
""fullscreenenter"",""1"",""2481""
","
","
","""event"",""trial"",""time""
""fullscreenenter"",""1"",""2481""
","
","","","-1","","","20","21058","7831","&#9761;","elianto","#3366ff99","-1","-1","1","+10","[]","0","0","2","","","","","","","",""
"pit-trial","44","528485","0.0-2.0-11.1-2.1","battery-v0.2","","""event"",""trial"",""time""
""fullscreenenter"",""1"",""2481""
","
","
","""event"",""trial"",""time""
""fullscreenenter"",""1"",""2481""
","
","","","-1","","","20","21058","7831","&#9761;","elianto","#3366ff99","-1","-1","1","+10","[]","0","0","2","","","","","","","",""
"pit-trial","45","533343","0.0-2.0-11.1-3.1","battery-v0.2","","""event"",""trial"",""time""
""fullscreenenter"",""1"",""2481""
","
","
","""event"",""trial"",""time""
""fullscreenenter"",""1"",""2481""
","
","","","-1","","","20","21058","7831","&#9761;","elianto","#3366ff99","-1","-1","1","0","[]","0","0","2","","","","","","","",""
"pit-trial","46","538200","0.0-2.0-11.1-4.1","battery-v0.2","","""event"",""trial"",""time""
""fullscreenenter"",""1"",""2481""
","
","
","""event"",""trial"",""time""
""fullscreenenter"",""1"",""2481""
","
","","","-1","","","20","21058","7831","&#9761;","elianto","#3366ff99","-1","-1","1","+10","[]","0","0","2","","","","","","","",""
"pit-trial","47","543058","0.0-2.0-11.2-0.2","battery-v0.2","","""event"",""trial"",""time""
""fullscreenenter"",""1"",""2481""
","
","
","""event"",""trial"",""time""
""fullscreenenter"",""1"",""2481""
","
","","","-1","","","20","21058","7831","&#9761;","elianto","#3366ff99","-1","-1","1","+10","[]","0","0","2","","","","","","","",""
"pit-trial","48","547914","0.0-2.0-11.2-1.2","battery-v0.2","","""event"",""trial"",""time""
""fullscreenenter"",""1"",""2481""
","
","
","""event"",""trial"",""time""
""fullscreenenter"",""1"",""2481""
","
","","","-1","","","20","21058","7831","&#9761;","elianto","#3366ff99","-1","-1","1","+10","[]","0","0","2","","","","","","","",""
"pit-trial","49","552771","0.0-2.0-11.2-2.2","battery-v0.2","","""event"",""trial"",""time""
""fullscreenenter"",""1"",""2481""
","
","
","""event"",""trial"",""time""
""fullscreenenter"",""1"",""2481""
","
","","","-1","","","20","21058","7831","&#9761;","elianto","#3366ff99","-1","-1","1","+10","[]","0","0","2","","","","","","","",""
"pit-trial","50","557629","0.0-2.0-11.2-3.2","battery-v0.2","","""event"",""trial"",""time""
""fullscreenenter"",""1"",""2481""
","
","
","""event"",""trial"",""time""
""fullscreenenter"",""1"",""2481""
","
","","","-1","","","20","21058","7831","&#9761;","elianto","#3366ff99","-1","-1","1","0","[]","0","0","2","","","","","","","",""
"pit-trial","51","562486","0.0-2.0-11.2-4.2","battery-v0.2","","""event"",""trial"",""time""
""fullscreenenter"",""1"",""2481""
","
","
","""event"",""trial"",""time""
""fullscreenenter"",""1"",""2481""
","
","","","-1","","","20","21058","7831","&#9761;","elianto","#3366ff99","-1","-1","1","+10","[]","0","0","2","","","","","","","",""
"pit-trial","52","567343","0.0-2.0-11.3-0.3","battery-v0.2","","""event"",""trial"",""time""
""fullscreenenter"",""1"",""2481""
","
","
","""event"",""trial"",""time""
""fullscreenenter"",""1"",""2481""
","
","","","-1","","","20","21058","7831","&#9761;","elianto","#3366ff99","-1","-1","1","+10","[]","0","0","2","","","","","","","",""
"pit-trial","53","572200","0.0-2.0-11.3-1.3","battery-v0.2","","""event"",""trial"",""time""
""fullscreenenter"",""1"",""2481""
","
","
","""event"",""trial"",""time""
""fullscreenenter"",""1"",""2481""
","
","","","-1","","","20","21058","7831","&#9761;","elianto","#3366ff99","-1","-1","1","+10","[]","0","0","2","","","","","","","",""
"pit-trial","54","577057","0.0-2.0-11.3-2.3","battery-v0.2","","""event"",""trial"",""time""
""fullscreenenter"",""1"",""2481""
","
","
","""event"",""trial"",""time""
""fullscreenenter"",""1"",""2481""
","
","","","-1","","","20","21058","7831","&#9761;","elianto","#3366ff99","-1","-1","1","+10","[]","0","0","2","","","","","","","",""
"pit-trial","55","581916","0.0-2.0-11.3-3.3","battery-v0.2","","""event"",""trial"",""time""
""fullscreenenter"",""1"",""2481""
","
","
","""event"",""trial"",""time""
""fullscreenenter"",""1"",""2481""
","
","","","-1","","","20","21058","7831","&#9761;","elianto","#3366ff99","-1","-1","1","0","[]","0","0","2","","","","","","","",""
"pit-trial","56","586774","0.0-2.0-11.3-4.3","battery-v0.2","","""event"",""trial"",""time""
""fullscreenenter"",""1"",""2481""
","
","
","""event"",""trial"",""time""
""fullscreenenter"",""1"",""2481""
","
","","","-1","","","20","21058","7831","&#9761;","elianto","#3366ff99","-1","-1","1","+10","[]","0","0","2","","","","","","","",""
"call-function","57","586779","0.0-2.0-12.0","battery-v0.2","","""event"",""trial"",""time""
""fullscreenenter"",""1"",""2481""
","
","
","""event"",""trial"",""time""
""fullscreenenter"",""1"",""2481""
","
","","","","","","","","","","","","","","","","","","","","","","","","","","",""
"pit-instructions","58","619114","0.0-2.0-13.0","battery-v0.2","","""event"",""trial"",""time""
""fullscreenenter"",""1"",""2481""
","
","
","""event"",""trial"",""time""
""fullscreenenter"",""1"",""2481""
","
","","[{""page_index"":0,""viewing_time"":5802},{""page_index"":1,""viewing_time"":7514},{""page_index"":2,""viewing_time"":3400},{""page_index"":3,""viewing_time"":10534.000000000116},{""page_index"":4,""viewing_time"":5083.999999999884}]","32335","","","","","","","","","","","","","","","","","","","","","","","",""
"pit-trial","59","623228","0.0-2.0-14.0-0.0","battery-v0.2","","""event"",""trial"",""time""
""fullscreenenter"",""1"",""2481""
","
","
","""event"",""trial"",""time""
""fullscreenenter"",""1"",""2481""
","
","","","1258","","","20","21058","7831","&#9826;","elianto","#f73b6a7A","-1"," ","0","-10","[2109]","1","0","3","","","","","","","",""
"pit-trial","60","628085","0.0-2.0-14.0-1.0","battery-v0.2","","""event"",""trial"",""time""
""fullscreenenter"",""1"",""2481""
","
","
","""event"",""trial"",""time""
""fullscreenenter"",""1"",""2481""
","
","","","-1","","","20","21058","7831","&#9826;","elianto","#f73b6a7A","-1","-1","1","0","[]","0","0","3","","","","","","","",""
"pit-trial","61","632942","0.0-2.0-14.0-2.0","battery-v0.2","","""event"",""trial"",""time""
""fullscreenenter"",""1"",""2481""
","
","
","""event"",""trial"",""time""
""fullscreenenter"",""1"",""2481""
","
","","","-1","","","20","21058","7831","&#9826;","elianto","#f73b6a7A","-1","-1","1","0","[]","0","0","3","","","","","","","",""
"pit-trial","62","637800","0.0-2.0-14.0-3.0","battery-v0.2","","""event"",""trial"",""time""
""fullscreenenter"",""1"",""2481""
","
","
","""event"",""trial"",""time""
""fullscreenenter"",""1"",""2481""
","
","","","-1","","","20","21058","7831","&#9826;","elianto","#f73b6a7A","-1","-1","1","-10","[]","0","0","3","","","","","","","",""
"pit-trial","63","642658","0.0-2.0-14.0-4.0","battery-v0.2","","""event"",""trial"",""time""
""fullscreenenter"",""1"",""2481""
","
","
","""event"",""trial"",""time""
""fullscreenenter"",""1"",""2481""
","
","","","-1","","","20","21058","7831","&#9826;","elianto","#f73b6a7A","-1","-1","1","0","[]","0","0","3","","","","","","","",""
"pit-trial","64","647516","0.0-2.0-14.1-0.1","battery-v0.2","","""event"",""trial"",""time""
""fullscreenenter"",""1"",""2481""
","
","
","""event"",""trial"",""time""
""fullscreenenter"",""1"",""2481""
","
","","","-1","","","20","21058","7831","&#9826;","elianto","#f73b6a7A","-1","-1","1","0","[]","0","0","3","","","","","","","",""
"pit-trial","65","652374","0.0-2.0-14.1-1.1","battery-v0.2","","""event"",""trial"",""time""
""fullscreenenter"",""1"",""2481""
","
","
","""event"",""trial"",""time""
""fullscreenenter"",""1"",""2481""
","
","","","-1","","","20","21058","7831","&#9826;","elianto","#f73b6a7A","-1","-1","1","0","[]","0","0","3","","","","","","","",""
"pit-trial","66","657231","0.0-2.0-14.1-2.1","battery-v0.2","","""event"",""trial"",""time""
""fullscreenenter"",""1"",""2481""
","
","
","""event"",""trial"",""time""
""fullscreenenter"",""1"",""2481""
","
","","","-1","","","20","21058","7831","&#9826;","elianto","#f73b6a7A","-1","-1","1","0","[]","0","0","3","","","","","","","",""
"pit-trial","67","662088","0.0-2.0-14.1-3.1","battery-v0.2","","""event"",""trial"",""time""
""fullscreenenter"",""1"",""2481""
","
","
","""event"",""trial"",""time""
""fullscreenenter"",""1"",""2481""
","
","","","-1","","","20","21058","7831","&#9826;","elianto","#f73b6a7A","-1","-1","1","-10","[]","0","0","3","","","","","","","",""
"pit-trial","68","666946","0.0-2.0-14.1-4.1","battery-v0.2","","""event"",""trial"",""time""
""fullscreenenter"",""1"",""2481""
","
","
","""event"",""trial"",""time""
""fullscreenenter"",""1"",""2481""
","
","","","-1","","","20","21058","7831","&#9826;","elianto","#f73b6a7A","-1","-1","1","0","[]","0","0","3","","","","","","","",""
"pit-trial","69","671804","0.0-2.0-14.2-0.2","battery-v0.2","","""event"",""trial"",""time""
""fullscreenenter"",""1"",""2481""
","
","
","""event"",""trial"",""time""
""fullscreenenter"",""1"",""2481""
","
","","","-1","","","20","21058","7831","&#9826;","elianto","#f73b6a7A","-1","-1","1","0","[]","0","0","3","","","","","","","",""
"pit-trial","70","676661","0.0-2.0-14.2-1.2","battery-v0.2","","""event"",""trial"",""time""
""fullscreenenter"",""1"",""2481""
","
","
","""event"",""trial"",""time""
""fullscreenenter"",""1"",""2481""
","
","","","-1","","","20","21058","7831","&#9826;","elianto","#f73b6a7A","-1","-1","1","0","[]","0","0","3","","","","","","","",""
"pit-trial","71","681519","0.0-2.0-14.2-2.2","battery-v0.2","","""event"",""trial"",""time""
""fullscreenenter"",""1"",""2481""
","
","
","""event"",""trial"",""time""
""fullscreenenter"",""1"",""2481""
","
","","","-1","","","20","21058","7831","&#9826;","elianto","#f73b6a7A","-1","-1","1","0","[]","0","0","3","","","","","","","",""
"pit-trial","72","686377","0.0-2.0-14.2-3.2","battery-v0.2","","""event"",""trial"",""time""
""fullscreenenter"",""1"",""2481""
","
","
","""event"",""trial"",""time""
""fullscreenenter"",""1"",""2481""
","
","","","-1","","","20","21058","7831","&#9826;","elianto","#f73b6a7A","-1","-1","1","-10","[]","0","0","3","","","","","","","",""
"pit-trial","73","691234","0.0-2.0-14.2-4.2","battery-v0.2","","""event"",""trial"",""time""
""fullscreenenter"",""1"",""2481""
","
","
","""event"",""trial"",""time""
""fullscreenenter"",""1"",""2481""
","
","","","-1","","","20","21058","7831","&#9826;","elianto","#f73b6a7A","-1","-1","1","0","[]","0","0","3","","","","","","","",""
"pit-trial","74","696091","0.0-2.0-14.3-0.3","battery-v0.2","","""event"",""trial"",""time""
""fullscreenenter"",""1"",""2481""
","
","
","""event"",""trial"",""time""
""fullscreenenter"",""1"",""2481""
","
","","","-1","","","20","21058","7831","&#9826;","elianto","#f73b6a7A","-1","-1","1","0","[]","0","0","3","","","","","","","",""
"pit-trial","75","700949","0.0-2.0-14.3-1.3","battery-v0.2","","""event"",""trial"",""time""
""fullscreenenter"",""1"",""2481""
","
","
","""event"",""trial"",""time""
""fullscreenenter"",""1"",""2481""
","
","","","-1","","","20","21058","7831","&#9826;","elianto","#f73b6a7A","-1","-1","1","0","[]","0","0","3","","","","","","","",""
"pit-trial","76","705806","0.0-2.0-14.3-2.3","battery-v0.2","","""event"",""trial"",""time""
""fullscreenenter"",""1"",""2481""
","
","
","""event"",""trial"",""time""
""fullscreenenter"",""1"",""2481""
","
","","","-1","","","20","21058","7831","&#9826;","elianto","#f73b6a7A","-1","-1","1","0","[]","0","0","3","","","","","","","",""
"pit-trial","77","710664","0.0-2.0-14.3-3.3","battery-v0.2","","""event"",""trial"",""time""
""fullscreenenter"",""1"",""2481""
","
","
","""event"",""trial"",""time""
""fullscreenenter"",""1"",""2481""
","
","","","-1","","","20","21058","7831","&#9826;","elianto","#f73b6a7A","-1","-1","1","-10","[]","0","0","3","","","","","","","",""
"pit-trial","78","715521","0.0-2.0-14.3-4.3","battery-v0.2","","""event"",""trial"",""time""
""fullscreenenter"",""1"",""2481""
","
","
","""event"",""trial"",""time""
""fullscreenenter"",""1"",""2481""
","
","","","-1","","","20","21058","7831","&#9826;","elianto","#f73b6a7A","-1","-1","1","0","[]","0","0","3","","","","","","","",""
"call-function","79","715525","0.0-2.0-15.0","battery-v0.2","","""event"",""trial"",""time""
""fullscreenenter"",""1"",""2481""
","
","
","""event"",""trial"",""time""
""fullscreenenter"",""1"",""2481""
","
","","","","","","","","","","","","","","","","","","","","","","","","","","",""
"pit-instructions","80","742061","0.0-2.0-16.0","battery-v0.2","","""event"",""trial"",""time""
""fullscreenenter"",""1"",""2481""
","
","
","""event"",""trial"",""time""
""fullscreenenter"",""1"",""2481""
","
","","[{""page_index"":0,""viewing_time"":7767},{""page_index"":1,""viewing_time"":9001},{""page_index"":2,""viewing_time"":4850},{""page_index"":3,""viewing_time"":4917}]","26536","","","","","","","","","","","","","","","","","","","","","","","",""
"pit-trial","81","745782","0.0-2.0-17.0-0.0","battery-v0.2","","""event"",""trial"",""time""
""fullscreenenter"",""1"",""2481""
","
","
","""event"",""trial"",""time""
""fullscreenenter"",""1"",""2481""
","
","","","865","","","20","21058","7831","&#9789;","elianto","#f73b6a7A"," "," ","1","0","[1716]","1","0","4","","","","","","","",""
"pit-trial","82","749146","0.0-2.0-17.0-1.0","battery-v0.2","","""event"",""trial"",""time""
""fullscreenenter"",""1"",""2481""
","
","
","""event"",""trial"",""time""
""fullscreenenter"",""1"",""2481""
","
","","","507","","","20","21058","7831","&#9789;","elianto","#f73b6a7A"," "," ","1","0","[1357]","1","0","4","","","","","","","",""
"pit-trial","83","752725","0.0-2.0-17.0-2.0","battery-v0.2","","""event"",""trial"",""time""
""fullscreenenter"",""1"",""2481""
","
","
","""event"",""trial"",""time""
""fullscreenenter"",""1"",""2481""
","
","","","722","","","20","21058","7831","&#9789;","elianto","#f73b6a7A"," "," ","1","0","[1573]","1","0","4","","","","","","","",""
"pit-trial","84","756365","0.0-2.0-17.0-3.0","battery-v0.2","","""event"",""trial"",""time""
""fullscreenenter"",""1"",""2481""
","
","
","""event"",""trial"",""time""
""fullscreenenter"",""1"",""2481""
","
","","","781","","","20","21058","7831","&#9789;","elianto","#f73b6a7A"," "," ","1","-10","[1632]","1","0","4","","","","","","","",""
"pit-trial","85","759644","0.0-2.0-17.0-4.0","battery-v0.2","","""event"",""trial"",""time""
""fullscreenenter"",""1"",""2481""
","
","
","""event"",""trial"",""time""
""fullscreenenter"",""1"",""2481""
","
","","","421","","","20","21058","7831","&#9789;","elianto","#f73b6a7A"," "," ","1","0","[1272]","1","0","4","","","","","","","",""
"pit-trial","86","762901","0.0-2.0-17.1-0.1","battery-v0.2","","""event"",""trial"",""time""
""fullscreenenter"",""1"",""2481""
","
","
","""event"",""trial"",""time""
""fullscreenenter"",""1"",""2481""
","
","","","400","","","20","21058","7831","&#9789;","elianto","#f73b6a7A"," "," ","1","0","[1251]","1","0","4","","","","","","","",""
"pit-trial","87","766108","0.0-2.0-17.1-1.1","battery-v0.2","","""event"",""trial"",""time""
""fullscreenenter"",""1"",""2481""
","
","
","""event"",""trial"",""time""
""fullscreenenter"",""1"",""2481""
","
","","","349","","","20","21058","7831","&#9789;","elianto","#f73b6a7A"," "," ","1","0","[1200]","1","0","4","","","","","","","",""
"pit-trial","88","769424","0.0-2.0-17.1-2.1","battery-v0.2","","""event"",""trial"",""time""
""fullscreenenter"",""1"",""2481""
","
","
","""event"",""trial"",""time""
""fullscreenenter"",""1"",""2481""
","
","","","459.0000000001164","","","20","21058","7831","&#9789;","elianto","#f73b6a7A"," "," ","1","0","[1310.0000000001164]","1","0","4","","","","","","","",""
"pit-trial","89","772758","0.0-2.0-17.1-3.1","battery-v0.2","","""event"",""trial"",""time""
""fullscreenenter"",""1"",""2481""
","
","
","""event"",""trial"",""time""
""fullscreenenter"",""1"",""2481""
","
","","","478","","","20","21058","7831","&#9789;","elianto","#f73b6a7A"," "," ","1","-10","[1328]","1","0","4","","","","","","","",""
"pit-trial","90","775877","0.0-2.0-17.1-4.1","battery-v0.2","","""event"",""trial"",""time""
""fullscreenenter"",""1"",""2481""
","
","
","""event"",""trial"",""time""
""fullscreenenter"",""1"",""2481""
","
","","","262","","","20","21058","7831","&#9789;","elianto","#f73b6a7A"," "," ","1","0","[1112]","1","0","4","","","","","","","",""
"pit-trial","91","779069","0.0-2.0-17.2-0.2","battery-v0.2","","""event"",""trial"",""time""
""fullscreenenter"",""1"",""2481""
","
","
","""event"",""trial"",""time""
""fullscreenenter"",""1"",""2481""
","
","","","335","","","20","21058","7831","&#9789;","elianto","#f73b6a7A"," "," ","1","0","[1185]","1","0","4","","","","","","","",""
"pit-trial","92","782418","0.0-2.0-17.2-1.2","battery-v0.2","","""event"",""trial"",""time""
""fullscreenenter"",""1"",""2481""
","
","
","""event"",""trial"",""time""
""fullscreenenter"",""1"",""2481""
","
","","","489.9999999998836","","","20","21058","7831","&#9789;","elianto","#f73b6a7A"," "," ","1","0","[1342]","1","0","4","","","","","","","",""
"pit-trial","93","786097","0.0-2.0-17.2-2.2","battery-v0.2","","""event"",""trial"",""time""
""fullscreenenter"",""1"",""2481""
","
","
","""event"",""trial"",""time""
""fullscreenenter"",""1"",""2481""
","
","","","822","","","20","21058","7831","&#9789;","elianto","#f73b6a7A"," "," ","1","0","[1672]","1","0","4","","","","","","","",""
"pit-trial","94","789421","0.0-2.0-17.2-3.2","battery-v0.2","","""event"",""trial"",""time""
""fullscreenenter"",""1"",""2481""
","
","
","""event"",""trial"",""time""
""fullscreenenter"",""1"",""2481""
","
","","","466","","","20","21058","7831","&#9789;","elianto","#f73b6a7A"," "," ","1","-10","[1317]","1","0","4","","","","","","","",""
"pit-trial","95","792816","0.0-2.0-17.2-4.2","battery-v0.2","","""event"",""trial"",""time""
""fullscreenenter"",""1"",""2481""
","
","
","""event"",""trial"",""time""
""fullscreenenter"",""1"",""2481""
","
","","","538","","","20","21058","7831","&#9789;","elianto","#f73b6a7A"," "," ","1","0","[1387.9999999998836]","1","0","4","","","","","","","",""
"pit-trial","96","796130","0.0-2.0-17.3-0.3","battery-v0.2","","""event"",""trial"",""time""
""fullscreenenter"",""1"",""2481""
","
","
","""event"",""trial"",""time""
""fullscreenenter"",""1"",""2481""
","
","","","457.9999999998836","","","20","21058","7831","&#9789;","elianto","#f73b6a7A"," "," ","1","0","[1308]","1","0","4","","","","","","","",""
"pit-trial","97","800141","0.0-2.0-17.3-1.3","battery-v0.2","","""event"",""trial"",""time""
""fullscreenenter"",""1"",""2481""
","
","
","""event"",""trial"",""time""
""fullscreenenter"",""1"",""2481""
","
","","","1154","","","20","21058","7831","&#9789;","elianto","#f73b6a7A"," "," ","1","0","[2005]","1","0","4","","","","","","","",""
"pit-trial","98","803849","0.0-2.0-17.3-2.3","battery-v0.2","","""event"",""trial"",""time""
""fullscreenenter"",""1"",""2481""
","
","
","""event"",""trial"",""time""
""fullscreenenter"",""1"",""2481""
","
","","","856","","","20","21058","7831","&#9789;","elianto","#f73b6a7A"," "," ","1","0","[1706]","1","0","4","","","","","","","",""
"pit-trial","99","807389","0.0-2.0-17.3-3.3","battery-v0.2","","""event"",""trial"",""time""
""fullscreenenter"",""1"",""2481""
","
","
","""event"",""trial"",""time""
""fullscreenenter"",""1"",""2481""
","
","","","687.0000000001164","","","20","21058","7831","&#9789;","elianto","#f73b6a7A"," "," ","1","-10","[1539.0000000001164]","1","0","4","","","","","","","",""
"pit-trial","100","810679","0.0-2.0-17.3-4.3","battery-v0.2","","""event"",""trial"",""time""
""fullscreenenter"",""1"",""2481""
","
","
","""event"",""trial"",""time""
""fullscreenenter"",""1"",""2481""
","
","","","436","","","20","21058","7831","&#9789;","elianto","#f73b6a7A"," "," ","1","0","[1286]","1","0","4","","","","","","","",""
"call-function","101","810683","0.0-2.0-18.0","battery-v0.2","","""event"",""trial"",""time""
""fullscreenenter"",""1"",""2481""
","
","
","""event"",""trial"",""time""
""fullscreenenter"",""1"",""2481""
","
","","","","","","","","","","","","","","","","","","","","","","","","","","",""
"pit-instructions","102","882771","0.0-2.0-19.0","battery-v0.2","","""event"",""trial"",""time""
""fullscreenenter"",""1"",""2481""
","
","
","""event"",""trial"",""time""
""fullscreenenter"",""1"",""2481""
","
","","[{""page_index"":0,""viewing_time"":6733},{""page_index"":1,""viewing_time"":6000},{""page_index"":2,""viewing_time"":13750},{""page_index"":3,""viewing_time"":7483},{""page_index"":4,""viewing_time"":8967},{""page_index"":5,""viewing_time"":8801},{""page_index"":6,""viewing_time"":9317},{""page_index"":7,""viewing_time"":6833.000000000116},{""page_index"":8,""viewing_time"":4217.999999999884}]","72103","","","","","","","","","","","","","","","","","","","","","","","",""
"pit-comprehension","103","887907","0.0-2.0-20.0-0.0","battery-v0.2","","""event"",""trial"",""time""
""fullscreenenter"",""1"",""2481""
","
","
","""event"",""trial"",""time""
""fullscreenenter"",""1"",""2481""
","
","","","5131","[""SPACE""]","0","20","21058","7831","","","","","","","","","","","","","","","","","","",""
"pit-instructions","104","890739","0.0-2.0-20.0-1.0","battery-v0.2","","""event"",""trial"",""time""
""fullscreenenter"",""1"",""2481""
","
","
","""event"",""trial"",""time""
""fullscreenenter"",""1"",""2481""
","
","","[{""page_index"":0,""viewing_time"":2807.0000000001164}]","2807.0000000001164","","","","","","","","","","","","","","","","","","","","","","","",""
"pit-comprehension","105","897123","0.0-2.0-21.0-0.0","battery-v0.2","","""event"",""trial"",""time""
""fullscreenenter"",""1"",""2481""
","
","
","""event"",""trial"",""time""
""fullscreenenter"",""1"",""2481""
","
","","","6380","[""10""]","0","20","21058","7831","","","","","","","","","","","","","","","","","","",""
"pit-instructions","106","900320","0.0-2.0-21.0-1.0","battery-v0.2","","""event"",""trial"",""time""
""fullscreenenter"",""1"",""2481""
","
","
","""event"",""trial"",""time""
""fullscreenenter"",""1"",""2481""
","
","","[{""page_index"":0,""viewing_time"":3171.0000000001164}]","3171.0000000001164","","","","","","","","","","","","","","","","","","","","","","","",""
"pit-comprehension","107","907640","0.0-2.0-22.0-0.0","battery-v0.2","","""event"",""trial"",""time""
""fullscreenenter"",""1"",""2481""
","
","
","""event"",""trial"",""time""
""fullscreenenter"",""1"",""2481""
","
","","","7314.999999999884","[""0""]","0","20","21058","7831","","","","","","","","","","","","","","","","","","",""
"pit-instructions","108","909820","0.0-2.0-22.0-1.0","battery-v0.2","","""event"",""trial"",""time""
""fullscreenenter"",""1"",""2481""
","
","
","""event"",""trial"",""time""
""fullscreenenter"",""1"",""2481""
","
","","[{""page_index"":0,""viewing_time"":2152.0000000001164}]","2153","","","","","","","","","","","","","","","","","","","","","","","",""
"pit-comprehension","109","919023","0.0-2.0-23.0-0.0","battery-v0.2","","""event"",""trial"",""time""
""fullscreenenter"",""1"",""2481""
","
","
","""event"",""trial"",""time""
""fullscreenenter"",""1"",""2481""
","
","","","9197","[""True""]","0","20","21058","7831","","","","","","","","","","","","","","","","","","",""
"pit-instructions","110","920504","0.0-2.0-23.0-1.0","battery-v0.2","","""event"",""trial"",""time""
""fullscreenenter"",""1"",""2481""
","
","
","""event"",""trial"",""time""
""fullscreenenter"",""1"",""2481""
","
","","[{""page_index"":0,""viewing_time"":1453.9999999998836}]","1453.9999999998836","","","","","","","","","","","","","","","","","","","","","","","",""
"pit-comprehension","111","928455","0.0-2.0-24.0-0.0","battery-v0.2","","""event"",""trial"",""time""
""fullscreenenter"",""1"",""2481""
","
","
","""event"",""trial"",""time""
""fullscreenenter"",""1"",""2481""
","
","","","7947","[""True""]","0","20","21058","7831","","","","","","","","","","","","","","","","","","",""
"pit-instructions","112","929986","0.0-2.0-24.0-1.0","battery-v0.2","","""event"",""trial"",""time""
""fullscreenenter"",""1"",""2481""
","
","
","""event"",""trial"",""time""
""fullscreenenter"",""1"",""2481""
","
","","[{""page_index"":0,""viewing_time"":1504.0000000001164}]","1504.0000000001164","","","","","","","","","","","","","","","","","","","","","","","",""
"pit-comprehension","113","937355","0.0-2.0-25.0-0.0","battery-v0.2","","""event"",""trial"",""time""
""fullscreenenter"",""1"",""2481""
","
","
","""event"",""trial"",""time""
""fullscreenenter"",""1"",""2481""
","
","","","7366","[""True""]","0","20","21058","7831","","","","","","","","","","","","","","","","","","",""
"pit-instructions","114","938803","0.0-2.0-25.0-1.0","battery-v0.2","","""event"",""trial"",""time""
""fullscreenenter"",""1"",""2481""
","
","
","""event"",""trial"",""time""
""fullscreenenter"",""1"",""2481""
","
","","[{""page_index"":0,""viewing_time"":1419}]","1419","","","","","","","","","","","","","","","","","","","","","","","",""
"pit-comprehension","115","944155","0.0-2.0-26.0-0.0","battery-v0.2","","""event"",""trial"",""time""
""fullscreenenter"",""1"",""2481""
","
","
","""event"",""trial"",""time""
""fullscreenenter"",""1"",""2481""
","
","","","5348","[""False""]","0","20","21058","7831","","","","","","","","","","","","","","","","","","",""
"pit-instructions","116","945702","0.0-2.0-26.0-1.0","battery-v0.2","","""event"",""trial"",""time""
""fullscreenenter"",""1"",""2481""
","
","
","""event"",""trial"",""time""
""fullscreenenter"",""1"",""2481""
","
","","[{""page_index"":0,""viewing_time"":1518}]","1518","","","","","","","","","","","","","","","","","","","","","","","",""
"pit-instructions","117","962619","0.0-3.0","battery-v0.2","","""event"",""trial"",""time""
""fullscreenenter"",""1"",""2481""
","
","
","""event"",""trial"",""time""
""fullscreenenter"",""1"",""2481""
","
","","[{""page_index"":0,""viewing_time"":3729},{""page_index"":1,""viewing_time"":5134},{""page_index"":2,""viewing_time"":8050}]","16914.000000000116","","","","","","","","","","","","","","","","","","","","","","","",""
"pit-trial","118","966544","0.0-4.0","battery-v0.2","","""event"",""trial"",""time""
""fullscreenenter"",""1"",""2481""
","
","
","""event"",""trial"",""time""
""fullscreenenter"",""1"",""2481""
","
","","","1065","","","20","21058","7831","&#9730;","elianto","#3366ff99"," "," ","1","+10","[1916]","1","1","","","21058","1","1","1","win","go","0"
"pit-trial","119","970733","0.0-5.0","battery-v0.2","","""event"",""trial"",""time""
""fullscreenenter"",""1"",""2481""
","
","
","""event"",""trial"",""time""
""fullscreenenter"",""1"",""2481""
","
","","","1332","","","20","21058","7831","&#9752;","elianto","#f73b6a7A"," "," ","1","0","[2182]","1","1","","","21058","2","3","3","lose","go","0"
"pit-trial","120","975591","0.0-6.0","battery-v0.2","","""event"",""trial"",""time""
""fullscreenenter"",""1"",""2481""
","
","
","""event"",""trial"",""time""
""fullscreenenter"",""1"",""2481""
","
","","","-1","","","20","21058","7831","&#9733;","elianto","#3366ff99","-1","-1","1","+10","[]","0","1","","","21058","3","2","2","win","no-go","0"
"pit-trial","121","980449","0.0-7.0","battery-v0.2","","""event"",""trial"",""time""
""fullscreenenter"",""1"",""2481""
","
","
","""event"",""trial"",""time""
""fullscreenenter"",""1"",""2481""
","
","","","-1","","","20","21058","7831","&#9728;","elianto","#f73b6a7A","-1","-1","1","-10","[]","0","1","","","21058","4","0","4","lose","no-go","1"
"pit-trial","122","984347","0.0-8.0","battery-v0.2","","""event"",""trial"",""time""
""fullscreenenter"",""1"",""2481""
","
","
","""event"",""trial"",""time""
""fullscreenenter"",""1"",""2481""
","
","","","1041.0000000001164","","","20","21058","7831","&#9752;","elianto","#f73b6a7A"," "," ","1","0","[1892.0000000001164]","1","1","","","21058","5","3","3","lose","go","0"
"pit-trial","123","987902","0.0-9.0","battery-v0.2","","""event"",""trial"",""time""
""fullscreenenter"",""1"",""2481""
","
","
","""event"",""trial"",""time""
""fullscreenenter"",""1"",""2481""
","
","","","693","","","20","21058","7831","&#9730;","elianto","#3366ff99"," "," ","1","+10","[1544]","1","1","","","21058","6","1","1","win","go","0"
"pit-trial","124","992762","0.0-10.0","battery-v0.2","","""event"",""trial"",""time""
""fullscreenenter"",""1"",""2481""
","
","
","""event"",""trial"",""time""
""fullscreenenter"",""1"",""2481""
","
","","","-1","","","20","21058","7831","&#9733;","elianto","#3366ff99","-1","-1","1","+10","[]","0","1","","","21058","7","2","2","win","no-go","0"
"pit-trial","125","996491","0.0-11.0","battery-v0.2","","""event"",""trial"",""time""
""fullscreenenter"",""1"",""2481""
","
","
","""event"",""trial"",""time""
""fullscreenenter"",""1"",""2481""
","
","","","870","","","20","21058","7831","&#9728;","elianto","#f73b6a7A","-1"," ","0","-10","[1719.0000000001164]","1","1","","","21058","8","0","4","lose","no-go","0"
"pit-trial","126","1001350","0.0-12.0","battery-v0.2","","""event"",""trial"",""time""
""fullscreenenter"",""1"",""2481""
","
","
","""event"",""trial"",""time""
""fullscreenenter"",""1"",""2481""
","
","","","-1","","","20","21058","7831","&#9728;","elianto","#f73b6a7A","-1","-1","1","0","[]","0","1","","","21058","9","0","4","lose","no-go","0"
"pit-trial","127","1005276","0.0-13.0","battery-v0.2","","""event"",""trial"",""time""
""fullscreenenter"",""1"",""2481""
","
","
","""event"",""trial"",""time""
""fullscreenenter"",""1"",""2481""
","
","","","1064.9999999998836","","","20","21058","7831","&#9752;","elianto","#f73b6a7A"," "," ","1","0","[1917]","1","1","","","21058","10","3","3","lose","go","0"
"pit-trial","128","1008782","0.0-14.0","battery-v0.2","","""event"",""trial"",""time""
""fullscreenenter"",""1"",""2481""
","
","
","""event"",""trial"",""time""
""fullscreenenter"",""1"",""2481""
","
","","","646.0000000001164","","","20","21058","7831","&#9730;","elianto","#3366ff99"," "," ","1","+10","[1497.0000000001164]","1","1","","","21058","11","1","1","win","go","0"
"pit-trial","129","1013641","0.0-15.0","battery-v0.2","","""event"",""trial"",""time""
""fullscreenenter"",""1"",""2481""
","
","
","""event"",""trial"",""time""
""fullscreenenter"",""1"",""2481""
","
","","","-1","","","20","21058","7831","&#9733;","elianto","#3366ff99","-1","-1","1","+10","[]","0","1","","","21058","12","2","2","win","no-go","0"
"pit-trial","130","1018500","0.0-16.0","battery-v0.2","","""event"",""trial"",""time""
""fullscreenenter"",""1"",""2481""
","
","
","""event"",""trial"",""time""
""fullscreenenter"",""1"",""2481""
","
","","","-1","","","20","21058","7831","&#9728;","elianto","#f73b6a7A","-1","-1","1","0","[]","0","1","","","21058","13","0","4","lose","no-go","0"
"pit-trial","131","1022120","0.0-17.0","battery-v0.2","","""event"",""trial"",""time""
""fullscreenenter"",""1"",""2481""
","
","
","""event"",""trial"",""time""
""fullscreenenter"",""1"",""2481""
","
","","","760.9999999998836","","","20","21058","7831","&#9730;","elianto","#3366ff99"," "," ","1","+10","[1611.9999999998836]","1","1","","","21058","14","1","1","win","go","0"
"pit-trial","132","1025873","0.0-18.0","battery-v0.2","","""event"",""trial"",""time""
""fullscreenenter"",""1"",""2481""
","
","
","""event"",""trial"",""time""
""fullscreenenter"",""1"",""2481""
","
","","","893.0000000001164","","","20","21058","7831","&#9752;","elianto","#f73b6a7A"," "," ","1","-10","[1744.0000000001164]","1","1","","","21058","15","3","3","lose","go","1"
"pit-trial","133","1030732","0.0-19.0","battery-v0.2","","""event"",""trial"",""time""
""fullscreenenter"",""1"",""2481""
","
","
","""event"",""trial"",""time""
""fullscreenenter"",""1"",""2481""
","
","","","-1","","","20","21058","7831","&#9733;","elianto","#3366ff99","-1","-1","1","0","[]","0","1","","","21058","16","2","2","win","no-go","1"
"pit-trial","134","1035138","0.0-20.0","battery-v0.2","","""event"",""trial"",""time""
""fullscreenenter"",""1"",""2481""
","
","
","""event"",""trial"",""time""
""fullscreenenter"",""1"",""2481""
","
","","","1546.9999999997672","","","20","21058","7831","&#9752;","elianto","#f73b6a7A"," "," ","1","-10","[2396.9999999998836]","1","1","","","21058","17","3","3","lose","go","1"
"pit-trial","135","1039997","0.0-21.0","battery-v0.2","","""event"",""trial"",""time""
""fullscreenenter"",""1"",""2481""
","
","
","""event"",""trial"",""time""
""fullscreenenter"",""1"",""2481""
","
","","","-1","","","20","21058","7831","&#9728;","elianto","#f73b6a7A","-1","-1","1","0","[]","0","1","","","21058","18","0","4","lose","no-go","0"
"pit-trial","136","1044856","0.0-22.0","battery-v0.2","","""event"",""trial"",""time""
""fullscreenenter"",""1"",""2481""
","
","
","""event"",""trial"",""time""
""fullscreenenter"",""1"",""2481""
","
","","","-1","","","20","21058","7831","&#9733;","elianto","#3366ff99","-1","-1","1","+10","[]","0","1","","","21058","19","2","2","win","no-go","0"
"pit-trial","137","1048390","0.0-23.0","battery-v0.2","","""event"",""trial"",""time""
""fullscreenenter"",""1"",""2481""
","
","
","""event"",""trial"",""time""
""fullscreenenter"",""1"",""2481""
","
","","","672.9999999998836","","","20","21058","7831","&#9730;","elianto","#3366ff99"," "," ","1","+10","[1525]","1","1","","","21058","20","1","1","win","go","0"
"pit-instructions","138","1179783","0.0-24.0","battery-v0.2","","""event"",""trial"",""time""
""fullscreenenter"",""1"",""2481""
","
","
","""event"",""trial"",""time""
""fullscreenenter"",""1"",""2481""
","
","","[{""page_index"":0,""viewing_time"":122110.99999999977},{""page_index"":1,""viewing_time"":9282}]","131392.99999999977","","","","","","","","","","","","","","","","","","","","","","","",""
"pit-trial","139","1183267","0.0-25.0","battery-v0.2","","""event"",""trial"",""time""
""fullscreenenter"",""1"",""2481""
","
","
","""event"",""trial"",""time""
""fullscreenenter"",""1"",""2481""
","
","","","623.0000000002328","","","20","21058","7831","w","elianto","#f73b6a7A"," "," ","1","0","[1474.0000000002328]","1","2","","","21058","21","3","3","lose","go","0"
"pit-trial","140","1188127","0.0-26.0","battery-v0.2","","""event"",""trial"",""time""
""fullscreenenter"",""1"",""2481""
","
","
","""event"",""trial"",""time""
""fullscreenenter"",""1"",""2481""
","
","","","-1","","","20","21058","7831","j","elianto","#f73b6a7A","-1","-1","1","0","[]","0","2","","","21058","22","0","4","lose","no-go","0"
"pit-trial","141","1192311","0.0-27.0","battery-v0.2","","""event"",""trial"",""time""
""fullscreenenter"",""1"",""2481""
","
","
","""event"",""trial"",""time""
""fullscreenenter"",""1"",""2481""
","
","","","1324","","","20","21058","7831","e","elianto","#f73b6a7A","-1"," ","0","-10","[2174]","1","2","","","21058","23","2","4","lose","no-go","0"
"pit-trial","142","1196139","0.0-28.0","battery-v0.2","","""event"",""trial"",""time""
""fullscreenenter"",""1"",""2481""
","
","
","""event"",""trial"",""time""
""fullscreenenter"",""1"",""2481""
","
","","","967","","","20","21058","7831","d","elianto","#3366ff99"," "," ","1","+10","[1818]","1","2","","","21058","24","1","1","win","go","0"
"pit-trial","143","1199732","0.0-29.0","battery-v0.2","","""event"",""trial"",""time""
""fullscreenenter"",""1"",""2481""
","
","
","""event"",""trial"",""time""
""fullscreenenter"",""1"",""2481""
","
","","","734.9999999997672","","","20","21058","7831","w","elianto","#f73b6a7A"," "," ","1","0","[1586]","1","2","","","21058","25","3","3","lose","go","0"
"pit-trial","144","1203275","0.0-30.0","battery-v0.2","","""event"",""trial"",""time""
""fullscreenenter"",""1"",""2481""
","
","
","""event"",""trial"",""time""
""fullscreenenter"",""1"",""2481""
","
","","","682","","","20","21058","7831","d","elianto","#3366ff99"," "," ","1","+10","[1533]","1","2","","","21058","26","1","1","win","go","0"
"pit-trial","145","1208134","0.0-31.0","battery-v0.2","","""event"",""trial"",""time""
""fullscreenenter"",""1"",""2481""
","
","
","""event"",""trial"",""time""
""fullscreenenter"",""1"",""2481""
","
","","","-1","","","20","21058","7831","j","elianto","#f73b6a7A","-1","-1","1","0","[]","0","2","","","21058","27","0","4","lose","no-go","0"
"pit-trial","146","1212994","0.0-32.0","battery-v0.2","","""event"",""trial"",""time""
""fullscreenenter"",""1"",""2481""
","
","
","""event"",""trial"",""time""
""fullscreenenter"",""1"",""2481""
","
","","","-1","","","20","21058","7831","e","elianto","#f73b6a7A","-1","-1","1","0","[]","0","2","","","21058","28","2","4","lose","no-go","0"
"pit-trial","147","1216523","0.0-33.0","battery-v0.2","","""event"",""trial"",""time""
""fullscreenenter"",""1"",""2481""
","
","
","""event"",""trial"",""time""
""fullscreenenter"",""1"",""2481""
","
","","","671","","","20","21058","7831","d","elianto","#3366ff99"," "," ","1","+10","[1521]","1","2","","","21058","29","1","1","win","go","0"
"pit-trial","148","1221382","0.0-34.0","battery-v0.2","","""event"",""trial"",""time""
""fullscreenenter"",""1"",""2481""
","
","
","""event"",""trial"",""time""
""fullscreenenter"",""1"",""2481""
","
","","","-1","","","20","21058","7831","e","elianto","#f73b6a7A","-1","-1","1","0","[]","0","2","","","21058","30","2","4","lose","no-go","0"
"pit-trial","149","1226241","0.0-35.0","battery-v0.2","","""event"",""trial"",""time""
""fullscreenenter"",""1"",""2481""
","
","
","""event"",""trial"",""time""
""fullscreenenter"",""1"",""2481""
","
","","","-1","","","20","21058","7831","j","elianto","#f73b6a7A","-1","-1","1","0","[]","0","2","","","21058","31","0","4","lose","no-go","0"
"pit-trial","150","1229813","0.0-36.0","battery-v0.2","","""event"",""trial"",""time""
""fullscreenenter"",""1"",""2481""
","
","
","""event"",""trial"",""time""
""fullscreenenter"",""1"",""2481""
","
","","","713.0000000002328","","","20","21058","7831","w","elianto","#f73b6a7A"," "," ","1","-10","[1563.0000000002328]","1","2","","","21058","32","3","3","lose","go","1"
"pit-trial","151","1233476","0.0-37.0","battery-v0.2","","""event"",""trial"",""time""
""fullscreenenter"",""1"",""2481""
","
","
","""event"",""trial"",""time""
""fullscreenenter"",""1"",""2481""
","
","","","805","","","20","21058","7831","d","elianto","#3366ff99"," "," ","1","+10","[1656]","1","2","","","21058","33","1","1","win","go","0"
"pit-trial","152","1238336","0.0-38.0","battery-v0.2","","""event"",""trial"",""time""
""fullscreenenter"",""1"",""2481""
","
","
","""event"",""trial"",""time""
""fullscreenenter"",""1"",""2481""
","
","","","-1","","","20","21058","7831","j","elianto","#f73b6a7A","-1","-1","1","0","[]","0","2","","","21058","34","0","4","lose","no-go","0"
"pit-trial","153","1242026","0.0-39.0","battery-v0.2","","""event"",""trial"",""time""
""fullscreenenter"",""1"",""2481""
","
","
","""event"",""trial"",""time""
""fullscreenenter"",""1"",""2481""
","
","","","831","","","20","21058","7831","w","elianto","#f73b6a7A"," "," ","1","0","[1682]","1","2","","","21058","35","3","3","lose","go","0"
"pit-trial","154","1246885","0.0-40.0","battery-v0.2","","""event"",""trial"",""time""
""fullscreenenter"",""1"",""2481""
","
","
","""event"",""trial"",""time""
""fullscreenenter"",""1"",""2481""
","
","","","-1","","","20","21058","7831","e","elianto","#f73b6a7A","-1","-1","1","0","[]","0","2","","","21058","36","2","4","lose","no-go","0"
"pit-trial","155","1251744","0.0-41.0","battery-v0.2","","""event"",""trial"",""time""
""fullscreenenter"",""1"",""2481""
","
","
","""event"",""trial"",""time""
""fullscreenenter"",""1"",""2481""
","
","","","-1","","","20","21058","7831","j","elianto","#f73b6a7A","-1","-1","1","0","[]","0","2","","","21058","37","0","4","lose","no-go","0"
"pit-trial","156","1256604","0.0-42.0","battery-v0.2","","""event"",""trial"",""time""
""fullscreenenter"",""1"",""2481""
","
","
","""event"",""trial"",""time""
""fullscreenenter"",""1"",""2481""
","
","","","-1","","","20","21058","7831","e","elianto","#f73b6a7A","-1","-1","1","-10","[]","0","2","","","21058","38","2","4","lose","no-go","1"
"pit-trial","157","1260064","0.0-43.0","battery-v0.2","","""event"",""trial"",""time""
""fullscreenenter"",""1"",""2481""
","
","
","""event"",""trial"",""time""
""fullscreenenter"",""1"",""2481""
","
","","","600","","","20","21058","7831","d","elianto","#3366ff99"," "," ","1","+10","[1451]","1","2","","","21058","39","1","1","win","go","0"
"pit-trial","158","1263827","0.0-44.0","battery-v0.2","","""event"",""trial"",""time""
""fullscreenenter"",""1"",""2481""
","
","
","""event"",""trial"",""time""
""fullscreenenter"",""1"",""2481""
","
","","","903","","","20","21058","7831","w","elianto","#f73b6a7A"," "," ","1","0","[1754]","1","2","","","21058","40","3","3","lose","go","0"
"pit-trial","159","1267528","0.0-45.0","battery-v0.2","","""event"",""trial"",""time""
""fullscreenenter"",""1"",""2481""
","
","
","""event"",""trial"",""time""
""fullscreenenter"",""1"",""2481""
","
","","","841.9999999997672","","","20","21058","7831","w","elianto","#f73b6a7A"," "," ","1","0","[1693]","1","2","","","21058","41","3","3","lose","go","0"
"pit-trial","160","1272387","0.0-46.0","battery-v0.2","","""event"",""trial"",""time""
""fullscreenenter"",""1"",""2481""
","
","
","""event"",""trial"",""time""
""fullscreenenter"",""1"",""2481""
","
","","","-1","","","20","21058","7831","e","elianto","#f73b6a7A","-1","-1","1","0","[]","0","2","","","21058","42","2","4","lose","no-go","0"
"pit-trial","161","1275926","0.0-47.0","battery-v0.2","","""event"",""trial"",""time""
""fullscreenenter"",""1"",""2481""
","
","
","""event"",""trial"",""time""
""fullscreenenter"",""1"",""2481""
","
","","","679","","","20","21058","7831","d","elianto","#3366ff99"," "," ","1","+10","[1531]","1","2","","","21058","43","1","1","win","go","0"
"pit-trial","162","1280785","0.0-48.0","battery-v0.2","","""event"",""trial"",""time""
""fullscreenenter"",""1"",""2481""
","
","
","""event"",""trial"",""time""
""fullscreenenter"",""1"",""2481""
","
","","","-1","","","20","21058","7831","j","elianto","#f73b6a7A","-1","-1","1","0","[]","0","2","","","21058","44","0","4","lose","no-go","0"
"pit-trial","163","1285648","0.0-49.0","battery-v0.2","","""event"",""trial"",""time""
""fullscreenenter"",""1"",""2481""
","
","
","""event"",""trial"",""time""
""fullscreenenter"",""1"",""2481""
","
","","","-1","","","20","21058","7831","e","elianto","#f73b6a7A","-1","-1","1","0","[]","0","2","","","21058","45","2","4","lose","no-go","0"
"pit-trial","164","1289251","0.0-50.0","battery-v0.2","","""event"",""trial"",""time""
""fullscreenenter"",""1"",""2481""
","
","
","""event"",""trial"",""time""
""fullscreenenter"",""1"",""2481""
","
","","","744","","","20","21058","7831","w","elianto","#f73b6a7A"," "," ","1","0","[1596]","1","2","","","21058","46","3","3","lose","go","0"
"pit-trial","165","1293220","0.0-51.0","battery-v0.2","","""event"",""trial"",""time""
""fullscreenenter"",""1"",""2481""
","
","
","""event"",""trial"",""time""
""fullscreenenter"",""1"",""2481""
","
","","","1109","","","20","21058","7831","s","elianto","#3366ff99","-1"," ","0","+10","[1959]","1","2","","","21058","47","4","2","win","no-go","1"
"pit-trial","166","1298079","0.0-52.0","battery-v0.2","","""event"",""trial"",""time""
""fullscreenenter"",""1"",""2481""
","
","
","""event"",""trial"",""time""
""fullscreenenter"",""1"",""2481""
","
","","","-1","","","20","21058","7831","j","elianto","#f73b6a7A","-1","-1","1","0","[]","0","2","","","21058","48","0","4","lose","no-go","0"
"pit-trial","167","1302937","0.0-53.0","battery-v0.2","","""event"",""trial"",""time""
""fullscreenenter"",""1"",""2481""
","
","
","""event"",""trial"",""time""
""fullscreenenter"",""1"",""2481""
","
","","","-1","","","20","21058","7831","j","elianto","#f73b6a7A","-1","-1","1","0","[]","0","2","","","21058","49","0","4","lose","no-go","0"
"pit-trial","168","1306488","0.0-54.0","battery-v0.2","","""event"",""trial"",""time""
""fullscreenenter"",""1"",""2481""
","
","
","""event"",""trial"",""time""
""fullscreenenter"",""1"",""2481""
","
","","","691","","","20","21058","7831","s","elianto","#3366ff99","-1"," ","0","+10","[1542]","1","2","","","21058","50","4","2","win","no-go","1"
"pit-trial","169","1310018","0.0-55.0","battery-v0.2","","""event"",""trial"",""time""
""fullscreenenter"",""1"",""2481""
","
","
","""event"",""trial"",""time""
""fullscreenenter"",""1"",""2481""
","
","","","670.9999999997672","","","20","21058","7831","d","elianto","#3366ff99"," "," ","1","0","[1522]","1","2","","","21058","51","1","1","win","go","1"
"pit-trial","170","1313867","0.0-56.0","battery-v0.2","","""event"",""trial"",""time""
""fullscreenenter"",""1"",""2481""
","
","
","""event"",""trial"",""time""
""fullscreenenter"",""1"",""2481""
","
","","","989","","","20","21058","7831","w","elianto","#f73b6a7A"," "," ","1","0","[1841]","1","2","","","21058","52","3","3","lose","go","0"
"pit-trial","171","1318725","0.0-57.0","battery-v0.2","","""event"",""trial"",""time""
""fullscreenenter"",""1"",""2481""
","
","
","""event"",""trial"",""time""
""fullscreenenter"",""1"",""2481""
","
","","","-1","","","20","21058","7831","e","elianto","#f73b6a7A","-1","-1","1","0","[]","0","2","","","21058","53","2","4","lose","no-go","0"
"pit-trial","172","1323586","0.0-58.0","battery-v0.2","","""event"",""trial"",""time""
""fullscreenenter"",""1"",""2481""
","
","
","""event"",""trial"",""time""
""fullscreenenter"",""1"",""2481""
","
","","","-1","","","20","21058","7831","j","elianto","#f73b6a7A","-1","-1","1","-10","[]","0","2","","","21058","54","0","4","lose","no-go","1"
"pit-trial","173","1327110","0.0-59.0","battery-v0.2","","""event"",""trial"",""time""
""fullscreenenter"",""1"",""2481""
","
","
","""event"",""trial"",""time""
""fullscreenenter"",""1"",""2481""
","
","","","664","","","20","21058","7831","s","elianto","#3366ff99","-1"," ","0","0","[1516]","1","2","","","21058","55","4","2","win","no-go","0"
"pit-trial","174","1330924","0.0-60.0","battery-v0.2","","""event"",""trial"",""time""
""fullscreenenter"",""1"",""2481""
","
","
","""event"",""trial"",""time""
""fullscreenenter"",""1"",""2481""
","
","","","954","","","20","21058","7831","d","elianto","#3366ff99"," "," ","1","+10","[1804]","1","2","","","21058","56","1","1","win","go","0"
"pit-trial","175","1334777","0.0-61.0","battery-v0.2","","""event"",""trial"",""time""
""fullscreenenter"",""1"",""2481""
","
","
","""event"",""trial"",""time""
""fullscreenenter"",""1"",""2481""
","
","","","993","","","20","21058","7831","d","elianto","#3366ff99"," "," ","1","+10","[1843]","1","2","","","21058","57","1","1","win","go","0"
"pit-trial","176","1339635","0.0-62.0","battery-v0.2","","""event"",""trial"",""time""
""fullscreenenter"",""1"",""2481""
","
","
","""event"",""trial"",""time""
""fullscreenenter"",""1"",""2481""
","
","","","-1","","","20","21058","7831","j","elianto","#f73b6a7A","-1","-1","1","0","[]","0","2","","","21058","58","0","4","lose","no-go","0"
"pit-trial","177","1343339","0.0-63.0","battery-v0.2","","""event"",""trial"",""time""
""fullscreenenter"",""1"",""2481""
","
","
","""event"",""trial"",""time""
""fullscreenenter"",""1"",""2481""
","
","","","845","","","20","21058","7831","s","elianto","#3366ff99","-1"," ","0","0","[1696]","1","2","","","21058","59","4","2","win","no-go","0"
"pit-trial","178","1348198","0.0-64.0","battery-v0.2","","""event"",""trial"",""time""
""fullscreenenter"",""1"",""2481""
","
","
","""event"",""trial"",""time""
""fullscreenenter"",""1"",""2481""
","
","","","-1","","","20","21058","7831","w","elianto","#f73b6a7A"," ","-1","0","-10","[2941.000000000233]","1","2","","","21058","60","3","3","lose","go","0"
"pit-trial","179","1353057","0.0-65.0","battery-v0.2","","""event"",""trial"",""time""
""fullscreenenter"",""1"",""2481""
","
","
","""event"",""trial"",""time""
""fullscreenenter"",""1"",""2481""
","
","","","-1","","","20","21058","7831","e","elianto","#f73b6a7A","-1","-1","1","0","[]","0","2","","","21058","61","2","4","lose","no-go","0"
"pit-trial","180","1356730","0.0-66.0","battery-v0.2","","""event"",""trial"",""time""
""fullscreenenter"",""1"",""2481""
","
","
","""event"",""trial"",""time""
""fullscreenenter"",""1"",""2481""
","
","","","813.0000000002328","","","20","21058","7831","w","elianto","#f73b6a7A"," "," ","1","0","[1663]","1","2","","","21058","62","3","3","lose","go","0"
"pit-trial","181","1360413","0.0-67.0","battery-v0.2","","""event"",""trial"",""time""
""fullscreenenter"",""1"",""2481""
","
","
","""event"",""trial"",""time""
""fullscreenenter"",""1"",""2481""
","
","","","824","","","20","21058","7831","s","elianto","#3366ff99","-1"," ","0","0","[1675]","1","2","","","21058","63","4","2","win","no-go","0"
"pit-trial","182","1364098","0.0-68.0","battery-v0.2","","""event"",""trial"",""time""
""fullscreenenter"",""1"",""2481""
","
","
","""event"",""trial"",""time""
""fullscreenenter"",""1"",""2481""
","
","","","826","","","20","21058","7831","d","elianto","#3366ff99"," "," ","1","+10","[1676.9999999997672]","1","2","","","21058","64","1","1","win","go","0"
"pit-trial","183","1368118","0.0-69.0","battery-v0.2","","""event"",""trial"",""time""
""fullscreenenter"",""1"",""2481""
","
","
","""event"",""trial"",""time""
""fullscreenenter"",""1"",""2481""
","
","","","1161","","","20","21058","7831","d","elianto","#3366ff99"," "," ","1","+10","[2012]","1","2","","","21058","65","1","1","win","go","0"
"pit-trial","184","1372976","0.0-70.0","battery-v0.2","","""event"",""trial"",""time""
""fullscreenenter"",""1"",""2481""
","
","
","""event"",""trial"",""time""
""fullscreenenter"",""1"",""2481""
","
","","","-1","","","20","21058","7831","s","elianto","#3366ff99","-1","-1","1","+10","[]","0","2","","","21058","66","4","2","win","no-go","0"
"pit-trial","185","1376649","0.0-71.0","battery-v0.2","","""event"",""trial"",""time""
""fullscreenenter"",""1"",""2481""
","
","
","""event"",""trial"",""time""
""fullscreenenter"",""1"",""2481""
","
","","","814","","","20","21058","7831","w","elianto","#f73b6a7A"," "," ","1","-10","[1665]","1","2","","","21058","67","3","3","lose","go","1"
"pit-trial","186","1381509","0.0-72.0","battery-v0.2","","""event"",""trial"",""time""
""fullscreenenter"",""1"",""2481""
","
","
","""event"",""trial"",""time""
""fullscreenenter"",""1"",""2481""
","
","","","-1","","","20","21058","7831","e","elianto","#f73b6a7A","-1","-1","1","0","[]","0","2","","","21058","68","2","4","lose","no-go","0"
"pit-trial","187","1385272","0.0-73.0","battery-v0.2","","""event"",""trial"",""time""
""fullscreenenter"",""1"",""2481""
","
","
","""event"",""trial"",""time""
""fullscreenenter"",""1"",""2481""
","
","","","903","","","20","21058","7831","d","elianto","#3366ff99"," "," ","1","+10","[1754]","1","2","","","21058","69","1","1","win","go","0"
"pit-trial","188","1389667","0.0-74.0","battery-v0.2","","""event"",""trial"",""time""
""fullscreenenter"",""1"",""2481""
","
","
","""event"",""trial"",""time""
""fullscreenenter"",""1"",""2481""
","
","","","1537","","","20","21058","7831","w","elianto","#f73b6a7A"," "," ","1","0","[2387]","1","2","","","21058","70","3","3","lose","go","0"
"pit-trial","189","1394527","0.0-75.0","battery-v0.2","","""event"",""trial"",""time""
""fullscreenenter"",""1"",""2481""
","
","
","""event"",""trial"",""time""
""fullscreenenter"",""1"",""2481""
","
","","","-1","","","20","21058","7831","s","elianto","#3366ff99","-1","-1","1","+10","[]","0","2","","","21058","71","4","2","win","no-go","0"
"pit-trial","190","1398496","0.0-76.0","battery-v0.2","","""event"",""trial"",""time""
""fullscreenenter"",""1"",""2481""
","
","
","""event"",""trial"",""time""
""fullscreenenter"",""1"",""2481""
","
","","","1111.0000000002328","","","20","21058","7831","p","elianto","#3366ff99"," "," ","1","+10","[1962.0000000002328]","1","2","","","21058","72","5","1","win","go","0"
"pit-trial","191","1402184","0.0-77.0","battery-v0.2","","""event"",""trial"",""time""
""fullscreenenter"",""1"",""2481""
","
","
","""event"",""trial"",""time""
""fullscreenenter"",""1"",""2481""
","
","","","828","","","20","21058","7831","d","elianto","#3366ff99"," "," ","1","0","[1679]","1","2","","","21058","73","1","1","win","go","1"
"pit-trial","192","1405786","0.0-78.0","battery-v0.2","","""event"",""trial"",""time""
""fullscreenenter"",""1"",""2481""
","
","
","""event"",""trial"",""time""
""fullscreenenter"",""1"",""2481""
","
","","","744","","","20","21058","7831","p","elianto","#3366ff99"," "," ","1","0","[1595]","1","2","","","21058","74","5","1","win","go","1"
"pit-trial","193","1410646","0.0-79.0","battery-v0.2","","""event"",""trial"",""time""
""fullscreenenter"",""1"",""2481""
","
","
","""event"",""trial"",""time""
""fullscreenenter"",""1"",""2481""
","
","","","-1","","","20","21058","7831","s","elianto","#3366ff99","-1","-1","1","0","[]","0","2","","","21058","75","4","2","win","no-go","1"
"pit-trial","194","1414456","0.0-80.0","battery-v0.2","","""event"",""trial"",""time""
""fullscreenenter"",""1"",""2481""
","
","
","""event"",""trial"",""time""
""fullscreenenter"",""1"",""2481""
","
","","","949.9999999997672","","","20","21058","7831","w","elianto","#f73b6a7A"," "," ","1","0","[1801]","1","2","","","21058","76","3","3","lose","go","0"
"pit-trial","195","1419315","0.0-81.0","battery-v0.2","","""event"",""trial"",""time""
""fullscreenenter"",""1"",""2481""
","
","
","""event"",""trial"",""time""
""fullscreenenter"",""1"",""2481""
","
","","","-1","","","20","21058","7831","s","elianto","#3366ff99","-1","-1","1","+10","[]","0","2","","","21058","77","4","2","win","no-go","0"
"pit-trial","196","1423087","0.0-82.0","battery-v0.2","","""event"",""trial"",""time""
""fullscreenenter"",""1"",""2481""
","
","
","""event"",""trial"",""time""
""fullscreenenter"",""1"",""2481""
","
","","","915","","","20","21058","7831","w","elianto","#f73b6a7A"," "," ","1","0","[1764.9999999997672]","1","2","","","21058","78","3","3","lose","go","0"
"pit-trial","197","1427240","0.0-83.0","battery-v0.2","","""event"",""trial"",""time""
""fullscreenenter"",""1"",""2481""
","
","
","""event"",""trial"",""time""
""fullscreenenter"",""1"",""2481""
","
","","","1294","","","20","21058","7831","g","elianto","#f73b6a7A","-1"," ","0","-10","[2144]","1","2","","","21058","79","6","4","lose","no-go","0"
"pit-trial","198","1430968","0.0-84.0","battery-v0.2","","""event"",""trial"",""time""
""fullscreenenter"",""1"",""2481""
","
","
","""event"",""trial"",""time""
""fullscreenenter"",""1"",""2481""
","
","","","869","","","20","21058","7831","p","elianto","#3366ff99"," "," ","1","+10","[1720]","1","2","","","21058","80","5","1","win","go","0"
"pit-trial","199","1434697","0.0-85.0","battery-v0.2","","""event"",""trial"",""time""
""fullscreenenter"",""1"",""2481""
","
","
","""event"",""trial"",""time""
""fullscreenenter"",""1"",""2481""
","
","","","871","","","20","21058","7831","p","elianto","#3366ff99"," "," ","1","+10","[1721.9999999997672]","1","2","","","21058","81","5","1","win","go","0"
"pit-trial","200","1439556","0.0-86.0","battery-v0.2","","""event"",""trial"",""time""
""fullscreenenter"",""1"",""2481""
","
","
","""event"",""trial"",""time""
""fullscreenenter"",""1"",""2481""
","
","","","-1","","","20","21058","7831","a","elianto","#f73b6a7A"," ","-1","0","-10","[]","0","2","","","21058","82","7","3","lose","go","0"
"pit-trial","201","1444415","0.0-87.0","battery-v0.2","","""event"",""trial"",""time""
""fullscreenenter"",""1"",""2481""
","
","
","""event"",""trial"",""time""
""fullscreenenter"",""1"",""2481""
","
","","","-1","","","20","21058","7831","s","elianto","#3366ff99","-1","-1","1","+10","[]","0","2","","","21058","83","4","2","win","no-go","0"
"pit-trial","202","1449274","0.0-88.0","battery-v0.2","","""event"",""trial"",""time""
""fullscreenenter"",""1"",""2481""
","
","
","""event"",""trial"",""time""
""fullscreenenter"",""1"",""2481""
","
","","","-1","","","20","21058","7831","g","elianto","#f73b6a7A","-1","-1","1","0","[]","0","2","","","21058","84","6","4","lose","no-go","0"
"pit-trial","203","1454135","0.0-89.0","battery-v0.2","","""event"",""trial"",""time""
""fullscreenenter"",""1"",""2481""
","
","
","""event"",""trial"",""time""
""fullscreenenter"",""1"",""2481""
","
","","","-1","","","20","21058","7831","s","elianto","#3366ff99","-1","-1","1","+10","[]","0","2","","","21058","85","4","2","win","no-go","0"
"pit-trial","204","1458995","0.0-90.0","battery-v0.2","","""event"",""trial"",""time""
""fullscreenenter"",""1"",""2481""
","
","
","""event"",""trial"",""time""
""fullscreenenter"",""1"",""2481""
","
","","","-1","","","20","21058","7831","g","elianto","#f73b6a7A","-1","-1","1","0","[]","0","2","","","21058","86","6","4","lose","no-go","0"
"pit-trial","205","1462769","0.0-91.0","battery-v0.2","","""event"",""trial"",""time""
""fullscreenenter"",""1"",""2481""
","
","
","""event"",""trial"",""time""
""fullscreenenter"",""1"",""2481""
","
","","","915","","","20","21058","7831","p","elianto","#3366ff99"," "," ","1","+10","[1765.9999999997672]","1","2","","","21058","87","5","1","win","go","0"
"pit-trial","206","1467142","0.0-92.0","battery-v0.2","","""event"",""trial"",""time""
""fullscreenenter"",""1"",""2481""
","
","
","""event"",""trial"",""time""
""fullscreenenter"",""1"",""2481""
","
","","","1513.9999999997672","","","20","21058","7831","a","elianto","#f73b6a7A"," "," ","1","-10","[2365]","1","2","","","21058","88","7","3","lose","go","1"
"pit-trial","207","1472002","0.0-93.0","battery-v0.2","","""event"",""trial"",""time""
""fullscreenenter"",""1"",""2481""
","
","
","""event"",""trial"",""time""
""fullscreenenter"",""1"",""2481""
","
","","","-1","","","20","21058","7831","a","elianto","#f73b6a7A"," ","-1","0","-10","[]","0","2","","","21058","89","7","3","lose","go","0"
"pit-trial","208","1475770","0.0-94.0","battery-v0.2","","""event"",""trial"",""time""
""fullscreenenter"",""1"",""2481""
","
","
","""event"",""trial"",""time""
""fullscreenenter"",""1"",""2481""
","
","","","909","","","20","21058","7831","p","elianto","#3366ff99"," "," ","1","+10","[1760]","1","2","","","21058","90","5","1","win","go","0"
"pit-trial","209","1480629","0.0-95.0","battery-v0.2","","""event"",""trial"",""time""
""fullscreenenter"",""1"",""2481""
","
","
","""event"",""trial"",""time""
""fullscreenenter"",""1"",""2481""
","
","","","-1","","","20","21058","7831","g","elianto","#f73b6a7A","-1","-1","1","0","[]","0","2","","","21058","91","6","4","lose","no-go","0"
"pit-trial","210","1485489","0.0-96.0","battery-v0.2","","""event"",""trial"",""time""
""fullscreenenter"",""1"",""2481""
","
","
","""event"",""trial"",""time""
""fullscreenenter"",""1"",""2481""
","
","","","-1","","","20","21058","7831","s","elianto","#3366ff99","-1","-1","1","+10","[]","0","2","","","21058","92","4","2","win","no-go","0"
"pit-trial","211","1489419","0.0-97.0","battery-v0.2","","""event"",""trial"",""time""
""fullscreenenter"",""1"",""2481""
","
","
","""event"",""trial"",""time""
""fullscreenenter"",""1"",""2481""
","
","","","1070","","","20","21058","7831","l","elianto","#3366ff99","-1"," ","0","0","[1921]","1","2","","","21058","93","8","2","win","no-go","0"
"pit-trial","212","1494279","0.0-98.0","battery-v0.2","","""event"",""trial"",""time""
""fullscreenenter"",""1"",""2481""
","
","
","""event"",""trial"",""time""
""fullscreenenter"",""1"",""2481""
","
","","","-1","","","20","21058","7831","g","elianto","#f73b6a7A","-1","-1","1","0","[]","0","2","","","21058","94","6","4","lose","no-go","0"
"pit-trial","213","1498106","0.0-99.0","battery-v0.2","","""event"",""trial"",""time""
""fullscreenenter"",""1"",""2481""
","
","
","""event"",""trial"",""time""
""fullscreenenter"",""1"",""2481""
","
","","","968","","","20","21058","7831","p","elianto","#3366ff99"," "," ","1","+10","[1818]","1","2","","","21058","95","5","1","win","go","0"
"pit-trial","214","1502965","0.0-100.0","battery-v0.2","","""event"",""trial"",""time""
""fullscreenenter"",""1"",""2481""
","
","
","""event"",""trial"",""time""
""fullscreenenter"",""1"",""2481""
","
","","","-1","","","20","21058","7831","a","elianto","#f73b6a7A"," ","-1","0","-10","[]","0","2","","","21058","96","7","3","lose","go","0"
"pit-trial","215","1507585","0.0-101.0","battery-v0.2","","""event"",""trial"",""time""
""fullscreenenter"",""1"",""2481""
","
","
","""event"",""trial"",""time""
""fullscreenenter"",""1"",""2481""
","
","","","1756.9999999997672","","","20","21058","7831","l","elianto","#3366ff99","-1"," ","0","+10","[2610]","1","2","","","21058","97","8","2","win","no-go","1"
"pit-trial","216","1512444","0.0-102.0","battery-v0.2","","""event"",""trial"",""time""
""fullscreenenter"",""1"",""2481""
","
","
","""event"",""trial"",""time""
""fullscreenenter"",""1"",""2481""
","
","","","-1","","","20","21058","7831","g","elianto","#f73b6a7A","-1","-1","1","0","[]","0","2","","","21058","98","6","4","lose","no-go","0"
"pit-trial","217","1517304","0.0-103.0","battery-v0.2","","""event"",""trial"",""time""
""fullscreenenter"",""1"",""2481""
","
","
","""event"",""trial"",""time""
""fullscreenenter"",""1"",""2481""
","
","","","-1","","","20","21058","7831","a","elianto","#f73b6a7A"," ","-1","0","0","[]","0","2","","","21058","99","7","3","lose","go","1"
"pit-trial","218","1521059","0.0-104.0","battery-v0.2","","""event"",""trial"",""time""
""fullscreenenter"",""1"",""2481""
","
","
","""event"",""trial"",""time""
""fullscreenenter"",""1"",""2481""
","
","","","896.0000000002328","","","20","21058","7831","p","elianto","#3366ff99"," "," ","1","+10","[1746.0000000002328]","1","2","","","21058","100","5","1","win","go","0"
"pit-trial","219","1525918","0.0-105.0","battery-v0.2","","""event"",""trial"",""time""
""fullscreenenter"",""1"",""2481""
","
","
","""event"",""trial"",""time""
""fullscreenenter"",""1"",""2481""
","
","","","-1","","","20","21058","7831","g","elianto","#f73b6a7A","-1","-1","1","0","[]","0","2","","","21058","101","6","4","lose","no-go","0"
"pit-trial","220","1529848","0.0-106.0","battery-v0.2","","""event"",""trial"",""time""
""fullscreenenter"",""1"",""2481""
","
","
","""event"",""trial"",""time""
""fullscreenenter"",""1"",""2481""
","
","","","1071","","","20","21058","7831","u","elianto","#3366ff99","-1"," ","0","0","[1921]","1","2","","","21058","102","9","2","win","no-go","0"
"pit-trial","221","1533460","0.0-107.0","battery-v0.2","","""event"",""trial"",""time""
""fullscreenenter"",""1"",""2481""
","
","
","""event"",""trial"",""time""
""fullscreenenter"",""1"",""2481""
","
","","","755.0000000002328","","","20","21058","7831","p","elianto","#3366ff99"," "," ","1","+10","[1605]","1","2","","","21058","103","5","1","win","go","0"
"pit-trial","222","1537391","0.0-108.0","battery-v0.2","","""event"",""trial"",""time""
""fullscreenenter"",""1"",""2481""
","
","
","""event"",""trial"",""time""
""fullscreenenter"",""1"",""2481""
","
","","","1070","","","20","21058","7831","l","elianto","#3366ff99","-1"," ","0","0","[1921]","1","2","","","21058","104","8","2","win","no-go","0"
"pit-trial","223","1542250","0.0-109.0","battery-v0.2","","""event"",""trial"",""time""
""fullscreenenter"",""1"",""2481""
","
","
","""event"",""trial"",""time""
""fullscreenenter"",""1"",""2481""
","
","","","-1","","","20","21058","7831","u","elianto","#3366ff99","-1","-1","1","+10","[]","0","2","","","21058","105","9","2","win","no-go","0"
"pit-trial","224","1547108","0.0-110.0","battery-v0.2","","""event"",""trial"",""time""
""fullscreenenter"",""1"",""2481""
","
","
","""event"",""trial"",""time""
""fullscreenenter"",""1"",""2481""
","
","","","-1","","","20","21058","7831","g","elianto","#f73b6a7A","-1","-1","1","0","[]","0","2","","","21058","106","6","4","lose","no-go","0"
"pit-trial","225","1550827","0.0-111.0","battery-v0.2","","""event"",""trial"",""time""
""fullscreenenter"",""1"",""2481""
","
","
","""event"",""trial"",""time""
""fullscreenenter"",""1"",""2481""
","
","","","859","","","20","21058","7831","p","elianto","#3366ff99"," "," ","1","+10","[1710]","1","2","","","21058","107","5","1","win","go","0"
"pit-trial","226","1555687","0.0-112.0","battery-v0.2","","""event"",""trial"",""time""
""fullscreenenter"",""1"",""2481""
","
","
","""event"",""trial"",""time""
""fullscreenenter"",""1"",""2481""
","
","","","-1","","","20","21058","7831","l","elianto","#3366ff99","-1","-1","1","+10","[]","0","2","","","21058","108","8","2","win","no-go","0"
"pit-trial","227","1559479","0.0-113.0","battery-v0.2","","""event"",""trial"",""time""
""fullscreenenter"",""1"",""2481""
","
","
","""event"",""trial"",""time""
""fullscreenenter"",""1"",""2481""
","
","","","932","","","20","21058","7831","p","elianto","#3366ff99"," "," ","1","+10","[1783.0000000002328]","1","2","","","21058","109","5","1","win","go","0"
"pit-trial","228","1564338","0.0-114.0","battery-v0.2","","""event"",""trial"",""time""
""fullscreenenter"",""1"",""2481""
","
","
","""event"",""trial"",""time""
""fullscreenenter"",""1"",""2481""
","
","","","-1","","","20","21058","7831","u","elianto","#3366ff99","-1","-1","1","+10","[]","0","2","","","21058","110","9","2","win","no-go","0"
"pit-trial","229","1569197","0.0-115.0","battery-v0.2","","""event"",""trial"",""time""
""fullscreenenter"",""1"",""2481""
","
","
","""event"",""trial"",""time""
""fullscreenenter"",""1"",""2481""
","
","","","-1","","","20","21058","7831","l","elianto","#3366ff99","-1","-1","1","+10","[]","0","2","","","21058","111","8","2","win","no-go","0"
"pit-trial","230","1574056","0.0-116.0","battery-v0.2","","""event"",""trial"",""time""
""fullscreenenter"",""1"",""2481""
","
","
","""event"",""trial"",""time""
""fullscreenenter"",""1"",""2481""
","
","","","-1","","","20","21058","7831","g","elianto","#f73b6a7A","-1","-1","1","-10","[]","0","2","","","21058","112","6","4","lose","no-go","1"
"pit-trial","231","1578456","0.0-117.0","battery-v0.2","","""event"",""trial"",""time""
""fullscreenenter"",""1"",""2481""
","
","
","""event"",""trial"",""time""
""fullscreenenter"",""1"",""2481""
","
","","","1542","","","20","21058","7831","p","elianto","#3366ff99"," "," ","1","+10","[2392]","1","2","","","21058","113","5","1","win","go","0"
"pit-trial","232","1583315","0.0-118.0","battery-v0.2","","""event"",""trial"",""time""
""fullscreenenter"",""1"",""2481""
","
","
","""event"",""trial"",""time""
""fullscreenenter"",""1"",""2481""
","
","","","-1","","","20","21058","7831","l","elianto","#3366ff99","-1","-1","1","+10","[]","0","2","","","21058","114","8","2","win","no-go","0"
"pit-trial","233","1588175","0.0-119.0","battery-v0.2","","""event"",""trial"",""time""
""fullscreenenter"",""1"",""2481""
","
","
","""event"",""trial"",""time""
""fullscreenenter"",""1"",""2481""
","
","","","-1","","","20","21058","7831","a","elianto","#f73b6a7A"," ","-1","0","-10","[]","0","2","","","21058","115","7","3","lose","go","0"
"pit-trial","234","1593034","0.0-120.0","battery-v0.2","","""event"",""trial"",""time""
""fullscreenenter"",""1"",""2481""
","
","
","""event"",""trial"",""time""
""fullscreenenter"",""1"",""2481""
","
","","","-1","","","20","21058","7831","u","elianto","#3366ff99","-1","-1","1","0","[]","0","2","","","21058","116","9","2","win","no-go","1"
"pit-trial","235","1597893","0.0-121.0","battery-v0.2","","""event"",""trial"",""time""
""fullscreenenter"",""1"",""2481""
","
","
","""event"",""trial"",""time""
""fullscreenenter"",""1"",""2481""
","
","","","-1","","","20","21058","7831","l","elianto","#3366ff99","-1","-1","1","+10","[]","0","2","","","21058","117","8","2","win","no-go","0"
"pit-trial","236","1601502","0.0-122.0","battery-v0.2","","""event"",""trial"",""time""
""fullscreenenter"",""1"",""2481""
","
","
","""event"",""trial"",""time""
""fullscreenenter"",""1"",""2481""
","
","","","748","","","20","21058","7831","p","elianto","#3366ff99"," "," ","1","0","[1599]","1","2","","","21058","118","5","1","win","go","1"
"pit-trial","237","1606362","0.0-123.0","battery-v0.2","","""event"",""trial"",""time""
""fullscreenenter"",""1"",""2481""
","
","
","""event"",""trial"",""time""
""fullscreenenter"",""1"",""2481""
","
","","","-1","","","20","21058","7831","g","elianto","#f73b6a7A","-1","-1","1","0","[]","0","2","","","21058","119","6","4","lose","no-go","0"
"pit-trial","238","1610562","0.0-124.0","battery-v0.2","","""event"",""trial"",""time""
""fullscreenenter"",""1"",""2481""
","
","
","""event"",""trial"",""time""
""fullscreenenter"",""1"",""2481""
","
","","","1339","","","20","21058","7831","u","elianto","#3366ff99","-1"," ","0","+10","[2190]","1","2","","","21058","120","9","2","win","no-go","1"
"pit-trial","239","1614731","0.0-125.0","battery-v0.2","","""event"",""trial"",""time""
""fullscreenenter"",""1"",""2481""
","
","
","""event"",""trial"",""time""
""fullscreenenter"",""1"",""2481""
","
","","","1309","","","20","21058","7831","a","elianto","#f73b6a7A"," "," ","1","-10","[2161]","1","2","","","21058","121","7","3","lose","go","1"
"pit-trial","240","1618611","0.0-126.0","battery-v0.2","","""event"",""trial"",""time""
""fullscreenenter"",""1"",""2481""
","
","
","""event"",""trial"",""time""
""fullscreenenter"",""1"",""2481""
","
","","","1021.0000000002328","","","20","21058","7831","u","elianto","#3366ff99","-1"," ","0","+10","[1872.0000000002328]","1","2","","","21058","122","9","2","win","no-go","1"
"pit-trial","241","1623470","0.0-127.0","battery-v0.2","","""event"",""trial"",""time""
""fullscreenenter"",""1"",""2481""
","
","
","""event"",""trial"",""time""
""fullscreenenter"",""1"",""2481""
","
","","","-1","","","20","21058","7831","l","elianto","#3366ff99","-1","-1","1","+10","[]","0","2","","","21058","123","8","2","win","no-go","0"
"pit-trial","242","1627201","0.0-128.0","battery-v0.2","","""event"",""trial"",""time""
""fullscreenenter"",""1"",""2481""
","
","
","""event"",""trial"",""time""
""fullscreenenter"",""1"",""2481""
","
","","","870","","","20","21058","7831","p","elianto","#3366ff99"," "," ","1","0","[1721]","1","2","","","21058","124","5","1","win","go","1"
"pit-trial","243","1632060","0.0-129.0","battery-v0.2","","""event"",""trial"",""time""
""fullscreenenter"",""1"",""2481""
","
","
","""event"",""trial"",""time""
""fullscreenenter"",""1"",""2481""
","
","","","-1","","","20","21058","7831","g","elianto","#f73b6a7A","-1","-1","1","0","[]","0","2","","","21058","125","6","4","lose","no-go","0"
"pit-trial","244","1635854","0.0-130.0","battery-v0.2","","""event"",""trial"",""time""
""fullscreenenter"",""1"",""2481""
","
","
","""event"",""trial"",""time""
""fullscreenenter"",""1"",""2481""
","
","","","936","","","20","21058","7831","u","elianto","#3366ff99","-1"," ","0","0","[1787]","1","2","","","21058","126","9","2","win","no-go","0"
"pit-trial","245","1640714","0.0-131.0","battery-v0.2","","""event"",""trial"",""time""
""fullscreenenter"",""1"",""2481""
","
","
","""event"",""trial"",""time""
""fullscreenenter"",""1"",""2481""
","
","","","-1","","","20","21058","7831","l","elianto","#3366ff99","-1","-1","1","+10","[]","0","2","","","21058","127","8","2","win","no-go","0"
"pit-trial","246","1645574","0.0-132.0","battery-v0.2","","""event"",""trial"",""time""
""fullscreenenter"",""1"",""2481""
","
","
","""event"",""trial"",""time""
""fullscreenenter"",""1"",""2481""
","
","","","-1","","","20","21058","7831","a","elianto","#f73b6a7A"," ","-1","0","-10","[]","0","2","","","21058","128","7","3","lose","go","0"
"pit-trial","247","1650433","0.0-133.0","battery-v0.2","","""event"",""trial"",""time""
""fullscreenenter"",""1"",""2481""
","
","
","""event"",""trial"",""time""
""fullscreenenter"",""1"",""2481""
","
","","","-1","","","20","21058","7831","l","elianto","#3366ff99","-1","-1","1","0","[]","0","2","","","21058","129","8","2","win","no-go","1"
"pit-trial","248","1654528","0.0-134.0","battery-v0.2","","""event"",""trial"",""time""
""fullscreenenter"",""1"",""2481""
","
","
","""event"",""trial"",""time""
""fullscreenenter"",""1"",""2481""
","
","","","1235.9999999997672","","","20","21058","7831","u","elianto","#3366ff99","-1"," ","0","+10","[2086]","1","2","","","21058","130","9","2","win","no-go","1"
"pit-trial","249","1659387","0.0-135.0","battery-v0.2","","""event"",""trial"",""time""
""fullscreenenter"",""1"",""2481""
","
","
","""event"",""trial"",""time""
""fullscreenenter"",""1"",""2481""
","
","","","-1","","","20","21058","7831","g","elianto","#f73b6a7A","-1","-1","1","0","[]","0","2","","","21058","131","6","4","lose","no-go","0"
"pit-trial","250","1664246","0.0-136.0","battery-v0.2","","""event"",""trial"",""time""
""fullscreenenter"",""1"",""2481""
","
","
","""event"",""trial"",""time""
""fullscreenenter"",""1"",""2481""
","
","","","-1","","","20","21058","7831","a","elianto","#f73b6a7A"," ","-1","0","-10","[]","0","2","","","21058","132","7","3","lose","go","0"
"pit-trial","251","1669105","0.0-137.0","battery-v0.2","","""event"",""trial"",""time""
""fullscreenenter"",""1"",""2481""
","
","
","""event"",""trial"",""time""
""fullscreenenter"",""1"",""2481""
","
","","","-1","","","20","21058","7831","l","elianto","#3366ff99","-1","-1","1","+10","[]","0","2","","","21058","133","8","2","win","no-go","0"
"pit-trial","252","1672853","0.0-138.0","battery-v0.2","","""event"",""trial"",""time""
""fullscreenenter"",""1"",""2481""
","
","
","""event"",""trial"",""time""
""fullscreenenter"",""1"",""2481""
","
","","","887","","","20","21058","7831","u","elianto","#3366ff99","-1"," ","0","0","[1738]","1","2","","","21058","134","9","2","win","no-go","0"
"pit-trial","253","1676707","0.0-139.0","battery-v0.2","","""event"",""trial"",""time""
""fullscreenenter"",""1"",""2481""
","
","
","""event"",""trial"",""time""
""fullscreenenter"",""1"",""2481""
","
","","","995","","","20","21058","7831","a","elianto","#f73b6a7A"," "," ","1","0","[1846]","1","2","","","21058","135","7","3","lose","go","0"
"pit-trial","254","1681567","0.0-140.0","battery-v0.2","","""event"",""trial"",""time""
""fullscreenenter"",""1"",""2481""
","
","
","""event"",""trial"",""time""
""fullscreenenter"",""1"",""2481""
","
","","","-1","","","20","21058","7831","g","elianto","#f73b6a7A","-1","-1","1","-10","[]","0","2","","","21058","136","6","4","lose","no-go","1"
"pit-trial","255","1685446","0.0-141.0","battery-v0.2","","""event"",""trial"",""time""
""fullscreenenter"",""1"",""2481""
","
","
","""event"",""trial"",""time""
""fullscreenenter"",""1"",""2481""
","
","","","1020.9999999997672","","","20","21058","7831","a","elianto","#f73b6a7A"," "," ","1","0","[1872]","1","2","","","21058","137","7","3","lose","go","0"
"pit-trial","256","1690304","0.0-142.0","battery-v0.2","","""event"",""trial"",""time""
""fullscreenenter"",""1"",""2481""
","
","
","""event"",""trial"",""time""
""fullscreenenter"",""1"",""2481""
","
","","","-1","","","20","21058","7831","g","elianto","#f73b6a7A","-1","-1","1","0","[]","0","2","","","21058","138","6","4","lose","no-go","0"
"pit-trial","257","1695165","0.0-143.0","battery-v0.2","","""event"",""trial"",""time""
""fullscreenenter"",""1"",""2481""
","
","
","""event"",""trial"",""time""
""fullscreenenter"",""1"",""2481""
","
","","","-1","","","20","21058","7831","l","elianto","#3366ff99","-1","-1","1","0","[]","0","2","","","21058","139","8","2","win","no-go","1"
"pit-trial","258","1698980","0.0-144.0","battery-v0.2","","""event"",""trial"",""time""
""fullscreenenter"",""1"",""2481""
","
","
","""event"",""trial"",""time""
""fullscreenenter"",""1"",""2481""
","
","","","955","","","20","21058","7831","u","elianto","#3366ff99","-1"," ","0","+10","[1807]","1","2","","","21058","140","9","2","win","no-go","1"
"pit-instructions","259","2455862","0.0-145.0","battery-v0.2","","""event"",""trial"",""time""
""fullscreenenter"",""1"",""2481""
","
","
","""event"",""trial"",""time""
""fullscreenenter"",""1"",""2481""
","
","","[{""page_index"":0,""viewing_time"":747797},{""page_index"":1,""viewing_time"":9053}]","756851","","","","","","","","","","","","","","","","","","","","","","","",""
"pit-trial","260","2459764","0.0-146.0","battery-v0.2","","""event"",""trial"",""time""
""fullscreenenter"",""1"",""2481""
","
","
","""event"",""trial"",""time""
""fullscreenenter"",""1"",""2481""
","
","","","1042","","","20","21058","7831","f","elianto","#3366ff99","-1"," ","0","0","[1893]","1","3","","","21058","141","1","2","win","no-go","0"
"pit-trial","261","2463610","0.0-147.0","battery-v0.2","","""event"",""trial"",""time""
""fullscreenenter"",""1"",""2481""
","
","
","""event"",""trial"",""time""
""fullscreenenter"",""1"",""2481""
","
","","","986","","","20","21058","7831","b","elianto","#f73b6a7A","-1"," ","0","-10","[1837]","1","3","","","21058","142","3","4","lose","no-go","0"
"pit-trial","262","2467527","0.0-148.0","battery-v0.2","","""event"",""trial"",""time""
""fullscreenenter"",""1"",""2481""
","
","
","""event"",""trial"",""time""
""fullscreenenter"",""1"",""2481""
","
","","","1058","","","20","21058","7831","n","elianto","#f73b6a7A"," "," ","1","0","[1908]","1","3","","","21058","143","0","3","lose","go","0"
"pit-trial","263","2471285","0.0-149.0","battery-v0.2","","""event"",""trial"",""time""
""fullscreenenter"",""1"",""2481""
","
","
","""event"",""trial"",""time""
""fullscreenenter"",""1"",""2481""
","
","","","898","","","20","21058","7831","t","elianto","#f73b6a7A"," "," ","1","0","[1749]","1","3","","","21058","144","2","3","lose","go","0"
"pit-trial","264","2474843","0.0-150.0","battery-v0.2","","""event"",""trial"",""time""
""fullscreenenter"",""1"",""2481""
","
","
","""event"",""trial"",""time""
""fullscreenenter"",""1"",""2481""
","
","","","698","","","20","21058","7831","n","elianto","#f73b6a7A"," "," ","1","0","[1549]","1","3","","","21058","145","0","3","lose","go","0"
"pit-trial","265","2478564","0.0-151.0","battery-v0.2","","""event"",""trial"",""time""
""fullscreenenter"",""1"",""2481""
","
","
","""event"",""trial"",""time""
""fullscreenenter"",""1"",""2481""
","
","","","863.9999999995343","","","20","21058","7831","t","elianto","#f73b6a7A"," "," ","1","0","[1715]","1","3","","","21058","146","2","3","lose","go","0"
"pit-trial","266","2483423","0.0-152.0","battery-v0.2","","""event"",""trial"",""time""
""fullscreenenter"",""1"",""2481""
","
","
","""event"",""trial"",""time""
""fullscreenenter"",""1"",""2481""
","
","","","-1","","","20","21058","7831","f","elianto","#3366ff99","-1","-1","1","+10","[]","0","3","","","21058","147","1","2","win","no-go","0"
"pit-trial","267","2488284","0.0-153.0","battery-v0.2","","""event"",""trial"",""time""
""fullscreenenter"",""1"",""2481""
","
","
","""event"",""trial"",""time""
""fullscreenenter"",""1"",""2481""
","
","","","-1","","","20","21058","7831","b","elianto","#f73b6a7A","-1","-1","1","0","[]","0","3","","","21058","148","3","4","lose","no-go","0"
"pit-trial","268","2491797","0.0-154.0","battery-v0.2","","""event"",""trial"",""time""
""fullscreenenter"",""1"",""2481""
","
","
","""event"",""trial"",""time""
""fullscreenenter"",""1"",""2481""
","
","","","651.9999999995343","","","20","21058","7831","n","elianto","#f73b6a7A"," "," ","1","0","[1505]","1","3","","","21058","149","0","3","lose","go","0"
"pit-trial","269","2495299","0.0-155.0","battery-v0.2","","""event"",""trial"",""time""
""fullscreenenter"",""1"",""2481""
","
","
","""event"",""trial"",""time""
""fullscreenenter"",""1"",""2481""
","
","","","641","","","20","21058","7831","t","elianto","#f73b6a7A"," "," ","1","0","[1493]","1","3","","","21058","150","2","3","lose","go","0"
"pit-trial","270","2500159","0.0-156.0","battery-v0.2","","""event"",""trial"",""time""
""fullscreenenter"",""1"",""2481""
","
","
","""event"",""trial"",""time""
""fullscreenenter"",""1"",""2481""
","
","","","-1","","","20","21058","7831","b","elianto","#f73b6a7A","-1","-1","1","0","[]","0","3","","","21058","151","3","4","lose","no-go","0"
"pit-trial","271","2505017","0.0-157.0","battery-v0.2","","""event"",""trial"",""time""
""fullscreenenter"",""1"",""2481""
","
","
","""event"",""trial"",""time""
""fullscreenenter"",""1"",""2481""
","
","","","-1","","","20","21058","7831","f","elianto","#3366ff99","-1","-1","1","+10","[]","0","3","","","21058","152","1","2","win","no-go","0"
"pit-trial","272","2508898","0.0-158.0","battery-v0.2","","""event"",""trial"",""time""
""fullscreenenter"",""1"",""2481""
","
","
","""event"",""trial"",""time""
""fullscreenenter"",""1"",""2481""
","
","","","1020","","","20","21058","7831","t","elianto","#f73b6a7A"," "," ","1","-10","[1873]","1","3","","","21058","153","2","3","lose","go","1"
"pit-trial","273","2512388","0.0-159.0","battery-v0.2","","""event"",""trial"",""time""
""fullscreenenter"",""1"",""2481""
","
","
","""event"",""trial"",""time""
""fullscreenenter"",""1"",""2481""
","
","","","629","","","20","21058","7831","n","elianto","#f73b6a7A"," "," ","1","0","[1481]","1","3","","","21058","154","0","3","lose","go","0"
"pit-trial","274","2517247","0.0-160.0","battery-v0.2","","""event"",""trial"",""time""
""fullscreenenter"",""1"",""2481""
","
","
","""event"",""trial"",""time""
""fullscreenenter"",""1"",""2481""
","
","","","-1","","","20","21058","7831","b","elianto","#f73b6a7A","-1","-1","1","0","[]","0","3","","","21058","155","3","4","lose","no-go","0"
