"trial_type","trial_index","time_elapsed","internal_node_id","task_version","subject_id","interactions","blur_events","focus_events","fullscreenenter_events","fullscreenexit_events","success","view_history","rt","responses","num_errors","age","subject","participantId","rune","rune_set","hex","correct","choice","accuracy","outcome","keys","total_keys","block","practice","value","sub","trial","stimulus","robot","valence","action","sham"
"pavlovia","0","9","0.0-0.0","battery-v0.2","","""event"",""trial"",""time""
""fullscreenenter"",""1"",""2456""
","
","
","""event"",""trial"",""time""
""fullscreenenter"",""1"",""2456""
","
","","","","","","","","","","","","","","","","","","","","","","","","","","",""
"fullscreen","1","3429","0.0-1.0","battery-v0.2","","""event"",""trial"",""time""
""fullscreenenter"",""1"",""2456""
","
","
","""event"",""trial"",""time""
""fullscreenenter"",""1"",""2456""
","
","true","","","","","","","","","","","","","","","","","","","","","","","","","",""
"pit-instructions","2","9827","0.0-2.0-0.0","battery-v0.2","","""event"",""trial"",""time""
""fullscreenenter"",""1"",""2456""
","
","
","""event"",""trial"",""time""
""fullscreenenter"",""1"",""2456""
","
","","[{""page_index"":0,""viewing_time"":6392.89999961853}]","6393.299999713898","","","","","","","","","","","","","","","","","","","","","","","",""
"pit-comprehension","3","16240","0.0-2.0-1.0-0.0","battery-v0.2","","""event"",""trial"",""time""
""fullscreenenter"",""1"",""2456""
","
","
","""event"",""trial"",""time""
""fullscreenenter"",""1"",""2456""
","
","","","6409.299999713898","[""shark""]","0","24","12646","5631","","","","","","","","","","","","","","","","","","",""
"pit-instructions","4","18402","0.0-2.0-1.0-1.0","battery-v0.2","","""event"",""trial"",""time""
""fullscreenenter"",""1"",""2456""
","
","
","""event"",""trial"",""time""
""fullscreenenter"",""1"",""2456""
","
","","[{""page_index"":0,""viewing_time"":2151.9000000953674}]","2152.2000002861023","","","","","","","","","","","","","","","","","","","","","","","",""
"pit-comprehension","5","23204","0.0-2.0-2.0-0.0","battery-v0.2","","""event"",""trial"",""time""
""fullscreenenter"",""1"",""2456""
","
","
","""event"",""trial"",""time""
""fullscreenenter"",""1"",""2456""
","
","","","4798.700000286102","[""tiger""]","0","24","12646","5631","","","","","","","","","","","","","","","","","","",""
"pit-instructions","6","24992","0.0-2.0-2.0-1.0","battery-v0.2","","""event"",""trial"",""time""
""fullscreenenter"",""1"",""2456""
","
","
","""event"",""trial"",""time""
""fullscreenenter"",""1"",""2456""
","
","","[{""page_index"":0,""viewing_time"":1783.2999997138977}]","1783.5","","","","","","","","","","","","","","","","","","","","","","","",""
"pit-instructions","7","127858","0.0-2.0-3.0","battery-v0.2","","""event"",""trial"",""time""
""fullscreenenter"",""1"",""2456""
","
","
","""event"",""trial"",""time""
""fullscreenenter"",""1"",""2456""
","
","","[{""page_index"":0,""viewing_time"":12065.799999713898},{""page_index"":1,""viewing_time"":6414.60000038147},{""page_index"":2,""viewing_time"":8572.39999961853},{""page_index"":3,""viewing_time"":5195.60000038147},{""page_index"":4,""viewing_time"":7697.5},{""page_index"":5,""viewing_time"":5322.099999904633},{""page_index"":6,""viewing_time"":6748},{""page_index"":7,""viewing_time"":6802.400000095367},{""page_index"":8,""viewing_time"":6119.39999961853},{""page_index"":9,""viewing_time"":10193.800000190735},{""page_index"":10,""viewing_time"":8265.5},{""page_index"":11,""viewing_time"":6470.599999904633},{""page_index"":12,""viewing_time"":7777.300000190735},{""page_index"":13,""viewing_time"":5218}]","102863.59999990463","","","","","","","","","","","","","","","","","","","","","","","",""
"pit-trial","8","130961","0.0-2.0-4.0-0.0","battery-v0.2","","""event"",""trial"",""time""
""fullscreenenter"",""1"",""2456""
","
","
","""event"",""trial"",""time""
""fullscreenenter"",""1"",""2456""
","
","","","234.5","","","24","12646","5631","&#9784;","elianto","#FFFFF080"," "," ","1","&#10004","[1093.8000001907349,3072.699999809265]","2","0","0","","","","","","","",""
"pit-trial","9","134850","0.0-2.0-4.1-0.1","battery-v0.2","","""event"",""trial"",""time""
""fullscreenenter"",""1"",""2456""
","
","
","""event"",""trial"",""time""
""fullscreenenter"",""1"",""2456""
","
","","","1015.5","","","24","12646","5631","&#9784;","elianto","#FFFFF080"," "," ","1","&#10004","[1872.2000002861023]","1","0","0","","","","","","","",""
"pit-trial","10","138771","0.0-2.0-4.2-0.2","battery-v0.2","","""event"",""trial"",""time""
""fullscreenenter"",""1"",""2456""
","
","
","""event"",""trial"",""time""
""fullscreenenter"",""1"",""2456""
","
","","","1054.5","","","24","12646","5631","&#9784;","elianto","#FFFFF080"," "," ","1","&#10004","[1905.4000000953674]","1","0","0","","","","","","","",""
"pit-trial","11","142206","0.0-2.0-4.3-0.3","battery-v0.2","","""event"",""trial"",""time""
""fullscreenenter"",""1"",""2456""
","
","
","""event"",""trial"",""time""
""fullscreenenter"",""1"",""2456""
","
","","","567","","","24","12646","5631","&#9784;","elianto","#FFFFF080"," "," ","1","&#10004","[1417.7000002861023]","1","0","0","","","","","","","",""
"pit-trial","12","145730","0.0-2.0-4.4-0.4","battery-v0.2","","""event"",""trial"",""time""
""fullscreenenter"",""1"",""2456""
","
","
","""event"",""trial"",""time""
""fullscreenenter"",""1"",""2456""
","
","","","657.4000000953674","","","24","12646","5631","&#9784;","elianto","#FFFFF080"," "," ","1","&#10004","[1507.9000000953674]","1","0","0","","","","","","","",""
"pit-instructions","13","167178","0.0-2.0-5.0","battery-v0.2","","""event"",""trial"",""time""
""fullscreenenter"",""1"",""2456""
","
","
","""event"",""trial"",""time""
""fullscreenenter"",""1"",""2456""
","
","","[{""page_index"":0,""viewing_time"":4943.599999904633},{""page_index"":1,""viewing_time"":5941.300000190735},{""page_index"":2,""viewing_time"":5030.900000095367},{""page_index"":3,""viewing_time"":5529.400000095367}]","21445.5","","","","","","","","","","","","","","","","","","","","","","","",""
"pit-trial","14","172038","0.0-2.0-6.0-0.0","battery-v0.2","","""event"",""trial"",""time""
""fullscreenenter"",""1"",""2456""
","
","
","""event"",""trial"",""time""
""fullscreenenter"",""1"",""2456""
","
","","","-1","","","24","12646","5631","&#9854;","elianto","#FFFFF080","-1","-1","1","&#10004","[]","0","0","1","","","","","","","",""
"pit-trial","15","176909","0.0-2.0-6.1-0.1","battery-v0.2","","""event"",""trial"",""time""
""fullscreenenter"",""1"",""2456""
","
","
","""event"",""trial"",""time""
""fullscreenenter"",""1"",""2456""
","
","","","-1","","","24","12646","5631","&#9854;","elianto","#FFFFF080","-1","-1","1","&#10004","[]","0","0","1","","","","","","","",""
"pit-trial","16","181787","0.0-2.0-6.2-0.2","battery-v0.2","","""event"",""trial"",""time""
""fullscreenenter"",""1"",""2456""
","
","
","""event"",""trial"",""time""
""fullscreenenter"",""1"",""2456""
","
","","","-1","","","24","12646","5631","&#9854;","elianto","#FFFFF080","-1","-1","1","&#10004","[]","0","0","1","","","","","","","",""
"pit-trial","17","186654","0.0-2.0-6.3-0.3","battery-v0.2","","""event"",""trial"",""time""
""fullscreenenter"",""1"",""2456""
","
","
","""event"",""trial"",""time""
""fullscreenenter"",""1"",""2456""
","
","","","-1","","","24","12646","5631","&#9854;","elianto","#FFFFF080","-1","-1","1","&#10004","[]","0","0","1","","","","","","","",""
"pit-trial","18","191520","0.0-2.0-6.4-0.4","battery-v0.2","","""event"",""trial"",""time""
""fullscreenenter"",""1"",""2456""
","
","
","""event"",""trial"",""time""
""fullscreenenter"",""1"",""2456""
","
","","","-1","","","24","12646","5631","&#9854;","elianto","#FFFFF080","-1","-1","1","&#10004","[]","0","0","1","","","","","","","",""
"pit-instructions","19","316645","0.0-2.0-7.0","battery-v0.2","","""event"",""trial"",""time""
""fullscreenenter"",""1"",""2456""
","
","
","""event"",""trial"",""time""
""fullscreenenter"",""1"",""2456""
","
","","[{""page_index"":0,""viewing_time"":6074.89999961853},{""page_index"":1,""viewing_time"":7763.300000190735},{""page_index"":2,""viewing_time"":7716.400000095367},{""page_index"":3,""viewing_time"":5483.099999904633},{""page_index"":4,""viewing_time"":7281.800000190735},{""page_index"":5,""viewing_time"":9654.799999713898},{""page_index"":6,""viewing_time"":4496.800000190735},{""page_index"":7,""viewing_time"":8232.699999809265},{""page_index"":8,""viewing_time"":6951.700000286102},{""page_index"":9,""viewing_time"":5844.5},{""page_index"":10,""viewing_time"":6354},{""page_index"":11,""viewing_time"":5903.799999713898},{""page_index"":12,""viewing_time"":9250.900000095367},{""page_index"":13,""viewing_time"":7177.800000190735},{""page_index"":14,""viewing_time"":6206.5},{""page_index"":15,""viewing_time"":6426.39999961853},{""page_index"":16,""viewing_time"":6749.900000095367},{""page_index"":17,""viewing_time"":7553.5}]","125123.09999990463","","","","","","","","","","","","","","","","","","","","","","","",""
"pit-trial","20","320089","0.0-2.0-8.0-0.0","battery-v0.2","","""event"",""trial"",""time""
""fullscreenenter"",""1"",""2456""
","
","
","""event"",""trial"",""time""
""fullscreenenter"",""1"",""2456""
","
","","","570.2000002861023","","","24","12646","5631","&#9776;","elianto","#3366ff99"," "," ","1","+10","[1426.7999997138977,3353]","2","0","1","","","","","","","",""
"pit-trial","21","324151","0.0-2.0-8.0-1.0","battery-v0.2","","""event"",""trial"",""time""
""fullscreenenter"",""1"",""2456""
","
","
","""event"",""trial"",""time""
""fullscreenenter"",""1"",""2456""
","
","","","1198.2999997138977","","","24","12646","5631","&#9776;","elianto","#3366ff99"," "," ","1","+10","[2050.0999999046326]","1","0","1","","","","","","","",""
"pit-trial","22","329032","0.0-2.0-8.0-2.0","battery-v0.2","","""event"",""trial"",""time""
""fullscreenenter"",""1"",""2456""
","
","
","""event"",""trial"",""time""
""fullscreenenter"",""1"",""2456""
","
","","","-1","","","24","12646","5631","&#9776;","elianto","#3366ff99"," ","-1","0","0","[]","0","0","1","","","","","","","",""
"pit-trial","23","332473","0.0-2.0-8.0-3.0","battery-v0.2","","""event"",""trial"",""time""
""fullscreenenter"",""1"",""2456""
","
","
","""event"",""trial"",""time""
""fullscreenenter"",""1"",""2456""
","
","","","568.6999998092651","","","24","12646","5631","&#9776;","elianto","#3366ff99"," "," ","1","0","[1425.9000000953674]","1","0","1","","","","","","","",""
"pit-trial","24","337327","0.0-2.0-8.0-4.0","battery-v0.2","","""event"",""trial"",""time""
""fullscreenenter"",""1"",""2456""
","
","
","""event"",""trial"",""time""
""fullscreenenter"",""1"",""2456""
","
","","","-1","","","24","12646","5631","&#9776;","elianto","#3366ff99"," ","-1","0","0","[]","0","0","1","","","","","","","",""
"pit-trial","25","340541","0.0-2.0-8.1-0.1","battery-v0.2","","""event"",""trial"",""time""
""fullscreenenter"",""1"",""2456""
","
","
","""event"",""trial"",""time""
""fullscreenenter"",""1"",""2456""
","
","","","348.59999990463257","","","24","12646","5631","&#9776;","elianto","#3366ff99"," "," ","1","+10","[1208.2999997138977]","1","0","1","","","","","","","",""
"pit-trial","26","343899","0.0-2.0-8.1-1.1","battery-v0.2","","""event"",""trial"",""time""
""fullscreenenter"",""1"",""2456""
","
","
","""event"",""trial"",""time""
""fullscreenenter"",""1"",""2456""
","
","","","491.90000009536743","","","24","12646","5631","&#9776;","elianto","#3366ff99"," "," ","1","+10","[1343.7000002861023]","1","0","1","","","","","","","",""
"pit-trial","27","347562","0.0-2.0-8.1-2.1","battery-v0.2","","""event"",""trial"",""time""
""fullscreenenter"",""1"",""2456""
","
","
","""event"",""trial"",""time""
""fullscreenenter"",""1"",""2456""
","
","","","799.5","","","24","12646","5631","&#9776;","elianto","#3366ff99"," "," ","1","+10","[1656.0999999046326]","1","0","1","","","","","","","",""
"pit-trial","28","352441","0.0-2.0-8.1-3.1","battery-v0.2","","""event"",""trial"",""time""
""fullscreenenter"",""1"",""2456""
","
","
","""event"",""trial"",""time""
""fullscreenenter"",""1"",""2456""
","
","","","-1","","","24","12646","5631","&#9776;","elianto","#3366ff99"," ","-1","0","+10","[]","0","0","1","","","","","","","",""
"pit-trial","29","357335","0.0-2.0-8.1-4.1","battery-v0.2","","""event"",""trial"",""time""
""fullscreenenter"",""1"",""2456""
","
","
","""event"",""trial"",""time""
""fullscreenenter"",""1"",""2456""
","
","","","-1","","","24","12646","5631","&#9776;","elianto","#3366ff99"," ","-1","0","0","[]","0","0","1","","","","","","","",""
"pit-trial","30","360942","0.0-2.0-8.2-0.2","battery-v0.2","","""event"",""trial"",""time""
""fullscreenenter"",""1"",""2456""
","
","
","""event"",""trial"",""time""
""fullscreenenter"",""1"",""2456""
","
","","","735.9000000953674","","","24","12646","5631","&#9776;","elianto","#3366ff99"," "," ","1","+10","[1600.8000001907349]","1","0","1","","","","","","","",""
"pit-trial","31","364684","0.0-2.0-8.2-1.2","battery-v0.2","","""event"",""trial"",""time""
""fullscreenenter"",""1"",""2456""
","
","
","""event"",""trial"",""time""
""fullscreenenter"",""1"",""2456""
","
","","","869.6000003814697","","","24","12646","5631","&#9776;","elianto","#3366ff99"," "," ","1","+10","[1720.1000003814697]","1","0","1","","","","","","","",""
"pit-trial","32","369570","0.0-2.0-8.2-2.2","battery-v0.2","","""event"",""trial"",""time""
""fullscreenenter"",""1"",""2456""
","
","
","""event"",""trial"",""time""
""fullscreenenter"",""1"",""2456""
","
","","","-1","","","24","12646","5631","&#9776;","elianto","#3366ff99"," ","-1","0","0","[]","0","0","1","","","","","","","",""
"pit-trial","33","373356","0.0-2.0-8.2-3.2","battery-v0.2","","""event"",""trial"",""time""
""fullscreenenter"",""1"",""2456""
","
","
","""event"",""trial"",""time""
""fullscreenenter"",""1"",""2456""
","
","","","910.1999998092651","","","24","12646","5631","&#9776;","elianto","#3366ff99"," "," ","1","0","[1780.9000000953674]","1","0","1","","","","","","","",""
"pit-trial","34","378240","0.0-2.0-8.2-4.2","battery-v0.2","","""event"",""trial"",""time""
""fullscreenenter"",""1"",""2456""
","
","
","""event"",""trial"",""time""
""fullscreenenter"",""1"",""2456""
","
","","","-1","","","24","12646","5631","&#9776;","elianto","#3366ff99"," ","-1","0","0","[]","0","0","1","","","","","","","",""
"call-function","35","378242","0.0-2.0-9.0","battery-v0.2","","""event"",""trial"",""time""
""fullscreenenter"",""1"",""2456""
","
","
","""event"",""trial"",""time""
""fullscreenenter"",""1"",""2456""
","
","","","","","","","","","","","","","","","","","","","","","","","","","","",""
"pit-instructions","36","419404","0.0-2.0-10.0","battery-v0.2","","""event"",""trial"",""time""
""fullscreenenter"",""1"",""2456""
","
","
","""event"",""trial"",""time""
""fullscreenenter"",""1"",""2456""
","
","","[{""page_index"":0,""viewing_time"":6887.400000095367},{""page_index"":1,""viewing_time"":7065.89999961853},{""page_index"":2,""viewing_time"":10478.900000095367},{""page_index"":3,""viewing_time"":8835.599999904633},{""page_index"":4,""viewing_time"":7893.5}]","41161.59999990463","","","","","","","","","","","","","","","","","","","","","","","",""
"pit-trial","37","423552","0.0-2.0-11.0-0.0","battery-v0.2","","""event"",""trial"",""time""
""fullscreenenter"",""1"",""2456""
","
","
","""event"",""trial"",""time""
""fullscreenenter"",""1"",""2456""
","
","","","1283.5999999046326","","","24","12646","5631","&#9761;","elianto","#3366ff99","-1"," ","0","0","[2135.0999999046326]","1","0","2","","","","","","","",""
"pit-trial","38","427345","0.0-2.0-11.0-1.0","battery-v0.2","","""event"",""trial"",""time""
""fullscreenenter"",""1"",""2456""
","
","
","""event"",""trial"",""time""
""fullscreenenter"",""1"",""2456""
","
","","","930.5999999046326","","","24","12646","5631","&#9761;","elianto","#3366ff99","-1"," ","0","0","[1783.5]","1","0","2","","","","","","","",""
"pit-trial","39","430952","0.0-2.0-11.0-2.0","battery-v0.2","","""event"",""trial"",""time""
""fullscreenenter"",""1"",""2456""
","
","
","""event"",""trial"",""time""
""fullscreenenter"",""1"",""2456""
","
","","","739.9000000953674","","","24","12646","5631","&#9761;","elianto","#3366ff99","-1"," ","0","0","[1602.7000002861023]","1","0","2","","","","","","","",""
"pit-trial","40","435313","0.0-2.0-11.0-3.0","battery-v0.2","","""event"",""trial"",""time""
""fullscreenenter"",""1"",""2456""
","
","
","""event"",""trial"",""time""
""fullscreenenter"",""1"",""2456""
","
","","","1493.7000002861023","","","24","12646","5631","&#9761;","elianto","#3366ff99","-1"," ","0","+10","[2347.4000000953674]","1","0","2","","","","","","","",""
"pit-trial","41","438596","0.0-2.0-11.0-4.0","battery-v0.2","","""event"",""trial"",""time""
""fullscreenenter"",""1"",""2456""
","
","
","""event"",""trial"",""time""
""fullscreenenter"",""1"",""2456""
","
","","","417.69999980926514","","","24","12646","5631","&#9761;","elianto","#3366ff99","-1"," ","0","0","[1278.6999998092651]","1","0","2","","","","","","","",""
"pit-trial","42","443463","0.0-2.0-11.1-0.1","battery-v0.2","","""event"",""trial"",""time""
""fullscreenenter"",""1"",""2456""
","
","
","""event"",""trial"",""time""
""fullscreenenter"",""1"",""2456""
","
","","","-1","","","24","12646","5631","&#9761;","elianto","#3366ff99","-1","-1","1","+10","[]","0","0","2","","","","","","","",""
"pit-trial","43","446563","0.0-2.0-11.1-1.1","battery-v0.2","","""event"",""trial"",""time""
""fullscreenenter"",""1"",""2456""
","
","
","""event"",""trial"",""time""
""fullscreenenter"",""1"",""2456""
","
","","","223.5","","","24","12646","5631","&#9761;","elianto","#3366ff99","-1"," ","0","0","[1083.3000001907349]","1","0","2","","","","","","","",""
"pit-trial","44","449498","0.0-2.0-11.1-2.1","battery-v0.2","","""event"",""trial"",""time""
""fullscreenenter"",""1"",""2456""
","
","
","""event"",""trial"",""time""
""fullscreenenter"",""1"",""2456""
","
","","","68.89999961853027","","","24","12646","5631","&#9761;","elianto","#3366ff99","-1"," ","0","0","[931]","1","0","2","","","","","","","",""
"pit-trial","45","454422","0.0-2.0-11.1-3.1","battery-v0.2","","""event"",""trial"",""time""
""fullscreenenter"",""1"",""2456""
","
","
","""event"",""trial"",""time""
""fullscreenenter"",""1"",""2456""
","
","","","-1","","","24","12646","5631","&#9761;","elianto","#3366ff99","-1","-1","1","0","[]","0","0","2","","","","","","","",""
"pit-trial","46","459328","0.0-2.0-11.1-4.1","battery-v0.2","","""event"",""trial"",""time""
""fullscreenenter"",""1"",""2456""
","
","
","""event"",""trial"",""time""
""fullscreenenter"",""1"",""2456""
","
","","","-1","","","24","12646","5631","&#9761;","elianto","#3366ff99","-1","-1","1","+10","[]","0","0","2","","","","","","","",""
"pit-trial","47","464225","0.0-2.0-11.2-0.2","battery-v0.2","","""event"",""trial"",""time""
""fullscreenenter"",""1"",""2456""
","
","
","""event"",""trial"",""time""
""fullscreenenter"",""1"",""2456""
","
","","","-1","","","24","12646","5631","&#9761;","elianto","#3366ff99","-1","-1","1","+10","[]","0","0","2","","","","","","","",""
"pit-trial","48","467270","0.0-2.0-11.2-1.2","battery-v0.2","","""event"",""trial"",""time""
""fullscreenenter"",""1"",""2456""
","
","
","""event"",""trial"",""time""
""fullscreenenter"",""1"",""2456""
","
","","","175.40000009536743","","","24","12646","5631","&#9761;","elianto","#3366ff99","-1"," ","0","0","[1037.9000000953674]","1","0","2","","","","","","","",""
"pit-trial","49","470548","0.0-2.0-11.2-2.2","battery-v0.2","","""event"",""trial"",""time""
""fullscreenenter"",""1"",""2456""
","
","
","""event"",""trial"",""time""
""fullscreenenter"",""1"",""2456""
","
","","","417.80000019073486","","","24","12646","5631","&#9761;","elianto","#3366ff99","-1"," ","0","0","[1272.8000001907349]","1","0","2","","","","","","","",""
"pit-trial","50","473767","0.0-2.0-11.2-3.2","battery-v0.2","","""event"",""trial"",""time""
""fullscreenenter"",""1"",""2456""
","
","
","""event"",""trial"",""time""
""fullscreenenter"",""1"",""2456""
","
","","","342.30000019073486","","","24","12646","5631","&#9761;","elianto","#3366ff99","-1"," ","0","+10","[1210.2000002861023]","1","0","2","","","","","","","",""
"pit-trial","51","477328","0.0-2.0-11.2-4.2","battery-v0.2","","""event"",""trial"",""time""
""fullscreenenter"",""1"",""2456""
","
","
","""event"",""trial"",""time""
""fullscreenenter"",""1"",""2456""
","
","","","688.0999999046326","","","24","12646","5631","&#9761;","elianto","#3366ff99","-1"," ","0","0","[1543.4000000953674]","1","0","2","","","","","","","",""
"pit-trial","52","480786","0.0-2.0-11.3-0.3","battery-v0.2","","""event"",""trial"",""time""
""fullscreenenter"",""1"",""2456""
","
","
","""event"",""trial"",""time""
""fullscreenenter"",""1"",""2456""
","
","","","581.5","","","24","12646","5631","&#9761;","elianto","#3366ff99","-1"," ","0","0","[1448]","1","0","2","","","","","","","",""
"pit-trial","53","485682","0.0-2.0-11.3-1.3","battery-v0.2","","""event"",""trial"",""time""
""fullscreenenter"",""1"",""2456""
","
","
","""event"",""trial"",""time""
""fullscreenenter"",""1"",""2456""
","
","","","-1","","","24","12646","5631","&#9761;","elianto","#3366ff99","-1","-1","1","+10","[]","0","0","2","","","","","","","",""
"pit-trial","54","489220","0.0-2.0-11.3-2.3","battery-v0.2","","""event"",""trial"",""time""
""fullscreenenter"",""1"",""2456""
","
","
","""event"",""trial"",""time""
""fullscreenenter"",""1"",""2456""
","
","","","677.5999999046326","","","24","12646","5631","&#9761;","elianto","#3366ff99","-1"," ","0","0","[1534.0999999046326]","1","0","2","","","","","","","",""
"pit-trial","55","494112","0.0-2.0-11.3-3.3","battery-v0.2","","""event"",""trial"",""time""
""fullscreenenter"",""1"",""2456""
","
","
","""event"",""trial"",""time""
""fullscreenenter"",""1"",""2456""
","
","","","-1","","","24","12646","5631","&#9761;","elianto","#3366ff99","-1","-1","1","0","[]","0","0","2","","","","","","","",""
"pit-trial","56","498413","0.0-2.0-11.3-4.3","battery-v0.2","","""event"",""trial"",""time""
""fullscreenenter"",""1"",""2456""
","
","
","""event"",""trial"",""time""
""fullscreenenter"",""1"",""2456""
","
","","","1434","","","24","12646","5631","&#9761;","elianto","#3366ff99","-1"," ","0","0","[2287.4000000953674]","1","0","2","","","","","","","",""
"call-function","57","498414","0.0-2.0-12.0","battery-v0.2","","""event"",""trial"",""time""
""fullscreenenter"",""1"",""2456""
","
","
","""event"",""trial"",""time""
""fullscreenenter"",""1"",""2456""
","
","","","","","","","","","","","","","","","","","","","","","","","","","","",""
"pit-instructions","58","533484","0.0-2.0-13.0","battery-v0.2","","""event"",""trial"",""time""
""fullscreenenter"",""1"",""2456""
","
","
","""event"",""trial"",""time""
""fullscreenenter"",""1"",""2456""
","
","","[{""page_index"":0,""viewing_time"":5500.199999809265},{""page_index"":1,""viewing_time"":10004.300000190735},{""page_index"":2,""viewing_time"":3345.0999999046326},{""page_index"":3,""viewing_time"":10911.099999904633},{""page_index"":4,""viewing_time"":5307.699999809265}]","35069","","","","","","","","","","","","","","","","","","","","","","","",""
"pit-trial","59","537413","0.0-2.0-14.0-0.0","battery-v0.2","","""event"",""trial"",""time""
""fullscreenenter"",""1"",""2456""
","
","
","""event"",""trial"",""time""
""fullscreenenter"",""1"",""2456""
","
","","","1064.5999999046326","","","24","12646","5631","&#9826;","elianto","#f73b6a7A","-1"," ","0","-10","[1925.5]","1","0","3","","","","","","","",""
"pit-trial","60","542287","0.0-2.0-14.0-1.0","battery-v0.2","","""event"",""trial"",""time""
""fullscreenenter"",""1"",""2456""
","
","
","""event"",""trial"",""time""
""fullscreenenter"",""1"",""2456""
","
","","","-1","","","24","12646","5631","&#9826;","elianto","#f73b6a7A","-1","-1","1","0","[]","0","0","3","","","","","","","",""
"pit-trial","61","546438","0.0-2.0-14.0-2.0","battery-v0.2","","""event"",""trial"",""time""
""fullscreenenter"",""1"",""2456""
","
","
","""event"",""trial"",""time""
""fullscreenenter"",""1"",""2456""
","
","","","1279.8000001907349","","","24","12646","5631","&#9826;","elianto","#f73b6a7A","-1"," ","0","-10","[2135.5999999046326]","1","0","3","","","","","","","",""
"pit-trial","62","551305","0.0-2.0-14.0-3.0","battery-v0.2","","""event"",""trial"",""time""
""fullscreenenter"",""1"",""2456""
","
","
","""event"",""trial"",""time""
""fullscreenenter"",""1"",""2456""
","
","","","-1","","","24","12646","5631","&#9826;","elianto","#f73b6a7A","-1","-1","1","-10","[]","0","0","3","","","","","","","",""
"pit-trial","63","554882","0.0-2.0-14.0-4.0","battery-v0.2","","""event"",""trial"",""time""
""fullscreenenter"",""1"",""2456""
","
","
","""event"",""trial"",""time""
""fullscreenenter"",""1"",""2456""
","
","","","712.5","","","24","12646","5631","&#9826;","elianto","#f73b6a7A","-1"," ","0","-10","[1569.2999997138977]","1","0","3","","","","","","","",""
"pit-trial","64","559748","0.0-2.0-14.1-0.1","battery-v0.2","","""event"",""trial"",""time""
""fullscreenenter"",""1"",""2456""
","
","
","""event"",""trial"",""time""
""fullscreenenter"",""1"",""2456""
","
","","","-1","","","24","12646","5631","&#9826;","elianto","#f73b6a7A","-1","-1","1","0","[]","0","0","3","","","","","","","",""
"pit-trial","65","562826","0.0-2.0-14.1-1.1","battery-v0.2","","""event"",""trial"",""time""
""fullscreenenter"",""1"",""2456""
","
","
","""event"",""trial"",""time""
""fullscreenenter"",""1"",""2456""
","
","","","208.10000038146973","","","24","12646","5631","&#9826;","elianto","#f73b6a7A","-1"," ","0","-10","[1064.6999998092651]","1","0","3","","","","","","","",""
"pit-trial","66","565823","0.0-2.0-14.1-2.1","battery-v0.2","","""event"",""trial"",""time""
""fullscreenenter"",""1"",""2456""
","
","
","""event"",""trial"",""time""
""fullscreenenter"",""1"",""2456""
","
","","","135.19999980926514","","","24","12646","5631","&#9826;","elianto","#f73b6a7A","-1"," ","0","-10","[985.5]","1","0","3","","","","","","","",""
"pit-trial","67","570731","0.0-2.0-14.1-3.1","battery-v0.2","","""event"",""trial"",""time""
""fullscreenenter"",""1"",""2456""
","
","
","""event"",""trial"",""time""
""fullscreenenter"",""1"",""2456""
","
","","","-1","","","24","12646","5631","&#9826;","elianto","#f73b6a7A","-1","-1","1","-10","[]","0","0","3","","","","","","","",""
"pit-trial","68","575608","0.0-2.0-14.1-4.1","battery-v0.2","","""event"",""trial"",""time""
""fullscreenenter"",""1"",""2456""
","
","
","""event"",""trial"",""time""
""fullscreenenter"",""1"",""2456""
","
","","","-1","","","24","12646","5631","&#9826;","elianto","#f73b6a7A","-1","-1","1","0","[]","0","0","3","","","","","","","",""
"pit-trial","69","580503","0.0-2.0-14.2-0.2","battery-v0.2","","""event"",""trial"",""time""
""fullscreenenter"",""1"",""2456""
","
","
","""event"",""trial"",""time""
""fullscreenenter"",""1"",""2456""
","
","","","-1","","","24","12646","5631","&#9826;","elianto","#f73b6a7A","-1","-1","1","0","[]","0","0","3","","","","","","","",""
"pit-trial","70","585395","0.0-2.0-14.2-1.2","battery-v0.2","","""event"",""trial"",""time""
""fullscreenenter"",""1"",""2456""
","
","
","""event"",""trial"",""time""
""fullscreenenter"",""1"",""2456""
","
","","","-1","","","24","12646","5631","&#9826;","elianto","#f73b6a7A","-1","-1","1","0","[]","0","0","3","","","","","","","",""
"pit-trial","71","590314","0.0-2.0-14.2-2.2","battery-v0.2","","""event"",""trial"",""time""
""fullscreenenter"",""1"",""2456""
","
","
","""event"",""trial"",""time""
""fullscreenenter"",""1"",""2456""
","
","","","-1","","","24","12646","5631","&#9826;","elianto","#f73b6a7A","-1","-1","1","0","[]","0","0","3","","","","","","","",""
"pit-trial","72","595205","0.0-2.0-14.2-3.2","battery-v0.2","","""event"",""trial"",""time""
""fullscreenenter"",""1"",""2456""
","
","
","""event"",""trial"",""time""
""fullscreenenter"",""1"",""2456""
","
","","","-1","","","24","12646","5631","&#9826;","elianto","#f73b6a7A","-1","-1","1","-10","[]","0","0","3","","","","","","","",""
"pit-trial","73","601624","0.0-2.0-14.2-4.2","battery-v0.2","","""event"",""trial"",""time""
""fullscreenenter"",""1"",""2456""
","
","
","""event"",""trial"",""time""
""fullscreenenter"",""1"",""2456""
","
","","","-1","","","24","12646","5631","&#9826;","elianto","#f73b6a7A","-1","-1","1","0","[]","0","0","3","","","","","","","",""
"pit-trial","74","607629","0.0-2.0-14.3-0.3","battery-v0.2","","""event"",""trial"",""time""
""fullscreenenter"",""1"",""2456""
","
","
","""event"",""trial"",""time""
""fullscreenenter"",""1"",""2456""
","
","","","-1","","","24","12646","5631","&#9826;","elianto","#f73b6a7A","-1","-1","1","0","[]","0","0","3","","","","","","","",""
"pit-trial","75","611248","0.0-2.0-14.3-1.3","battery-v0.2","","""event"",""trial"",""time""
""fullscreenenter"",""1"",""2456""
","
","
","""event"",""trial"",""time""
""fullscreenenter"",""1"",""2456""
","
","","","628.7000002861023","","","24","12646","5631","&#9826;","elianto","#f73b6a7A","-1"," ","0","-10","[1615]","1","0","3","","","","","","","",""
"pit-trial","76","616119","0.0-2.0-14.3-2.3","battery-v0.2","","""event"",""trial"",""time""
""fullscreenenter"",""1"",""2456""
","
","
","""event"",""trial"",""time""
""fullscreenenter"",""1"",""2456""
","
","","","-1","","","24","12646","5631","&#9826;","elianto","#f73b6a7A","-1","-1","1","0","[]","0","0","3","","","","","","","",""
"pit-trial","77","621007","0.0-2.0-14.3-3.3","battery-v0.2","","""event"",""trial"",""time""
""fullscreenenter"",""1"",""2456""
","
","
","""event"",""trial"",""time""
""fullscreenenter"",""1"",""2456""
","
","","","-1","","","24","12646","5631","&#9826;","elianto","#f73b6a7A","-1","-1","1","-10","[]","0","0","3","","","","","","","",""
"pit-trial","78","625919","0.0-2.0-14.3-4.3","battery-v0.2","","""event"",""trial"",""time""
""fullscreenenter"",""1"",""2456""
","
","
","""event"",""trial"",""time""
""fullscreenenter"",""1"",""2456""
","
","","","-1","","","24","12646","5631","&#9826;","elianto","#f73b6a7A","-1","-1","1","0","[]","0","0","3","","","","","","","",""
"call-function","79","625921","0.0-2.0-15.0","battery-v0.2","","""event"",""trial"",""time""
""fullscreenenter"",""1"",""2456""
","
","
","""event"",""trial"",""time""
""fullscreenenter"",""1"",""2456""
","
","","","","","","","","","","","","","","","","","","","","","","","","","","",""
"pit-instructions","80","652012","0.0-2.0-16.0","battery-v0.2","","""event"",""trial"",""time""
""fullscreenenter"",""1"",""2456""
","
","
","""event"",""trial"",""time""
""fullscreenenter"",""1"",""2456""
","
","","[{""page_index"":0,""viewing_time"":7641.5},{""page_index"":1,""viewing_time"":8525.5},{""page_index"":2,""viewing_time"":5211.400000095367},{""page_index"":3,""viewing_time"":4711.799999713898}]","26090.5","","","","","","","","","","","","","","","","","","","","","","","",""
"pit-trial","81","656880","0.0-2.0-17.0-0.0","battery-v0.2","","""event"",""trial"",""time""
""fullscreenenter"",""1"",""2456""
","
","
","""event"",""trial"",""time""
""fullscreenenter"",""1"",""2456""
","
","","","-1","","","24","12646","5631","&#9789;","elianto","#f73b6a7A"," ","-1","0","-10","[]","0","0","4","","","","","","","",""
"pit-trial","82","661752","0.0-2.0-17.0-1.0","battery-v0.2","","""event"",""trial"",""time""
""fullscreenenter"",""1"",""2456""
","
","
","""event"",""trial"",""time""
""fullscreenenter"",""1"",""2456""
","
","","","-1","","","24","12646","5631","&#9789;","elianto","#f73b6a7A"," ","-1","0","-10","[]","0","0","4","","","","","","","",""
"pit-trial","83","666626","0.0-2.0-17.0-2.0","battery-v0.2","","""event"",""trial"",""time""
""fullscreenenter"",""1"",""2456""
","
","
","""event"",""trial"",""time""
""fullscreenenter"",""1"",""2456""
","
","","","-1","","","24","12646","5631","&#9789;","elianto","#f73b6a7A"," ","-1","0","-10","[]","0","0","4","","","","","","","",""
"pit-trial","84","671490","0.0-2.0-17.0-3.0","battery-v0.2","","""event"",""trial"",""time""
""fullscreenenter"",""1"",""2456""
","
","
","""event"",""trial"",""time""
""fullscreenenter"",""1"",""2456""
","
","","","-1","","","24","12646","5631","&#9789;","elianto","#f73b6a7A"," ","-1","0","0","[]","0","0","4","","","","","","","",""
"pit-trial","85","674758","0.0-2.0-17.0-4.0","battery-v0.2","","""event"",""trial"",""time""
""fullscreenenter"",""1"",""2456""
","
","
","""event"",""trial"",""time""
""fullscreenenter"",""1"",""2456""
","
","","","401.2000002861023","","","24","12646","5631","&#9789;","elianto","#f73b6a7A"," "," ","1","0","[1254.8000001907349]","1","0","4","","","","","","","",""
"pit-trial","86","677827","0.0-2.0-17.1-0.1","battery-v0.2","","""event"",""trial"",""time""
""fullscreenenter"",""1"",""2456""
","
","
","""event"",""trial"",""time""
""fullscreenenter"",""1"",""2456""
","
","","","208.2000002861023","","","24","12646","5631","&#9789;","elianto","#f73b6a7A"," "," ","1","0","[1060.9000000953674]","1","0","4","","","","","","","",""
"pit-trial","87","680877","0.0-2.0-17.1-1.1","battery-v0.2","","""event"",""trial"",""time""
""fullscreenenter"",""1"",""2456""
","
","
","""event"",""trial"",""time""
""fullscreenenter"",""1"",""2456""
","
","","","194","","","24","12646","5631","&#9789;","elianto","#f73b6a7A"," "," ","1","0","[1044.3999996185303]","1","0","4","","","","","","","",""
"pit-trial","88","685778","0.0-2.0-17.1-2.1","battery-v0.2","","""event"",""trial"",""time""
""fullscreenenter"",""1"",""2456""
","
","
","""event"",""trial"",""time""
""fullscreenenter"",""1"",""2456""
","
","","","-1","","","24","12646","5631","&#9789;","elianto","#f73b6a7A"," ","-1","0","-10","[]","0","0","4","","","","","","","",""
"pit-trial","89","690658","0.0-2.0-17.1-3.1","battery-v0.2","","""event"",""trial"",""time""
""fullscreenenter"",""1"",""2456""
","
","
","""event"",""trial"",""time""
""fullscreenenter"",""1"",""2456""
","
","","","-1","","","24","12646","5631","&#9789;","elianto","#f73b6a7A"," ","-1","0","0","[]","0","0","4","","","","","","","",""
"pit-trial","90","694514","0.0-2.0-17.1-4.1","battery-v0.2","","""event"",""trial"",""time""
""fullscreenenter"",""1"",""2456""
","
","
","""event"",""trial"",""time""
""fullscreenenter"",""1"",""2456""
","
","","","977.9000000953674","","","24","12646","5631","&#9789;","elianto","#f73b6a7A"," "," ","1","0","[1845.3000001907349]","1","0","4","","","","","","","",""
"pit-trial","91","699392","0.0-2.0-17.2-0.2","battery-v0.2","","""event"",""trial"",""time""
""fullscreenenter"",""1"",""2456""
","
","
","""event"",""trial"",""time""
""fullscreenenter"",""1"",""2456""
","
","","","-1","","","24","12646","5631","&#9789;","elianto","#f73b6a7A"," ","-1","0","-10","[]","0","0","4","","","","","","","",""
"pit-trial","92","704280","0.0-2.0-17.2-1.2","battery-v0.2","","""event"",""trial"",""time""
""fullscreenenter"",""1"",""2456""
","
","
","""event"",""trial"",""time""
""fullscreenenter"",""1"",""2456""
","
","","","-1","","","24","12646","5631","&#9789;","elianto","#f73b6a7A"," ","-1","0","-10","[]","0","0","4","","","","","","","",""
"pit-trial","93","709175","0.0-2.0-17.2-2.2","battery-v0.2","","""event"",""trial"",""time""
""fullscreenenter"",""1"",""2456""
","
","
","""event"",""trial"",""time""
""fullscreenenter"",""1"",""2456""
","
","","","-1","","","24","12646","5631","&#9789;","elianto","#f73b6a7A"," ","-1","0","-10","[]","0","0","4","","","","","","","",""
"pit-trial","94","712836","0.0-2.0-17.2-3.2","battery-v0.2","","""event"",""trial"",""time""
""fullscreenenter"",""1"",""2456""
","
","
","""event"",""trial"",""time""
""fullscreenenter"",""1"",""2456""
","
","","","794.8000001907349","","","24","12646","5631","&#9789;","elianto","#f73b6a7A"," "," ","1","-10","[1658.5]","1","0","4","","","","","","","",""
"pit-trial","95","715922","0.0-2.0-17.2-4.2","battery-v0.2","","""event"",""trial"",""time""
""fullscreenenter"",""1"",""2456""
","
","
","""event"",""trial"",""time""
""fullscreenenter"",""1"",""2456""
","
","","","203.90000009536743","","","24","12646","5631","&#9789;","elianto","#f73b6a7A"," "," ","1","0","[1057.2000002861023]","1","0","4","","","","","","","",""
"pit-trial","96","718846","0.0-2.0-17.3-0.3","battery-v0.2","","""event"",""trial"",""time""
""fullscreenenter"",""1"",""2456""
","
","
","""event"",""trial"",""time""
""fullscreenenter"",""1"",""2456""
","
","","","45","","","24","12646","5631","&#9789;","elianto","#f73b6a7A"," "," ","1","0","[914.4000000953674]","1","0","4","","","","","","","",""
"pit-trial","97","723719","0.0-2.0-17.3-1.3","battery-v0.2","","""event"",""trial"",""time""
""fullscreenenter"",""1"",""2456""
","
","
","""event"",""trial"",""time""
""fullscreenenter"",""1"",""2456""
","
","","","-1","","","24","12646","5631","&#9789;","elianto","#f73b6a7A"," ","-1","0","-10","[]","0","0","4","","","","","","","",""
"pit-trial","98","726958","0.0-2.0-17.3-2.3","battery-v0.2","","""event"",""trial"",""time""
""fullscreenenter"",""1"",""2456""
","
","
","""event"",""trial"",""time""
""fullscreenenter"",""1"",""2456""
","
","","","362.59999990463257","","","24","12646","5631","&#9789;","elianto","#f73b6a7A"," "," ","1","0","[1231.6999998092651]","1","0","4","","","","","","","",""
"pit-trial","99","730264","0.0-2.0-17.3-3.3","battery-v0.2","","""event"",""trial"",""time""
""fullscreenenter"",""1"",""2456""
","
","
","""event"",""trial"",""time""
""fullscreenenter"",""1"",""2456""
","
","","","420.30000019073486","","","24","12646","5631","&#9789;","elianto","#f73b6a7A"," "," ","1","-10","[1270.7000002861023]","1","0","4","","","","","","","",""
"pit-trial","100","734102","0.0-2.0-17.3-4.3","battery-v0.2","","""event"",""trial"",""time""
""fullscreenenter"",""1"",""2456""
","
","
","""event"",""trial"",""time""
""fullscreenenter"",""1"",""2456""
","
","","","959.7999997138977","","","24","12646","5631","&#9789;","elianto","#f73b6a7A"," "," ","1","0","[1822.7999997138977]","1","0","4","","","","","","","",""
"call-function","101","734105","0.0-2.0-18.0","battery-v0.2","","""event"",""trial"",""time""
""fullscreenenter"",""1"",""2456""
","
","
","""event"",""trial"",""time""
""fullscreenenter"",""1"",""2456""
","
","","","","","","","","","","","","","","","","","","","","","","","","","","",""
"pit-instructions","102","809526","0.0-2.0-19.0","battery-v0.2","","""event"",""trial"",""time""
""fullscreenenter"",""1"",""2456""
","
","
","""event"",""trial"",""time""
""fullscreenenter"",""1"",""2456""
","
","","[{""page_index"":0,""viewing_time"":7484.300000190735},{""page_index"":1,""viewing_time"":7012},{""page_index"":2,""viewing_time"":14400.599999904633},{""page_index"":3,""viewing_time"":8366.099999904633},{""page_index"":4,""viewing_time"":9304.10000038147},{""page_index"":5,""viewing_time"":9318.799999713898},{""page_index"":6,""viewing_time"":8589.300000190735},{""page_index"":7,""viewing_time"":6386.400000095367},{""page_index"":8,""viewing_time"":4559}]","75421","","","","","","","","","","","","","","","","","","","","","","","",""
"pit-comprehension","103","814294","0.0-2.0-20.0-0.0","battery-v0.2","","""event"",""trial"",""time""
""fullscreenenter"",""1"",""2456""
","
","
","""event"",""trial"",""time""
""fullscreenenter"",""1"",""2456""
","
","","","4760.699999809265","[""SPACE""]","0","24","12646","5631","","","","","","","","","","","","","","","","","","",""
"pit-instructions","104","818054","0.0-2.0-20.0-1.0","battery-v0.2","","""event"",""trial"",""time""
""fullscreenenter"",""1"",""2456""
","
","
","""event"",""trial"",""time""
""fullscreenenter"",""1"",""2456""
","
","","[{""page_index"":0,""viewing_time"":3705.8999996185303}]","3706.199999809265","","","","","","","","","","","","","","","","","","","","","","","",""
"pit-comprehension","105","824753","0.0-2.0-21.0-0.0","battery-v0.2","","""event"",""trial"",""time""
""fullscreenenter"",""1"",""2456""
","
","
","""event"",""trial"",""time""
""fullscreenenter"",""1"",""2456""
","
","","","6695.599999904633","[""10""]","0","24","12646","5631","","","","","","","","","","","","","","","","","","",""
"pit-instructions","106","827443","0.0-2.0-21.0-1.0","battery-v0.2","","""event"",""trial"",""time""
""fullscreenenter"",""1"",""2456""
","
","
","""event"",""trial"",""time""
""fullscreenenter"",""1"",""2456""
","
","","[{""page_index"":0,""viewing_time"":2651.7999997138977}]","2652.3999996185303","","","","","","","","","","","","","","","","","","","","","","","",""
"pit-comprehension","107","835111","0.0-2.0-22.0-0.0","battery-v0.2","","""event"",""trial"",""time""
""fullscreenenter"",""1"",""2456""
","
","
","""event"",""trial"",""time""
""fullscreenenter"",""1"",""2456""
","
","","","7661.400000095367","[""0""]","0","24","12646","5631","","","","","","","","","","","","","","","","","","",""
"pit-instructions","108","837086","0.0-2.0-22.0-1.0","battery-v0.2","","""event"",""trial"",""time""
""fullscreenenter"",""1"",""2456""
","
","
","""event"",""trial"",""time""
""fullscreenenter"",""1"",""2456""
","
","","[{""page_index"":0,""viewing_time"":1938.3000001907349}]","1938.6000003814697","","","","","","","","","","","","","","","","","","","","","","","",""
"pit-comprehension","109","847692","0.0-2.0-23.0-0.0","battery-v0.2","","""event"",""trial"",""time""
""fullscreenenter"",""1"",""2456""
","
","
","""event"",""trial"",""time""
""fullscreenenter"",""1"",""2456""
","
","","","10602.900000095367","[""True""]","0","24","12646","5631","","","","","","","","","","","","","","","","","","",""
"pit-instructions","110","851162","0.0-2.0-23.0-1.0","battery-v0.2","","""event"",""trial"",""time""
""fullscreenenter"",""1"",""2456""
","
","
","""event"",""trial"",""time""
""fullscreenenter"",""1"",""2456""
","
","","[{""page_index"":0,""viewing_time"":3435.800000190735}]","3436.300000190735","","","","","","","","","","","","","","","","","","","","","","","",""
"pit-comprehension","111","859003","0.0-2.0-24.0-0.0","battery-v0.2","","""event"",""trial"",""time""
""fullscreenenter"",""1"",""2456""
","
","
","""event"",""trial"",""time""
""fullscreenenter"",""1"",""2456""
","
","","","7836.800000190735","[""True""]","0","24","12646","5631","","","","","","","","","","","","","","","","","","",""
"pit-instructions","112","861123","0.0-2.0-24.0-1.0","battery-v0.2","","""event"",""trial"",""time""
""fullscreenenter"",""1"",""2456""
","
","
","""event"",""trial"",""time""
""fullscreenenter"",""1"",""2456""
","
","","[{""page_index"":0,""viewing_time"":2085.5999999046326}]","2086","","","","","","","","","","","","","","","","","","","","","","","",""
"pit-comprehension","113","868098","0.0-2.0-25.0-0.0","battery-v0.2","","""event"",""trial"",""time""
""fullscreenenter"",""1"",""2456""
","
","
","""event"",""trial"",""time""
""fullscreenenter"",""1"",""2456""
","
","","","6970.199999809265","[""True""]","0","24","12646","5631","","","","","","","","","","","","","","","","","","",""
"pit-instructions","114","871192","0.0-2.0-25.0-1.0","battery-v0.2","","""event"",""trial"",""time""
""fullscreenenter"",""1"",""2456""
","
","
","""event"",""trial"",""time""
""fullscreenenter"",""1"",""2456""
","
","","[{""page_index"":0,""viewing_time"":3059.5999999046326}]","3060.2999997138977","","","","","","","","","","","","","","","","","","","","","","","",""
"pit-comprehension","115","876835","0.0-2.0-26.0-0.0","battery-v0.2","","""event"",""trial"",""time""
""fullscreenenter"",""1"",""2456""
","
","
","""event"",""trial"",""time""
""fullscreenenter"",""1"",""2456""
","
","","","5637.700000286102","[""False""]","0","24","12646","5631","","","","","","","","","","","","","","","","","","",""
"pit-instructions","116","880849","0.0-2.0-26.0-1.0","battery-v0.2","","""event"",""trial"",""time""
""fullscreenenter"",""1"",""2456""
","
","
","""event"",""trial"",""time""
""fullscreenenter"",""1"",""2456""
","
","","[{""page_index"":0,""viewing_time"":3974.5}]","3974.9000000953674","","","","","","","","","","","","","","","","","","","","","","","",""
"pit-instructions","117","897128","0.0-3.0","battery-v0.2","","""event"",""trial"",""time""
""fullscreenenter"",""1"",""2456""
","
","
","""event"",""trial"",""time""
""fullscreenenter"",""1"",""2456""
","
","","[{""page_index"":0,""viewing_time"":3939.1000003814697},{""page_index"":1,""viewing_time"":6140.099999904633},{""page_index"":2,""viewing_time"":6197.199999809265}]","16277.300000190735","","","","","","","","","","","","","","","","","","","","","","","",""
"pit-trial","118","900960","0.0-4.0","battery-v0.2","","""event"",""trial"",""time""
""fullscreenenter"",""1"",""2456""
","
","
","""event"",""trial"",""time""
""fullscreenenter"",""1"",""2456""
","
","","","952.1999998092651","","","24","12646","5631","&#9730;","elianto","#3366ff99"," "," ","1","+10","[1808.0999999046326]","1","1","","","12646","1","1","1","win","go","0"
"pit-trial","119","905819","0.0-5.0","battery-v0.2","","""event"",""trial"",""time""
""fullscreenenter"",""1"",""2456""
","
","
","""event"",""trial"",""time""
""fullscreenenter"",""1"",""2456""
","
","","","-1","","","24","12646","5631","&#9752;","elianto","#f73b6a7A"," ","-1","0","0","[]","0","1","","","12646","2","3","3","lose","go","1"
"pit-trial","120","909634","0.0-6.0","battery-v0.2","","""event"",""trial"",""time""
""fullscreenenter"",""1"",""2456""
","
","
","""event"",""trial"",""time""
""fullscreenenter"",""1"",""2456""
","
","","","940.0999999046326","","","24","12646","5631","&#9733;","elianto","#3366ff99","-1"," ","0","0","[1797.9000000953674]","1","1","","","12646","3","2","2","win","no-go","0"
"pit-trial","121","914509","0.0-7.0","battery-v0.2","","""event"",""trial"",""time""
""fullscreenenter"",""1"",""2456""
","
","
","""event"",""trial"",""time""
""fullscreenenter"",""1"",""2456""
","
","","","-1","","","24","12646","5631","&#9728;","elianto","#f73b6a7A","-1","-1","1","0","[]","0","1","","","12646","4","0","4","lose","no-go","0"
"pit-trial","122","918405","0.0-8.0","battery-v0.2","","""event"",""trial"",""time""
""fullscreenenter"",""1"",""2456""
","
","
","""event"",""trial"",""time""
""fullscreenenter"",""1"",""2456""
","
","","","1035.1999998092651","","","24","12646","5631","&#9733;","elianto","#3366ff99","-1"," ","0","0","[1890.4000000953674]","1","1","","","12646","5","2","2","win","no-go","0"
"pit-trial","123","923283","0.0-9.0","battery-v0.2","","""event"",""trial"",""time""
""fullscreenenter"",""1"",""2456""
","
","
","""event"",""trial"",""time""
""fullscreenenter"",""1"",""2456""
","
","","","-1","","","24","12646","5631","&#9752;","elianto","#f73b6a7A"," ","-1","0","-10","[]","0","1","","","12646","6","3","3","lose","go","0"
"pit-trial","124","927272","0.0-10.0","battery-v0.2","","""event"",""trial"",""time""
""fullscreenenter"",""1"",""2456""
","
","
","""event"",""trial"",""time""
""fullscreenenter"",""1"",""2456""
","
","","","1123.4000000953674","","","24","12646","5631","&#9730;","elianto","#3366ff99"," "," ","1","+10","[1978.5,2763.8999996185303]","2","1","","","12646","7","1","1","win","go","0"
"pit-trial","125","932154","0.0-11.0","battery-v0.2","","""event"",""trial"",""time""
""fullscreenenter"",""1"",""2456""
","
","
","""event"",""trial"",""time""
""fullscreenenter"",""1"",""2456""
","
","","","-1","","","24","12646","5631","&#9728;","elianto","#f73b6a7A","-1","-1","1","-10","[]","0","1","","","12646","8","0","4","lose","no-go","1"
"pit-trial","126","936032","0.0-12.0","battery-v0.2","","""event"",""trial"",""time""
""fullscreenenter"",""1"",""2456""
","
","
","""event"",""trial"",""time""
""fullscreenenter"",""1"",""2456""
","
","","","997.2999997138977","","","24","12646","5631","&#9730;","elianto","#3366ff99"," "," ","1","+10","[1869]","1","1","","","12646","9","1","1","win","go","0"
"pit-trial","127","940922","0.0-13.0","battery-v0.2","","""event"",""trial"",""time""
""fullscreenenter"",""1"",""2456""
","
","
","""event"",""trial"",""time""
""fullscreenenter"",""1"",""2456""
","
","","","-1","","","24","12646","5631","&#9728;","elianto","#f73b6a7A","-1","-1","1","-10","[]","0","1","","","12646","10","0","4","lose","no-go","1"
"pit-trial","128","944639","0.0-14.0","battery-v0.2","","""event"",""trial"",""time""
""fullscreenenter"",""1"",""2456""
","
","
","""event"",""trial"",""time""
""fullscreenenter"",""1"",""2456""
","
","","","842.3000001907349","","","24","12646","5631","&#9733;","elianto","#3366ff99","-1"," ","0","0","[1703.3000001907349]","1","1","","","12646","11","2","2","win","no-go","0"
"pit-trial","129","949531","0.0-15.0","battery-v0.2","","""event"",""trial"",""time""
""fullscreenenter"",""1"",""2456""
","
","
","""event"",""trial"",""time""
""fullscreenenter"",""1"",""2456""
","
","","","-1","","","24","12646","5631","&#9752;","elianto","#f73b6a7A"," ","-1","0","-10","[]","0","1","","","12646","12","3","3","lose","go","0"
"pit-trial","130","953407","0.0-16.0","battery-v0.2","","""event"",""trial"",""time""
""fullscreenenter"",""1"",""2456""
","
","
","""event"",""trial"",""time""
""fullscreenenter"",""1"",""2456""
","
","","","1007.6999998092651","","","24","12646","5631","&#9752;","elianto","#f73b6a7A"," "," ","1","0","[1871.6999998092651]","1","1","","","12646","13","3","3","lose","go","0"
"pit-trial","131","957549","0.0-17.0","battery-v0.2","","""event"",""trial"",""time""
""fullscreenenter"",""1"",""2456""
","
","
","""event"",""trial"",""time""
""fullscreenenter"",""1"",""2456""
","
","","","1249.8000001907349","","","24","12646","5631","&#9728;","elianto","#f73b6a7A","-1"," ","0","0","[2105.7000002861023]","1","1","","","12646","14","0","4","lose","no-go","1"
"pit-trial","132","961507","0.0-18.0","battery-v0.2","","""event"",""trial"",""time""
""fullscreenenter"",""1"",""2456""
","
","
","""event"",""trial"",""time""
""fullscreenenter"",""1"",""2456""
","
","","","1095.4000000953674","","","24","12646","5631","&#9733;","elianto","#3366ff99","-1"," ","0","0","[1952]","1","1","","","12646","15","2","2","win","no-go","0"
"pit-trial","133","965575","0.0-19.0","battery-v0.2","","""event"",""trial"",""time""
""fullscreenenter"",""1"",""2456""
","
","
","""event"",""trial"",""time""
""fullscreenenter"",""1"",""2456""
","
","","","1183.0999999046326","","","24","12646","5631","&#9730;","elianto","#3366ff99"," "," ","1","+10","[2034.5]","1","1","","","12646","16","1","1","win","go","0"
"pit-trial","134","970472","0.0-20.0","battery-v0.2","","""event"",""trial"",""time""
""fullscreenenter"",""1"",""2456""
","
","
","""event"",""trial"",""time""
""fullscreenenter"",""1"",""2456""
","
","","","-1","","","24","12646","5631","&#9752;","elianto","#f73b6a7A"," ","-1","0","0","[]","0","1","","","12646","17","3","3","lose","go","1"
"pit-trial","135","974205","0.0-21.0","battery-v0.2","","""event"",""trial"",""time""
""fullscreenenter"",""1"",""2456""
","
","
","""event"",""trial"",""time""
""fullscreenenter"",""1"",""2456""
","
","","","864.4000000953674","","","24","12646","5631","&#9733;","elianto","#3366ff99","-1"," ","0","0","[1729.4000000953674]","1","1","","","12646","18","2","2","win","no-go","0"
"pit-trial","136","978479","0.0-22.0","battery-v0.2","","""event"",""trial"",""time""
""fullscreenenter"",""1"",""2456""
","
","
","""event"",""trial"",""time""
""fullscreenenter"",""1"",""2456""
","
","","","1405.2000002861023","","","24","12646","5631","&#9728;","elianto","#f73b6a7A","-1"," ","0","-10","[2263.2000002861023]","1","1","","","12646","19","0","4","lose","no-go","0"
"pit-trial","137","982174","0.0-23.0","battery-v0.2","","""event"",""trial"",""time""
""fullscreenenter"",""1"",""2456""
","
","
","""event"",""trial"",""time""
""fullscreenenter"",""1"",""2456""
","
","","","824.7999997138977","","","24","12646","5631","&#9730;","elianto","#3366ff99"," "," ","1","+10","[1690.7999997138977]","1","1","","","12646","20","1","1","win","go","0"
"pit-instructions","138","996088","0.0-24.0","battery-v0.2","","""event"",""trial"",""time""
""fullscreenenter"",""1"",""2456""
","
","
","""event"",""trial"",""time""
""fullscreenenter"",""1"",""2456""
","
","","[{""page_index"":0,""viewing_time"":7261.900000095367},{""page_index"":1,""viewing_time"":6650.599999904633}]","13913","","","","","","","","","","","","","","","","","","","","","","","",""
"pit-trial","139","1000962","0.0-25.0","battery-v0.2","","""event"",""trial"",""time""
""fullscreenenter"",""1"",""2456""
","
","
","""event"",""trial"",""time""
""fullscreenenter"",""1"",""2456""
","
","","","-1","","","24","12646","5631","m","elianto","#f73b6a7A","-1","-1","1","0","[]","0","2","","","12646","21","0","4","lose","no-go","0"
"pit-trial","140","1005839","0.0-26.0","battery-v0.2","","""event"",""trial"",""time""
""fullscreenenter"",""1"",""2456""
","
","
","""event"",""trial"",""time""
""fullscreenenter"",""1"",""2456""
","
","","","-1","","","24","12646","5631","h","elianto","#f73b6a7A"," ","-1","0","-10","[]","0","2","","","12646","22","3","3","lose","go","0"
"pit-trial","141","1009577","0.0-27.0","battery-v0.2","","""event"",""trial"",""time""
""fullscreenenter"",""1"",""2456""
","
","
","""event"",""trial"",""time""
""fullscreenenter"",""1"",""2456""
","
","","","866.7999997138977","","","24","12646","5631","r","elianto","#3366ff99"," "," ","1","+10","[1723.1999998092651]","1","2","","","12646","23","1","1","win","go","0"
"pit-trial","142","1014449","0.0-28.0","battery-v0.2","","""event"",""trial"",""time""
""fullscreenenter"",""1"",""2456""
","
","
","""event"",""trial"",""time""
""fullscreenenter"",""1"",""2456""
","
","","","-1","","","24","12646","5631","y","elianto","#f73b6a7A","-1","-1","1","-10","[]","0","2","","","12646","24","2","4","lose","no-go","1"
"pit-trial","143","1019327","0.0-29.0","battery-v0.2","","""event"",""trial"",""time""
""fullscreenenter"",""1"",""2456""
","
","
","""event"",""trial"",""time""
""fullscreenenter"",""1"",""2456""
","
","","","-1","","","24","12646","5631","m","elianto","#f73b6a7A","-1","-1","1","0","[]","0","2","","","12646","25","0","4","lose","no-go","0"
"pit-trial","144","1023105","0.0-30.0","battery-v0.2","","""event"",""trial"",""time""
""fullscreenenter"",""1"",""2456""
","
","
","""event"",""trial"",""time""
""fullscreenenter"",""1"",""2456""
","
","","","906.3000001907349","","","24","12646","5631","r","elianto","#3366ff99"," "," ","1","0","[1759.8000001907349]","1","2","","","12646","26","1","1","win","go","1"
"pit-trial","145","1027381","0.0-31.0","battery-v0.2","","""event"",""trial"",""time""
""fullscreenenter"",""1"",""2456""
","
","
","""event"",""trial"",""time""
""fullscreenenter"",""1"",""2456""
","
","","","1406.6999998092651","","","24","12646","5631","y","elianto","#f73b6a7A","-1"," ","0","-10","[2261.5999999046326]","1","2","","","12646","27","2","4","lose","no-go","0"
"pit-trial","146","1031529","0.0-32.0","battery-v0.2","","""event"",""trial"",""time""
""fullscreenenter"",""1"",""2456""
","
","
","""event"",""trial"",""time""
""fullscreenenter"",""1"",""2456""
","
","","","1274.5","","","24","12646","5631","h","elianto","#f73b6a7A"," "," ","1","0","[2138.800000190735]","1","2","","","12646","28","3","3","lose","go","0"
"pit-trial","147","1036413","0.0-33.0","battery-v0.2","","""event"",""trial"",""time""
""fullscreenenter"",""1"",""2456""
","
","
","""event"",""trial"",""time""
""fullscreenenter"",""1"",""2456""
","
","","","-1","","","24","12646","5631","m","elianto","#f73b6a7A","-1","-1","1","0","[]","0","2","","","12646","29","0","4","lose","no-go","0"
"pit-trial","148","1041299","0.0-34.0","battery-v0.2","","""event"",""trial"",""time""
""fullscreenenter"",""1"",""2456""
","
","
","""event"",""trial"",""time""
""fullscreenenter"",""1"",""2456""
","
","","","-1","","","24","12646","5631","y","elianto","#f73b6a7A","-1","-1","1","-10","[3582.0999999046326]","1","2","","","12646","30","2","4","lose","no-go","1"
"pit-trial","149","1044983","0.0-35.0","battery-v0.2","","""event"",""trial"",""time""
""fullscreenenter"",""1"",""2456""
","
","
","""event"",""trial"",""time""
""fullscreenenter"",""1"",""2456""
","
","","","827.3000001907349","","","24","12646","5631","r","elianto","#3366ff99"," "," ","1","0","[1678.4000000953674]","1","2","","","12646","31","1","1","win","go","1"
"pit-trial","150","1049340","0.0-36.0","battery-v0.2","","""event"",""trial"",""time""
""fullscreenenter"",""1"",""2456""
","
","
","""event"",""trial"",""time""
""fullscreenenter"",""1"",""2456""
","
","","","1477.5","","","24","12646","5631","h","elianto","#f73b6a7A"," "," ","1","-10","[2349.5999999046326]","1","2","","","12646","32","3","3","lose","go","1"
"pit-trial","151","1054203","0.0-37.0","battery-v0.2","","""event"",""trial"",""time""
""fullscreenenter"",""1"",""2456""
","
","
","""event"",""trial"",""time""
""fullscreenenter"",""1"",""2456""
","
","","","-1","","","24","12646","5631","y","elianto","#f73b6a7A","-1","-1","1","-10","[2959.5999999046326]","1","2","","","12646","33","2","4","lose","no-go","1"
"pit-trial","152","1057812","0.0-38.0","battery-v0.2","","""event"",""trial"",""time""
""fullscreenenter"",""1"",""2456""
","
","
","""event"",""trial"",""time""
""fullscreenenter"",""1"",""2456""
","
","","","733.5","","","24","12646","5631","r","elianto","#3366ff99"," "," ","1","+10","[1591.5999999046326]","1","2","","","12646","34","1","1","win","go","0"
"pit-trial","153","1061456","0.0-39.0","battery-v0.2","","""event"",""trial"",""time""
""fullscreenenter"",""1"",""2456""
","
","
","""event"",""trial"",""time""
""fullscreenenter"",""1"",""2456""
","
","","","778.4000000953674","","","24","12646","5631","m","elianto","#f73b6a7A","-1"," ","0","-10","[1631.5999999046326]","1","2","","","12646","35","0","4","lose","no-go","0"
"pit-trial","154","1064852","0.0-40.0","battery-v0.2","","""event"",""trial"",""time""
""fullscreenenter"",""1"",""2456""
","
","
","""event"",""trial"",""time""
""fullscreenenter"",""1"",""2456""
","
","","","531.6000003814697","","","24","12646","5631","h","elianto","#f73b6a7A"," "," ","1","0","[1387]","1","2","","","12646","36","3","3","lose","go","0"
"pit-trial","155","1068405","0.0-41.0","battery-v0.2","","""event"",""trial"",""time""
""fullscreenenter"",""1"",""2456""
","
","
","""event"",""trial"",""time""
""fullscreenenter"",""1"",""2456""
","
","","","678.8000001907349","","","24","12646","5631","r","elianto","#3366ff99"," "," ","1","+10","[1543.8000001907349]","1","2","","","12646","37","1","1","win","go","0"
"pit-trial","156","1073283","0.0-42.0","battery-v0.2","","""event"",""trial"",""time""
""fullscreenenter"",""1"",""2456""
","
","
","""event"",""trial"",""time""
""fullscreenenter"",""1"",""2456""
","
","","","-1","","","24","12646","5631","m","elianto","#f73b6a7A","-1","-1","1","0","[]","0","2","","","12646","38","0","4","lose","no-go","0"
"pit-trial","157","1077026","0.0-43.0","battery-v0.2","","""event"",""trial"",""time""
""fullscreenenter"",""1"",""2456""
","
","
","""event"",""trial"",""time""
""fullscreenenter"",""1"",""2456""
","
","","","868.3000001907349","","","24","12646","5631","h","elianto","#f73b6a7A"," "," ","1","0","[1730.6999998092651,2725.199999809265]","2","2","","","12646","39","3","3","lose","go","0"
"pit-trial","158","1081902","0.0-44.0","battery-v0.2","","""event"",""trial"",""time""
""fullscreenenter"",""1"",""2456""
","
","
","""event"",""trial"",""time""
""fullscreenenter"",""1"",""2456""
","
","","","-1","","","24","12646","5631","y","elianto","#f73b6a7A","-1","-1","1","0","[]","0","2","","","12646","40","2","4","lose","no-go","0"
"pit-trial","159","1086782","0.0-45.0","battery-v0.2","","""event"",""trial"",""time""
""fullscreenenter"",""1"",""2456""
","
","
","""event"",""trial"",""time""
""fullscreenenter"",""1"",""2456""
","
","","","-1","","","24","12646","5631","y","elianto","#f73b6a7A","-1","-1","1","0","[]","0","2","","","12646","41","2","4","lose","no-go","0"
"pit-trial","160","1090231","0.0-46.0","battery-v0.2","","""event"",""trial"",""time""
""fullscreenenter"",""1"",""2456""
","
","
","""event"",""trial"",""time""
""fullscreenenter"",""1"",""2456""
","
","","","575.6000003814697","","","24","12646","5631","r","elianto","#3366ff99"," "," ","1","+10","[1439.8999996185303]","1","2","","","12646","42","1","1","win","go","0"
"pit-trial","161","1094489","0.0-47.0","battery-v0.2","","""event"",""trial"",""time""
""fullscreenenter"",""1"",""2456""
","
","
","""event"",""trial"",""time""
""fullscreenenter"",""1"",""2456""
","
","","","1391.9000000953674","","","24","12646","5631","h","elianto","#f73b6a7A"," "," ","1","0","[2242.0999999046326]","1","2","","","12646","43","3","3","lose","go","0"
"pit-trial","162","1099383","0.0-48.0","battery-v0.2","","""event"",""trial"",""time""
""fullscreenenter"",""1"",""2456""
","
","
","""event"",""trial"",""time""
""fullscreenenter"",""1"",""2456""
","
","","","-1","","","24","12646","5631","m","elianto","#f73b6a7A","-1","-1","1","0","[]","0","2","","","12646","44","0","4","lose","no-go","0"
"pit-trial","163","1104299","0.0-49.0","battery-v0.2","","""event"",""trial"",""time""
""fullscreenenter"",""1"",""2456""
","
","
","""event"",""trial"",""time""
""fullscreenenter"",""1"",""2456""
","
","","","-1","","","24","12646","5631","y","elianto","#f73b6a7A","-1","-1","1","0","[]","0","2","","","12646","45","2","4","lose","no-go","0"
"pit-trial","164","1109229","0.0-50.0","battery-v0.2","","""event"",""trial"",""time""
""fullscreenenter"",""1"",""2456""
","
","
","""event"",""trial"",""time""
""fullscreenenter"",""1"",""2456""
","
","","","-1","","","24","12646","5631","m","elianto","#f73b6a7A","-1","-1","1","0","[]","0","2","","","12646","46","0","4","lose","no-go","0"
"pit-trial","165","1113514","0.0-51.0","battery-v0.2","","""event"",""trial"",""time""
""fullscreenenter"",""1"",""2456""
","
","
","""event"",""trial"",""time""
""fullscreenenter"",""1"",""2456""
","
","","","1412.8000001907349","","","24","12646","5631","z","elianto","#3366ff99","-1"," ","0","0","[2269.9000000953674]","1","2","","","12646","47","4","2","win","no-go","0"
"pit-trial","166","1118412","0.0-52.0","battery-v0.2","","""event"",""trial"",""time""
""fullscreenenter"",""1"",""2456""
","
","
","""event"",""trial"",""time""
""fullscreenenter"",""1"",""2456""
","
","","","-1","","","24","12646","5631","h","elianto","#f73b6a7A"," ","-1","0","-10","[]","0","2","","","12646","48","3","3","lose","go","0"
"pit-trial","167","1122208","0.0-53.0","battery-v0.2","","""event"",""trial"",""time""
""fullscreenenter"",""1"",""2456""
","
","
","""event"",""trial"",""time""
""fullscreenenter"",""1"",""2456""
","
","","","929.1999998092651","","","24","12646","5631","h","elianto","#f73b6a7A"," "," ","1","-10","[1784.1999998092651]","1","2","","","12646","49","3","3","lose","go","1"
"pit-trial","168","1126384","0.0-54.0","battery-v0.2","","""event"",""trial"",""time""
""fullscreenenter"",""1"",""2456""
","
","
","""event"",""trial"",""time""
""fullscreenenter"",""1"",""2456""
","
","","","1305.5999999046326","","","24","12646","5631","z","elianto","#3366ff99","-1"," ","0","0","[2162.5999999046326]","1","2","","","12646","50","4","2","win","no-go","0"
"pit-trial","169","1130065","0.0-55.0","battery-v0.2","","""event"",""trial"",""time""
""fullscreenenter"",""1"",""2456""
","
","
","""event"",""trial"",""time""
""fullscreenenter"",""1"",""2456""
","
","","","802.7999997138977","","","24","12646","5631","r","elianto","#3366ff99"," "," ","1","0","[1667.6999998092651]","1","2","","","12646","51","1","1","win","go","1"
"pit-trial","170","1134964","0.0-56.0","battery-v0.2","","""event"",""trial"",""time""
""fullscreenenter"",""1"",""2456""
","
","
","""event"",""trial"",""time""
""fullscreenenter"",""1"",""2456""
","
","","","-1","","","24","12646","5631","m","elianto","#f73b6a7A","-1","-1","1","0","[]","0","2","","","12646","52","0","4","lose","no-go","0"
"pit-trial","171","1139850","0.0-57.0","battery-v0.2","","""event"",""trial"",""time""
""fullscreenenter"",""1"",""2456""
","
","
","""event"",""trial"",""time""
""fullscreenenter"",""1"",""2456""
","
","","","-1","","","24","12646","5631","z","elianto","#3366ff99","-1","-1","1","+10","[]","0","2","","","12646","53","4","2","win","no-go","0"
"pit-trial","172","1144743","0.0-58.0","battery-v0.2","","""event"",""trial"",""time""
""fullscreenenter"",""1"",""2456""
","
","
","""event"",""trial"",""time""
""fullscreenenter"",""1"",""2456""
","
","","","-1","","","24","12646","5631","y","elianto","#f73b6a7A","-1","-1","1","-10","[]","0","2","","","12646","54","2","4","lose","no-go","1"
"pit-trial","173","1148402","0.0-59.0","battery-v0.2","","""event"",""trial"",""time""
""fullscreenenter"",""1"",""2456""
","
","
","""event"",""trial"",""time""
""fullscreenenter"",""1"",""2456""
","
","","","788.5","","","24","12646","5631","r","elianto","#3366ff99"," "," ","1","+10","[1652.5]","1","2","","","12646","55","1","1","win","go","0"
"pit-trial","174","1153294","0.0-60.0","battery-v0.2","","""event"",""trial"",""time""
""fullscreenenter"",""1"",""2456""
","
","
","""event"",""trial"",""time""
""fullscreenenter"",""1"",""2456""
","
","","","-1","","","24","12646","5631","m","elianto","#f73b6a7A","-1","-1","1","0","[]","0","2","","","12646","56","0","4","lose","no-go","0"
"pit-trial","175","1158177","0.0-61.0","battery-v0.2","","""event"",""trial"",""time""
""fullscreenenter"",""1"",""2456""
","
","
","""event"",""trial"",""time""
""fullscreenenter"",""1"",""2456""
","
","","","-1","","","24","12646","5631","m","elianto","#f73b6a7A","-1","-1","1","0","[]","0","2","","","12646","57","0","4","lose","no-go","0"
"pit-trial","176","1162026","0.0-62.0","battery-v0.2","","""event"",""trial"",""time""
""fullscreenenter"",""1"",""2456""
","
","
","""event"",""trial"",""time""
""fullscreenenter"",""1"",""2456""
","
","","","972","","","24","12646","5631","h","elianto","#f73b6a7A"," "," ","1","0","[1844.3000001907349]","1","2","","","12646","58","3","3","lose","go","0"
"pit-trial","177","1166920","0.0-63.0","battery-v0.2","","""event"",""trial"",""time""
""fullscreenenter"",""1"",""2456""
","
","
","""event"",""trial"",""time""
""fullscreenenter"",""1"",""2456""
","
","","","-1","","","24","12646","5631","z","elianto","#3366ff99","-1","-1","1","0","[]","0","2","","","12646","59","4","2","win","no-go","1"
"pit-trial","178","1170423","0.0-64.0","battery-v0.2","","""event"",""trial"",""time""
""fullscreenenter"",""1"",""2456""
","
","
","""event"",""trial"",""time""
""fullscreenenter"",""1"",""2456""
","
","","","641.5","","","24","12646","5631","r","elianto","#3366ff99"," "," ","1","+10","[1497.4000000953674]","1","2","","","12646","60","1","1","win","go","0"
"pit-trial","179","1175307","0.0-65.0","battery-v0.2","","""event"",""trial"",""time""
""fullscreenenter"",""1"",""2456""
","
","
","""event"",""trial"",""time""
""fullscreenenter"",""1"",""2456""
","
","","","-1","","","24","12646","5631","z","elianto","#3366ff99","-1","-1","1","+10","[]","0","2","","","12646","61","4","2","win","no-go","0"
"pit-trial","180","1179296","0.0-66.0","battery-v0.2","","""event"",""trial"",""time""
""fullscreenenter"",""1"",""2456""
","
","
","""event"",""trial"",""time""
""fullscreenenter"",""1"",""2456""
","
","","","1114.0999999046326","","","24","12646","5631","h","elianto","#f73b6a7A"," "," ","1","0","[1985.4000000953674]","1","2","","","12646","62","3","3","lose","go","0"
"pit-trial","181","1184159","0.0-67.0","battery-v0.2","","""event"",""trial"",""time""
""fullscreenenter"",""1"",""2456""
","
","
","""event"",""trial"",""time""
""fullscreenenter"",""1"",""2456""
","
","","","-1","","","24","12646","5631","y","elianto","#f73b6a7A","-1","-1","1","0","[]","0","2","","","12646","63","2","4","lose","no-go","0"
"pit-trial","182","1187707","0.0-68.0","battery-v0.2","","""event"",""trial"",""time""
""fullscreenenter"",""1"",""2456""
","
","
","""event"",""trial"",""time""
""fullscreenenter"",""1"",""2456""
","
","","","665.2000002861023","","","24","12646","5631","r","elianto","#3366ff99"," "," ","1","+10","[1537.3000001907349]","1","2","","","12646","64","1","1","win","go","0"
"pit-trial","183","1192600","0.0-69.0","battery-v0.2","","""event"",""trial"",""time""
""fullscreenenter"",""1"",""2456""
","
","
","""event"",""trial"",""time""
""fullscreenenter"",""1"",""2456""
","
","","","-1","","","24","12646","5631","z","elianto","#3366ff99","-1","-1","1","+10","[]","0","2","","","12646","65","4","2","win","no-go","0"
"pit-trial","184","1196351","0.0-70.0","battery-v0.2","","""event"",""trial"",""time""
""fullscreenenter"",""1"",""2456""
","
","
","""event"",""trial"",""time""
""fullscreenenter"",""1"",""2456""
","
","","","887.0999999046326","","","24","12646","5631","h","elianto","#f73b6a7A"," "," ","1","0","[1743.6999998092651]","1","2","","","12646","66","3","3","lose","go","0"
"pit-trial","185","1201236","0.0-71.0","battery-v0.2","","""event"",""trial"",""time""
""fullscreenenter"",""1"",""2456""
","
","
","""event"",""trial"",""time""
""fullscreenenter"",""1"",""2456""
","
","","","-1","","","24","12646","5631","y","elianto","#f73b6a7A","-1","-1","1","-10","[]","0","2","","","12646","67","2","4","lose","no-go","1"
"pit-trial","186","1205046","0.0-72.0","battery-v0.2","","""event"",""trial"",""time""
""fullscreenenter"",""1"",""2456""
","
","
","""event"",""trial"",""time""
""fullscreenenter"",""1"",""2456""
","
","","","938","","","24","12646","5631","r","elianto","#3366ff99"," "," ","1","+10","[1800.5]","1","2","","","12646","68","1","1","win","go","0"
"pit-trial","187","1209517","0.0-73.0","battery-v0.2","","""event"",""trial"",""time""
""fullscreenenter"",""1"",""2456""
","
","
","""event"",""trial"",""time""
""fullscreenenter"",""1"",""2456""
","
","","","1581.5","","","24","12646","5631","c","elianto","#3366ff99"," "," ","1","+10","[2435.5999999046326]","1","2","","","12646","69","5","1","win","go","0"
"pit-trial","188","1214403","0.0-74.0","battery-v0.2","","""event"",""trial"",""time""
""fullscreenenter"",""1"",""2456""
","
","
","""event"",""trial"",""time""
""fullscreenenter"",""1"",""2456""
","
","","","-1","","","24","12646","5631","z","elianto","#3366ff99","-1","-1","1","+10","[]","0","2","","","12646","70","4","2","win","no-go","0"
"pit-trial","189","1218089","0.0-75.0","battery-v0.2","","""event"",""trial"",""time""
""fullscreenenter"",""1"",""2456""
","
","
","""event"",""trial"",""time""
""fullscreenenter"",""1"",""2456""
","
","","","806.3000001907349","","","24","12646","5631","r","elianto","#3366ff99"," "," ","1","+10","[1667.8999996185303]","1","2","","","12646","71","1","1","win","go","0"
"pit-trial","190","1222228","0.0-76.0","battery-v0.2","","""event"",""trial"",""time""
""fullscreenenter"",""1"",""2456""
","
","
","""event"",""trial"",""time""
""fullscreenenter"",""1"",""2456""
","
","","","1266.7999997138977","","","24","12646","5631","h","elianto","#f73b6a7A"," "," ","1","0","[2118.5999999046326]","1","2","","","12646","72","3","3","lose","go","0"
"pit-trial","191","1225960","0.0-77.0","battery-v0.2","","""event"",""trial"",""time""
""fullscreenenter"",""1"",""2456""
","
","
","""event"",""trial"",""time""
""fullscreenenter"",""1"",""2456""
","
","","","854.0999999046326","","","24","12646","5631","h","elianto","#f73b6a7A"," "," ","1","0","[1725.1999998092651]","1","2","","","12646","73","3","3","lose","go","0"
"pit-trial","192","1230845","0.0-78.0","battery-v0.2","","""event"",""trial"",""time""
""fullscreenenter"",""1"",""2456""
","
","
","""event"",""trial"",""time""
""fullscreenenter"",""1"",""2456""
","
","","","-1","","","24","12646","5631","z","elianto","#3366ff99","-1","-1","1","0","[]","0","2","","","12646","74","4","2","win","no-go","1"
"pit-trial","193","1234426","0.0-79.0","battery-v0.2","","""event"",""trial"",""time""
""fullscreenenter"",""1"",""2456""
","
","
","""event"",""trial"",""time""
""fullscreenenter"",""1"",""2456""
","
","","","711.6999998092651","","","24","12646","5631","r","elianto","#3366ff99"," "," ","1","+10","[1572.5999999046326]","1","2","","","12646","75","1","1","win","go","0"
"pit-trial","194","1238345","0.0-80.0","battery-v0.2","","""event"",""trial"",""time""
""fullscreenenter"",""1"",""2456""
","
","
","""event"",""trial"",""time""
""fullscreenenter"",""1"",""2456""
","
","","","1043","","","24","12646","5631","c","elianto","#3366ff99"," "," ","1","+10","[1898.8000001907349]","1","2","","","12646","76","5","1","win","go","0"
"pit-trial","195","1241817","0.0-81.0","battery-v0.2","","""event"",""trial"",""time""
""fullscreenenter"",""1"",""2456""
","
","
","""event"",""trial"",""time""
""fullscreenenter"",""1"",""2456""
","
","","","606.9000000953674","","","24","12646","5631","c","elianto","#3366ff99"," "," ","1","+10","[1467]","1","2","","","12646","77","5","1","win","go","0"
"pit-trial","196","1246685","0.0-82.0","battery-v0.2","","""event"",""trial"",""time""
""fullscreenenter"",""1"",""2456""
","
","
","""event"",""trial"",""time""
""fullscreenenter"",""1"",""2456""
","
","","","-1","","","24","12646","5631","b","elianto","#f73b6a7A","-1","-1","1","0","[]","0","2","","","12646","78","6","4","lose","no-go","0"
"pit-trial","197","1250605","0.0-83.0","battery-v0.2","","""event"",""trial"",""time""
""fullscreenenter"",""1"",""2456""
","
","
","""event"",""trial"",""time""
""fullscreenenter"",""1"",""2456""
","
","","","1051.2000002861023","","","24","12646","5631","h","elianto","#f73b6a7A"," "," ","1","0","[1915.5]","1","2","","","12646","79","3","3","lose","go","0"
"pit-trial","198","1255468","0.0-84.0","battery-v0.2","","""event"",""trial"",""time""
""fullscreenenter"",""1"",""2456""
","
","
","""event"",""trial"",""time""
""fullscreenenter"",""1"",""2456""
","
","","","-1","","","24","12646","5631","z","elianto","#3366ff99","-1","-1","1","+10","[]","0","2","","","12646","80","4","2","win","no-go","0"
"pit-trial","199","1259764","0.0-85.0","battery-v0.2","","""event"",""trial"",""time""
""fullscreenenter"",""1"",""2456""
","
","
","""event"",""trial"",""time""
""fullscreenenter"",""1"",""2456""
","
","","","1425.0999999046326","","","24","12646","5631","b","elianto","#f73b6a7A","-1"," ","0","-10","[2293]","1","2","","","12646","81","6","4","lose","no-go","0"
"pit-trial","200","1264138","0.0-86.0","battery-v0.2","","""event"",""trial"",""time""
""fullscreenenter"",""1"",""2456""
","
","
","""event"",""trial"",""time""
""fullscreenenter"",""1"",""2456""
","
","","","1515.2000002861023","","","24","12646","5631","c","elianto","#3366ff99"," "," ","1","+10","[2366.9000000953674]","1","2","","","12646","82","5","1","win","go","0"
"pit-trial","201","1268234","0.0-87.0","battery-v0.2","","""event"",""trial"",""time""
""fullscreenenter"",""1"",""2456""
","
","
","""event"",""trial"",""time""
""fullscreenenter"",""1"",""2456""
","
","","","1217.9000000953674","","","24","12646","5631","t","elianto","#f73b6a7A"," "," ","1","0","[2089.2000002861023]","1","2","","","12646","83","7","3","lose","go","0"
"pit-trial","202","1273111","0.0-88.0","battery-v0.2","","""event"",""trial"",""time""
""fullscreenenter"",""1"",""2456""
","
","
","""event"",""trial"",""time""
""fullscreenenter"",""1"",""2456""
","
","","","-1","","","24","12646","5631","z","elianto","#3366ff99","-1","-1","1","+10","[]","0","2","","","12646","84","4","2","win","no-go","0"
"pit-trial","203","1277368","0.0-89.0","battery-v0.2","","""event"",""trial"",""time""
""fullscreenenter"",""1"",""2456""
","
","
","""event"",""trial"",""time""
""fullscreenenter"",""1"",""2456""
","
","","","1382.2000002861023","","","24","12646","5631","t","elianto","#f73b6a7A"," "," ","1","0","[2247.5999999046326]","1","2","","","12646","85","7","3","lose","go","0"
"pit-trial","204","1282263","0.0-90.0","battery-v0.2","","""event"",""trial"",""time""
""fullscreenenter"",""1"",""2456""
","
","
","""event"",""trial"",""time""
""fullscreenenter"",""1"",""2456""
","
","","","-1","","","24","12646","5631","z","elianto","#3366ff99","-1","-1","1","+10","[]","0","2","","","12646","86","4","2","win","no-go","0"
"pit-trial","205","1287140","0.0-91.0","battery-v0.2","","""event"",""trial"",""time""
""fullscreenenter"",""1"",""2456""
","
","
","""event"",""trial"",""time""
""fullscreenenter"",""1"",""2456""
","
","","","-1","","","24","12646","5631","b","elianto","#f73b6a7A","-1","-1","1","0","[2967.800000190735]","1","2","","","12646","87","6","4","lose","no-go","0"
"pit-trial","206","1292011","0.0-92.0","battery-v0.2","","""event"",""trial"",""time""
""fullscreenenter"",""1"",""2456""
","
","
","""event"",""trial"",""time""
""fullscreenenter"",""1"",""2456""
","
","","","-1","","","24","12646","5631","c","elianto","#3366ff99"," ","-1","0","0","[]","0","2","","","12646","88","5","1","win","go","0"
"pit-trial","207","1296909","0.0-93.0","battery-v0.2","","""event"",""trial"",""time""
""fullscreenenter"",""1"",""2456""
","
","
","""event"",""trial"",""time""
""fullscreenenter"",""1"",""2456""
","
","","","-1","","","24","12646","5631","z","elianto","#3366ff99","-1","-1","1","0","[]","0","2","","","12646","89","4","2","win","no-go","1"
"pit-trial","208","1300930","0.0-94.0","battery-v0.2","","""event"",""trial"",""time""
""fullscreenenter"",""1"",""2456""
","
","
","""event"",""trial"",""time""
""fullscreenenter"",""1"",""2456""
","
","","","1155.4000000953674","","","24","12646","5631","c","elianto","#3366ff99"," "," ","1","0","[2014]","1","2","","","12646","90","5","1","win","go","1"
"pit-trial","209","1305390","0.0-95.0","battery-v0.2","","""event"",""trial"",""time""
""fullscreenenter"",""1"",""2456""
","
","
","""event"",""trial"",""time""
""fullscreenenter"",""1"",""2456""
","
","","","1597.5","","","24","12646","5631","b","elianto","#f73b6a7A","-1"," ","0","-10","[2452.7000002861023]","1","2","","","12646","91","6","4","lose","no-go","0"
"pit-trial","210","1309838","0.0-96.0","battery-v0.2","","""event"",""trial"",""time""
""fullscreenenter"",""1"",""2456""
","
","
","""event"",""trial"",""time""
""fullscreenenter"",""1"",""2456""
","
","","","1579.1999998092651","","","24","12646","5631","t","elianto","#f73b6a7A"," "," ","1","0","[2444.5999999046326]","1","2","","","12646","92","7","3","lose","go","0"
"pit-trial","211","1313582","0.0-97.0","battery-v0.2","","""event"",""trial"",""time""
""fullscreenenter"",""1"",""2456""
","
","
","""event"",""trial"",""time""
""fullscreenenter"",""1"",""2456""
","
","","","883.5","","","24","12646","5631","t","elianto","#f73b6a7A"," "," ","1","0","[1741.3999996185303,3534.3999996185303]","2","2","","","12646","93","7","3","lose","go","0"
"pit-trial","212","1318482","0.0-98.0","battery-v0.2","","""event"",""trial"",""time""
""fullscreenenter"",""1"",""2456""
","
","
","""event"",""trial"",""time""
""fullscreenenter"",""1"",""2456""
","
","","","-1","","","24","12646","5631","c","elianto","#3366ff99"," ","-1","0","0","[]","0","2","","","12646","94","5","1","win","go","0"
"pit-trial","213","1323025","0.0-99.0","battery-v0.2","","""event"",""trial"",""time""
""fullscreenenter"",""1"",""2456""
","
","
","""event"",""trial"",""time""
""fullscreenenter"",""1"",""2456""
","
","","","1679.5","","","24","12646","5631","f","elianto","#3366ff99","-1"," ","0","0","[2534.300000190735]","1","2","","","12646","95","8","2","win","no-go","0"
"pit-trial","214","1327262","0.0-100.0","battery-v0.2","","""event"",""trial"",""time""
""fullscreenenter"",""1"",""2456""
","
","
","""event"",""trial"",""time""
""fullscreenenter"",""1"",""2456""
","
","","","1373.8000001907349","","","24","12646","5631","b","elianto","#f73b6a7A","-1"," ","0","-10","[2226.5999999046326]","1","2","","","12646","96","6","4","lose","no-go","0"
"pit-trial","215","1332184","0.0-101.0","battery-v0.2","","""event"",""trial"",""time""
""fullscreenenter"",""1"",""2456""
","
","
","""event"",""trial"",""time""
""fullscreenenter"",""1"",""2456""
","
","","","-1","","","24","12646","5631","b","elianto","#f73b6a7A","-1","-1","1","0","[]","0","2","","","12646","97","6","4","lose","no-go","0"
"pit-trial","216","1336332","0.0-102.0","battery-v0.2","","""event"",""trial"",""time""
""fullscreenenter"",""1"",""2456""
","
","
","""event"",""trial"",""time""
""fullscreenenter"",""1"",""2456""
","
","","","1276.6999998092651","","","24","12646","5631","t","elianto","#f73b6a7A"," "," ","1","0","[2141.300000190735]","1","2","","","12646","98","7","3","lose","go","0"
"pit-trial","217","1340732","0.0-103.0","battery-v0.2","","""event"",""trial"",""time""
""fullscreenenter"",""1"",""2456""
","
","
","""event"",""trial"",""time""
""fullscreenenter"",""1"",""2456""
","
","","","1507.5999999046326","","","24","12646","5631","c","elianto","#3366ff99"," "," ","1","+10","[2363.800000190735]","1","2","","","12646","99","5","1","win","go","0"
"pit-trial","218","1344678","0.0-104.0","battery-v0.2","","""event"",""trial"",""time""
""fullscreenenter"",""1"",""2456""
","
","
","""event"",""trial"",""time""
""fullscreenenter"",""1"",""2456""
","
","","","1071.4000000953674","","","24","12646","5631","f","elianto","#3366ff99","-1"," ","0","+10","[1940.5]","1","2","","","12646","100","8","2","win","no-go","1"
"pit-trial","219","1348621","0.0-105.0","battery-v0.2","","""event"",""trial"",""time""
""fullscreenenter"",""1"",""2456""
","
","
","""event"",""trial"",""time""
""fullscreenenter"",""1"",""2456""
","
","","","1071.9000000953674","","","24","12646","5631","n","elianto","#3366ff99","-1"," ","0","+10","[1929.2000002861023]","1","2","","","12646","101","9","2","win","no-go","1"
"pit-trial","220","1352289","0.0-106.0","battery-v0.2","","""event"",""trial"",""time""
""fullscreenenter"",""1"",""2456""
","
","
","""event"",""trial"",""time""
""fullscreenenter"",""1"",""2456""
","
","","","806.7000002861023","","","24","12646","5631","f","elianto","#3366ff99","-1"," ","0","0","[352.5,1657.3000001907349]","2","2","","","12646","102","8","2","win","no-go","0"
"pit-trial","221","1355928","0.0-107.0","battery-v0.2","","""event"",""trial"",""time""
""fullscreenenter"",""1"",""2456""
","
","
","""event"",""trial"",""time""
""fullscreenenter"",""1"",""2456""
","
","","","785","","","24","12646","5631","c","elianto","#3366ff99"," "," ","1","+10","[1635.0999999046326]","1","2","","","12646","103","5","1","win","go","0"
"pit-trial","222","1360800","0.0-108.0","battery-v0.2","","""event"",""trial"",""time""
""fullscreenenter"",""1"",""2456""
","
","
","""event"",""trial"",""time""
""fullscreenenter"",""1"",""2456""
","
","","","-1","","","24","12646","5631","b","elianto","#f73b6a7A","-1","-1","1","0","[]","0","2","","","12646","104","6","4","lose","no-go","0"
"pit-trial","223","1365694","0.0-109.0","battery-v0.2","","""event"",""trial"",""time""
""fullscreenenter"",""1"",""2456""
","
","
","""event"",""trial"",""time""
""fullscreenenter"",""1"",""2456""
","
","","","-1","","","24","12646","5631","b","elianto","#f73b6a7A","-1","-1","1","0","[]","0","2","","","12646","105","6","4","lose","no-go","0"
"pit-trial","224","1369206","0.0-110.0","battery-v0.2","","""event"",""trial"",""time""
""fullscreenenter"",""1"",""2456""
","
","
","""event"",""trial"",""time""
""fullscreenenter"",""1"",""2456""
","
","","","642.3999996185303","","","24","12646","5631","c","elianto","#3366ff99"," "," ","1","+10","[1503.0999999046326]","1","2","","","12646","106","5","1","win","go","0"
"pit-trial","225","1372623","0.0-111.0","battery-v0.2","","""event"",""trial"",""time""
""fullscreenenter"",""1"",""2456""
","
","
","""event"",""trial"",""time""
""fullscreenenter"",""1"",""2456""
","
","","","540.7999997138977","","","24","12646","5631","f","elianto","#3366ff99","-1"," ","0","0","[1394.4000000953674]","1","2","","","12646","107","8","2","win","no-go","0"
"pit-trial","226","1376707","0.0-112.0","battery-v0.2","","""event"",""trial"",""time""
""fullscreenenter"",""1"",""2456""
","
","
","""event"",""trial"",""time""
""fullscreenenter"",""1"",""2456""
","
","","","1207.3000001907349","","","24","12646","5631","n","elianto","#3366ff99","-1"," ","0","0","[2071.699999809265]","1","2","","","12646","108","9","2","win","no-go","0"
"pit-trial","227","1381593","0.0-113.0","battery-v0.2","","""event"",""trial"",""time""
""fullscreenenter"",""1"",""2456""
","
","
","""event"",""trial"",""time""
""fullscreenenter"",""1"",""2456""
","
","","","-1","","","24","12646","5631","b","elianto","#f73b6a7A","-1","-1","1","0","[]","0","2","","","12646","109","6","4","lose","no-go","0"
"pit-trial","228","1386058","0.0-114.0","battery-v0.2","","""event"",""trial"",""time""
""fullscreenenter"",""1"",""2456""
","
","
","""event"",""trial"",""time""
""fullscreenenter"",""1"",""2456""
","
","","","1594.9000000953674","","","24","12646","5631","f","elianto","#3366ff99","-1"," ","0","0","[2460.7999997138977]","1","2","","","12646","110","8","2","win","no-go","0"
"pit-trial","229","1390924","0.0-115.0","battery-v0.2","","""event"",""trial"",""time""
""fullscreenenter"",""1"",""2456""
","
","
","""event"",""trial"",""time""
""fullscreenenter"",""1"",""2456""
","
","","","-1","","","24","12646","5631","n","elianto","#3366ff99","-1","-1","1","+10","[]","0","2","","","12646","111","9","2","win","no-go","0"
"pit-trial","230","1394898","0.0-116.0","battery-v0.2","","""event"",""trial"",""time""
""fullscreenenter"",""1"",""2456""
","
","
","""event"",""trial"",""time""
""fullscreenenter"",""1"",""2456""
","
","","","1107","","","24","12646","5631","c","elianto","#3366ff99"," "," ","1","+10","[1968]","1","2","","","12646","112","5","1","win","go","0"
"pit-trial","231","1399774","0.0-117.0","battery-v0.2","","""event"",""trial"",""time""
""fullscreenenter"",""1"",""2456""
","
","
","""event"",""trial"",""time""
""fullscreenenter"",""1"",""2456""
","
","","","-1","","","24","12646","5631","n","elianto","#3366ff99","-1","-1","1","+10","[6.800000190734863]","1","2","","","12646","113","9","2","win","no-go","0"
"pit-trial","232","1404660","0.0-118.0","battery-v0.2","","""event"",""trial"",""time""
""fullscreenenter"",""1"",""2456""
","
","
","""event"",""trial"",""time""
""fullscreenenter"",""1"",""2456""
","
","","","-1","","","24","12646","5631","f","elianto","#3366ff99","-1","-1","1","+10","[]","0","2","","","12646","114","8","2","win","no-go","0"
"pit-trial","233","1408635","0.0-119.0","battery-v0.2","","""event"",""trial"",""time""
""fullscreenenter"",""1"",""2456""
","
","
","""event"",""trial"",""time""
""fullscreenenter"",""1"",""2456""
","
","","","1104.5","","","24","12646","5631","t","elianto","#f73b6a7A"," "," ","1","0","[1970]","1","2","","","12646","115","7","3","lose","go","0"
"pit-trial","234","1412473","0.0-120.0","battery-v0.2","","""event"",""trial"",""time""
""fullscreenenter"",""1"",""2456""
","
","
","""event"",""trial"",""time""
""fullscreenenter"",""1"",""2456""
","
","","","941.3000001907349","","","24","12646","5631","c","elianto","#3366ff99"," "," ","1","+10","[1792.0999999046326]","1","2","","","12646","116","5","1","win","go","0"
"pit-trial","235","1415953","0.0-121.0","battery-v0.2","","""event"",""trial"",""time""
""fullscreenenter"",""1"",""2456""
","
","
","""event"",""trial"",""time""
""fullscreenenter"",""1"",""2456""
","
","","","609","","","24","12646","5631","c","elianto","#3366ff99"," "," ","1","+10","[1464.8000001907349]","1","2","","","12646","117","5","1","win","go","0"
"pit-trial","236","1420834","0.0-122.0","battery-v0.2","","""event"",""trial"",""time""
""fullscreenenter"",""1"",""2456""
","
","
","""event"",""trial"",""time""
""fullscreenenter"",""1"",""2456""
","
","","","-1","","","24","12646","5631","b","elianto","#f73b6a7A","-1","-1","1","0","[]","0","2","","","12646","118","6","4","lose","no-go","0"
"pit-trial","237","1425720","0.0-123.0","battery-v0.2","","""event"",""trial"",""time""
""fullscreenenter"",""1"",""2456""
","
","
","""event"",""trial"",""time""
""fullscreenenter"",""1"",""2456""
","
","","","-1","","","24","12646","5631","n","elianto","#3366ff99","-1","-1","1","+10","[]","0","2","","","12646","119","9","2","win","no-go","0"
"pit-trial","238","1430611","0.0-124.0","battery-v0.2","","""event"",""trial"",""time""
""fullscreenenter"",""1"",""2456""
","
","
","""event"",""trial"",""time""
""fullscreenenter"",""1"",""2456""
","
","","","-1","","","24","12646","5631","f","elianto","#3366ff99","-1","-1","1","+10","[]","0","2","","","12646","120","8","2","win","no-go","0"
"pit-trial","239","1435504","0.0-125.0","battery-v0.2","","""event"",""trial"",""time""
""fullscreenenter"",""1"",""2456""
","
","
","""event"",""trial"",""time""
""fullscreenenter"",""1"",""2456""
","
","","","-1","","","24","12646","5631","f","elianto","#3366ff99","-1","-1","1","+10","[]","0","2","","","12646","121","8","2","win","no-go","0"
"pit-trial","240","1439377","0.0-126.0","battery-v0.2","","""event"",""trial"",""time""
""fullscreenenter"",""1"",""2456""
","
","
","""event"",""trial"",""time""
""fullscreenenter"",""1"",""2456""
","
","","","1005","","","24","12646","5631","c","elianto","#3366ff99"," "," ","1","+10","[1868.6999998092651]","1","2","","","12646","122","5","1","win","go","0"
"pit-trial","241","1443633","0.0-127.0","battery-v0.2","","""event"",""trial"",""time""
""fullscreenenter"",""1"",""2456""
","
","
","""event"",""trial"",""time""
""fullscreenenter"",""1"",""2456""
","
","","","1386.4000000953674","","","24","12646","5631","t","elianto","#f73b6a7A"," "," ","1","0","[2241.5999999046326]","1","2","","","12646","123","7","3","lose","go","0"
"pit-trial","242","1448522","0.0-128.0","battery-v0.2","","""event"",""trial"",""time""
""fullscreenenter"",""1"",""2456""
","
","
","""event"",""trial"",""time""
""fullscreenenter"",""1"",""2456""
","
","","","-1","","","24","12646","5631","n","elianto","#3366ff99","-1","-1","1","+10","[]","0","2","","","12646","124","9","2","win","no-go","0"
"pit-trial","243","1453449","0.0-129.0","battery-v0.2","","""event"",""trial"",""time""
""fullscreenenter"",""1"",""2456""
","
","
","""event"",""trial"",""time""
""fullscreenenter"",""1"",""2456""
","
","","","-1","","","24","12646","5631","n","elianto","#3366ff99","-1","-1","1","+10","[]","0","2","","","12646","125","9","2","win","no-go","0"
"pit-trial","244","1458330","0.0-130.0","battery-v0.2","","""event"",""trial"",""time""
""fullscreenenter"",""1"",""2456""
","
","
","""event"",""trial"",""time""
""fullscreenenter"",""1"",""2456""
","
","","","-1","","","24","12646","5631","b","elianto","#f73b6a7A","-1","-1","1","-10","[]","0","2","","","12646","126","6","4","lose","no-go","1"
"pit-trial","245","1461930","0.0-131.0","battery-v0.2","","""event"",""trial"",""time""
""fullscreenenter"",""1"",""2456""
","
","
","""event"",""trial"",""time""
""fullscreenenter"",""1"",""2456""
","
","","","716.4000000953674","","","24","12646","5631","t","elianto","#f73b6a7A"," "," ","1","0","[1587.5999999046326]","1","2","","","12646","127","7","3","lose","go","0"
"pit-trial","246","1466796","0.0-132.0","battery-v0.2","","""event"",""trial"",""time""
""fullscreenenter"",""1"",""2456""
","
","
","""event"",""trial"",""time""
""fullscreenenter"",""1"",""2456""
","
","","","-1","","","24","12646","5631","f","elianto","#3366ff99","-1","-1","1","+10","[]","0","2","","","12646","128","8","2","win","no-go","0"
"pit-trial","247","1470731","0.0-133.0","battery-v0.2","","""event"",""trial"",""time""
""fullscreenenter"",""1"",""2456""
","
","
","""event"",""trial"",""time""
""fullscreenenter"",""1"",""2456""
","
","","","1063.4000000953674","","","24","12646","5631","t","elianto","#f73b6a7A"," "," ","1","0","[1924.7999997138977]","1","2","","","12646","129","7","3","lose","go","0"
"pit-trial","248","1474533","0.0-134.0","battery-v0.2","","""event"",""trial"",""time""
""fullscreenenter"",""1"",""2456""
","
","
","""event"",""trial"",""time""
""fullscreenenter"",""1"",""2456""
","
","","","927.8000001907349","","","24","12646","5631","n","elianto","#3366ff99","-1"," ","0","0","[1783]","1","2","","","12646","130","9","2","win","no-go","0"
"pit-trial","249","1479453","0.0-135.0","battery-v0.2","","""event"",""trial"",""time""
""fullscreenenter"",""1"",""2456""
","
","
","""event"",""trial"",""time""
""fullscreenenter"",""1"",""2456""
","
","","","-1","","","24","12646","5631","f","elianto","#3366ff99","-1","-1","1","+10","[]","0","2","","","12646","131","8","2","win","no-go","0"
"pit-trial","250","1484341","0.0-136.0","battery-v0.2","","""event"",""trial"",""time""
""fullscreenenter"",""1"",""2456""
","
","
","""event"",""trial"",""time""
""fullscreenenter"",""1"",""2456""
","
","","","-1","","","24","12646","5631","b","elianto","#f73b6a7A","-1","-1","1","0","[]","0","2","","","12646","132","6","4","lose","no-go","0"
"pit-trial","251","1489229","0.0-137.0","battery-v0.2","","""event"",""trial"",""time""
""fullscreenenter"",""1"",""2456""
","
","
","""event"",""trial"",""time""
""fullscreenenter"",""1"",""2456""
","
","","","-1","","","24","12646","5631","b","elianto","#f73b6a7A","-1","-1","1","0","[]","0","2","","","12646","133","6","4","lose","no-go","0"
"pit-trial","252","1494123","0.0-138.0","battery-v0.2","","""event"",""trial"",""time""
""fullscreenenter"",""1"",""2456""
","
","
","""event"",""trial"",""time""
""fullscreenenter"",""1"",""2456""
","
","","","-1","","","24","12646","5631","n","elianto","#3366ff99","-1","-1","1","0","[]","0","2","","","12646","134","9","2","win","no-go","1"
"pit-trial","253","1499038","0.0-139.0","battery-v0.2","","""event"",""trial"",""time""
""fullscreenenter"",""1"",""2456""
","
","
","""event"",""trial"",""time""
""fullscreenenter"",""1"",""2456""
","
","","","-1","","","24","12646","5631","f","elianto","#3366ff99","-1","-1","1","0","[]","0","2","","","12646","135","8","2","win","no-go","1"
"pit-trial","254","1503027","0.0-140.0","battery-v0.2","","""event"",""trial"",""time""
""fullscreenenter"",""1"",""2456""
","
","
","""event"",""trial"",""time""
""fullscreenenter"",""1"",""2456""
","
","","","1104","","","24","12646","5631","t","elianto","#f73b6a7A"," "," ","1","-10","[1971.2999997138977]","1","2","","","12646","136","7","3","lose","go","1"
"pit-trial","255","1506840","0.0-141.0","battery-v0.2","","""event"",""trial"",""time""
""fullscreenenter"",""1"",""2456""
","
","
","""event"",""trial"",""time""
""fullscreenenter"",""1"",""2456""
","
","","","924.0999999046326","","","24","12646","5631","t","elianto","#f73b6a7A"," "," ","1","-10","[1780.0999999046326]","1","2","","","12646","137","7","3","lose","go","1"
"pit-trial","256","1510990","0.0-142.0","battery-v0.2","","""event"",""trial"",""time""
""fullscreenenter"",""1"",""2456""
","
","
","""event"",""trial"",""time""
""fullscreenenter"",""1"",""2456""
","
","","","1277.3000001907349","","","24","12646","5631","f","elianto","#3366ff99","-1"," ","0","+10","[2143]","1","2","","","12646","138","8","2","win","no-go","1"
"pit-trial","257","1514652","0.0-143.0","battery-v0.2","","""event"",""trial"",""time""
""fullscreenenter"",""1"",""2456""
","
","
","""event"",""trial"",""time""
""fullscreenenter"",""1"",""2456""
","
","","","790.3999996185303","","","24","12646","5631","n","elianto","#3366ff99","-1"," ","0","+10","[1640.5999999046326]","1","2","","","12646","139","9","2","win","no-go","1"
"pit-trial","258","1518233","0.0-144.0","battery-v0.2","","""event"",""trial"",""time""
""fullscreenenter"",""1"",""2456""
","
","
","""event"",""trial"",""time""
""fullscreenenter"",""1"",""2456""
","
","","","722.2999997138977","","","24","12646","5631","b","elianto","#f73b6a7A","-1"," ","0","0","[1575.3000001907349]","1","2","","","12646","140","6","4","lose","no-go","1"
"pit-instructions","259","1532863","0.0-145.0","battery-v0.2","","""event"",""trial"",""time""
""fullscreenenter"",""1"",""2456""
","
","
","""event"",""trial"",""time""
""fullscreenenter"",""1"",""2456""
","
","","[{""page_index"":0,""viewing_time"":5962.599999904633},{""page_index"":1,""viewing_time"":8664.199999809265}]","14627.39999961853","","","","","","","","","","","","","","","","","","","","","","","",""
"pit-trial","260","1537730","0.0-146.0","battery-v0.2","","""event"",""trial"",""time""
""fullscreenenter"",""1"",""2456""
","
","
","""event"",""trial"",""time""
""fullscreenenter"",""1"",""2456""
","
","","","-1","","","24","12646","5631","w","elianto","#f73b6a7A","-1","-1","1","0","[]","0","3","","","12646","141","3","4","lose","no-go","0"
"pit-trial","261","1542613","0.0-147.0","battery-v0.2","","""event"",""trial"",""time""
""fullscreenenter"",""1"",""2456""
","
","
","""event"",""trial"",""time""
""fullscreenenter"",""1"",""2456""
","
","","","-1","","","24","12646","5631","j","elianto","#f73b6a7A"," ","-1","0","-10","[]","0","3","","","12646","142","0","3","lose","go","0"
"pit-trial","262","1547493","0.0-148.0","battery-v0.2","","""event"",""trial"",""time""
""fullscreenenter"",""1"",""2456""
","
","
","""event"",""trial"",""time""
""fullscreenenter"",""1"",""2456""
","
","","","-1","","","24","12646","5631","e","elianto","#f73b6a7A"," ","-1","0","-10","[]","0","3","","","12646","143","2","3","lose","go","0"
"pit-trial","263","1551249","0.0-149.0","battery-v0.2","","""event"",""trial"",""time""
""fullscreenenter"",""1"",""2456""
","
","
","""event"",""trial"",""time""
""fullscreenenter"",""1"",""2456""
","
","","","891.7999997138977","","","24","12646","5631","d","elianto","#3366ff99","-1"," ","0","0","[1748.5]","1","3","","","12646","144","1","2","win","no-go","0"
"pit-trial","264","1555432","0.0-150.0","battery-v0.2","","""event"",""trial"",""time""
""fullscreenenter"",""1"",""2456""
","
","
","""event"",""trial"",""time""
""fullscreenenter"",""1"",""2456""
","
","","","1320.9000000953674","","","24","12646","5631","j","elianto","#f73b6a7A"," "," ","1","0","[2175.5999999046326,4031.4000000953674]","2","3","","","12646","145","0","3","lose","go","0"
"pit-trial","265","1560303","0.0-151.0","battery-v0.2","","""event"",""trial"",""time""
""fullscreenenter"",""1"",""2456""
","
","
","""event"",""trial"",""time""
""fullscreenenter"",""1"",""2456""
","
","","","-1","","","24","12646","5631","w","elianto","#f73b6a7A","-1","-1","1","-10","[]","0","3","","","12646","146","3","4","lose","no-go","1"
"pit-trial","266","1564233","0.0-152.0","battery-v0.2","","""event"",""trial"",""time""
""fullscreenenter"",""1"",""2456""
","
","
","""event"",""trial"",""time""
""fullscreenenter"",""1"",""2456""
","
