"trial_type","trial_index","time_elapsed","internal_node_id","task_version","subject_id","interactions","blur_events","focus_events","fullscreenenter_events","fullscreenexit_events","success","view_history","rt","responses","num_errors","age","subject","participantId","rune","rune_set","hex","correct","choice","accuracy","outcome","keys","total_keys","block","practice","value","sub","trial","stimulus","robot","valence","action","sham"
"pavlovia","0","110","0.0-0.0","battery-v0.2","","""event"",""trial"",""time""
""fullscreenenter"",""1"",""3815""
","
","
","""event"",""trial"",""time""
""fullscreenenter"",""1"",""3815""
","
","","","","","","","","","","","","","","","","","","","","","","","","","","",""
"fullscreen","1","4742","0.0-1.0","battery-v0.2","","""event"",""trial"",""time""
""fullscreenenter"",""1"",""3815""
","
","
","""event"",""trial"",""time""
""fullscreenenter"",""1"",""3815""
","
","true","","","","","","","","","","","","","","","","","","","","","","","","","",""
"pit-instructions","2","12616","0.0-2.0-0.0","battery-v0.2","","""event"",""trial"",""time""
""fullscreenenter"",""1"",""3815""
","
","
","""event"",""trial"",""time""
""fullscreenenter"",""1"",""3815""
","
","","[{""page_index"":0,""viewing_time"":7833.600000000559}]","7835.300000000745","","","","","","","","","","","","","","","","","","","","","","","",""
"pit-comprehension","3","17365","0.0-2.0-1.0-0.0","battery-v0.2","","""event"",""trial"",""time""
""fullscreenenter"",""1"",""3815""
","
","
","""event"",""trial"",""time""
""fullscreenenter"",""1"",""3815""
","
","","","4724.200000000186","[""shark""]","0","23","8867","4200","","","","","","","","","","","","","","","","","","",""
"pit-instructions","4","25340","0.0-2.0-1.0-1.0","battery-v0.2","","""event"",""trial"",""time""
""fullscreenenter"",""1"",""3815""
","
","
","""event"",""trial"",""time""
""fullscreenenter"",""1"",""3815""
","
","","[{""page_index"":0,""viewing_time"":7888.0999999996275}]","7889.5","","","","","","","","","","","","","","","","","","","","","","","",""
"pit-comprehension","5","30110","0.0-2.0-2.0-0.0","battery-v0.2","","""event"",""trial"",""time""
""fullscreenenter"",""1"",""3815""
","
","
","""event"",""trial"",""time""
""fullscreenenter"",""1"",""3815""
","
","","","4742.399999999441","[""tiger""]","0","23","8867","4200","","","","","","","","","","","","","","","","","","",""
"pit-instructions","6","44688","0.0-2.0-2.0-1.0","battery-v0.2","","""event"",""trial"",""time""
""fullscreenenter"",""1"",""3815""
","
","
","""event"",""trial"",""time""
""fullscreenenter"",""1"",""3815""
","
","","[{""page_index"":0,""viewing_time"":14551}]","14552.799999999814","","","","","","","","","","","","","","","","","","","","","","","",""
"pit-instructions","7","188582","0.0-2.0-3.0","battery-v0.2","","""event"",""trial"",""time""
""fullscreenenter"",""1"",""3815""
","
","
","""event"",""trial"",""time""
""fullscreenenter"",""1"",""3815""
","
","","[{""page_index"":0,""viewing_time"":10291.200000000186},{""page_index"":1,""viewing_time"":15983.299999999814},{""page_index"":2,""viewing_time"":6300.200000000186},{""page_index"":3,""viewing_time"":6148.399999999441},{""page_index"":4,""viewing_time"":17349.700000000186},{""page_index"":5,""viewing_time"":7376.200000000186},{""page_index"":6,""viewing_time"":7808.5},{""page_index"":7,""viewing_time"":11161.200000000186},{""page_index"":8,""viewing_time"":8715.099999999627},{""page_index"":9,""viewing_time"":20205.5},{""page_index"":10,""viewing_time"":7533.299999999814},{""page_index"":11,""viewing_time"":5675.700000000186},{""page_index"":12,""viewing_time"":12255.299999999814},{""page_index"":13,""viewing_time"":7068.5}]","143873.59999999963","","","","","","","","","","","","","","","","","","","","","","","",""
"pit-trial","8","193463","0.0-2.0-4.0-0.0","battery-v0.2","","""event"",""trial"",""time""
""fullscreenenter"",""1"",""3815""
","
","
","""event"",""trial"",""time""
""fullscreenenter"",""1"",""3815""
","
","","","-1","","","23","8867","4200","&#9784;","elianto","#FFFFF080"," ","-1","0","&#10060","[]","0","0","0","","","","","","","",""
"pit-trial","9","198351","0.0-2.0-4.1-0.1","battery-v0.2","","""event"",""trial"",""time""
""fullscreenenter"",""1"",""3815""
","
","
","""event"",""trial"",""time""
""fullscreenenter"",""1"",""3815""
","
","","","-1","","","23","8867","4200","&#9784;","elianto","#FFFFF080"," ","-1","0","&#10060","[103.8999999994412,3194.7999999998137]","2","0","0","","","","","","","",""
"pit-trial","10","203237","0.0-2.0-4.2-0.2","battery-v0.2","","""event"",""trial"",""time""
""fullscreenenter"",""1"",""3815""
","
","
","""event"",""trial"",""time""
""fullscreenenter"",""1"",""3815""
","
","","","-1","","","23","8867","4200","&#9784;","elianto","#FFFFF080"," ","-1","0","&#10060","[]","0","0","0","","","","","","","",""
"pit-trial","11","208131","0.0-2.0-4.3-0.3","battery-v0.2","","""event"",""trial"",""time""
""fullscreenenter"",""1"",""3815""
","
","
","""event"",""trial"",""time""
""fullscreenenter"",""1"",""3815""
","
","","","-1","","","23","8867","4200","&#9784;","elianto","#FFFFF080"," ","-1","0","&#10060","[4153.100000000559]","1","0","0","","","","","","","",""
"pit-trial","12","212452","0.0-2.0-4.4-0.4","battery-v0.2","","""event"",""trial"",""time""
""fullscreenenter"",""1"",""3815""
","
","
","""event"",""trial"",""time""
""fullscreenenter"",""1"",""3815""
","
","","","1454.5","","","23","8867","4200","&#9784;","elianto","#FFFFF080"," "," ","1","&#10004","[2305.2999999998137]","1","0","0","","","","","","","",""
"pit-trial","13","216227","0.0-2.0-4.5-0.5","battery-v0.2","","""event"",""trial"",""time""
""fullscreenenter"",""1"",""3815""
","
","
","""event"",""trial"",""time""
""fullscreenenter"",""1"",""3815""
","
","","","893.9000000003725","","","23","8867","4200","&#9784;","elianto","#FFFFF080"," "," ","1","&#10004","[1750.9000000003725]","1","0","0","","","","","","","",""
"pit-trial","14","221092","0.0-2.0-4.6-0.6","battery-v0.2","","""event"",""trial"",""time""
""fullscreenenter"",""1"",""3815""
","
","
","""event"",""trial"",""time""
""fullscreenenter"",""1"",""3815""
","
","","","-1","","","23","8867","4200","&#9784;","elianto","#FFFFF080"," ","-1","0","&#10060","[3623.5]","1","0","0","","","","","","","",""
"pit-instructions","15","238377","0.0-2.0-4.6-1.6-0.6","battery-v0.2","","""event"",""trial"",""time""
""fullscreenenter"",""1"",""3815""
","
","
","""event"",""trial"",""time""
""fullscreenenter"",""1"",""3815""
","
","","[{""page_index"":0,""viewing_time"":7789},{""page_index"":1,""viewing_time"":9484.400000000373}]","17276.099999999627","","","","","","","","","","","","","","","","","","","","","","","",""
"pit-trial","16","242358","0.0-2.0-4.7-0.7","battery-v0.2","","""event"",""trial"",""time""
""fullscreenenter"",""1"",""3815""
","
","
","""event"",""trial"",""time""
""fullscreenenter"",""1"",""3815""
","
","","","1111.5","","","23","8867","4200","&#9784;","elianto","#FFFFF080"," "," ","1","&#10004","[1962.9000000003725]","1","0","0","","","","","","","",""
"pit-trial","17","247233","0.0-2.0-4.8-0.8","battery-v0.2","","""event"",""trial"",""time""
""fullscreenenter"",""1"",""3815""
","
","
","""event"",""trial"",""time""
""fullscreenenter"",""1"",""3815""
","
","","","-1","","","23","8867","4200","&#9784;","elianto","#FFFFF080"," ","-1","0","&#10060","[3969]","1","0","0","","","","","","","",""
"pit-trial","18","251328","0.0-2.0-4.9-0.9","battery-v0.2","","""event"",""trial"",""time""
""fullscreenenter"",""1"",""3815""
","
","
","""event"",""trial"",""time""
""fullscreenenter"",""1"",""3815""
","
","","","1222.8999999994412","","","23","8867","4200","&#9784;","elianto","#FFFFF080"," "," ","1","&#10004","[2074.399999999441]","1","0","0","","","","","","","",""
"pit-trial","19","255338","0.0-2.0-4.10-0.10","battery-v0.2","","""event"",""trial"",""time""
""fullscreenenter"",""1"",""3815""
","
","
","""event"",""trial"",""time""
""fullscreenenter"",""1"",""3815""
","
","","","1145","","","23","8867","4200","&#9784;","elianto","#FFFFF080"," "," ","1","&#10004","[1996.0999999996275]","1","0","0","","","","","","","",""
"pit-trial","20","259039","0.0-2.0-4.11-0.11","battery-v0.2","","""event"",""trial"",""time""
""fullscreenenter"",""1"",""3815""
","
","
","""event"",""trial"",""time""
""fullscreenenter"",""1"",""3815""
","
","","","824.5999999996275","","","23","8867","4200","&#9784;","elianto","#FFFFF080"," "," ","1","&#10004","[1675.6000000005588]","1","0","0","","","","","","","",""
"pit-instructions","21","283765","0.0-2.0-5.0","battery-v0.2","","""event"",""trial"",""time""
""fullscreenenter"",""1"",""3815""
","
","
","""event"",""trial"",""time""
""fullscreenenter"",""1"",""3815""
","
","","[{""page_index"":0,""viewing_time"":5233.9000000003725},{""page_index"":1,""viewing_time"":6973.5},{""page_index"":2,""viewing_time"":6466.899999999441},{""page_index"":3,""viewing_time"":6014.9000000003725}]","24690.700000000186","","","","","","","","","","","","","","","","","","","","","","","",""
"pit-trial","22","288644","0.0-2.0-6.0-0.0","battery-v0.2","","""event"",""trial"",""time""
""fullscreenenter"",""1"",""3815""
","
","
","""event"",""trial"",""time""
""fullscreenenter"",""1"",""3815""
","
","","","-1","","","23","8867","4200","&#9854;","elianto","#FFFFF080","-1","-1","1","&#10004","[]","0","0","1","","","","","","","",""
"pit-trial","23","293529","0.0-2.0-6.1-0.1","battery-v0.2","","""event"",""trial"",""time""
""fullscreenenter"",""1"",""3815""
","
","
","""event"",""trial"",""time""
""fullscreenenter"",""1"",""3815""
","
","","","-1","","","23","8867","4200","&#9854;","elianto","#FFFFF080","-1","-1","1","&#10004","[]","0","0","1","","","","","","","",""
"pit-trial","24","298409","0.0-2.0-6.2-0.2","battery-v0.2","","""event"",""trial"",""time""
""fullscreenenter"",""1"",""3815""
","
","
","""event"",""trial"",""time""
""fullscreenenter"",""1"",""3815""
","
","","","-1","","","23","8867","4200","&#9854;","elianto","#FFFFF080","-1","-1","1","&#10004","[]","0","0","1","","","","","","","",""
"pit-trial","25","303277","0.0-2.0-6.3-0.3","battery-v0.2","","""event"",""trial"",""time""
""fullscreenenter"",""1"",""3815""
","
","
","""event"",""trial"",""time""
""fullscreenenter"",""1"",""3815""
","
","","","-1","","","23","8867","4200","&#9854;","elianto","#FFFFF080","-1","-1","1","&#10004","[]","0","0","1","","","","","","","",""
"pit-trial","26","308149","0.0-2.0-6.4-0.4","battery-v0.2","","""event"",""trial"",""time""
""fullscreenenter"",""1"",""3815""
","
","
","""event"",""trial"",""time""
""fullscreenenter"",""1"",""3815""
","
","","","-1","","","23","8867","4200","&#9854;","elianto","#FFFFF080","-1","-1","1","&#10004","[]","0","0","1","","","","","","","",""
"pit-instructions","27","515518","0.0-2.0-7.0","battery-v0.2","","""event"",""trial"",""time""
""fullscreenenter"",""1"",""3815""
","
","
","""event"",""trial"",""time""
""fullscreenenter"",""1"",""3815""
","
","","[{""page_index"":0,""viewing_time"":6098.9000000003725},{""page_index"":1,""viewing_time"":8510.199999999255},{""page_index"":2,""viewing_time"":6293},{""page_index"":3,""viewing_time"":12555.100000000559},{""page_index"":4,""viewing_time"":7627.399999999441},{""page_index"":5,""viewing_time"":6162.800000000745},{""page_index"":6,""viewing_time"":6212.899999999441},{""page_index"":7,""viewing_time"":23118.60000000056},{""page_index"":8,""viewing_time"":9419.899999999441},{""page_index"":9,""viewing_time"":54653.5},{""page_index"":10,""viewing_time"":6531},{""page_index"":11,""viewing_time"":7018.600000000559},{""page_index"":12,""viewing_time"":9028.399999999441},{""page_index"":13,""viewing_time"":6552.700000000186},{""page_index"":14,""viewing_time"":8130},{""page_index"":15,""viewing_time"":8149.299999999814},{""page_index"":16,""viewing_time"":9604.900000000373},{""page_index"":17,""viewing_time"":11683.099999999627}]","207352.59999999963","","","","","","","","","","","","","","","","","","","","","","","",""
"pit-trial","28","520401","0.0-2.0-8.0-0.0","battery-v0.2","","""event"",""trial"",""time""
""fullscreenenter"",""1"",""3815""
","
","
","""event"",""trial"",""time""
""fullscreenenter"",""1"",""3815""
","
","","","-1","","","23","8867","4200","&#9776;","elianto","#3366ff99"," ","-1","0","0","[2902]","1","0","1","","","","","","","",""
"pit-trial","29","524797","0.0-2.0-8.0-1.0","battery-v0.2","","""event"",""trial"",""time""
""fullscreenenter"",""1"",""3815""
","
","
","""event"",""trial"",""time""
""fullscreenenter"",""1"",""3815""
","
","","","1531.2999999998137","","","23","8867","4200","&#9776;","elianto","#3366ff99"," "," ","1","+10","[2383.2000000001863]","1","0","1","","","","","","","",""
"pit-trial","30","529492","0.0-2.0-8.0-2.0","battery-v0.2","","""event"",""trial"",""time""
""fullscreenenter"",""1"",""3815""
","
","
","""event"",""trial"",""time""
""fullscreenenter"",""1"",""3815""
","
","","","1816.5999999996275","","","23","8867","4200","&#9776;","elianto","#3366ff99"," "," ","1","+10","[2674.2000000001863]","1","0","1","","","","","","","",""
"pit-trial","31","534071","0.0-2.0-8.0-3.0","battery-v0.2","","""event"",""trial"",""time""
""fullscreenenter"",""1"",""3815""
","
","
","""event"",""trial"",""time""
""fullscreenenter"",""1"",""3815""
","
","","","1707.1000000005588","","","23","8867","4200","&#9776;","elianto","#3366ff99"," "," ","1","0","[601.3999999994412,2557.399999999441]","2","0","1","","","","","","","",""
"pit-trial","32","538953","0.0-2.0-8.0-4.0","battery-v0.2","","""event"",""trial"",""time""
""fullscreenenter"",""1"",""3815""
","
","
","""event"",""trial"",""time""
""fullscreenenter"",""1"",""3815""
","
","","","-1","","","23","8867","4200","&#9776;","elianto","#3366ff99"," ","-1","0","0","[]","0","0","1","","","","","","","",""
"pit-trial","33","543816","0.0-2.0-8.1-0.1","battery-v0.2","","""event"",""trial"",""time""
""fullscreenenter"",""1"",""3815""
","
","
","""event"",""trial"",""time""
""fullscreenenter"",""1"",""3815""
","
","","","-1","","","23","8867","4200","&#9776;","elianto","#3366ff99"," ","-1","0","0","[]","0","0","1","","","","","","","",""
"pit-trial","34","548455","0.0-2.0-8.1-1.1","battery-v0.2","","""event"",""trial"",""time""
""fullscreenenter"",""1"",""3815""
","
","
","""event"",""trial"",""time""
""fullscreenenter"",""1"",""3815""
","
","","","1769.4000000003725","","","23","8867","4200","&#9776;","elianto","#3366ff99"," "," ","1","+10","[2630.7000000001863]","1","0","1","","","","","","","",""
"pit-trial","35","551617","0.0-2.0-8.1-2.1","battery-v0.2","","""event"",""trial"",""time""
""fullscreenenter"",""1"",""3815""
","
","
","""event"",""trial"",""time""
""fullscreenenter"",""1"",""3815""
","
","","","303.30000000074506","","","23","8867","4200","&#9776;","elianto","#3366ff99"," "," ","1","+10","[1153.8999999994412,2665.699999999255]","2","0","1","","","","","","","",""
"pit-trial","36","555050","0.0-2.0-8.1-3.1","battery-v0.2","","""event"",""trial"",""time""
""fullscreenenter"",""1"",""3815""
","
","
","""event"",""trial"",""time""
""fullscreenenter"",""1"",""3815""
","
","","","574.9000000003725","","","23","8867","4200","&#9776;","elianto","#3366ff99"," "," ","1","0","[1425.5999999996275]","1","0","1","","","","","","","",""
"pit-trial","37","559909","0.0-2.0-8.1-4.1","battery-v0.2","","""event"",""trial"",""time""
""fullscreenenter"",""1"",""3815""
","
","
","""event"",""trial"",""time""
""fullscreenenter"",""1"",""3815""
","
","","","-1","","","23","8867","4200","&#9776;","elianto","#3366ff99"," ","-1","0","0","[]","0","0","1","","","","","","","",""
"pit-trial","38","564299","0.0-2.0-8.2-0.2","battery-v0.2","","""event"",""trial"",""time""
""fullscreenenter"",""1"",""3815""
","
","
","""event"",""trial"",""time""
""fullscreenenter"",""1"",""3815""
","
","","","1527.800000000745","","","23","8867","4200","&#9776;","elianto","#3366ff99"," "," ","1","+10","[2378.100000000559]","1","0","1","","","","","","","",""
"pit-trial","39","568541","0.0-2.0-8.2-1.2","battery-v0.2","","""event"",""trial"",""time""
""fullscreenenter"",""1"",""3815""
","
","
","""event"",""trial"",""time""
""fullscreenenter"",""1"",""3815""
","
","","","1382.0999999996275","","","23","8867","4200","&#9776;","elianto","#3366ff99"," "," ","1","+10","[2234.2000000001863]","1","0","1","","","","","","","",""
"pit-trial","40","573401","0.0-2.0-8.2-2.2","battery-v0.2","","""event"",""trial"",""time""
""fullscreenenter"",""1"",""3815""
","
","
","""event"",""trial"",""time""
""fullscreenenter"",""1"",""3815""
","
","","","-1","","","23","8867","4200","&#9776;","elianto","#3366ff99"," ","-1","0","0","[3972.5999999996275]","1","0","1","","","","","","","",""
"pit-trial","41","577412","0.0-2.0-8.2-3.2","battery-v0.2","","""event"",""trial"",""time""
""fullscreenenter"",""1"",""3815""
","
","
","""event"",""trial"",""time""
""fullscreenenter"",""1"",""3815""
","
","","","1152.2999999998137","","","23","8867","4200","&#9776;","elianto","#3366ff99"," "," ","1","0","[2003]","1","0","1","","","","","","","",""
"pit-trial","42","582271","0.0-2.0-8.2-4.2","battery-v0.2","","""event"",""trial"",""time""
""fullscreenenter"",""1"",""3815""
","
","
","""event"",""trial"",""time""
""fullscreenenter"",""1"",""3815""
","
","","","-1","","","23","8867","4200","&#9776;","elianto","#3366ff99"," ","-1","0","0","[518.5999999996275]","1","0","1","","","","","","","",""
"call-function","43","582279","0.0-2.0-9.0","battery-v0.2","","""event"",""trial"",""time""
""fullscreenenter"",""1"",""3815""
","
","
","""event"",""trial"",""time""
""fullscreenenter"",""1"",""3815""
","
","","","","","","","","","","","","","","","","","","","","","","","","","","",""
"pit-instructions","44","693945","0.0-2.0-10.0","battery-v0.2","","""event"",""trial"",""time""
""fullscreenenter"",""1"",""3815""
","
","
","""event"",""trial"",""time""
""fullscreenenter"",""1"",""3815""
","
","","[{""page_index"":0,""viewing_time"":8264.299999999814},{""page_index"":1,""viewing_time"":11179.900000000373},{""page_index"":2,""viewing_time"":15773},{""page_index"":3,""viewing_time"":69018.5},{""page_index"":4,""viewing_time"":7426.5999999996275}]","111664.09999999963","","","","","","","","","","","","","","","","","","","","","","","",""
"pit-trial","45","698841","0.0-2.0-11.0-0.0","battery-v0.2","","""event"",""trial"",""time""
""fullscreenenter"",""1"",""3815""
","
","
","""event"",""trial"",""time""
""fullscreenenter"",""1"",""3815""
","
","","","-1","","","23","8867","4200","&#9761;","elianto","#3366ff99","-1","-1","1","+10","[]","0","0","2","","","","","","","",""
"pit-trial","46","703182","0.0-2.0-11.0-1.0","battery-v0.2","","""event"",""trial"",""time""
""fullscreenenter"",""1"",""3815""
","
","
","""event"",""trial"",""time""
""fullscreenenter"",""1"",""3815""
","
","","","1470.0999999996275","","","23","8867","4200","&#9761;","elianto","#3366ff99","-1"," ","0","0","[2321]","1","0","2","","","","","","","",""
"pit-trial","47","707782","0.0-2.0-11.0-2.0","battery-v0.2","","""event"",""trial"",""time""
""fullscreenenter"",""1"",""3815""
","
","
","""event"",""trial"",""time""
""fullscreenenter"",""1"",""3815""
","
","","","1738.7000000001863","","","23","8867","4200","&#9761;","elianto","#3366ff99","-1"," ","0","0","[2589.7999999998137]","1","0","2","","","","","","","",""
"pit-trial","48","712647","0.0-2.0-11.0-3.0","battery-v0.2","","""event"",""trial"",""time""
""fullscreenenter"",""1"",""3815""
","
","
","""event"",""trial"",""time""
""fullscreenenter"",""1"",""3815""
","
","","","-1","","","23","8867","4200","&#9761;","elianto","#3366ff99","-1","-1","1","0","[2909]","1","0","2","","","","","","","",""
"pit-trial","49","716157","0.0-2.0-11.0-4.0","battery-v0.2","","""event"",""trial"",""time""
""fullscreenenter"",""1"",""3815""
","
","
","""event"",""trial"",""time""
""fullscreenenter"",""1"",""3815""
","
","","","634.2000000001863","","","23","8867","4200","&#9761;","elianto","#3366ff99","-1"," ","0","0","[1485.2000000001863]","1","0","2","","","","","","","",""
"pit-trial","50","720301","0.0-2.0-11.1-0.1","battery-v0.2","","""event"",""trial"",""time""
""fullscreenenter"",""1"",""3815""
","
","
","""event"",""trial"",""time""
""fullscreenenter"",""1"",""3815""
","
","","","1266.5999999996275","","","23","8867","4200","&#9761;","elianto","#3366ff99","-1"," ","0","0","[2117.0999999996275]","1","0","2","","","","","","","",""
"pit-trial","51","725178","0.0-2.0-11.1-1.1","battery-v0.2","","""event"",""trial"",""time""
""fullscreenenter"",""1"",""3815""
","
","
","""event"",""trial"",""time""
""fullscreenenter"",""1"",""3815""
","
","","","-1","","","23","8867","4200","&#9761;","elianto","#3366ff99","-1","-1","1","+10","[]","0","0","2","","","","","","","",""
"pit-trial","52","730037","0.0-2.0-11.1-2.1","battery-v0.2","","""event"",""trial"",""time""
""fullscreenenter"",""1"",""3815""
","
","
","""event"",""trial"",""time""
""fullscreenenter"",""1"",""3815""
","
","","","-1","","","23","8867","4200","&#9761;","elianto","#3366ff99","-1","-1","1","+10","[43.40000000037253,3265.4000000003725]","2","0","2","","","","","","","",""
"pit-trial","53","734036","0.0-2.0-11.1-3.1","battery-v0.2","","""event"",""trial"",""time""
""fullscreenenter"",""1"",""3815""
","
","
","""event"",""trial"",""time""
""fullscreenenter"",""1"",""3815""
","
","","","1140.2000000001863","","","23","8867","4200","&#9761;","elianto","#3366ff99","-1"," ","0","+10","[1991.5]","1","0","2","","","","","","","",""
"pit-trial","54","737774","0.0-2.0-11.1-4.1","battery-v0.2","","""event"",""trial"",""time""
""fullscreenenter"",""1"",""3815""
","
","
","""event"",""trial"",""time""
""fullscreenenter"",""1"",""3815""
","
","","","877.2000000001863","","","23","8867","4200","&#9761;","elianto","#3366ff99","-1"," ","0","0","[1728.7999999998137]","1","0","2","","","","","","","",""
"pit-trial","55","742637","0.0-2.0-11.2-0.2","battery-v0.2","","""event"",""trial"",""time""
""fullscreenenter"",""1"",""3815""
","
","
","""event"",""trial"",""time""
""fullscreenenter"",""1"",""3815""
","
","","","-1","","","23","8867","4200","&#9761;","elianto","#3366ff99","-1","-1","1","+10","[309.29999999981374]","1","0","2","","","","","","","",""
"pit-trial","56","747496","0.0-2.0-11.2-1.2","battery-v0.2","","""event"",""trial"",""time""
""fullscreenenter"",""1"",""3815""
","
","
","""event"",""trial"",""time""
""fullscreenenter"",""1"",""3815""
","
","","","-1","","","23","8867","4200","&#9761;","elianto","#3366ff99","-1","-1","1","+10","[]","0","0","2","","","","","","","",""
"pit-trial","57","752119","0.0-2.0-11.2-2.2","battery-v0.2","","""event"",""trial"",""time""
""fullscreenenter"",""1"",""3815""
","
","
","""event"",""trial"",""time""
""fullscreenenter"",""1"",""3815""
","
","","","1760.0999999996275","","","23","8867","4200","&#9761;","elianto","#3366ff99","-1"," ","0","0","[400.30000000074506,2617]","2","0","2","","","","","","","",""
"pit-trial","58","756930","0.0-2.0-11.2-3.2","battery-v0.2","","""event"",""trial"",""time""
""fullscreenenter"",""1"",""3815""
","
","
","""event"",""trial"",""time""
""fullscreenenter"",""1"",""3815""
","
","","","1950.7999999998137","","","23","8867","4200","&#9761;","elianto","#3366ff99","-1"," ","0","+10","[2802.4000000003725]","1","0","2","","","","","","","",""
"pit-trial","59","761789","0.0-2.0-11.2-4.2","battery-v0.2","","""event"",""trial"",""time""
""fullscreenenter"",""1"",""3815""
","
","
","""event"",""trial"",""time""
""fullscreenenter"",""1"",""3815""
","
","","","-1","","","23","8867","4200","&#9761;","elianto","#3366ff99","-1","-1","1","+10","[]","0","0","2","","","","","","","",""
"pit-trial","60","766651","0.0-2.0-11.3-0.3","battery-v0.2","","""event"",""trial"",""time""
""fullscreenenter"",""1"",""3815""
","
","
","""event"",""trial"",""time""
""fullscreenenter"",""1"",""3815""
","
","","","-1","","","23","8867","4200","&#9761;","elianto","#3366ff99","-1","-1","1","+10","[3344.7000000001863]","1","0","2","","","","","","","",""
"pit-trial","61","770302","0.0-2.0-11.3-1.3","battery-v0.2","","""event"",""trial"",""time""
""fullscreenenter"",""1"",""3815""
","
","
","""event"",""trial"",""time""
""fullscreenenter"",""1"",""3815""
","
","","","792.7999999998137","","","23","8867","4200","&#9761;","elianto","#3366ff99","-1"," ","0","0","[1643.5999999996275]","1","0","2","","","","","","","",""
"pit-trial","62","774317","0.0-2.0-11.3-2.3","battery-v0.2","","""event"",""trial"",""time""
""fullscreenenter"",""1"",""3815""
","
","
","""event"",""trial"",""time""
""fullscreenenter"",""1"",""3815""
","
","","","1155","","","23","8867","4200","&#9761;","elianto","#3366ff99","-1"," ","0","0","[710.1000000005588,2005.7000000001863,3245.4000000003725]","3","0","2","","","","","","","",""
"pit-trial","63","779178","0.0-2.0-11.3-3.3","battery-v0.2","","""event"",""trial"",""time""
""fullscreenenter"",""1"",""3815""
","
","
","""event"",""trial"",""time""
""fullscreenenter"",""1"",""3815""
","
","","","-1","","","23","8867","4200","&#9761;","elianto","#3366ff99","-1","-1","1","0","[707.8000000007451,3954.300000000745]","2","0","2","","","","","","","",""
"pit-trial","64","783794","0.0-2.0-11.3-4.3","battery-v0.2","","""event"",""trial"",""time""
""fullscreenenter"",""1"",""3815""
","
","
","""event"",""trial"",""time""
""fullscreenenter"",""1"",""3815""
","
","","","1753.7000000001863","","","23","8867","4200","&#9761;","elianto","#3366ff99","-1"," ","0","0","[2607]","1","0","2","","","","","","","",""
"call-function","65","783802","0.0-2.0-12.0","battery-v0.2","","""event"",""trial"",""time""
""fullscreenenter"",""1"",""3815""
","
","
","""event"",""trial"",""time""
""fullscreenenter"",""1"",""3815""
","
","","","","","","","","","","","","","","","","","","","","","","","","","","",""
"pit-instructions","66","828267","0.0-2.0-13.0","battery-v0.2","","""event"",""trial"",""time""
""fullscreenenter"",""1"",""3815""
","
","
","""event"",""trial"",""time""
""fullscreenenter"",""1"",""3815""
","
","","[{""page_index"":0,""viewing_time"":8902.599999999627},{""page_index"":1,""viewing_time"":9537.5},{""page_index"":2,""viewing_time"":3299},{""page_index"":3,""viewing_time"":14822.100000000559},{""page_index"":4,""viewing_time"":7899.399999999441}]","44463","","","","","","","","","","","","","","","","","","","","","","","",""
"pit-trial","67","833156","0.0-2.0-14.0-0.0","battery-v0.2","","""event"",""trial"",""time""
""fullscreenenter"",""1"",""3815""
","
","
","""event"",""trial"",""time""
""fullscreenenter"",""1"",""3815""
","
","","","-1","","","23","8867","4200","&#9826;","elianto","#f73b6a7A","-1","-1","1","0","[]","0","0","3","","","","","","","",""
"pit-trial","68","838031","0.0-2.0-14.0-1.0","battery-v0.2","","""event"",""trial"",""time""
""fullscreenenter"",""1"",""3815""
","
","
","""event"",""trial"",""time""
""fullscreenenter"",""1"",""3815""
","
","","","-1","","","23","8867","4200","&#9826;","elianto","#f73b6a7A","-1","-1","1","0","[]","0","0","3","","","","","","","",""
"pit-trial","69","842905","0.0-2.0-14.0-2.0","battery-v0.2","","""event"",""trial"",""time""
""fullscreenenter"",""1"",""3815""
","
","
","""event"",""trial"",""time""
""fullscreenenter"",""1"",""3815""
","
","","","-1","","","23","8867","4200","&#9826;","elianto","#f73b6a7A","-1","-1","1","0","[]","0","0","3","","","","","","","",""
"pit-trial","70","847791","0.0-2.0-14.0-3.0","battery-v0.2","","""event"",""trial"",""time""
""fullscreenenter"",""1"",""3815""
","
","
","""event"",""trial"",""time""
""fullscreenenter"",""1"",""3815""
","
","","","-1","","","23","8867","4200","&#9826;","elianto","#f73b6a7A","-1","-1","1","-10","[]","0","0","3","","","","","","","",""
"pit-trial","71","851866","0.0-2.0-14.0-4.0","battery-v0.2","","""event"",""trial"",""time""
""fullscreenenter"",""1"",""3815""
","
","
","""event"",""trial"",""time""
""fullscreenenter"",""1"",""3815""
","
","","","1202.6000000005588","","","23","8867","4200","&#9826;","elianto","#f73b6a7A","-1"," ","0","-10","[2053.399999999441]","1","0","3","","","","","","","",""
"pit-trial","72","856750","0.0-2.0-14.1-0.1","battery-v0.2","","""event"",""trial"",""time""
""fullscreenenter"",""1"",""3815""
","
","
","""event"",""trial"",""time""
""fullscreenenter"",""1"",""3815""
","
","","","-1","","","23","8867","4200","&#9826;","elianto","#f73b6a7A","-1","-1","1","0","[]","0","0","3","","","","","","","",""
"pit-trial","73","861611","0.0-2.0-14.1-1.1","battery-v0.2","","""event"",""trial"",""time""
""fullscreenenter"",""1"",""3815""
","
","
","""event"",""trial"",""time""
""fullscreenenter"",""1"",""3815""
","
","","","-1","","","23","8867","4200","&#9826;","elianto","#f73b6a7A","-1","-1","1","0","[]","0","0","3","","","","","","","",""
"pit-trial","74","866471","0.0-2.0-14.1-2.1","battery-v0.2","","""event"",""trial"",""time""
""fullscreenenter"",""1"",""3815""
","
","
","""event"",""trial"",""time""
""fullscreenenter"",""1"",""3815""
","
","","","-1","","","23","8867","4200","&#9826;","elianto","#f73b6a7A","-1","-1","1","0","[]","0","0","3","","","","","","","",""
"pit-trial","75","871332","0.0-2.0-14.1-3.1","battery-v0.2","","""event"",""trial"",""time""
""fullscreenenter"",""1"",""3815""
","
","
","""event"",""trial"",""time""
""fullscreenenter"",""1"",""3815""
","
","","","-1","","","23","8867","4200","&#9826;","elianto","#f73b6a7A","-1","-1","1","-10","[]","0","0","3","","","","","","","",""
"pit-trial","76","876191","0.0-2.0-14.1-4.1","battery-v0.2","","""event"",""trial"",""time""
""fullscreenenter"",""1"",""3815""
","
","
","""event"",""trial"",""time""
""fullscreenenter"",""1"",""3815""
","
","","","-1","","","23","8867","4200","&#9826;","elianto","#f73b6a7A","-1","-1","1","0","[]","0","0","3","","","","","","","",""
"pit-trial","77","881053","0.0-2.0-14.2-0.2","battery-v0.2","","""event"",""trial"",""time""
""fullscreenenter"",""1"",""3815""
","
","
","""event"",""trial"",""time""
""fullscreenenter"",""1"",""3815""
","
","","","-1","","","23","8867","4200","&#9826;","elianto","#f73b6a7A","-1","-1","1","0","[]","0","0","3","","","","","","","",""
"pit-trial","78","885912","0.0-2.0-14.2-1.2","battery-v0.2","","""event"",""trial"",""time""
""fullscreenenter"",""1"",""3815""
","
","
","""event"",""trial"",""time""
""fullscreenenter"",""1"",""3815""
","
","","","-1","","","23","8867","4200","&#9826;","elianto","#f73b6a7A","-1","-1","1","0","[]","0","0","3","","","","","","","",""
"pit-trial","79","890771","0.0-2.0-14.2-2.2","battery-v0.2","","""event"",""trial"",""time""
""fullscreenenter"",""1"",""3815""
","
","
","""event"",""trial"",""time""
""fullscreenenter"",""1"",""3815""
","
","","","-1","","","23","8867","4200","&#9826;","elianto","#f73b6a7A","-1","-1","1","0","[]","0","0","3","","","","","","","",""
"pit-trial","80","895631","0.0-2.0-14.2-3.2","battery-v0.2","","""event"",""trial"",""time""
""fullscreenenter"",""1"",""3815""
","
","
","""event"",""trial"",""time""
""fullscreenenter"",""1"",""3815""
","
","","","-1","","","23","8867","4200","&#9826;","elianto","#f73b6a7A","-1","-1","1","-10","[]","0","0","3","","","","","","","",""
"pit-trial","81","900490","0.0-2.0-14.2-4.2","battery-v0.2","","""event"",""trial"",""time""
""fullscreenenter"",""1"",""3815""
","
","
","""event"",""trial"",""time""
""fullscreenenter"",""1"",""3815""
","
","","","-1","","","23","8867","4200","&#9826;","elianto","#f73b6a7A","-1","-1","1","0","[]","0","0","3","","","","","","","",""
"pit-trial","82","905353","0.0-2.0-14.3-0.3","battery-v0.2","","""event"",""trial"",""time""
""fullscreenenter"",""1"",""3815""
","
","
","""event"",""trial"",""time""
""fullscreenenter"",""1"",""3815""
","
","","","-1","","","23","8867","4200","&#9826;","elianto","#f73b6a7A","-1","-1","1","0","[]","0","0","3","","","","","","","",""
"pit-trial","83","910213","0.0-2.0-14.3-1.3","battery-v0.2","","""event"",""trial"",""time""
""fullscreenenter"",""1"",""3815""
","
","
","""event"",""trial"",""time""
""fullscreenenter"",""1"",""3815""
","
","","","-1","","","23","8867","4200","&#9826;","elianto","#f73b6a7A","-1","-1","1","0","[]","0","0","3","","","","","","","",""
"pit-trial","84","915075","0.0-2.0-14.3-2.3","battery-v0.2","","""event"",""trial"",""time""
""fullscreenenter"",""1"",""3815""
","
","
","""event"",""trial"",""time""
""fullscreenenter"",""1"",""3815""
","
","","","-1","","","23","8867","4200","&#9826;","elianto","#f73b6a7A","-1","-1","1","0","[]","0","0","3","","","","","","","",""
"pit-trial","85","919934","0.0-2.0-14.3-3.3","battery-v0.2","","""event"",""trial"",""time""
""fullscreenenter"",""1"",""3815""
","
","
","""event"",""trial"",""time""
""fullscreenenter"",""1"",""3815""
","
","","","-1","","","23","8867","4200","&#9826;","elianto","#f73b6a7A","-1","-1","1","-10","[]","0","0","3","","","","","","","",""
"pit-trial","86","924796","0.0-2.0-14.3-4.3","battery-v0.2","","""event"",""trial"",""time""
""fullscreenenter"",""1"",""3815""
","
","
","""event"",""trial"",""time""
""fullscreenenter"",""1"",""3815""
","
","","","-1","","","23","8867","4200","&#9826;","elianto","#f73b6a7A","-1","-1","1","0","[]","0","0","3","","","","","","","",""
"call-function","87","924804","0.0-2.0-15.0","battery-v0.2","","""event"",""trial"",""time""
""fullscreenenter"",""1"",""3815""
","
","
","""event"",""trial"",""time""
""fullscreenenter"",""1"",""3815""
","
","","","","","","","","","","","","","","","","","","","","","","","","","","",""
"pit-instructions","88","980480","0.0-2.0-16.0","battery-v0.2","","""event"",""trial"",""time""
""fullscreenenter"",""1"",""3815""
","
","
","""event"",""trial"",""time""
""fullscreenenter"",""1"",""3815""
","
","","[{""page_index"":0,""viewing_time"":19631.099999999627},{""page_index"":1,""viewing_time"":10007.5},{""page_index"":2,""viewing_time"":21345.10000000056},{""page_index"":3,""viewing_time"":4689.399999999441}]","55674.5","","","","","","","","","","","","","","","","","","","","","","","",""
"pit-trial","89","985352","0.0-2.0-17.0-0.0","battery-v0.2","","""event"",""trial"",""time""
""fullscreenenter"",""1"",""3815""
","
","
","""event"",""trial"",""time""
""fullscreenenter"",""1"",""3815""
","
","","","-1","","","23","8867","4200","&#9789;","elianto","#f73b6a7A"," ","-1","0","-10","[]","0","0","4","","","","","","","",""
"pit-trial","90","990237","0.0-2.0-17.0-1.0","battery-v0.2","","""event"",""trial"",""time""
""fullscreenenter"",""1"",""3815""
","
","
","""event"",""trial"",""time""
""fullscreenenter"",""1"",""3815""
","
","","","-1","","","23","8867","4200","&#9789;","elianto","#f73b6a7A"," ","-1","0","-10","[]","0","0","4","","","","","","","",""
"pit-trial","91","995122","0.0-2.0-17.0-2.0","battery-v0.2","","""event"",""trial"",""time""
""fullscreenenter"",""1"",""3815""
","
","
","""event"",""trial"",""time""
""fullscreenenter"",""1"",""3815""
","
","","","-1","","","23","8867","4200","&#9789;","elianto","#f73b6a7A"," ","-1","0","-10","[]","0","0","4","","","","","","","",""
"pit-trial","92","998423","0.0-2.0-17.0-3.0","battery-v0.2","","""event"",""trial"",""time""
""fullscreenenter"",""1"",""3815""
","
","
","""event"",""trial"",""time""
""fullscreenenter"",""1"",""3815""
","
","","","435.90000000037253","","","23","8867","4200","&#9789;","elianto","#f73b6a7A"," "," ","1","-10","[1289.7999999998137]","1","0","4","","","","","","","",""
"pit-trial","93","1003291","0.0-2.0-17.0-4.0","battery-v0.2","","""event"",""trial"",""time""
""fullscreenenter"",""1"",""3815""
","
","
","""event"",""trial"",""time""
""fullscreenenter"",""1"",""3815""
","
","","","-1","","","23","8867","4200","&#9789;","elianto","#f73b6a7A"," ","-1","0","-10","[]","0","0","4","","","","","","","",""
"pit-trial","94","1008181","0.0-2.0-17.1-0.1","battery-v0.2","","""event"",""trial"",""time""
""fullscreenenter"",""1"",""3815""
","
","
","""event"",""trial"",""time""
""fullscreenenter"",""1"",""3815""
","
","","","-1","","","23","8867","4200","&#9789;","elianto","#f73b6a7A"," ","-1","0","-10","[]","0","0","4","","","","","","","",""
"pit-trial","95","1013039","0.0-2.0-17.1-1.1","battery-v0.2","","""event"",""trial"",""time""
""fullscreenenter"",""1"",""3815""
","
","
","""event"",""trial"",""time""
""fullscreenenter"",""1"",""3815""
","
","","","-1","","","23","8867","4200","&#9789;","elianto","#f73b6a7A"," ","-1","0","-10","[]","0","0","4","","","","","","","",""
"pit-trial","96","1017897","0.0-2.0-17.1-2.1","battery-v0.2","","""event"",""trial"",""time""
""fullscreenenter"",""1"",""3815""
","
","
","""event"",""trial"",""time""
""fullscreenenter"",""1"",""3815""
","
","","","-1","","","23","8867","4200","&#9789;","elianto","#f73b6a7A"," ","-1","0","-10","[]","0","0","4","","","","","","","",""
"pit-trial","97","1022758","0.0-2.0-17.1-3.1","battery-v0.2","","""event"",""trial"",""time""
""fullscreenenter"",""1"",""3815""
","
","
","""event"",""trial"",""time""
""fullscreenenter"",""1"",""3815""
","
","","","-1","","","23","8867","4200","&#9789;","elianto","#f73b6a7A"," ","-1","0","0","[]","0","0","4","","","","","","","",""
"pit-trial","98","1027617","0.0-2.0-17.1-4.1","battery-v0.2","","""event"",""trial"",""time""
""fullscreenenter"",""1"",""3815""
","
","
","""event"",""trial"",""time""
""fullscreenenter"",""1"",""3815""
","
","","","-1","","","23","8867","4200","&#9789;","elianto","#f73b6a7A"," ","-1","0","-10","[]","0","0","4","","","","","","","",""
"pit-trial","99","1032481","0.0-2.0-17.2-0.2","battery-v0.2","","""event"",""trial"",""time""
""fullscreenenter"",""1"",""3815""
","
","
","""event"",""trial"",""time""
""fullscreenenter"",""1"",""3815""
","
","","","-1","","","23","8867","4200","&#9789;","elianto","#f73b6a7A"," ","-1","0","-10","[]","0","0","4","","","","","","","",""
"pit-trial","100","1037290","0.0-2.0-17.2-1.2","battery-v0.2","","""event"",""trial"",""time""
""fullscreenenter"",""1"",""3815""
","
","
","""event"",""trial"",""time""
""fullscreenenter"",""1"",""3815""
","
","","","1947.0999999996275","","","23","8867","4200","&#9789;","elianto","#f73b6a7A"," "," ","1","0","[2802.7000000001863]","1","0","4","","","","","","","",""
"pit-trial","101","1042149","0.0-2.0-17.2-2.2","battery-v0.2","","""event"",""trial"",""time""
""fullscreenenter"",""1"",""3815""
","
","
","""event"",""trial"",""time""
""fullscreenenter"",""1"",""3815""
","
","","","-1","","","23","8867","4200","&#9789;","elianto","#f73b6a7A"," ","-1","0","-10","[3486.7999999998137]","1","0","4","","","","","","","",""
"pit-trial","102","1045993","0.0-2.0-17.2-3.2","battery-v0.2","","""event"",""trial"",""time""
""fullscreenenter"",""1"",""3815""
","
","
","""event"",""trial"",""time""
""fullscreenenter"",""1"",""3815""
","
","","","985.9000000003725","","","23","8867","4200","&#9789;","elianto","#f73b6a7A"," "," ","1","-10","[1836.7000000001863]","1","0","4","","","","","","","",""
"pit-trial","103","1049487","0.0-2.0-17.2-4.2","battery-v0.2","","""event"",""trial"",""time""
""fullscreenenter"",""1"",""3815""
","
","
","""event"",""trial"",""time""
""fullscreenenter"",""1"",""3815""
","
","","","633.2999999998137","","","23","8867","4200","&#9789;","elianto","#f73b6a7A"," "," ","1","0","[1485.1000000005588]","1","0","4","","","","","","","",""
"pit-trial","104","1054350","0.0-2.0-17.3-0.3","battery-v0.2","","""event"",""trial"",""time""
""fullscreenenter"",""1"",""3815""
","
","
","""event"",""trial"",""time""
""fullscreenenter"",""1"",""3815""
","
","","","-1","","","23","8867","4200","&#9789;","elianto","#f73b6a7A"," ","-1","0","-10","[3223.100000000559,4403.9000000003725]","2","0","4","","","","","","","",""
"pit-trial","105","1059207","0.0-2.0-17.3-1.3","battery-v0.2","","""event"",""trial"",""time""
""fullscreenenter"",""1"",""3815""
","
","
","""event"",""trial"",""time""
""fullscreenenter"",""1"",""3815""
","
","","","-1","","","23","8867","4200","&#9789;","elianto","#f73b6a7A"," ","-1","0","-10","[]","0","0","4","","","","","","","",""
"pit-trial","106","1062669","0.0-2.0-17.3-2.3","battery-v0.2","","""event"",""trial"",""time""
""fullscreenenter"",""1"",""3815""
","
","
","""event"",""trial"",""time""
""fullscreenenter"",""1"",""3815""
","
","","","594.8999999994412","","","23","8867","4200","&#9789;","elianto","#f73b6a7A"," "," ","1","0","[1454.7000000001863]","1","0","4","","","","","","","",""
"pit-trial","107","1066361","0.0-2.0-17.3-3.3","battery-v0.2","","""event"",""trial"",""time""
""fullscreenenter"",""1"",""3815""
","
","
","""event"",""trial"",""time""
""fullscreenenter"",""1"",""3815""
","
","","","833.2000000001863","","","23","8867","4200","&#9789;","elianto","#f73b6a7A"," "," ","1","-10","[1684.0999999996275]","1","0","4","","","","","","","",""
"pit-trial","108","1071220","0.0-2.0-17.3-4.3","battery-v0.2","","""event"",""trial"",""time""
""fullscreenenter"",""1"",""3815""
","
","
","""event"",""trial"",""time""
""fullscreenenter"",""1"",""3815""
","
","","","-1","","","23","8867","4200","&#9789;","elianto","#f73b6a7A"," ","-1","0","-10","[3364.899999999441,4799]","2","0","4","","","","","","","",""
"call-function","109","1071227","0.0-2.0-18.0","battery-v0.2","","""event"",""trial"",""time""
""fullscreenenter"",""1"",""3815""
","
","
","""event"",""trial"",""time""
""fullscreenenter"",""1"",""3815""
","
","","","","","","","","","","","","","","","","","","","","","","","","","","",""
"pit-instructions","110","1215278","0.0-2.0-19.0","battery-v0.2","","""event"",""trial"",""time""
""fullscreenenter"",""1"",""3815""
","
","
","""event"",""trial"",""time""
""fullscreenenter"",""1"",""3815""
","
","","[{""page_index"":0,""viewing_time"":20508},{""page_index"":1,""viewing_time"":15315},{""page_index"":2,""viewing_time"":10999.700000000186},{""page_index"":3,""viewing_time"":4858.0999999996275},{""page_index"":4,""viewing_time"":9882.5},{""page_index"":5,""viewing_time"":13295.900000000373},{""page_index"":6,""viewing_time"":58219.199999999255},{""page_index"":7,""viewing_time"":4904.700000000186},{""page_index"":8,""viewing_time"":6062.200000000186}]","144047.59999999963","","","","","","","","","","","","","","","","","","","","","","","",""
"pit-comprehension","111","1222739","0.0-2.0-20.0-0.0","battery-v0.2","","""event"",""trial"",""time""
""fullscreenenter"",""1"",""3815""
","
","
","""event"",""trial"",""time""
""fullscreenenter"",""1"",""3815""
","
","","","7438.0999999996275","[""SPACE""]","0","23","8867","4200","","","","","","","","","","","","","","","","","","",""
"pit-instructions","112","1233899","0.0-2.0-20.0-1.0","battery-v0.2","","""event"",""trial"",""time""
""fullscreenenter"",""1"",""3815""
","
","
","""event"",""trial"",""time""
""fullscreenenter"",""1"",""3815""
","
","","[{""page_index"":0,""viewing_time"":10726.799999999814}]","10728.099999999627","","","","","","","","","","","","","","","","","","","","","","","",""
"pit-comprehension","113","1245885","0.0-2.0-21.0-0.0","battery-v0.2","","""event"",""trial"",""time""
""fullscreenenter"",""1"",""3815""
","
","
","""event"",""trial"",""time""
""fullscreenenter"",""1"",""3815""
","
","","","11961","[""0""]","1","23","8867","4200","","","","","","","","","","","","","","","","","","",""
"pit-instructions","114","1252138","0.0-2.0-21.0-1.0","battery-v0.2","","""event"",""trial"",""time""
""fullscreenenter"",""1"",""3815""
","
","
","""event"",""trial"",""time""
""fullscreenenter"",""1"",""3815""
","
","","[{""page_index"":0,""viewing_time"":5864}]","5867.0999999996275","","","","","","","","","","","","","","","","","","","","","","","",""
"pit-instructions","115","1255165","0.0-2.0-21.0-2.0-0.0","battery-v0.2","","""event"",""trial"",""time""
""fullscreenenter"",""1"",""3815""
","
","
","""event"",""trial"",""time""
""fullscreenenter"",""1"",""3815""
","
","","[{""page_index"":0,""viewing_time"":3014.5999999996275}]","3016.7999999998137","","","","","","","","","","","","","","","","","","","","","","","",""
"pit-comprehension","116","1261052","0.0-2.0-21.1-0.1","battery-v0.2","","""event"",""trial"",""time""
""fullscreenenter"",""1"",""3815""
","
","
","""event"",""trial"",""time""
""fullscreenenter"",""1"",""3815""
","
","","","5859.9000000003725","[""10""]","0","23","8867","4200","","","","","","","","","","","","","","","","","","",""
"pit-instructions","117","1275823","0.0-2.0-21.1-1.1","battery-v0.2","","""event"",""trial"",""time""
""fullscreenenter"",""1"",""3815""
","
","
","""event"",""trial"",""time""
""fullscreenenter"",""1"",""3815""
","
","","[{""page_index"":0,""viewing_time"":14374.400000000373}]","14375.600000000559","","","","","","","","","","","","","","","","","","","","","","","",""
"pit-comprehension","118","1296903","0.0-2.0-22.0-0.0","battery-v0.2","","""event"",""trial"",""time""
""fullscreenenter"",""1"",""3815""
","
","
","""event"",""trial"",""time""
""fullscreenenter"",""1"",""3815""
","
","","","21052.10000000056","[""10""]","1","23","8867","4200","","","","","","","","","","","","","","","","","","",""
"pit-instructions","119","1302542","0.0-2.0-22.0-1.0","battery-v0.2","","""event"",""trial"",""time""
""fullscreenenter"",""1"",""3815""
","
","
","""event"",""trial"",""time""
""fullscreenenter"",""1"",""3815""
","
","","[{""page_index"":0,""viewing_time"":5214.100000000559}]","5217.4000000003725","","","","","","","","","","","","","","","","","","","","","","","",""
"pit-instructions","120","1304849","0.0-2.0-22.0-2.0-0.0","battery-v0.2","","""event"",""trial"",""time""
""fullscreenenter"",""1"",""3815""
","
","
","""event"",""trial"",""time""
""fullscreenenter"",""1"",""3815""
","
","","[{""page_index"":0,""viewing_time"":2296.2000000001863}]","2297.600000000559","","","","","","","","","","","","","","","","","","","","","","","",""
"pit-comprehension","121","1310873","0.0-2.0-22.1-0.1","battery-v0.2","","""event"",""trial"",""time""
""fullscreenenter"",""1"",""3815""
","
","
","""event"",""trial"",""time""
""fullscreenenter"",""1"",""3815""
","
","","","6006.5","[""-10""]","1","23","8867","4200","","","","","","","","","","","","","","","","","","",""
"pit-instructions","122","1324539","0.0-2.0-22.1-1.1","battery-v0.2","","""event"",""trial"",""time""
""fullscreenenter"",""1"",""3815""
","
","
","""event"",""trial"",""time""
""fullscreenenter"",""1"",""3815""
","
","","[{""page_index"":0,""viewing_time"":13263.799999999814}]","13265.099999999627","","","","","","","","","","","","","","","","","","","","","","","",""
"pit-instructions","123","1333247","0.0-2.0-22.1-2.1-0.1","battery-v0.2","","""event"",""trial"",""time""
""fullscreenenter"",""1"",""3815""
","
","
","""event"",""trial"",""time""
""fullscreenenter"",""1"",""3815""
","
","","[{""page_index"":0,""viewing_time"":8697}]","8698.299999999814","","","","","","","","","","","","","","","","","","","","","","","",""
"pit-comprehension","124","1346593","0.0-2.0-22.2-0.2","battery-v0.2","","""event"",""trial"",""time""
""fullscreenenter"",""1"",""3815""
","
","
","""event"",""trial"",""time""
""fullscreenenter"",""1"",""3815""
","
","","","13329.400000000373","[""0""]","0","23","8867","4200","","","","","","","","","","","","","","","","","","",""
"pit-instructions","125","1352233","0.0-2.0-22.2-1.2","battery-v0.2","","""event"",""trial"",""time""
""fullscreenenter"",""1"",""3815""
","
","
","""event"",""trial"",""time""
""fullscreenenter"",""1"",""3815""
","
","","[{""page_index"":0,""viewing_time"":5205.399999999441}]","5206.700000000186","","","","","","","","","","","","","","","","","","","","","","","",""
"pit-comprehension","126","-28108137","0.0-2.0-23.0-0.0","battery-v0.2","","""event"",""trial"",""time""
""fullscreenenter"",""1"",""3815""
","
","
","""event"",""trial"",""time""
""fullscreenenter"",""1"",""3815""
","
","","","2495965.4000000004","[""True""]","0","23","8867","4200","","","","","","","","","","","","","","","","","","",""
"pit-instructions","127","-28083171","0.0-2.0-23.0-1.0","battery-v0.2","","""event"",""trial"",""time""
""fullscreenenter"",""1"",""3815""
","
","
","""event"",""trial"",""time""
""fullscreenenter"",""1"",""3815""
","
","","[{""page_index"":0,""viewing_time"":24550.300000000745}]","24552.900000000373","","","","","","","","","","","","","","","","","","","","","","","",""
"pit-comprehension","128","-28068893","0.0-2.0-24.0-0.0","battery-v0.2","","""event"",""trial"",""time""
""fullscreenenter"",""1"",""3815""
","
","
","""event"",""trial"",""time""
""fullscreenenter"",""1"",""3815""
","
","","","14253","[""True""]","0","23","8867","4200","","","","","","","","","","","","","","","","","","",""
"pit-instructions","129","-27979332","0.0-2.0-24.0-1.0","battery-v0.2","","""event"",""trial"",""time""
""fullscreenenter"",""1"",""3815""
","
","
","""event"",""trial"",""time""
""fullscreenenter"",""1"",""3815""
","
","","[{""page_index"":0,""viewing_time"":89137.90000000037}]","89139.20000000019","","","","","","","","","","","","","","","","","","","","","","","",""
"pit-comprehension","130","-27960601","0.0-2.0-25.0-0.0","battery-v0.2","","""event"",""trial"",""time""
""fullscreenenter"",""1"",""3815""
","
","
","""event"",""trial"",""time""
""fullscreenenter"",""1"",""3815""
","
","","","18708.299999999814","[""False""]","1","23","8867","4200","","","","","","","","","","","","","","","","","","",""
"pit-instructions","131","-27936664","0.0-2.0-25.0-1.0","battery-v0.2","","""event"",""trial"",""time""
""fullscreenenter"",""1"",""3815""
","
","
","""event"",""trial"",""time""
""fullscreenenter"",""1"",""3815""
","
","","[{""page_index"":0,""viewing_time"":23482.799999999814}]","23485.10000000056","","","","","","","","","","","","","","","","","","","","","","","",""
"pit-instructions","132","-27926139","0.0-2.0-25.0-2.0-0.0","battery-v0.2","","""event"",""trial"",""time""
""fullscreenenter"",""1"",""3815""
","
","
","""event"",""trial"",""time""
""fullscreenenter"",""1"",""3815""
","
","","[{""page_index"":0,""viewing_time"":10503.799999999814}]","10505.099999999627","","","","","","","","","","","","","","","","","","","","","","","",""
"pit-comprehension","133","-27918170","0.0-2.0-25.1-0.1","battery-v0.2","","""event"",""trial"",""time""
""fullscreenenter"",""1"",""3815""
","
","
","""event"",""trial"",""time""
""fullscreenenter"",""1"",""3815""
","
","","","7951.200000000186","[""True""]","0","23","8867","4200","","","","","","","","","","","","","","","","","","",""
"pit-instructions","134","-27902439","0.0-2.0-25.1-1.1","battery-v0.2","","""event"",""trial"",""time""
""fullscreenenter"",""1"",""3815""
","
","
","""event"",""trial"",""time""
""fullscreenenter"",""1"",""3815""
","
","","[{""page_index"":0,""viewing_time"":15274.299999999814}]","15275.5","","","","","","","","","","","","","","","","","","","","","","","",""
"pit-comprehension","135","-27886521","0.0-2.0-26.0-0.0","battery-v0.2","","""event"",""trial"",""time""
""fullscreenenter"",""1"",""3815""
","
","
","""event"",""trial"",""time""
""fullscreenenter"",""1"",""3815""
","
","","","15894.900000000373","[""False""]","0","23","8867","4200","","","","","","","","","","","","","","","","","","",""
"pit-instructions","136","-27874841","0.0-2.0-26.0-1.0","battery-v0.2","","""event"",""trial"",""time""
""fullscreenenter"",""1"",""3815""
","
","
","""event"",""trial"",""time""
""fullscreenenter"",""1"",""3815""
","
","","[{""page_index"":0,""viewing_time"":11236.599999999627}]","11238.099999999627","","","","","","","","","","","","","","","","","","","","","","","",""
"pit-instructions","137","-27853285","0.0-3.0","battery-v0.2","","""event"",""trial"",""time""
""fullscreenenter"",""1"",""3815""
","
","
","""event"",""trial"",""time""
""fullscreenenter"",""1"",""3815""
","
","","[{""page_index"":0,""viewing_time"":7279.700000001118},{""page_index"":1,""viewing_time"":6415.0999999996275},{""page_index"":2,""viewing_time"":7839.799999998882}]","21540.099999999627","","","","","","","","","","","","","","","","","","","","","","","",""
"pit-trial","138","-27848394","0.0-4.0","battery-v0.2","","""event"",""trial"",""time""
""fullscreenenter"",""1"",""3815""
","
","
","""event"",""trial"",""time""
""fullscreenenter"",""1"",""3815""
","
","","","-1","","","23","8867","4200","&#9752;","elianto","#f73b6a7A"," ","-1","0","-10","[]","0","1","","","8867","1","3","3","lose","go","0"
"pit-trial","139","-27844904","0.0-5.0","battery-v0.2","","""event"",""trial"",""time""
""fullscreenenter"",""1"",""3815""
","
","
","""event"",""trial"",""time""
""fullscreenenter"",""1"",""3815""
","
","","","620.8000000007451","","","23","8867","4200","&#9733;","elianto","#3366ff99","-1"," ","0","0","[1471.7000000011176]","1","1","","","8867","2","2","2","win","no-go","0"
"pit-trial","140","-27840039","0.0-6.0","battery-v0.2","","""event"",""trial"",""time""
""fullscreenenter"",""1"",""3815""
","
","
","""event"",""trial"",""time""
""fullscreenenter"",""1"",""3815""
","
","","","-1","","","23","8867","4200","&#9730;","elianto","#3366ff99"," ","-1","0","0","[3175.4000000003725]","1","1","","","8867","3","1","1","win","go","0"
"pit-trial","141","-27835154","0.0-7.0","battery-v0.2","","""event"",""trial"",""time""
""fullscreenenter"",""1"",""3815""
","
","
","""event"",""trial"",""time""
""fullscreenenter"",""1"",""3815""
","
","","","-1","","","23","8867","4200","&#9728;","elianto","#f73b6a7A","-1","-1","1","0","[2895.2000000011176]","1","1","","","8867","4","0","4","lose","no-go","0"
"pit-trial","142","-27832243","0.0-8.0","battery-v0.2","","""event"",""trial"",""time""
""fullscreenenter"",""1"",""3815""
","
","
","""event"",""trial"",""time""
""fullscreenenter"",""1"",""3815""
","
","","","43.40000000037253","","","23","8867","4200","&#9733;","elianto","#3366ff99","-1"," ","0","0","[894.6999999992549]","1","1","","","8867","5","2","2","win","no-go","0"
"pit-trial","143","-27828154","0.0-9.0","battery-v0.2","","""event"",""trial"",""time""
""fullscreenenter"",""1"",""3815""
","
","
","""event"",""trial"",""time""
""fullscreenenter"",""1"",""3815""
","
","","","1217.2999999988824","","","23","8867","4200","&#9728;","elianto","#f73b6a7A","-1"," ","0","-10","[501.09999999962747,2068]","2","1","","","8867","6","0","4","lose","no-go","0"
"pit-trial","144","-27823273","0.0-10.0","battery-v0.2","","""event"",""trial"",""time""
""fullscreenenter"",""1"",""3815""
","
","
","""event"",""trial"",""time""
""fullscreenenter"",""1"",""3815""
","
","","","-1","","","23","8867","4200","&#9730;","elianto","#3366ff99"," ","-1","0","0","[3225.9000000003725]","1","1","","","8867","7","1","1","win","go","0"
"pit-trial","145","-27819087","0.0-11.0","battery-v0.2","","""event"",""trial"",""time""
""fullscreenenter"",""1"",""3815""
","
","
","""event"",""trial"",""time""
""fullscreenenter"",""1"",""3815""
","
","","","1327.0999999996275","","","23","8867","4200","&#9752;","elianto","#f73b6a7A"," "," ","1","-10","[2178.0999999996275]","1","1","","","8867","8","3","3","lose","go","1"
"pit-trial","146","-27815272","0.0-12.0","battery-v0.2","","""event"",""trial"",""time""
""fullscreenenter"",""1"",""3815""
","
","
","""event"",""trial"",""time""
""fullscreenenter"",""1"",""3815""
","
","","","955","","","23","8867","4200","&#9733;","elianto","#3366ff99","-1"," ","0","0","[1806.199999999255]","1","1","","","8867","9","2","2","win","no-go","0"
"pit-trial","147","-27810412","0.0-13.0","battery-v0.2","","""event"",""trial"",""time""
""fullscreenenter"",""1"",""3815""
","
","
","""event"",""trial"",""time""
""fullscreenenter"",""1"",""3815""
","
","","","-1","","","23","8867","4200","&#9728;","elianto","#f73b6a7A","-1","-1","1","0","[]","0","1","","","8867","10","0","4","lose","no-go","0"
"pit-trial","148","-27805552","0.0-14.0","battery-v0.2","","""event"",""trial"",""time""
""fullscreenenter"",""1"",""3815""
","
","
","""event"",""trial"",""time""
""fullscreenenter"",""1"",""3815""
","
","","","-1","","","23","8867","4200","&#9730;","elianto","#3366ff99"," ","-1","0","0","[2886]","1","1","","","8867","11","1","1","win","go","0"
"pit-trial","149","-27800691","0.0-15.0","battery-v0.2","","""event"",""trial"",""time""
""fullscreenenter"",""1"",""3815""
","
","
","""event"",""trial"",""time""
""fullscreenenter"",""1"",""3815""
","
","","","-1","","","23","8867","4200","&#9752;","elianto","#f73b6a7A"," ","-1","0","0","[2939.9000000003725]","1","1","","","8867","12","3","3","lose","go","1"
"pit-trial","150","-27795834","0.0-16.0","battery-v0.2","","""event"",""trial"",""time""
""fullscreenenter"",""1"",""3815""
","
","
","""event"",""trial"",""time""
""fullscreenenter"",""1"",""3815""
","
","","","-1","","","23","8867","4200","&#9752;","elianto","#f73b6a7A"," ","-1","0","-10","[3254.800000000745]","1","1","","","8867","13","3","3","lose","go","0"
"pit-trial","151","-27791024","0.0-17.0","battery-v0.2","","""event"",""trial"",""time""
""fullscreenenter"",""1"",""3815""
","
","
","""event"",""trial"",""time""
""fullscreenenter"",""1"",""3815""
","
","","","1949.7999999988824","","","23","8867","4200","&#9728;","elianto","#f73b6a7A","-1"," ","0","-10","[2800.699999999255]","1","1","","","8867","14","0","4","lose","no-go","0"
"pit-trial","152","-27786431","0.0-18.0","battery-v0.2","","""event"",""trial"",""time""
""fullscreenenter"",""1"",""3815""
","
","
","""event"",""trial"",""time""
""fullscreenenter"",""1"",""3815""
","
","","","1735.4000000003725","","","23","8867","4200","&#9730;","elianto","#3366ff99"," "," ","1","0","[2585.699999999255]","1","1","","","8867","15","1","1","win","go","1"
"pit-trial","153","-27782498","0.0-19.0","battery-v0.2","","""event"",""trial"",""time""
""fullscreenenter"",""1"",""3815""
","
","
","""event"",""trial"",""time""
""fullscreenenter"",""1"",""3815""
","
","","","1062.199999999255","","","23","8867","4200","&#9733;","elianto","#3366ff99","-1"," ","0","0","[1924]","1","1","","","8867","16","2","2","win","no-go","0"
"pit-trial","154","-27778321","0.0-20.0","battery-v0.2","","""event"",""trial"",""time""
""fullscreenenter"",""1"",""3815""
","
","
","""event"",""trial"",""time""
""fullscreenenter"",""1"",""3815""
","
","","","1301.9000000003725","","","23","8867","4200","&#9730;","elianto","#3366ff99"," "," ","1","+10","[2162.5999999996275]","1","1","","","8867","17","1","1","win","go","0"
"pit-trial","155","-27774828","0.0-21.0","battery-v0.2","","""event"",""trial"",""time""
""fullscreenenter"",""1"",""3815""
","
","
","""event"",""trial"",""time""
""fullscreenenter"",""1"",""3815""
","
","","","633.0999999996275","","","23","8867","4200","&#9728;","elianto","#f73b6a7A","-1"," ","0","-10","[1483.7999999988824]","1","1","","","8867","18","0","4","lose","no-go","0"
"pit-trial","156","-27771218","0.0-22.0","battery-v0.2","","""event"",""trial"",""time""
""fullscreenenter"",""1"",""3815""
","
","
","""event"",""trial"",""time""
""fullscreenenter"",""1"",""3815""
","
","","","741","","","23","8867","4200","&#9733;","elianto","#3366ff99","-1"," ","0","0","[1601.300000000745]","1","1","","","8867","19","2","2","win","no-go","0"
"pit-trial","157","-27768148","0.0-23.0","battery-v0.2","","""event"",""trial"",""time""
""fullscreenenter"",""1"",""3815""
","
","
","""event"",""trial"",""time""
""fullscreenenter"",""1"",""3815""
","
","","","208.40000000037253","","","23","8867","4200","&#9752;","elianto","#f73b6a7A"," "," ","1","0","[1060.2000000011176]","1","1","","","8867","20","3","3","lose","go","0"
"pit-instructions","158","-27749464","0.0-24.0","battery-v0.2","","""event"",""trial"",""time""
""fullscreenenter"",""1"",""3815""
","
","
","""event"",""trial"",""time""
""fullscreenenter"",""1"",""3815""
","
","","[{""page_index"":0,""viewing_time"":12293.699999999255},{""page_index"":1,""viewing_time"":6382.5999999996275}]","18678.599999999627","","","","","","","","","","","","","","","","","","","","","","","",""
"pit-trial","159","-27744572","0.0-25.0","battery-v0.2","","""event"",""trial"",""time""
""fullscreenenter"",""1"",""3815""
","
","
","""event"",""trial"",""time""
""fullscreenenter"",""1"",""3815""
","
","","","-1","","","23","8867","4200","m","elianto","#f73b6a7A","-1","-1","1","0","[3220.0999999996275]","1","2","","","8867","21","0","4","lose","no-go","0"
"pit-trial","160","-27739710","0.0-26.0","battery-v0.2","","""event"",""trial"",""time""
""fullscreenenter"",""1"",""3815""
","
","
","""event"",""trial"",""time""
""fullscreenenter"",""1"",""3815""
","
","","","-1","","","23","8867","4200","h","elianto","#f73b6a7A"," ","-1","0","-10","[3083.0999999996275]","1","2","","","8867","22","3","3","lose","go","0"
"pit-trial","161","-27736036","0.0-27.0","battery-v0.2","","""event"",""trial"",""time""
""fullscreenenter"",""1"",""3815""
","
","
","""event"",""trial"",""time""
""fullscreenenter"",""1"",""3815""
","
","","","800.5999999996275","","","23","8867","4200","r","elianto","#3366ff99"," "," ","1","+10","[1650.7999999988824]","1","2","","","8867","23","1","1","win","go","0"
"pit-trial","162","-27732530","0.0-28.0","battery-v0.2","","""event"",""trial"",""time""
""fullscreenenter"",""1"",""3815""
","
","
","""event"",""trial"",""time""
""fullscreenenter"",""1"",""3815""
","
","","","636.0999999996275","","","23","8867","4200","y","elianto","#f73b6a7A","-1"," ","0","-10","[1487.2999999988824]","1","2","","","8867","24","2","4","lose","no-go","0"
"pit-trial","163","-27727660","0.0-29.0","battery-v0.2","","""event"",""trial"",""time""
""fullscreenenter"",""1"",""3815""
","
","
","""event"",""trial"",""time""
""fullscreenenter"",""1"",""3815""
","
","","","-1","","","23","8867","4200","y","elianto","#f73b6a7A","-1","-1","1","0","[]","0","2","","","8867","25","2","4","lose","no-go","0"
"pit-trial","164","-27723700","0.0-30.0","battery-v0.2","","""event"",""trial"",""time""
""fullscreenenter"",""1"",""3815""
","
","
","""event"",""trial"",""time""
""fullscreenenter"",""1"",""3815""
","
","","","1092.4000000003725","","","23","8867","4200","m","elianto","#f73b6a7A","-1"," ","0","-10","[1942.800000000745]","1","2","","","8867","26","0","4","lose","no-go","0"
"pit-trial","165","-27718830","0.0-31.0","battery-v0.2","","""event"",""trial"",""time""
""fullscreenenter"",""1"",""3815""
","
","
","""event"",""trial"",""time""
""fullscreenenter"",""1"",""3815""
","
","","","-1","","","23","8867","4200","r","elianto","#3366ff99"," ","-1","0","+10","[2956.39999999851]","1","2","","","8867","27","1","1","win","go","1"
"pit-trial","166","-27715035","0.0-32.0","battery-v0.2","","""event"",""trial"",""time""
""fullscreenenter"",""1"",""3815""
","
","
","""event"",""trial"",""time""
""fullscreenenter"",""1"",""3815""
","
","","","935.6999999992549","","","23","8867","4200","h","elianto","#f73b6a7A"," "," ","1","0","[1786.199999999255]","1","2","","","8867","28","3","3","lose","go","0"
"pit-trial","167","-27712024","0.0-33.0","battery-v0.2","","""event"",""trial"",""time""
""fullscreenenter"",""1"",""3815""
","
","
","""event"",""trial"",""time""
""fullscreenenter"",""1"",""3815""
","
","","","149.80000000074506","","","23","8867","4200","h","elianto","#f73b6a7A"," "," ","1","0","[1001.1000000014901]","1","2","","","8867","29","3","3","lose","go","0"
"pit-trial","168","-27707163","0.0-34.0","battery-v0.2","","""event"",""trial"",""time""
""fullscreenenter"",""1"",""3815""
","
","
","""event"",""trial"",""time""
""fullscreenenter"",""1"",""3815""
","
","","","-1","","","23","8867","4200","y","elianto","#f73b6a7A","-1","-1","1","-10","[4376.10000000149]","1","2","","","8867","30","2","4","lose","no-go","1"
"pit-trial","169","-27703497","0.0-35.0","battery-v0.2","","""event"",""trial"",""time""
""fullscreenenter"",""1"",""3815""
","
","
","""event"",""trial"",""time""
""fullscreenenter"",""1"",""3815""
","
","","","806.9000000003725","","","23","8867","4200","m","elianto","#f73b6a7A","-1"," ","0","-10","[1658.4000000003725,3282.9000000003725]","2","2","","","8867","31","0","4","lose","no-go","0"
"pit-trial","170","-27699166","0.0-36.0","battery-v0.2","","""event"",""trial"",""time""
""fullscreenenter"",""1"",""3815""
","
","
","""event"",""trial"",""time""
""fullscreenenter"",""1"",""3815""
","
","","","1470.199999999255","","","23","8867","4200","r","elianto","#3366ff99"," "," ","1","+10","[680.7999999988824,2321.5999999996275,3483.5999999996275]","3","2","","","8867","32","1","1","win","go","0"
"pit-trial","171","-27696071","0.0-37.0","battery-v0.2","","""event"",""trial"",""time""
""fullscreenenter"",""1"",""3815""
","
","
","""event"",""trial"",""time""
""fullscreenenter"",""1"",""3815""
","
","","","236.09999999962747","","","23","8867","4200","m","elianto","#f73b6a7A","-1"," ","0","-10","[32.69999999925494,1087.199999999255]","2","2","","","8867","33","0","4","lose","no-go","0"
"pit-trial","172","-27692482","0.0-38.0","battery-v0.2","","""event"",""trial"",""time""
""fullscreenenter"",""1"",""3815""
","
","
","""event"",""trial"",""time""
""fullscreenenter"",""1"",""3815""
","
","","","727.5","","","23","8867","4200","h","elianto","#f73b6a7A"," "," ","1","-10","[1579.5]","1","2","","","8867","34","3","3","lose","go","1"
"pit-trial","173","-27688962","0.0-39.0","battery-v0.2","","""event"",""trial"",""time""
""fullscreenenter"",""1"",""3815""
","
","
","""event"",""trial"",""time""
""fullscreenenter"",""1"",""3815""
","
","","","662","","","23","8867","4200","y","elianto","#f73b6a7A","-1"," ","0","-10","[1512.4000000003725]","1","2","","","8867","35","2","4","lose","no-go","0"
"pit-trial","174","-27684101","0.0-40.0","battery-v0.2","","""event"",""trial"",""time""
""fullscreenenter"",""1"",""3815""
","
","
","""event"",""trial"",""time""
""fullscreenenter"",""1"",""3815""
","
","","","-1","","","23","8867","4200","r","elianto","#3366ff99"," ","-1","0","0","[]","0","2","","","8867","36","1","1","win","go","0"
"pit-trial","175","-27679242","0.0-41.0","battery-v0.2","","""event"",""trial"",""time""
""fullscreenenter"",""1"",""3815""
","
","
","""event"",""trial"",""time""
""fullscreenenter"",""1"",""3815""
","
","","","-1","","","23","8867","4200","y","elianto","#f73b6a7A","-1","-1","1","-10","[]","0","2","","","8867","37","2","4","lose","no-go","1"
"pit-trial","176","-27674376","0.0-42.0","battery-v0.2","","""event"",""trial"",""time""
""fullscreenenter"",""1"",""3815""
","
","
","""event"",""trial"",""time""
""fullscreenenter"",""1"",""3815""
","
","","","-1","","","23","8867","4200","h","elianto","#f73b6a7A"," ","-1","0","0","[]","0","2","","","8867","38","3","3","lose","go","1"
"pit-trial","177","-27669515","0.0-43.0","battery-v0.2","","""event"",""trial"",""time""
""fullscreenenter"",""1"",""3815""
","
","
","""event"",""trial"",""time""
""fullscreenenter"",""1"",""3815""
","
","","","-1","","","23","8867","4200","m","elianto","#f73b6a7A","-1","-1","1","-10","[]","0","2","","","8867","39","0","4","lose","no-go","1"
"pit-trial","178","-27664655","0.0-44.0","battery-v0.2","","""event"",""trial"",""time""
""fullscreenenter"",""1"",""3815""
","
","
","""event"",""trial"",""time""
""fullscreenenter"",""1"",""3815""
","
","","","-1","","","23","8867","4200","r","elianto","#3366ff99"," ","-1","0","+10","[]","0","2","","","8867","40","1","1","win","go","1"
"pit-trial","179","-27659796","0.0-45.0","battery-v0.2","","""event"",""trial"",""time""
""fullscreenenter"",""1"",""3815""
","
","
","""event"",""trial"",""time""
""fullscreenenter"",""1"",""3815""
","
","","","-1","","","23","8867","4200","y","elianto","#f73b6a7A","-1","-1","1","0","[]","0","2","","","8867","41","2","4","lose","no-go","0"
"pit-trial","180","-27654937","0.0-46.0","battery-v0.2","","""event"",""trial"",""time""
""fullscreenenter"",""1"",""3815""
","
","
","""event"",""trial"",""time""
""fullscreenenter"",""1"",""3815""
","
","","","-1","","","23","8867","4200","m","elianto","#f73b6a7A","-1","-1","1","0","[]","0","2","","","8867","42","0","4","lose","no-go","0"
"pit-trial","181","-27650675","0.0-47.0","battery-v0.2","","""event"",""trial"",""time""
""fullscreenenter"",""1"",""3815""
","
","
","""event"",""trial"",""time""
""fullscreenenter"",""1"",""3815""
","
","","","1402.7000000011176","","","23","8867","4200","h","elianto","#f73b6a7A"," "," ","1","0","[2252.800000000745]","1","2","","","8867","43","3","3","lose","go","0"
"pit-trial","182","-27646372","0.0-48.0","battery-v0.2","","""event"",""trial"",""time""
""fullscreenenter"",""1"",""3815""
","
","
","""event"",""trial"",""time""
""fullscreenenter"",""1"",""3815""
","
","","","1442.5999999996275","","","23","8867","4200","r","elianto","#3366ff99"," "," ","1","0","[2294]","1","2","","","8867","44","1","1","win","go","1"
"pit-trial","183","-27642027","0.0-49.0","battery-v0.2","","""event"",""trial"",""time""
""fullscreenenter"",""1"",""3815""
","
","
","""event"",""trial"",""time""
""fullscreenenter"",""1"",""3815""
","
","","","1487.300000000745","","","23","8867","4200","h","elianto","#f73b6a7A"," "," ","1","0","[2337.5999999996275]","1","2","","","8867","45","3","3","lose","go","0"
"pit-trial","184","-27637488","0.0-50.0","battery-v0.2","","""event"",""trial"",""time""
""fullscreenenter"",""1"",""3815""
","
","
","""event"",""trial"",""time""
""fullscreenenter"",""1"",""3815""
","
","","","1671.699999999255","","","23","8867","4200","m","elianto","#f73b6a7A","-1"," ","0","-10","[2530.0999999996275]","1","2","","","8867","46","0","4","lose","no-go","0"
"pit-trial","185","-27633490","0.0-51.0","battery-v0.2","","""event"",""trial"",""time""
""fullscreenenter"",""1"",""3815""
","
","
","""event"",""trial"",""time""
""fullscreenenter"",""1"",""3815""
","
","","","1140.4000000003725","","","23","8867","4200","y","elianto","#f73b6a7A","-1"," ","0","-10","[1990.4000000003725]","1","2","","","8867","47","2","4","lose","no-go","0"
"pit-trial","186","-27629531","0.0-52.0","battery-v0.2","","""event"",""trial"",""time""
""fullscreenenter"",""1"",""3815""
","
","
","""event"",""trial"",""time""
""fullscreenenter"",""1"",""3815""
","
","","","1082.2999999988824","","","23","8867","4200","z","elianto","#3366ff99","-1"," ","0","+10","[1950]","1","2","","","8867","48","4","2","win","no-go","1"
"pit-trial","187","-27625272","0.0-53.0","battery-v0.2","","""event"",""trial"",""time""
""fullscreenenter"",""1"",""3815""
","
","
","""event"",""trial"",""time""
""fullscreenenter"",""1"",""3815""
","
","","","1398.699999999255","","","23","8867","4200","m","elianto","#f73b6a7A","-1"," ","0","-10","[2249.699999999255]","1","2","","","8867","49","0","4","lose","no-go","0"
"pit-trial","188","-27621078","0.0-54.0","battery-v0.2","","""event"",""trial"",""time""
""fullscreenenter"",""1"",""3815""
","
","
","""event"",""trial"",""time""
""fullscreenenter"",""1"",""3815""
","
","","","1334.800000000745","","","23","8867","4200","h","elianto","#f73b6a7A"," "," ","1","0","[2186]","1","2","","","8867","50","3","3","lose","go","0"
"pit-trial","189","-27617037","0.0-55.0","battery-v0.2","","""event"",""trial"",""time""
""fullscreenenter"",""1"",""3815""
","
","
","""event"",""trial"",""time""
""fullscreenenter"",""1"",""3815""
","
","","","1183","","","23","8867","4200","z","elianto","#3366ff99","-1"," ","0","+10","[2033.5999999996275]","1","2","","","8867","51","4","2","win","no-go","1"
"pit-trial","190","-27612175","0.0-56.0","battery-v0.2","","""event"",""trial"",""time""
""fullscreenenter"",""1"",""3815""
","
","
","""event"",""trial"",""time""
""fullscreenenter"",""1"",""3815""
","
","","","-1","","","23","8867","4200","r","elianto","#3366ff99"," ","-1","0","0","[3713.10000000149]","1","2","","","8867","52","1","1","win","go","0"
"pit-trial","191","-27607963","0.0-57.0","battery-v0.2","","""event"",""trial"",""time""
""fullscreenenter"",""1"",""3815""
","
","
","""event"",""trial"",""time""
""fullscreenenter"",""1"",""3815""
","
","","","1353.1000000014901","","","23","8867","4200","m","elianto","#f73b6a7A","-1"," ","0","-10","[2204.10000000149]","1","2","","","8867","53","0","4","lose","no-go","0"
"pit-trial","192","-27604681","0.0-58.0","battery-v0.2","","""event"",""trial"",""time""
""fullscreenenter"",""1"",""3815""
","
","
","""event"",""trial"",""time""
""fullscreenenter"",""1"",""3815""
","
","","","422.59999999962747","","","23","8867","4200","z","elianto","#3366ff99","-1"," ","0","0","[1273.9000000003725,2431.300000000745]","2","2","","","8867","54","4","2","win","no-go","0"
"pit-trial","193","-27600360","0.0-59.0","battery-v0.2","","""event"",""trial"",""time""
""fullscreenenter"",""1"",""3815""
","
","
","""event"",""trial"",""time""
""fullscreenenter"",""1"",""3815""
","
","","","1462.5","","","23","8867","4200","r","elianto","#3366ff99"," "," ","1","+10","[2313]","1","2","","","8867","55","1","1","win","go","0"
"pit-trial","194","-27597335","0.0-60.0","battery-v0.2","","""event"",""trial"",""time""
""fullscreenenter"",""1"",""3815""
","
","
","""event"",""trial"",""time""
""fullscreenenter"",""1"",""3815""
","
","","","161.90000000037253","","","23","8867","4200","y","elianto","#f73b6a7A","-1"," ","0","-10","[1012.9000000003725]","1","2","","","8867","56","2","4","lose","no-go","0"
"pit-trial","195","-27592979","0.0-61.0","battery-v0.2","","""event"",""trial"",""time""
""fullscreenenter"",""1"",""3815""
","
","
","""event"",""trial"",""time""
""fullscreenenter"",""1"",""3815""
","
","","","1498.199999999255","","","23","8867","4200","z","elianto","#3366ff99","-1"," ","0","0","[2349.4000000003725]","1","2","","","8867","57","4","2","win","no-go","0"
"pit-trial","196","-27588118","0.0-62.0","battery-v0.2","","""event"",""trial"",""time""
""fullscreenenter"",""1"",""3815""
","
","
","""event"",""trial"",""time""
""fullscreenenter"",""1"",""3815""
","
","","","-1","","","23","8867","4200","m","elianto","#f73b6a7A","-1","-1","1","0","[3808.4000000003725]","1","2","","","8867","58","0","4","lose","no-go","0"
"pit-trial","197","-27583258","0.0-63.0","battery-v0.2","","""event"",""trial"",""time""
""fullscreenenter"",""1"",""3815""
","
","
","""event"",""trial"",""time""
""fullscreenenter"",""1"",""3815""
","
","","","-1","","","23","8867","4200","h","elianto","#f73b6a7A"," ","-1","0","0","[3708]","1","2","","","8867","59","3","3","lose","go","1"
"pit-trial","198","-27578760","0.0-64.0","battery-v0.2","","""event"",""trial"",""time""
""fullscreenenter"",""1"",""3815""
","
","
","""event"",""trial"",""time""
""fullscreenenter"",""1"",""3815""
","
","","","1637.4000000003725","","","23","8867","4200","r","elianto","#3366ff99"," "," ","1","+10","[2487.800000000745]","1","2","","","8867","60","1","1","win","go","0"
"pit-trial","199","-27573899","0.0-65.0","battery-v0.2","","""event"",""trial"",""time""
""fullscreenenter"",""1"",""3815""
","
","
","""event"",""trial"",""time""
""fullscreenenter"",""1"",""3815""
","
","","","-1","","","23","8867","4200","z","elianto","#3366ff99","-1","-1","1","+10","[494.80000000074506]","1","2","","","8867","61","4","2","win","no-go","0"
"pit-trial","200","-27570938","0.0-66.0","battery-v0.2","","""event"",""trial"",""time""
""fullscreenenter"",""1"",""3815""
","
","
","""event"",""trial"",""time""
""fullscreenenter"",""1"",""3815""
","
","","","101.39999999850988","","","23","8867","4200","r","elianto","#3366ff99"," "," ","1","+10","[952.5999999996275]","1","2","","","8867","62","1","1","win","go","0"
"pit-trial","201","-27567037","0.0-67.0","battery-v0.2","","""event"",""trial"",""time""
""fullscreenenter"",""1"",""3815""
","
","
","""event"",""trial"",""time""
""fullscreenenter"",""1"",""3815""
","
","","","1039.9000000003725","","","23","8867","4200","y","elianto","#f73b6a7A","-1"," ","0","0","[1891.199999999255]","1","2","","","8867","63","2","4","lose","no-go","1"
"pit-trial","202","-27562889","0.0-68.0","battery-v0.2","","""event"",""trial"",""time""
""fullscreenenter"",""1"",""3815""
","
","
","""event"",""trial"",""time""
""fullscreenenter"",""1"",""3815""
","
","","","1288.0999999996275","","","23","8867","4200","h","elianto","#f73b6a7A"," "," ","1","0","[2139.5999999996275]","1","2","","","8867","64","3","3","lose","go","0"
"pit-trial","203","-27558029","0.0-69.0","battery-v0.2","","""event"",""trial"",""time""
""fullscreenenter"",""1"",""3815""
","
","
","""event"",""trial"",""time""
""fullscreenenter"",""1"",""3815""
","
","","","-1","","","23","8867","4200","y","elianto","#f73b6a7A","-1","-1","1","0","[3436.2000000011176]","1","2","","","8867","65","2","4","lose","no-go","0"
"pit-trial","204","-27553170","0.0-70.0","battery-v0.2","","""event"",""trial"",""time""
""fullscreenenter"",""1"",""3815""
","
","
","""event"",""trial"",""time""
""fullscreenenter"",""1"",""3815""
","
","","","-1","","","23","8867","4200","r","elianto","#3366ff99"," ","-1","0","+10","[]","0","2","","","8867","66","1","1","win","go","1"
"pit-trial","205","-27549412","0.0-71.0","battery-v0.2","","""event"",""trial"",""time""
""fullscreenenter"",""1"",""3815""
","
","
","""event"",""trial"",""time""
""fullscreenenter"",""1"",""3815""
","
","","","897.8000000007451","","","23","8867","4200","z","elianto","#3366ff99","-1"," ","0","+10","[1748.8999999985099]","1","2","","","8867","67","4","2","win","no-go","1"
"pit-trial","206","-27544552","0.0-72.0","battery-v0.2","","""event"",""trial"",""time""
""fullscreenenter"",""1"",""3815""
","
","
","""event"",""trial"",""time""
""fullscreenenter"",""1"",""3815""
","
","","","-1","","","23","8867","4200","h","elianto","#f73b6a7A"," ","-1","0","0","[3041]","1","2","","","8867","68","3","3","lose","go","1"
"pit-trial","207","-27539762","0.0-73.0","battery-v0.2","","""event"",""trial"",""time""
""fullscreenenter"",""1"",""3815""
","
","
","""event"",""trial"",""time""
""fullscreenenter"",""1"",""3815""
","
","","","1930.5999999996275","","","23","8867","4200","z","elianto","#3366ff99","-1"," ","0","0","[2782]","1","2","","","8867","69","4","2","win","no-go","0"
"pit-trial","208","-27536101","0.0-74.0","battery-v0.2","","""event"",""trial"",""time""
""fullscreenenter"",""1"",""3815""
","
","
","""event"",""trial"",""time""
""fullscreenenter"",""1"",""3815""
","
","","","801.4000000003725","","","23","8867","4200","h","elianto","#f73b6a7A"," "," ","1","-10","[1653.2000000011176]","1","2","","","8867","70","3","3","lose","go","1"
"pit-trial","209","-27531950","0.0-75.0","battery-v0.2","","""event"",""trial"",""time""
""fullscreenenter"",""1"",""3815""
","
","
","""event"",""trial"",""time""
""fullscreenenter"",""1"",""3815""
","
","","","1291.2999999988824","","","23","8867","4200","c","elianto","#3366ff99"," "," ","1","+10","[2141.4000000003725]","1","2","","","8867","71","5","1","win","go","0"
"pit-trial","210","-27527091","0.0-76.0","battery-v0.2","","""event"",""trial"",""time""
""fullscreenenter"",""1"",""3815""
","
","
","""event"",""trial"",""time""
""fullscreenenter"",""1"",""3815""
","
","","","-1","","","23","8867","4200","r","elianto","#3366ff99"," ","-1","0","+10","[4825.89999999851]","1","2","","","8867","72","1","1","win","go","1"
"pit-trial","211","-27522231","0.0-77.0","battery-v0.2","","""event"",""trial"",""time""
""fullscreenenter"",""1"",""3815""
","
","
","""event"",""trial"",""time""
""fullscreenenter"",""1"",""3815""
","
","","","-1","","","23","8867","4200","r","elianto","#3366ff99"," ","-1","0","0","[3469.2999999988824]","1","2","","","8867","73","1","1","win","go","0"
"pit-trial","212","-27517371","0.0-78.0","battery-v0.2","","""event"",""trial"",""time""
""fullscreenenter"",""1"",""3815""
","
","
","""event"",""trial"",""time""
""fullscreenenter"",""1"",""3815""
","
","","","-1","","","23","8867","4200","c","elianto","#3366ff99"," ","-1","0","0","[2976.5999999996275]","1","2","","","8867","74","5","1","win","go","0"
"pit-trial","213","-27513314","0.0-79.0","battery-v0.2","","""event"",""trial"",""time""
""fullscreenenter"",""1"",""3815""
","
","
","""event"",""trial"",""time""
""fullscreenenter"",""1"",""3815""
","
","","","1197.5","","","23","8867","4200","z","elianto","#3366ff99","-1"," ","0","+10","[2048.0999999996275,3723.2999999988824]","2","2","","","8867","75","4","2","win","no-go","1"
"pit-trial","214","-27508454","0.0-80.0","battery-v0.2","","""event"",""trial"",""time""
""fullscreenenter"",""1"",""3815""
","
","
","""event"",""trial"",""time""
""fullscreenenter"",""1"",""3815""
","
","","","-1","","","23","8867","4200","h","elianto","#f73b6a7A"," ","-1","0","-10","[]","0","2","","","8867","76","3","3","lose","go","0"
"pit-trial","215","-27505434","0.0-81.0","battery-v0.2","","""event"",""trial"",""time""
""fullscreenenter"",""1"",""3815""
","
","
","""event"",""trial"",""time""
""fullscreenenter"",""1"",""3815""
","
","","","161.2000000011176","","","23","8867","4200","z","elianto","#3366ff99","-1"," ","0","0","[1012.3000000007451]","1","2","","","8867","77","4","2","win","no-go","0"
"pit-trial","216","-27501794","0.0-82.0","battery-v0.2","","""event"",""trial"",""time""
""fullscreenenter"",""1"",""3815""
","
","
","""event"",""trial"",""time""
""fullscreenenter"",""1"",""3815""
","
","","","781.2000000011176","","","23","8867","4200","h","elianto","#f73b6a7A"," "," ","1","0","[1632.1000000014901]","1","2","","","8867","78","3","3","lose","go","0"
"pit-trial","217","-27497091","0.0-83.0","battery-v0.2","","""event"",""trial"",""time""
""fullscreenenter"",""1"",""3815""
","
","
","""event"",""trial"",""time""
""fullscreenenter"",""1"",""3815""
","
","","","1841.5999999996275","","","23","8867","4200","c","elianto","#3366ff99"," "," ","1","+10","[2693.5999999996275]","1","2","","","8867","79","5","1","win","go","0"
"pit-trial","218","-27492331","0.0-84.0","battery-v0.2","","""event"",""trial"",""time""
""fullscreenenter"",""1"",""3815""
","
","
","""event"",""trial"",""time""
""fullscreenenter"",""1"",""3815""
","
","","","1899.5999999996275","","","23","8867","4200","b","elianto","#f73b6a7A","-1"," ","0","-10","[2750.699999999255]","1","2","","","8867","80","6","4","lose","no-go","0"
"pit-trial","219","-27487915","0.0-85.0","battery-v0.2","","""event"",""trial"",""time""
""fullscreenenter"",""1"",""3815""
","
","
","""event"",""trial"",""time""
""fullscreenenter"",""1"",""3815""
","
","","","1556.800000000745","","","23","8867","4200","z","elianto","#3366ff99","-1"," ","0","0","[2407.699999999255]","1","2","","","8867","81","4","2","win","no-go","0"
"pit-trial","220","-27483055","0.0-86.0","battery-v0.2","","""event"",""trial"",""time""
""fullscreenenter"",""1"",""3815""
","
","
","""event"",""trial"",""time""
""fullscreenenter"",""1"",""3815""
","
","","","-1","","","23","8867","4200","c","elianto","#3366ff99"," ","-1","0","0","[]","0","2","","","8867","82","5","1","win","go","0"
"pit-trial","221","-27478195","0.0-87.0","battery-v0.2","","""event"",""trial"",""time""
""fullscreenenter"",""1"",""3815""
","
","
","""event"",""trial"",""time""
""fullscreenenter"",""1"",""3815""
","
","","","-1","","","23","8867","4200","b","elianto","#f73b6a7A","-1","-1","1","0","[3516.300000000745]","1","2","","","8867","83","6","4","lose","no-go","0"
"pit-trial","222","-27474114","0.0-88.0","battery-v0.2","","""event"",""trial"",""time""
""fullscreenenter"",""1"",""3815""
","
","
","""event"",""trial"",""time""
""fullscreenenter"",""1"",""3815""
","
","","","1222","","","23","8867","4200","t","elianto","#f73b6a7A"," "," ","1","0","[2072.800000000745]","1","2","","","8867","84","7","3","lose","go","0"
"pit-trial","223","-27469252","0.0-89.0","battery-v0.2","","""event"",""trial"",""time""
""fullscreenenter"",""1"",""3815""
","
","
","""event"",""trial"",""time""
""fullscreenenter"",""1"",""3815""
","
","","","-1","","","23","8867","4200","b","elianto","#f73b6a7A","-1","-1","1","0","[3339.0999999996275]","1","2","","","8867","85","6","4","lose","no-go","0"
"pit-trial","224","-27465267","0.0-90.0","battery-v0.2","","""event"",""trial"",""time""
""fullscreenenter"",""1"",""3815""
","
","
","""event"",""trial"",""time""
""fullscreenenter"",""1"",""3815""
","
","","","1125.199999999255","","","23","8867","4200","z","elianto","#3366ff99","-1"," ","0","+10","[1976.5]","1","2","","","8867","86","4","2","win","no-go","1"
"pit-trial","225","-27460406","0.0-91.0","battery-v0.2","","""event"",""trial"",""time""
""fullscreenenter"",""1"",""3815""
","
","
","""event"",""trial"",""time""
""fullscreenenter"",""1"",""3815""
","
","","","-1","","","23","8867","4200","t","elianto","#f73b6a7A"," ","-1","0","-10","[538.1999999992549,3999.5]","2","2","","","8867","87","7","3","lose","go","0"
"pit-trial","226","-27455545","0.0-92.0","battery-v0.2","","""event"",""trial"",""time""
""fullscreenenter"",""1"",""3815""
","
","
","""event"",""trial"",""time""
""fullscreenenter"",""1"",""3815""
","
","","","-1","","","23","8867","4200","c","elianto","#3366ff99"," ","-1","0","0","[3713.0999999996275,4422.5]","2","2","","","8867","88","5","1","win","go","0"
"pit-trial","227","-27452037","0.0-93.0","battery-v0.2","","""event"",""trial"",""time""
""fullscreenenter"",""1"",""3815""
","
","
","""event"",""trial"",""time""
""fullscreenenter"",""1"",""3815""
","
","","","646.5999999996275","","","23","8867","4200","c","elianto","#3366ff99"," "," ","1","+10","[359.30000000074506,1497.7000000011176,1974.6000000014901]","3","2","","","8867","89","5","1","win","go","0"
"pit-trial","228","-27448532","0.0-94.0","battery-v0.2","","""event"",""trial"",""time""
""fullscreenenter"",""1"",""3815""
","
","
","""event"",""trial"",""time""
""fullscreenenter"",""1"",""3815""
","
","","","646.5","","","23","8867","4200","b","elianto","#f73b6a7A","-1"," ","0","-10","[210.69999999925494,1498,3420.199999999255]","3","2","","","8867","90","6","4","lose","no-go","0"
"pit-trial","229","-27443674","0.0-95.0","battery-v0.2","","""event"",""trial"",""time""
""fullscreenenter"",""1"",""3815""
","
","
","""event"",""trial"",""time""
""fullscreenenter"",""1"",""3815""
","
","","","-1","","","23","8867","4200","t","elianto","#f73b6a7A"," ","-1","0","-10","[]","0","2","","","8867","91","7","3","lose","go","0"
"pit-trial","230","-27439925","0.0-96.0","battery-v0.2","","""event"",""trial"",""time""
""fullscreenenter"",""1"",""3815""
","
","
","""event"",""trial"",""time""
""fullscreenenter"",""1"",""3815""
","
","","","891.2000000011176","","","23","8867","4200","z","elianto","#3366ff99","-1"," ","0","0","[1741.9000000003725]","1","2","","","8867","92","4","2","win","no-go","0"
"pit-trial","231","-27435065","0.0-97.0","battery-v0.2","","""event"",""trial"",""time""
""fullscreenenter"",""1"",""3815""
","
","
","""event"",""trial"",""time""
""fullscreenenter"",""1"",""3815""
","
","","","-1","","","23","8867","4200","c","elianto","#3366ff99"," ","-1","0","+10","[3462.9000000003725]","1","2","","","8867","93","5","1","win","go","1"
"pit-trial","232","-27430404","0.0-98.0","battery-v0.2","","""event"",""trial"",""time""
""fullscreenenter"",""1"",""3815""
","
","
","""event"",""trial"",""time""
""fullscreenenter"",""1"",""3815""
","
","","","1801.2999999988824","","","23","8867","4200","b","elianto","#f73b6a7A","-1"," ","0","0","[2652.5999999996275]","1","2","","","8867","94","6","4","lose","no-go","1"
"pit-trial","233","-27425543","0.0-99.0","battery-v0.2","","""event"",""trial"",""time""
""fullscreenenter"",""1"",""3815""
","
","
","""event"",""trial"",""time""
""fullscreenenter"",""1"",""3815""
","
","","","-1","","","23","8867","4200","t","elianto","#f73b6a7A"," ","-1","0","-10","[3467.0999999996275]","1","2","","","8867","95","7","3","lose","go","0"
"pit-trial","234","-27421661","0.0-100.0","battery-v0.2","","""event"",""trial"",""time""
""fullscreenenter"",""1"",""3815""
","
","
","""event"",""trial"",""time""
""fullscreenenter"",""1"",""3815""
","
","","","1021.1999999992549","","","23","8867","4200","f","elianto","#3366ff99","-1"," ","0","0","[1872.4000000003725]","1","2","","","8867","96","8","2","win","no-go","0"
"pit-trial","235","-27418336","0.0-101.0","battery-v0.2","","""event"",""trial"",""time""
""fullscreenenter"",""1"",""3815""
","
","
","""event"",""trial"",""time""
""fullscreenenter"",""1"",""3815""
","
","","","452.19999999925494","","","23","8867","4200","f","elianto","#3366ff99","-1"," ","0","0","[1303.300000000745]","1","2","","","8867","97","8","2","win","no-go","0"
"pit-trial","236","-27415337","0.0-102.0","battery-v0.2","","""event"",""trial"",""time""
""fullscreenenter"",""1"",""3815""
","
","
","""event"",""trial"",""time""
""fullscreenenter"",""1"",""3815""
","
","","","139.90000000037253","","","23","8867","4200","b","elianto","#f73b6a7A","-1"," ","0","-10","[991.3999999985099,2873.0999999996275]","2","2","","","8867","98","6","4","lose","no-go","0"
"pit-trial","237","-27411799","0.0-103.0","battery-v0.2","","""event"",""trial"",""time""
""fullscreenenter"",""1"",""3815""
","
","
","""event"",""trial"",""time""
""fullscreenenter"",""1"",""3815""
","
","","","676.9000000003725","","","23","8867","4200","c","elianto","#3366ff99"," "," ","1","+10","[1527.800000000745]","1","2","","","8867","99","5","1","win","go","0"
"pit-trial","238","-27407773","0.0-104.0","battery-v0.2","","""event"",""trial"",""time""
""fullscreenenter"",""1"",""3815""
","
","
","""event"",""trial"",""time""
""fullscreenenter"",""1"",""3815""
","
","","","1166.1000000014901","","","23","8867","4200","t","elianto","#f73b6a7A"," "," ","1","0","[43.30000000074506,2017.9000000003725]","2","2","","","8867","100","7","3","lose","go","0"
"pit-trial","239","-27404393","0.0-105.0","battery-v0.2","","""event"",""trial"",""time""
""fullscreenenter"",""1"",""3815""
","
","
","""event"",""trial"",""time""
""fullscreenenter"",""1"",""3815""
","
","","","520.3000000007451","","","23","8867","4200","c","elianto","#3366ff99"," "," ","1","+10","[201.80000000074506,1371.1000000014901,2371.300000000745]","3","2","","","8867","101","5","1","win","go","0"
"pit-trial","240","-27399529","0.0-106.0","battery-v0.2","","""event"",""trial"",""time""
""fullscreenenter"",""1"",""3815""
","
","
","""event"",""trial"",""time""
""fullscreenenter"",""1"",""3815""
","
","","","-1","","","23","8867","4200","f","elianto","#3366ff99","-1","-1","1","+10","[499.69999999925494,4854.299999998882]","2","2","","","8867","102","8","2","win","no-go","0"
"pit-trial","241","-27394669","0.0-107.0","battery-v0.2","","""event"",""trial"",""time""
""fullscreenenter"",""1"",""3815""
","
","
","""event"",""trial"",""time""
""fullscreenenter"",""1"",""3815""
","
","","","-1","","","23","8867","4200","b","elianto","#f73b6a7A","-1","-1","1","0","[]","0","2","","","8867","103","6","4","lose","no-go","0"
"pit-trial","242","-27391614","0.0-108.0","battery-v0.2","","""event"",""trial"",""time""
""fullscreenenter"",""1"",""3815""
","
","
","""event"",""trial"",""time""
""fullscreenenter"",""1"",""3815""
","
","","","195.09999999962747","","","23","8867","4200","n","elianto","#3366ff99","-1"," ","0","0","[1046.0999999996275,2387.199999999255]","2","2","","","8867","104","9","2","win","no-go","0"
"pit-trial","243","-27387263","0.0-109.0","battery-v0.2","","""event"",""trial"",""time""
""fullscreenenter"",""1"",""3815""
","
","
","""event"",""trial"",""time""
""fullscreenenter"",""1"",""3815""
","
","","","1491.0999999996275","","","23","8867","4200","f","elianto","#3366ff99","-1"," ","0","0","[2342.0999999996275]","1","2","","","8867","105","8","2","win","no-go","0"
"pit-trial","244","-27383665","0.0-110.0","battery-v0.2","","""event"",""trial"",""time""
""fullscreenenter"",""1"",""3815""
","
","
","""event"",""trial"",""time""
""fullscreenenter"",""1"",""3815""
","
","","","738.9000000003725","","","23","8867","4200","n","elianto","#3366ff99","-1"," ","0","0","[1589.699999999255,2521,3287.0999999996275]","3","2","","","8867","106","9","2","win","no-go","0"
"pit-trial","245","-27378906","0.0-111.0","battery-v0.2","","""event"",""trial"",""time""
""fullscreenenter"",""1"",""3815""
","
","
","""event"",""trial"",""time""
""fullscreenenter"",""1"",""3815""
","
","","","1898.9000000003725","","","23","8867","4200","c","elianto","#3366ff99"," "," ","1","+10","[2750.7000000011176]","1","2","","","8867","107","5","1","win","go","0"
"pit-trial","246","-27374614","0.0-112.0","battery-v0.2","","""event"",""trial"",""time""
""fullscreenenter"",""1"",""3815""
","
","
","""event"",""trial"",""time""
""fullscreenenter"",""1"",""3815""
","
","","","1432.5","","","23","8867","4200","b","elianto","#f73b6a7A","-1"," ","0","-10","[2283.5999999996275]","1","2","","","8867","108","6","4","lose","no-go","0"
"pit-trial","247","-27370718","0.0-113.0","battery-v0.2","","""event"",""trial"",""time""
""fullscreenenter"",""1"",""3815""
","
","
","""event"",""trial"",""time""
""fullscreenenter"",""1"",""3815""
","
","","","1035.2000000011176","","","23","8867","4200","f","elianto","#3366ff99","-1"," ","0","0","[1886]","1","2","","","8867","109","8","2","win","no-go","0"
"pit-trial","248","-27365960","0.0-114.0","battery-v0.2","","""event"",""trial"",""time""
""fullscreenenter"",""1"",""3815""
","
","
","""event"",""trial"",""time""
""fullscreenenter"",""1"",""3815""
","
","","","1898.699999999255","","","23","8867","4200","c","elianto","#3366ff99"," "," ","1","+10","[2750]","1","2","","","8867","110","5","1","win","go","0"
"pit-trial","249","-27362186","0.0-115.0","battery-v0.2","","""event"",""trial"",""time""
""fullscreenenter"",""1"",""3815""
","
","
","""event"",""trial"",""time""
""fullscreenenter"",""1"",""3815""
","
","","","914.8000000007451","","","23","8867","4200","n","elianto","#3366ff99","-1"," ","0","0","[1766]","1","2","","","8867","111","9","2","win","no-go","0"
"pit-trial","250","-27357321","0.0-116.0","battery-v0.2","","""event"",""trial"",""time""
""fullscreenenter"",""1"",""3815""
","
","
","""event"",""trial"",""time""
""fullscreenenter"",""1"",""3815""
","
","","","-1","","","23","8867","4200","b","elianto","#f73b6a7A","-1","-1","1","0","[3335.699999999255]","1","2","","","8867","112","6","4","lose","no-go","0"
"pit-trial","251","-27353091","0.0-117.0","battery-v0.2","","""event"",""trial"",""time""
""fullscreenenter"",""1"",""3815""
","
","
","""event"",""trial"",""time""
""fullscreenenter"",""1"",""3815""
","
","","","1369.199999999255","","","23","8867","4200","n","elianto","#3366ff99","-1"," ","0","0","[2220]","1","2","","","8867","113","9","2","win","no-go","0"
"pit-trial","252","-27349625","0.0-118.0","battery-v0.2","","""event"",""trial"",""time""
""fullscreenenter"",""1"",""3815""
","
","
","""event"",""trial"",""time""
""fullscreenenter"",""1"",""3815""
","
","","","606.0999999996275","","","23","8867","4200","c","elianto","#3366ff99"," "," ","1","0","[1457.2000000011176]","1","2","","","8867","114","5","1","win","go","1"
"pit-trial","253","-27344766","0.0-119.0","battery-v0.2","","""event"",""trial"",""time""
""fullscreenenter"",""1"",""3815""
","
","
","""event"",""trial"",""time""
""fullscreenenter"",""1"",""3815""
","
","","","-1","","","23","8867","4200","f","elianto","#3366ff99","-1","-1","1","+10","[183.40000000037253,3651.5999999996275]","2","2","","","8867","115","8","2","win","no-go","0"
"pit-trial","254","-27340650","0.0-120.0","battery-v0.2","","""event"",""trial"",""time""
""fullscreenenter"",""1"",""3815""
","
","
","""event"",""trial"",""time""
""fullscreenenter"",""1"",""3815""
","
","","","1255.800000000745","","","23","8867","4200","t","elianto","#f73b6a7A"," "," ","1","0","[2106.2000000011176,4001.4000000003725]","2","2","","","8867","116","7","3","lose","go","0"
"pit-trial","255","-27336199","0.0-121.0","battery-v0.2","","""event"",""trial"",""time""
""fullscreenenter"",""1"",""3815""
","
","
","""event"",""trial"",""time""
""fullscreenenter"",""1"",""3815""
","
","","","1592.800000000745","","","23","8867","4200","f","elianto","#3366ff99","-1"," ","0","0","[2443.9000000003725,3983.699999999255]","2","2","","","8867","117","8","2","win","no-go","0"
"pit-trial","256","-27332792","0.0-122.0","battery-v0.2","","""event"",""trial"",""time""
""fullscreenenter"",""1"",""3815""
","
","
","""event"",""trial"",""time""
""fullscreenenter"",""1"",""3815""
","
","","","547","","","23","8867","4200","n","elianto","#3366ff99","-1"," ","0","+10","[1399.4000000003725]","1","2","","","8867","118","9","2","win","no-go","1"
"pit-trial","257","-27328852","0.0-123.0","battery-v0.2","","""event"",""trial"",""time""
""fullscreenenter"",""1"",""3815""
","
","
","""event"",""trial"",""time""
""fullscreenenter"",""1"",""3815""
","
","","","1080.3999999985099","","","23","8867","4200","c","elianto","#3366ff99"," "," ","1","+10","[677.7999999988824,1931.2999999988824]","2","2","","","8867","119","5","1","win","go","0"
"pit-trial","258","-27324519","0.0-124.0","battery-v0.2","","""event"",""trial"",""time""
""fullscreenenter"",""1"",""3815""
","
","
","""event"",""trial"",""time""
""fullscreenenter"",""1"",""3815""
","
","","","1473.8999999985099","","","23","8867","4200","b","elianto","#f73b6a7A","-1"," ","0","-10","[2325.4000000003725,4126.800000000745]","2","2","","","8867","120","6","4","lose","no-go","0"
"pit-trial","259","-27320600","0.0-125.0","battery-v0.2","","""event"",""trial"",""time""
""fullscreenenter"",""1"",""3815""
","
","
","""event"",""trial"",""time""
""fullscreenenter"",""1"",""3815""
","
","","","1059","","","23","8867","4200","c","elianto","#3366ff99"," "," ","1","+10","[1909.5]","1","2","","","8867","121","5","1","win","go","0"
"pit-trial","260","-27315905","0.0-126.0","battery-v0.2","","""event"",""trial"",""time""
""fullscreenenter"",""1"",""3815""
","
","
","""event"",""trial"",""time""
""fullscreenenter"",""1"",""3815""
","
","","","1837","","","23","8867","4200","t","elianto","#f73b6a7A"," "," ","1","0","[168.59999999962747,2687.199999999255,4065]","3","2","","","8867","122","7","3","lose","go","0"
"pit-trial","261","-27312600","0.0-127.0","battery-v0.2","","""event"",""trial"",""time""
""fullscreenenter"",""1"",""3815""
","
","
","""event"",""trial"",""time""
""fullscreenenter"",""1"",""3815""
","
","","","446.5","","","23","8867","4200","f","elianto","#3366ff99","-1"," ","0","0","[1297.4000000003725]","1","2","","","8867","123","8","2","win","no-go","0"
"pit-trial","262","-27309035","0.0-128.0","battery-v0.2","","""event"",""trial"",""time""
""fullscreenenter"",""1"",""3815""
","
","
","""event"",""trial"",""time""
""fullscreenenter"",""1"",""3815""
","
","","","704","","","23","8867","4200","n","elianto","#3366ff99","-1"," ","0","0","[1556]","1","2","","","8867","124","9","2","win","no-go","0"
"pit-trial","263","-27304175","0.0-129.0","battery-v0.2","","""event"",""trial"",""time""
""fullscreenenter"",""1"",""3815""
","
","
","""event"",""trial"",""time""
""fullscreenenter"",""1"",""3815""
","
