"trial_type","trial_index","time_elapsed","internal_node_id","task_version","subject_id","interactions","blur_events","focus_events","fullscreenenter_events","fullscreenexit_events","success","view_history","rt","responses","num_errors","age","subject","participantId","rune","rune_set","hex","correct","choice","accuracy","outcome","keys","total_keys","block","practice","value","sub","trial","stimulus","robot","valence","action","sham"
"pavlovia","0","5","0.0-0.0","battery-v0.2","","""event"",""trial"",""time""
""fullscreenenter"",""1"",""3061""
","
","
","""event"",""trial"",""time""
""fullscreenenter"",""1"",""3061""
","
","","","","","","","","","","","","","","","","","","","","","","","","","","",""
"fullscreen","1","4039","0.0-1.0","battery-v0.2","","""event"",""trial"",""time""
""fullscreenenter"",""1"",""3061""
","
","
","""event"",""trial"",""time""
""fullscreenenter"",""1"",""3061""
","
","true","","","","","","","","","","","","","","","","","","","","","","","","","",""
"pit-instructions","2","11029","0.0-2.0-0.0","battery-v0.2","","""event"",""trial"",""time""
""fullscreenenter"",""1"",""3061""
","
","
","""event"",""trial"",""time""
""fullscreenenter"",""1"",""3061""
","
","","[{""page_index"":0,""viewing_time"":6982}]","6982.800000071526","","","","","","","","","","","","","","","","","","","","","","","",""
"pit-comprehension","3","13773","0.0-2.0-1.0-0.0","battery-v0.2","","""event"",""trial"",""time""
""fullscreenenter"",""1"",""3061""
","
","
","""event"",""trial"",""time""
""fullscreenenter"",""1"",""3061""
","
","","","2740.399999976158","[""shark""]","0","13","3336","2608","","","","","","","","","","","","","","","","","","",""
"pit-instructions","4","14958","0.0-2.0-1.0-1.0","battery-v0.2","","""event"",""trial"",""time""
""fullscreenenter"",""1"",""3061""
","
","
","""event"",""trial"",""time""
""fullscreenenter"",""1"",""3061""
","
","","[{""page_index"":0,""viewing_time"":1172.8000000715256}]","1173.3000000715256","","","","","","","","","","","","","","","","","","","","","","","",""
"pit-comprehension","5","20379","0.0-2.0-2.0-0.0","battery-v0.2","","""event"",""trial"",""time""
""fullscreenenter"",""1"",""3061""
","
","
","""event"",""trial"",""time""
""fullscreenenter"",""1"",""3061""
","
","","","5414.899999976158","[""tiger""]","0","13","3336","2608","","","","","","","","","","","","","","","","","","",""
"pit-instructions","6","21493","0.0-2.0-2.0-1.0","battery-v0.2","","""event"",""trial"",""time""
""fullscreenenter"",""1"",""3061""
""blur"",""7"",""109382""
""focus"",""7"",""109847""
""blur"",""7"",""109964""
""focus"",""7"",""110341""
","""event"",""trial"",""time""
""blur"",""7"",""109382""
""blur"",""7"",""109964""
","""event"",""trial"",""time""
""focus"",""7"",""109847""
""focus"",""7"",""110341""
","""event"",""trial"",""time""
""fullscreenenter"",""1"",""3061""
","
","","[{""page_index"":0,""viewing_time"":1109.5}]","1109.8000000715256","","","","","","","","","","","","","","","","","","","","","","","",""
"pit-instructions","7","129696","0.0-2.0-3.0","battery-v0.2","","""event"",""trial"",""time""
""fullscreenenter"",""1"",""3061""
""blur"",""7"",""109382""
""focus"",""7"",""109847""
""blur"",""7"",""109964""
""focus"",""7"",""110341""
","""event"",""trial"",""time""
""blur"",""7"",""109382""
""blur"",""7"",""109964""
","""event"",""trial"",""time""
""focus"",""7"",""109847""
""focus"",""7"",""110341""
","""event"",""trial"",""time""
""fullscreenenter"",""1"",""3061""
","
","","[{""page_index"":0,""viewing_time"":9854.399999976158},{""page_index"":1,""viewing_time"":7637.399999976158},{""page_index"":2,""viewing_time"":6720.900000095367},{""page_index"":3,""viewing_time"":7137.399999976158},{""page_index"":4,""viewing_time"":9909.799999952316},{""page_index"":5,""viewing_time"":5676.5},{""page_index"":6,""viewing_time"":8737.200000047684},{""page_index"":7,""viewing_time"":8986.699999928474},{""page_index"":8,""viewing_time"":6873},{""page_index"":9,""viewing_time"":8497.5},{""page_index"":10,""viewing_time"":7375.800000071526},{""page_index"":11,""viewing_time"":8469},{""page_index"":12,""viewing_time"":7636.699999928474},{""page_index"":13,""viewing_time"":4685.400000095367}]","108198.79999995232","","","","","","","","","","","","","","","","","","","","","","","",""
"pit-trial","8","133034","0.0-2.0-4.0-0.0","battery-v0.2","","""event"",""trial"",""time""
""fullscreenenter"",""1"",""3061""
""blur"",""7"",""109382""
""focus"",""7"",""109847""
""blur"",""7"",""109964""
""focus"",""7"",""110341""
","""event"",""trial"",""time""
""blur"",""7"",""109382""
""blur"",""7"",""109964""
","""event"",""trial"",""time""
""focus"",""7"",""109847""
""focus"",""7"",""110341""
","""event"",""trial"",""time""
""fullscreenenter"",""1"",""3061""
","
","","","475.60000002384186","","","13","3336","2608","&#9784;","elianto","#FFFFF080"," "," ","1","&#10004","[1327.5]","1","0","0","","","","","","","",""
"pit-trial","9","136212","0.0-2.0-4.1-0.1","battery-v0.2","","""event"",""trial"",""time""
""fullscreenenter"",""1"",""3061""
""blur"",""7"",""109382""
""focus"",""7"",""109847""
""blur"",""7"",""109964""
""focus"",""7"",""110341""
","""event"",""trial"",""time""
""blur"",""7"",""109382""
""blur"",""7"",""109964""
","""event"",""trial"",""time""
""focus"",""7"",""109847""
""focus"",""7"",""110341""
","""event"",""trial"",""time""
""fullscreenenter"",""1"",""3061""
","
","","","316","","","13","3336","2608","&#9784;","elianto","#FFFFF080"," "," ","1","&#10004","[1166.3999999761581]","1","0","0","","","","","","","",""
"pit-trial","10","139398","0.0-2.0-4.2-0.2","battery-v0.2","","""event"",""trial"",""time""
""fullscreenenter"",""1"",""3061""
""blur"",""7"",""109382""
""focus"",""7"",""109847""
""blur"",""7"",""109964""
""focus"",""7"",""110341""
","""event"",""trial"",""time""
""blur"",""7"",""109382""
""blur"",""7"",""109964""
","""event"",""trial"",""time""
""focus"",""7"",""109847""
""focus"",""7"",""110341""
","""event"",""trial"",""time""
""fullscreenenter"",""1"",""3061""
","
","","","328.1999999284744","","","13","3336","2608","&#9784;","elianto","#FFFFF080"," "," ","1","&#10004","[1178.7000000476837]","1","0","0","","","","","","","",""
"pit-trial","11","142617","0.0-2.0-4.3-0.3","battery-v0.2","","""event"",""trial"",""time""
""fullscreenenter"",""1"",""3061""
""blur"",""7"",""109382""
""focus"",""7"",""109847""
""blur"",""7"",""109964""
""focus"",""7"",""110341""
","""event"",""trial"",""time""
""blur"",""7"",""109382""
""blur"",""7"",""109964""
","""event"",""trial"",""time""
""focus"",""7"",""109847""
""focus"",""7"",""110341""
","""event"",""trial"",""time""
""fullscreenenter"",""1"",""3061""
","
","","","357.10000002384186","","","13","3336","2608","&#9784;","elianto","#FFFFF080"," "," ","1","&#10004","[1208.0999999046326]","1","0","0","","","","","","","",""
"pit-trial","12","145819","0.0-2.0-4.4-0.4","battery-v0.2","","""event"",""trial"",""time""
""fullscreenenter"",""1"",""3061""
""blur"",""7"",""109382""
""focus"",""7"",""109847""
""blur"",""7"",""109964""
""focus"",""7"",""110341""
","""event"",""trial"",""time""
""blur"",""7"",""109382""
""blur"",""7"",""109964""
","""event"",""trial"",""time""
""focus"",""7"",""109847""
""focus"",""7"",""110341""
","""event"",""trial"",""time""
""fullscreenenter"",""1"",""3061""
","
","","","343","","","13","3336","2608","&#9784;","elianto","#FFFFF080"," "," ","1","&#10004","[1193.5]","1","0","0","","","","","","","",""
"pit-instructions","13","190673","0.0-2.0-5.0","battery-v0.2","","""event"",""trial"",""time""
""fullscreenenter"",""1"",""3061""
""blur"",""7"",""109382""
""focus"",""7"",""109847""
""blur"",""7"",""109964""
""focus"",""7"",""110341""
","""event"",""trial"",""time""
""blur"",""7"",""109382""
""blur"",""7"",""109964""
","""event"",""trial"",""time""
""focus"",""7"",""109847""
""focus"",""7"",""110341""
","""event"",""trial"",""time""
""fullscreenenter"",""1"",""3061""
","
","","[{""page_index"":0,""viewing_time"":29356.899999976158},{""page_index"":1,""viewing_time"":5627},{""page_index"":2,""viewing_time"":4764.899999976158},{""page_index"":3,""viewing_time"":5098.200000047684}]","44847.700000047684","","","","","","","","","","","","","","","","","","","","","","","",""
"pit-trial","14","195538","0.0-2.0-6.0-0.0","battery-v0.2","","""event"",""trial"",""time""
""fullscreenenter"",""1"",""3061""
""blur"",""7"",""109382""
""focus"",""7"",""109847""
""blur"",""7"",""109964""
""focus"",""7"",""110341""
","""event"",""trial"",""time""
""blur"",""7"",""109382""
""blur"",""7"",""109964""
","""event"",""trial"",""time""
""focus"",""7"",""109847""
""focus"",""7"",""110341""
","""event"",""trial"",""time""
""fullscreenenter"",""1"",""3061""
","
","","","-1","","","13","3336","2608","&#9854;","elianto","#FFFFF080","-1","-1","1","&#10004","[]","0","0","1","","","","","","","",""
"pit-trial","15","200405","0.0-2.0-6.1-0.1","battery-v0.2","","""event"",""trial"",""time""
""fullscreenenter"",""1"",""3061""
""blur"",""7"",""109382""
""focus"",""7"",""109847""
""blur"",""7"",""109964""
""focus"",""7"",""110341""
","""event"",""trial"",""time""
""blur"",""7"",""109382""
""blur"",""7"",""109964""
","""event"",""trial"",""time""
""focus"",""7"",""109847""
""focus"",""7"",""110341""
","""event"",""trial"",""time""
""fullscreenenter"",""1"",""3061""
","
","","","-1","","","13","3336","2608","&#9854;","elianto","#FFFFF080","-1","-1","1","&#10004","[]","0","0","1","","","","","","","",""
"pit-trial","16","205264","0.0-2.0-6.2-0.2","battery-v0.2","","""event"",""trial"",""time""
""fullscreenenter"",""1"",""3061""
""blur"",""7"",""109382""
""focus"",""7"",""109847""
""blur"",""7"",""109964""
""focus"",""7"",""110341""
","""event"",""trial"",""time""
""blur"",""7"",""109382""
""blur"",""7"",""109964""
","""event"",""trial"",""time""
""focus"",""7"",""109847""
""focus"",""7"",""110341""
","""event"",""trial"",""time""
""fullscreenenter"",""1"",""3061""
","
","","","-1","","","13","3336","2608","&#9854;","elianto","#FFFFF080","-1","-1","1","&#10004","[]","0","0","1","","","","","","","",""
"pit-trial","17","210130","0.0-2.0-6.3-0.3","battery-v0.2","","""event"",""trial"",""time""
""fullscreenenter"",""1"",""3061""
""blur"",""7"",""109382""
""focus"",""7"",""109847""
""blur"",""7"",""109964""
""focus"",""7"",""110341""
","""event"",""trial"",""time""
""blur"",""7"",""109382""
""blur"",""7"",""109964""
","""event"",""trial"",""time""
""focus"",""7"",""109847""
""focus"",""7"",""110341""
","""event"",""trial"",""time""
""fullscreenenter"",""1"",""3061""
","
","","","-1","","","13","3336","2608","&#9854;","elianto","#FFFFF080","-1","-1","1","&#10004","[]","0","0","1","","","","","","","",""
"pit-trial","18","214995","0.0-2.0-6.4-0.4","battery-v0.2","","""event"",""trial"",""time""
""fullscreenenter"",""1"",""3061""
""blur"",""7"",""109382""
""focus"",""7"",""109847""
""blur"",""7"",""109964""
""focus"",""7"",""110341""
","""event"",""trial"",""time""
""blur"",""7"",""109382""
""blur"",""7"",""109964""
","""event"",""trial"",""time""
""focus"",""7"",""109847""
""focus"",""7"",""110341""
","""event"",""trial"",""time""
""fullscreenenter"",""1"",""3061""
","
","","","-1","","","13","3336","2608","&#9854;","elianto","#FFFFF080","-1","-1","1","&#10004","[]","0","0","1","","","","","","","",""
"pit-instructions","19","372991","0.0-2.0-7.0","battery-v0.2","","""event"",""trial"",""time""
""fullscreenenter"",""1"",""3061""
""blur"",""7"",""109382""
""focus"",""7"",""109847""
""blur"",""7"",""109964""
""focus"",""7"",""110341""
","""event"",""trial"",""time""
""blur"",""7"",""109382""
""blur"",""7"",""109964""
","""event"",""trial"",""time""
""focus"",""7"",""109847""
""focus"",""7"",""110341""
","""event"",""trial"",""time""
""fullscreenenter"",""1"",""3061""
","
","","[{""page_index"":0,""viewing_time"":5799.899999976158},{""page_index"":1,""viewing_time"":8401.600000023842},{""page_index"":2,""viewing_time"":7001.700000047684},{""page_index"":3,""viewing_time"":6236.100000023842},{""page_index"":4,""viewing_time"":6347.5},{""page_index"":5,""viewing_time"":10510.199999928474},{""page_index"":6,""viewing_time"":32102},{""page_index"":7,""viewing_time"":9635},{""page_index"":8,""viewing_time"":7808.899999976158},{""page_index"":9,""viewing_time"":6907.900000095367},{""page_index"":10,""viewing_time"":7817.799999952316},{""page_index"":11,""viewing_time"":5987.299999952316},{""page_index"":12,""viewing_time"":7832.700000047684},{""page_index"":13,""viewing_time"":7641.5},{""page_index"":14,""viewing_time"":8032.899999976158},{""page_index"":15,""viewing_time"":6339.600000023842},{""page_index"":16,""viewing_time"":6074.799999952316},{""page_index"":17,""viewing_time"":7510.800000071526}]","157989.5","","","","","","","","","","","","","","","","","","","","","","","",""
"pit-trial","20","376264","0.0-2.0-8.0-0.0","battery-v0.2","","""event"",""trial"",""time""
""fullscreenenter"",""1"",""3061""
""blur"",""7"",""109382""
""focus"",""7"",""109847""
""blur"",""7"",""109964""
""focus"",""7"",""110341""
","""event"",""trial"",""time""
""blur"",""7"",""109382""
""blur"",""7"",""109964""
","""event"",""trial"",""time""
""focus"",""7"",""109847""
""focus"",""7"",""110341""
","""event"",""trial"",""time""
""fullscreenenter"",""1"",""3061""
","
","","","412.89999997615814","","","13","3336","2608","&#9776;","elianto","#3366ff99"," "," ","1","+10","[1263.3999999761581]","1","0","1","","","","","","","",""
"pit-trial","21","381126","0.0-2.0-8.0-1.0","battery-v0.2","","""event"",""trial"",""time""
""fullscreenenter"",""1"",""3061""
""blur"",""7"",""109382""
""focus"",""7"",""109847""
""blur"",""7"",""109964""
""focus"",""7"",""110341""
","""event"",""trial"",""time""
""blur"",""7"",""109382""
""blur"",""7"",""109964""
","""event"",""trial"",""time""
""focus"",""7"",""109847""
""focus"",""7"",""110341""
","""event"",""trial"",""time""
""fullscreenenter"",""1"",""3061""
","
","","","-1","","","13","3336","2608","&#9776;","elianto","#3366ff99"," ","-1","0","0","[2994.2000000476837]","1","0","1","","","","","","","",""
"pit-trial","22","384283","0.0-2.0-8.0-2.0","battery-v0.2","","""event"",""trial"",""time""
""fullscreenenter"",""1"",""3061""
""blur"",""7"",""109382""
""focus"",""7"",""109847""
""blur"",""7"",""109964""
""focus"",""7"",""110341""
","""event"",""trial"",""time""
""blur"",""7"",""109382""
""blur"",""7"",""109964""
","""event"",""trial"",""time""
""focus"",""7"",""109847""
""focus"",""7"",""110341""
","""event"",""trial"",""time""
""fullscreenenter"",""1"",""3061""
","
","","","296","","","13","3336","2608","&#9776;","elianto","#3366ff99"," "," ","1","+10","[1146.5]","1","0","1","","","","","","","",""
"pit-trial","23","387324","0.0-2.0-8.0-3.0","battery-v0.2","","""event"",""trial"",""time""
""fullscreenenter"",""1"",""3061""
""blur"",""7"",""109382""
""focus"",""7"",""109847""
""blur"",""7"",""109964""
""focus"",""7"",""110341""
","""event"",""trial"",""time""
""blur"",""7"",""109382""
""blur"",""7"",""109964""
","""event"",""trial"",""time""
""focus"",""7"",""109847""
""focus"",""7"",""110341""
","""event"",""trial"",""time""
""fullscreenenter"",""1"",""3061""
","
","","","179.70000004768372","","","13","3336","2608","&#9776;","elianto","#3366ff99"," "," ","1","0","[1032.5]","1","0","1","","","","","","","",""
"pit-trial","24","390227","0.0-2.0-8.0-4.0","battery-v0.2","","""event"",""trial"",""time""
""fullscreenenter"",""1"",""3061""
""blur"",""7"",""109382""
""focus"",""7"",""109847""
""blur"",""7"",""109964""
""focus"",""7"",""110341""
","""event"",""trial"",""time""
""blur"",""7"",""109382""
""blur"",""7"",""109964""
","""event"",""trial"",""time""
""focus"",""7"",""109847""
""focus"",""7"",""110341""
","""event"",""trial"",""time""
""fullscreenenter"",""1"",""3061""
","
","","","42.40000009536743","","","13","3336","2608","&#9776;","elianto","#3366ff99"," "," ","1","+10","[892.5]","1","0","1","","","","","","","",""
"pit-trial","25","393191","0.0-2.0-8.1-0.1","battery-v0.2","","""event"",""trial"",""time""
""fullscreenenter"",""1"",""3061""
""blur"",""7"",""109382""
""focus"",""7"",""109847""
""blur"",""7"",""109964""
""focus"",""7"",""110341""
","""event"",""trial"",""time""
""blur"",""7"",""109382""
""blur"",""7"",""109964""
","""event"",""trial"",""time""
""focus"",""7"",""109847""
""focus"",""7"",""110341""
","""event"",""trial"",""time""
""fullscreenenter"",""1"",""3061""
","
","","","101.90000009536743","","","13","3336","2608","&#9776;","elianto","#3366ff99"," "," ","1","+10","[953.8000000715256]","1","0","1","","","","","","","",""
"pit-trial","26","396080","0.0-2.0-8.1-1.1","battery-v0.2","","""event"",""trial"",""time""
""fullscreenenter"",""1"",""3061""
""blur"",""7"",""109382""
""focus"",""7"",""109847""
""blur"",""7"",""109964""
""focus"",""7"",""110341""
","""event"",""trial"",""time""
""blur"",""7"",""109382""
""blur"",""7"",""109964""
","""event"",""trial"",""time""
""focus"",""7"",""109847""
""focus"",""7"",""110341""
","""event"",""trial"",""time""
""fullscreenenter"",""1"",""3061""
","
","","","34.5","","","13","3336","2608","&#9776;","elianto","#3366ff99"," "," ","1","+10","[885.3999999761581]","1","0","1","","","","","","","",""
"pit-trial","27","399162","0.0-2.0-8.1-2.1","battery-v0.2","","""event"",""trial"",""time""
""fullscreenenter"",""1"",""3061""
""blur"",""7"",""109382""
""focus"",""7"",""109847""
""blur"",""7"",""109964""
""focus"",""7"",""110341""
","""event"",""trial"",""time""
""blur"",""7"",""109382""
""blur"",""7"",""109964""
","""event"",""trial"",""time""
""focus"",""7"",""109847""
""focus"",""7"",""110341""
","""event"",""trial"",""time""
""fullscreenenter"",""1"",""3061""
","
","","","224.89999997615814","","","13","3336","2608","&#9776;","elianto","#3366ff99"," "," ","1","+10","[1077.3999999761581]","1","0","1","","","","","","","",""
"pit-trial","28","402149","0.0-2.0-8.1-3.1","battery-v0.2","","""event"",""trial"",""time""
""fullscreenenter"",""1"",""3061""
""blur"",""7"",""109382""
""focus"",""7"",""109847""
""blur"",""7"",""109964""
""focus"",""7"",""110341""
","""event"",""trial"",""time""
""blur"",""7"",""109382""
""blur"",""7"",""109964""
","""event"",""trial"",""time""
""focus"",""7"",""109847""
""focus"",""7"",""110341""
","""event"",""trial"",""time""
""fullscreenenter"",""1"",""3061""
","
","","","130.69999992847443","","","13","3336","2608","&#9776;","elianto","#3366ff99"," "," ","1","0","[982.7999999523163]","1","0","1","","","","","","","",""
"pit-trial","29","405239","0.0-2.0-8.1-4.1","battery-v0.2","","""event"",""trial"",""time""
""fullscreenenter"",""1"",""3061""
""blur"",""7"",""109382""
""focus"",""7"",""109847""
""blur"",""7"",""109964""
""focus"",""7"",""110341""
","""event"",""trial"",""time""
""blur"",""7"",""109382""
""blur"",""7"",""109964""
","""event"",""trial"",""time""
""focus"",""7"",""109847""
""focus"",""7"",""110341""
","""event"",""trial"",""time""
""fullscreenenter"",""1"",""3061""
","
","","","234.39999997615814","","","13","3336","2608","&#9776;","elianto","#3366ff99"," "," ","1","+10","[1085.7000000476837]","1","0","1","","","","","","","",""
"call-function","30","405244","0.0-2.0-9.0","battery-v0.2","","""event"",""trial"",""time""
""fullscreenenter"",""1"",""3061""
""blur"",""7"",""109382""
""focus"",""7"",""109847""
""blur"",""7"",""109964""
""focus"",""7"",""110341""
","""event"",""trial"",""time""
""blur"",""7"",""109382""
""blur"",""7"",""109964""
","""event"",""trial"",""time""
""focus"",""7"",""109847""
""focus"",""7"",""110341""
","""event"",""trial"",""time""
""fullscreenenter"",""1"",""3061""
","
","","","","","","","","","","","","","","","","","","","","","","","","","","",""
"pit-instructions","31","444196","0.0-2.0-10.0","battery-v0.2","","""event"",""trial"",""time""
""fullscreenenter"",""1"",""3061""
""blur"",""7"",""109382""
""focus"",""7"",""109847""
""blur"",""7"",""109964""
""focus"",""7"",""110341""
","""event"",""trial"",""time""
""blur"",""7"",""109382""
""blur"",""7"",""109964""
","""event"",""trial"",""time""
""focus"",""7"",""109847""
""focus"",""7"",""110341""
","""event"",""trial"",""time""
""fullscreenenter"",""1"",""3061""
","
","","[{""page_index"":0,""viewing_time"":5615.800000071526},{""page_index"":1,""viewing_time"":7409.600000023842},{""page_index"":2,""viewing_time"":9714.699999928474},{""page_index"":3,""viewing_time"":8796.5},{""page_index"":4,""viewing_time"":7411.899999976158}]","38950.10000002384","","","","","","","","","","","","","","","","","","","","","","","",""
"pit-trial","32","449057","0.0-2.0-11.0-0.0","battery-v0.2","","""event"",""trial"",""time""
""fullscreenenter"",""1"",""3061""
""blur"",""7"",""109382""
""focus"",""7"",""109847""
""blur"",""7"",""109964""
""focus"",""7"",""110341""
","""event"",""trial"",""time""
""blur"",""7"",""109382""
""blur"",""7"",""109964""
","""event"",""trial"",""time""
""focus"",""7"",""109847""
""focus"",""7"",""110341""
","""event"",""trial"",""time""
""fullscreenenter"",""1"",""3061""
","
","","","-1","","","13","3336","2608","&#9761;","elianto","#3366ff99","-1","-1","1","+10","[]","0","0","2","","","","","","","",""
"pit-trial","33","452239","0.0-2.0-11.0-1.0","battery-v0.2","","""event"",""trial"",""time""
""fullscreenenter"",""1"",""3061""
""blur"",""7"",""109382""
""focus"",""7"",""109847""
""blur"",""7"",""109964""
""focus"",""7"",""110341""
","""event"",""trial"",""time""
""blur"",""7"",""109382""
""blur"",""7"",""109964""
","""event"",""trial"",""time""
""focus"",""7"",""109847""
""focus"",""7"",""110341""
","""event"",""trial"",""time""
""fullscreenenter"",""1"",""3061""
","
","","","323.7999999523163","","","13","3336","2608","&#9761;","elianto","#3366ff99","-1"," ","0","0","[1174.0999999046326]","1","0","2","","","","","","","",""
"pit-trial","34","455237","0.0-2.0-11.0-2.0","battery-v0.2","","""event"",""trial"",""time""
""fullscreenenter"",""1"",""3061""
""blur"",""7"",""109382""
""focus"",""7"",""109847""
""blur"",""7"",""109964""
""focus"",""7"",""110341""
","""event"",""trial"",""time""
""blur"",""7"",""109382""
""blur"",""7"",""109964""
","""event"",""trial"",""time""
""focus"",""7"",""109847""
""focus"",""7"",""110341""
","""event"",""trial"",""time""
""fullscreenenter"",""1"",""3061""
","
","","","138.59999990463257","","","13","3336","2608","&#9761;","elianto","#3366ff99","-1"," ","0","0","[988.8999999761581]","1","0","2","","","","","","","",""
"pit-trial","35","458293","0.0-2.0-11.0-3.0","battery-v0.2","","""event"",""trial"",""time""
""fullscreenenter"",""1"",""3061""
""blur"",""7"",""109382""
""focus"",""7"",""109847""
""blur"",""7"",""109964""
""focus"",""7"",""110341""
","""event"",""trial"",""time""
""blur"",""7"",""109382""
""blur"",""7"",""109964""
","""event"",""trial"",""time""
""focus"",""7"",""109847""
""focus"",""7"",""110341""
","""event"",""trial"",""time""
""fullscreenenter"",""1"",""3061""
","
","","","196.10000002384186","","","13","3336","2608","&#9761;","elianto","#3366ff99","-1"," ","0","+10","[1046.6000000238419]","1","0","2","","","","","","","",""
"pit-trial","36","461251","0.0-2.0-11.0-4.0","battery-v0.2","","""event"",""trial"",""time""
""fullscreenenter"",""1"",""3061""
""blur"",""7"",""109382""
""focus"",""7"",""109847""
""blur"",""7"",""109964""
""focus"",""7"",""110341""
","""event"",""trial"",""time""
""blur"",""7"",""109382""
""blur"",""7"",""109964""
","""event"",""trial"",""time""
""focus"",""7"",""109847""
""focus"",""7"",""110341""
","""event"",""trial"",""time""
""fullscreenenter"",""1"",""3061""
","
","","","101.20000004768372","","","13","3336","2608","&#9761;","elianto","#3366ff99","-1"," ","0","0","[952.2999999523163]","1","0","2","","","","","","","",""
"pit-trial","37","464192","0.0-2.0-11.1-0.1","battery-v0.2","","""event"",""trial"",""time""
""fullscreenenter"",""1"",""3061""
""blur"",""7"",""109382""
""focus"",""7"",""109847""
""blur"",""7"",""109964""
""focus"",""7"",""110341""
","""event"",""trial"",""time""
""blur"",""7"",""109382""
""blur"",""7"",""109964""
","""event"",""trial"",""time""
""focus"",""7"",""109847""
""focus"",""7"",""110341""
","""event"",""trial"",""time""
""fullscreenenter"",""1"",""3061""
","
","","","78.30000007152557","","","13","3336","2608","&#9761;","elianto","#3366ff99","-1"," ","0","0","[928.7000000476837]","1","0","2","","","","","","","",""
"pit-trial","38","467075","0.0-2.0-11.1-1.1","battery-v0.2","","""event"",""trial"",""time""
""fullscreenenter"",""1"",""3061""
""blur"",""7"",""109382""
""focus"",""7"",""109847""
""blur"",""7"",""109964""
""focus"",""7"",""110341""
","""event"",""trial"",""time""
""blur"",""7"",""109382""
""blur"",""7"",""109964""
","""event"",""trial"",""time""
""focus"",""7"",""109847""
""focus"",""7"",""110341""
","""event"",""trial"",""time""
""fullscreenenter"",""1"",""3061""
","
","","","21.90000009536743","","","13","3336","2608","&#9761;","elianto","#3366ff99","-1"," ","0","0","[873]","1","0","2","","","","","","","",""
"pit-trial","39","471941","0.0-2.0-11.1-2.1","battery-v0.2","","""event"",""trial"",""time""
""fullscreenenter"",""1"",""3061""
""blur"",""7"",""109382""
""focus"",""7"",""109847""
""blur"",""7"",""109964""
""focus"",""7"",""110341""
","""event"",""trial"",""time""
""blur"",""7"",""109382""
""blur"",""7"",""109964""
","""event"",""trial"",""time""
""focus"",""7"",""109847""
""focus"",""7"",""110341""
","""event"",""trial"",""time""
""fullscreenenter"",""1"",""3061""
","
","","","-1","","","13","3336","2608","&#9761;","elianto","#3366ff99","-1","-1","1","+10","[]","0","0","2","","","","","","","",""
"pit-trial","40","475027","0.0-2.0-11.1-3.1","battery-v0.2","","""event"",""trial"",""time""
""fullscreenenter"",""1"",""3061""
""blur"",""7"",""109382""
""focus"",""7"",""109847""
""blur"",""7"",""109964""
""focus"",""7"",""110341""
","""event"",""trial"",""time""
""blur"",""7"",""109382""
""blur"",""7"",""109964""
","""event"",""trial"",""time""
""focus"",""7"",""109847""
""focus"",""7"",""110341""
","""event"",""trial"",""time""
""fullscreenenter"",""1"",""3061""
","
","","","226.39999997615814","","","13","3336","2608","&#9761;","elianto","#3366ff99","-1"," ","0","+10","[1076.8000000715256]","1","0","2","","","","","","","",""
"pit-trial","41","478018","0.0-2.0-11.1-4.1","battery-v0.2","","""event"",""trial"",""time""
""fullscreenenter"",""1"",""3061""
""blur"",""7"",""109382""
""focus"",""7"",""109847""
""blur"",""7"",""109964""
""focus"",""7"",""110341""
","""event"",""trial"",""time""
""blur"",""7"",""109382""
""blur"",""7"",""109964""
","""event"",""trial"",""time""
""focus"",""7"",""109847""
""focus"",""7"",""110341""
","""event"",""trial"",""time""
""fullscreenenter"",""1"",""3061""
","
","","","130.69999992847443","","","13","3336","2608","&#9761;","elianto","#3366ff99","-1"," ","0","0","[981.6000000238419]","1","0","2","","","","","","","",""
"pit-trial","42","480939","0.0-2.0-11.2-0.2","battery-v0.2","","""event"",""trial"",""time""
""fullscreenenter"",""1"",""3061""
""blur"",""7"",""109382""
""focus"",""7"",""109847""
""blur"",""7"",""109964""
""focus"",""7"",""110341""
","""event"",""trial"",""time""
""blur"",""7"",""109382""
""blur"",""7"",""109964""
","""event"",""trial"",""time""
""focus"",""7"",""109847""
""focus"",""7"",""110341""
","""event"",""trial"",""time""
""fullscreenenter"",""1"",""3061""
","
","","","61.700000047683716","","","13","3336","2608","&#9761;","elianto","#3366ff99","-1"," ","0","0","[912.3000000715256]","1","0","2","","","","","","","",""
"pit-trial","43","485799","0.0-2.0-11.2-1.2","battery-v0.2","","""event"",""trial"",""time""
""fullscreenenter"",""1"",""3061""
""blur"",""7"",""109382""
""focus"",""7"",""109847""
""blur"",""7"",""109964""
""focus"",""7"",""110341""
","""event"",""trial"",""time""
""blur"",""7"",""109382""
""blur"",""7"",""109964""
","""event"",""trial"",""time""
""focus"",""7"",""109847""
""focus"",""7"",""110341""
","""event"",""trial"",""time""
""fullscreenenter"",""1"",""3061""
","
","","","-1","","","13","3336","2608","&#9761;","elianto","#3366ff99","-1","-1","1","+10","[3881.399999976158]","1","0","2","","","","","","","",""
"pit-trial","44","488938","0.0-2.0-11.2-2.2","battery-v0.2","","""event"",""trial"",""time""
""fullscreenenter"",""1"",""3061""
""blur"",""7"",""109382""
""focus"",""7"",""109847""
""blur"",""7"",""109964""
""focus"",""7"",""110341""
","""event"",""trial"",""time""
""blur"",""7"",""109382""
""blur"",""7"",""109964""
","""event"",""trial"",""time""
""focus"",""7"",""109847""
""focus"",""7"",""110341""
","""event"",""trial"",""time""
""fullscreenenter"",""1"",""3061""
","
","","","280.90000009536743","","","13","3336","2608","&#9761;","elianto","#3366ff99","-1"," ","0","0","[1133.7000000476837]","1","0","2","","","","","","","",""
"pit-trial","45","492066","0.0-2.0-11.2-3.2","battery-v0.2","","""event"",""trial"",""time""
""fullscreenenter"",""1"",""3061""
""blur"",""7"",""109382""
""focus"",""7"",""109847""
""blur"",""7"",""109964""
""focus"",""7"",""110341""
","""event"",""trial"",""time""
""blur"",""7"",""109382""
""blur"",""7"",""109964""
","""event"",""trial"",""time""
""focus"",""7"",""109847""
""focus"",""7"",""110341""
","""event"",""trial"",""time""
""fullscreenenter"",""1"",""3061""
","
","","","272.2000000476837","","","13","3336","2608","&#9761;","elianto","#3366ff99","-1"," ","0","+10","[1122.2999999523163]","1","0","2","","","","","","","",""
"pit-trial","46","495131","0.0-2.0-11.2-4.2","battery-v0.2","","""event"",""trial"",""time""
""fullscreenenter"",""1"",""3061""
""blur"",""7"",""109382""
""focus"",""7"",""109847""
""blur"",""7"",""109964""
""focus"",""7"",""110341""
","""event"",""trial"",""time""
""blur"",""7"",""109382""
""blur"",""7"",""109964""
","""event"",""trial"",""time""
""focus"",""7"",""109847""
""focus"",""7"",""110341""
","""event"",""trial"",""time""
""fullscreenenter"",""1"",""3061""
","
","","","206.89999997615814","","","13","3336","2608","&#9761;","elianto","#3366ff99","-1"," ","0","0","[1058.6000000238419]","1","0","2","","","","","","","",""
"pit-trial","47","498156","0.0-2.0-11.3-0.3","battery-v0.2","","""event"",""trial"",""time""
""fullscreenenter"",""1"",""3061""
""blur"",""7"",""109382""
""focus"",""7"",""109847""
""blur"",""7"",""109964""
""focus"",""7"",""110341""
","""event"",""trial"",""time""
""blur"",""7"",""109382""
""blur"",""7"",""109964""
","""event"",""trial"",""time""
""focus"",""7"",""109847""
""focus"",""7"",""110341""
","""event"",""trial"",""time""
""fullscreenenter"",""1"",""3061""
","
","","","164.39999997615814","","","13","3336","2608","&#9761;","elianto","#3366ff99","-1"," ","0","0","[1017]","1","0","2","","","","","","","",""
"pit-trial","48","503015","0.0-2.0-11.3-1.3","battery-v0.2","","""event"",""trial"",""time""
""fullscreenenter"",""1"",""3061""
""blur"",""7"",""109382""
""focus"",""7"",""109847""
""blur"",""7"",""109964""
""focus"",""7"",""110341""
","""event"",""trial"",""time""
""blur"",""7"",""109382""
""blur"",""7"",""109964""
","""event"",""trial"",""time""
""focus"",""7"",""109847""
""focus"",""7"",""110341""
","""event"",""trial"",""time""
""fullscreenenter"",""1"",""3061""
","
","","","-1","","","13","3336","2608","&#9761;","elianto","#3366ff99","-1","-1","1","+10","[]","0","0","2","","","","","","","",""
"pit-trial","49","506271","0.0-2.0-11.3-2.3","battery-v0.2","","""event"",""trial"",""time""
""fullscreenenter"",""1"",""3061""
""blur"",""7"",""109382""
""focus"",""7"",""109847""
""blur"",""7"",""109964""
""focus"",""7"",""110341""
","""event"",""trial"",""time""
""blur"",""7"",""109382""
""blur"",""7"",""109964""
","""event"",""trial"",""time""
""focus"",""7"",""109847""
""focus"",""7"",""110341""
","""event"",""trial"",""time""
""fullscreenenter"",""1"",""3061""
","
","","","394.60000002384186","","","13","3336","2608","&#9761;","elianto","#3366ff99","-1"," ","0","0","[1247.2000000476837]","1","0","2","","","","","","","",""
"pit-trial","50","509360","0.0-2.0-11.3-3.3","battery-v0.2","","""event"",""trial"",""time""
""fullscreenenter"",""1"",""3061""
""blur"",""7"",""109382""
""focus"",""7"",""109847""
""blur"",""7"",""109964""
""focus"",""7"",""110341""
","""event"",""trial"",""time""
""blur"",""7"",""109382""
""blur"",""7"",""109964""
","""event"",""trial"",""time""
""focus"",""7"",""109847""
""focus"",""7"",""110341""
","""event"",""trial"",""time""
""fullscreenenter"",""1"",""3061""
","
","","","231","","","13","3336","2608","&#9761;","elianto","#3366ff99","-1"," ","0","+10","[1081.1000000238419]","1","0","2","","","","","","","",""
"pit-trial","51","512299","0.0-2.0-11.3-4.3","battery-v0.2","","""event"",""trial"",""time""
""fullscreenenter"",""1"",""3061""
""blur"",""7"",""109382""
""focus"",""7"",""109847""
""blur"",""7"",""109964""
""focus"",""7"",""110341""
","""event"",""trial"",""time""
""blur"",""7"",""109382""
""blur"",""7"",""109964""
","""event"",""trial"",""time""
""focus"",""7"",""109847""
""focus"",""7"",""110341""
","""event"",""trial"",""time""
""fullscreenenter"",""1"",""3061""
","
","","","81.19999992847443","","","13","3336","2608","&#9761;","elianto","#3366ff99","-1"," ","0","0","[932.2999999523163]","1","0","2","","","","","","","",""
"pit-trial","52","517162","0.0-2.0-11.4-0.4","battery-v0.2","","""event"",""trial"",""time""
""fullscreenenter"",""1"",""3061""
""blur"",""7"",""109382""
""focus"",""7"",""109847""
""blur"",""7"",""109964""
""focus"",""7"",""110341""
","""event"",""trial"",""time""
""blur"",""7"",""109382""
""blur"",""7"",""109964""
","""event"",""trial"",""time""
""focus"",""7"",""109847""
""focus"",""7"",""110341""
","""event"",""trial"",""time""
""fullscreenenter"",""1"",""3061""
","
","","","-1","","","13","3336","2608","&#9761;","elianto","#3366ff99","-1","-1","1","+10","[]","0","0","2","","","","","","","",""
"pit-trial","53","522022","0.0-2.0-11.4-1.4","battery-v0.2","","""event"",""trial"",""time""
""fullscreenenter"",""1"",""3061""
""blur"",""7"",""109382""
""focus"",""7"",""109847""
""blur"",""7"",""109964""
""focus"",""7"",""110341""
","""event"",""trial"",""time""
""blur"",""7"",""109382""
""blur"",""7"",""109964""
","""event"",""trial"",""time""
""focus"",""7"",""109847""
""focus"",""7"",""110341""
","""event"",""trial"",""time""
""fullscreenenter"",""1"",""3061""
","
","","","-1","","","13","3336","2608","&#9761;","elianto","#3366ff99","-1","-1","1","+10","[]","0","0","2","","","","","","","",""
"pit-trial","54","525109","0.0-2.0-11.4-2.4","battery-v0.2","","""event"",""trial"",""time""
""fullscreenenter"",""1"",""3061""
""blur"",""7"",""109382""
""focus"",""7"",""109847""
""blur"",""7"",""109964""
""focus"",""7"",""110341""
","""event"",""trial"",""time""
""blur"",""7"",""109382""
""blur"",""7"",""109964""
","""event"",""trial"",""time""
""focus"",""7"",""109847""
""focus"",""7"",""110341""
","""event"",""trial"",""time""
""fullscreenenter"",""1"",""3061""
","
","","","231.60000002384186","","","13","3336","2608","&#9761;","elianto","#3366ff99","-1"," ","0","0","[1082.0999999046326]","1","0","2","","","","","","","",""
"pit-trial","55","528041","0.0-2.0-11.4-3.4","battery-v0.2","","""event"",""trial"",""time""
""fullscreenenter"",""1"",""3061""
""blur"",""7"",""109382""
""focus"",""7"",""109847""
""blur"",""7"",""109964""
""focus"",""7"",""110341""
","""event"",""trial"",""time""
""blur"",""7"",""109382""
""blur"",""7"",""109964""
","""event"",""trial"",""time""
""focus"",""7"",""109847""
""focus"",""7"",""110341""
","""event"",""trial"",""time""
""fullscreenenter"",""1"",""3061""
","
","","","71.20000004768372","","","13","3336","2608","&#9761;","elianto","#3366ff99","-1"," ","0","+10","[922]","1","0","2","","","","","","","",""
"pit-trial","56","531063","0.0-2.0-11.4-4.4","battery-v0.2","","""event"",""trial"",""time""
""fullscreenenter"",""1"",""3061""
""blur"",""7"",""109382""
""focus"",""7"",""109847""
""blur"",""7"",""109964""
""focus"",""7"",""110341""
","""event"",""trial"",""time""
""blur"",""7"",""109382""
""blur"",""7"",""109964""
","""event"",""trial"",""time""
""focus"",""7"",""109847""
""focus"",""7"",""110341""
","""event"",""trial"",""time""
""fullscreenenter"",""1"",""3061""
","
","","","162.80000007152557","","","13","3336","2608","&#9761;","elianto","#3366ff99","-1"," ","0","0","[1013.3999999761581]","1","0","2","","","","","","","",""
"pit-instructions","57","552083","0.0-2.0-11.4-5.4-0.4","battery-v0.2","","""event"",""trial"",""time""
""fullscreenenter"",""1"",""3061""
""blur"",""7"",""109382""
""focus"",""7"",""109847""
""blur"",""7"",""109964""
""focus"",""7"",""110341""
","""event"",""trial"",""time""
""blur"",""7"",""109382""
""blur"",""7"",""109964""
","""event"",""trial"",""time""
""focus"",""7"",""109847""
""focus"",""7"",""110341""
","""event"",""trial"",""time""
""fullscreenenter"",""1"",""3061""
","
","","[{""page_index"":0,""viewing_time"":6729.899999976158},{""page_index"":1,""viewing_time"":5662.200000047684},{""page_index"":2,""viewing_time"":8623.199999928474}]","21016.399999976158","","","","","","","","","","","","","","","","","","","","","","","",""
"pit-trial","58","555156","0.0-2.0-11.5-0.5","battery-v0.2","","""event"",""trial"",""time""
""fullscreenenter"",""1"",""3061""
""blur"",""7"",""109382""
""focus"",""7"",""109847""
""blur"",""7"",""109964""
""focus"",""7"",""110341""
","""event"",""trial"",""time""
""blur"",""7"",""109382""
""blur"",""7"",""109964""
","""event"",""trial"",""time""
""focus"",""7"",""109847""
""focus"",""7"",""110341""
","""event"",""trial"",""time""
""fullscreenenter"",""1"",""3061""
","
","","","209.79999995231628","","","13","3336","2608","&#9761;","elianto","#3366ff99","-1"," ","0","0","[1062.1000000238419]","1","0","2","","","","","","","",""
"pit-trial","59","558188","0.0-2.0-11.5-1.5","battery-v0.2","","""event"",""trial"",""time""
""fullscreenenter"",""1"",""3061""
""blur"",""7"",""109382""
""focus"",""7"",""109847""
""blur"",""7"",""109964""
""focus"",""7"",""110341""
","""event"",""trial"",""time""
""blur"",""7"",""109382""
""blur"",""7"",""109964""
","""event"",""trial"",""time""
""focus"",""7"",""109847""
""focus"",""7"",""110341""
","""event"",""trial"",""time""
""fullscreenenter"",""1"",""3061""
","
","","","174.10000002384186","","","13","3336","2608","&#9761;","elianto","#3366ff99","-1"," ","0","0","[1024.3000000715256]","1","0","2","","","","","","","",""
"pit-trial","60","561149","0.0-2.0-11.5-2.5","battery-v0.2","","""event"",""trial"",""time""
""fullscreenenter"",""1"",""3061""
""blur"",""7"",""109382""
""focus"",""7"",""109847""
""blur"",""7"",""109964""
""focus"",""7"",""110341""
","""event"",""trial"",""time""
""blur"",""7"",""109382""
""blur"",""7"",""109964""
","""event"",""trial"",""time""
""focus"",""7"",""109847""
""focus"",""7"",""110341""
","""event"",""trial"",""time""
""fullscreenenter"",""1"",""3061""
","
","","","100.89999997615814","","","13","3336","2608","&#9761;","elianto","#3366ff99","-1"," ","0","0","[951]","1","0","2","","","","","","","",""
"pit-trial","61","565061","0.0-2.0-11.5-3.5","battery-v0.2","","""event"",""trial"",""time""
""fullscreenenter"",""1"",""3061""
""blur"",""7"",""109382""
""focus"",""7"",""109847""
""blur"",""7"",""109964""
""focus"",""7"",""110341""
","""event"",""trial"",""time""
""blur"",""7"",""109382""
""blur"",""7"",""109964""
","""event"",""trial"",""time""
""focus"",""7"",""109847""
""focus"",""7"",""110341""
","""event"",""trial"",""time""
""fullscreenenter"",""1"",""3061""
","
","","","1056.2999999523163","","","13","3336","2608","&#9761;","elianto","#3366ff99","-1"," ","0","+10","[1906.2999999523163]","1","0","2","","","","","","","",""
"pit-trial","62","568184","0.0-2.0-11.5-4.5","battery-v0.2","","""event"",""trial"",""time""
""fullscreenenter"",""1"",""3061""
""blur"",""7"",""109382""
""focus"",""7"",""109847""
""blur"",""7"",""109964""
""focus"",""7"",""110341""
","""event"",""trial"",""time""
""blur"",""7"",""109382""
""blur"",""7"",""109964""
","""event"",""trial"",""time""
""focus"",""7"",""109847""
""focus"",""7"",""110341""
","""event"",""trial"",""time""
""fullscreenenter"",""1"",""3061""
","
","","","262.89999997615814","","","13","3336","2608","&#9761;","elianto","#3366ff99","-1"," ","0","0","[1113]","1","0","2","","","","","","","",""
"pit-trial","63","573048","0.0-2.0-11.6-0.6","battery-v0.2","","""event"",""trial"",""time""
""fullscreenenter"",""1"",""3061""
""blur"",""7"",""109382""
""focus"",""7"",""109847""
""blur"",""7"",""109964""
""focus"",""7"",""110341""
","""event"",""trial"",""time""
""blur"",""7"",""109382""
""blur"",""7"",""109964""
","""event"",""trial"",""time""
""focus"",""7"",""109847""
""focus"",""7"",""110341""
","""event"",""trial"",""time""
""fullscreenenter"",""1"",""3061""
","
","","","-1","","","13","3336","2608","&#9761;","elianto","#3366ff99","-1","-1","1","+10","[]","0","0","2","","","","","","","",""
"pit-trial","64","577906","0.0-2.0-11.6-1.6","battery-v0.2","","""event"",""trial"",""time""
""fullscreenenter"",""1"",""3061""
""blur"",""7"",""109382""
""focus"",""7"",""109847""
""blur"",""7"",""109964""
""focus"",""7"",""110341""
","""event"",""trial"",""time""
""blur"",""7"",""109382""
""blur"",""7"",""109964""
","""event"",""trial"",""time""
""focus"",""7"",""109847""
""focus"",""7"",""110341""
","""event"",""trial"",""time""
""fullscreenenter"",""1"",""3061""
","
","","","-1","","","13","3336","2608","&#9761;","elianto","#3366ff99","-1","-1","1","+10","[]","0","0","2","","","","","","","",""
"pit-trial","65","582770","0.0-2.0-11.6-2.6","battery-v0.2","","""event"",""trial"",""time""
""fullscreenenter"",""1"",""3061""
""blur"",""7"",""109382""
""focus"",""7"",""109847""
""blur"",""7"",""109964""
""focus"",""7"",""110341""
","""event"",""trial"",""time""
""blur"",""7"",""109382""
""blur"",""7"",""109964""
","""event"",""trial"",""time""
""focus"",""7"",""109847""
""focus"",""7"",""110341""
","""event"",""trial"",""time""
""fullscreenenter"",""1"",""3061""
","
","","","-1","","","13","3336","2608","&#9761;","elianto","#3366ff99","-1","-1","1","+10","[]","0","0","2","","","","","","","",""
"pit-trial","66","587629","0.0-2.0-11.6-3.6","battery-v0.2","","""event"",""trial"",""time""
""fullscreenenter"",""1"",""3061""
""blur"",""7"",""109382""
""focus"",""7"",""109847""
""blur"",""7"",""109964""
""focus"",""7"",""110341""
","""event"",""trial"",""time""
""blur"",""7"",""109382""
""blur"",""7"",""109964""
","""event"",""trial"",""time""
""focus"",""7"",""109847""
""focus"",""7"",""110341""
","""event"",""trial"",""time""
""fullscreenenter"",""1"",""3061""
","
","","","-1","","","13","3336","2608","&#9761;","elianto","#3366ff99","-1","-1","1","0","[]","0","0","2","","","","","","","",""
"pit-trial","67","592494","0.0-2.0-11.6-4.6","battery-v0.2","","""event"",""trial"",""time""
""fullscreenenter"",""1"",""3061""
""blur"",""7"",""109382""
""focus"",""7"",""109847""
""blur"",""7"",""109964""
""focus"",""7"",""110341""
","""event"",""trial"",""time""
""blur"",""7"",""109382""
""blur"",""7"",""109964""
","""event"",""trial"",""time""
""focus"",""7"",""109847""
""focus"",""7"",""110341""
","""event"",""trial"",""time""
""fullscreenenter"",""1"",""3061""
","
","","","-1","","","13","3336","2608","&#9761;","elianto","#3366ff99","-1","-1","1","+10","[]","0","0","2","","","","","","","",""
"call-function","68","592498","0.0-2.0-12.0","battery-v0.2","","""event"",""trial"",""time""
""fullscreenenter"",""1"",""3061""
""blur"",""7"",""109382""
""focus"",""7"",""109847""
""blur"",""7"",""109964""
""focus"",""7"",""110341""
","""event"",""trial"",""time""
""blur"",""7"",""109382""
""blur"",""7"",""109964""
","""event"",""trial"",""time""
""focus"",""7"",""109847""
""focus"",""7"",""110341""
","""event"",""trial"",""time""
""fullscreenenter"",""1"",""3061""
","
","","","","","","","","","","","","","","","","","","","","","","","","","","",""
"pit-instructions","69","630930","0.0-2.0-13.0","battery-v0.2","","""event"",""trial"",""time""
""fullscreenenter"",""1"",""3061""
""blur"",""7"",""109382""
""focus"",""7"",""109847""
""blur"",""7"",""109964""
""focus"",""7"",""110341""
","""event"",""trial"",""time""
""blur"",""7"",""109382""
""blur"",""7"",""109964""
","""event"",""trial"",""time""
""focus"",""7"",""109847""
""focus"",""7"",""110341""
","""event"",""trial"",""time""
""fullscreenenter"",""1"",""3061""
","
","","[{""page_index"":0,""viewing_time"":9041.899999976158},{""page_index"":1,""viewing_time"":8164.700000047684},{""page_index"":2,""viewing_time"":3331.7999999523163},{""page_index"":3,""viewing_time"":10901.399999976158},{""page_index"":4,""viewing_time"":6990.600000023842}]","38430.89999997616","","","","","","","","","","","","","","","","","","","","","","","",""
"pit-trial","70","635788","0.0-2.0-14.0-0.0","battery-v0.2","","""event"",""trial"",""time""
""fullscreenenter"",""1"",""3061""
""blur"",""7"",""109382""
""focus"",""7"",""109847""
""blur"",""7"",""109964""
""focus"",""7"",""110341""
","""event"",""trial"",""time""
""blur"",""7"",""109382""
""blur"",""7"",""109964""
","""event"",""trial"",""time""
""focus"",""7"",""109847""
""focus"",""7"",""110341""
","""event"",""trial"",""time""
""fullscreenenter"",""1"",""3061""
","
","","","-1","","","13","3336","2608","&#9826;","elianto","#f73b6a7A","-1","-1","1","0","[]","0","0","3","","","","","","","",""
"pit-trial","71","638755","0.0-2.0-14.0-1.0","battery-v0.2","","""event"",""trial"",""time""
""fullscreenenter"",""1"",""3061""
""blur"",""7"",""109382""
""focus"",""7"",""109847""
""blur"",""7"",""109964""
""focus"",""7"",""110341""
","""event"",""trial"",""time""
""blur"",""7"",""109382""
""blur"",""7"",""109964""
","""event"",""trial"",""time""
""focus"",""7"",""109847""
""focus"",""7"",""110341""
","""event"",""trial"",""time""
""fullscreenenter"",""1"",""3061""
","
","","","105.70000004768372","","","13","3336","2608","&#9826;","elianto","#f73b6a7A","-1"," ","0","-10","[956.2999999523163]","1","0","3","","","","","","","",""
"pit-trial","72","641756","0.0-2.0-14.0-2.0","battery-v0.2","","""event"",""trial"",""time""
""fullscreenenter"",""1"",""3061""
""blur"",""7"",""109382""
""focus"",""7"",""109847""
""blur"",""7"",""109964""
""focus"",""7"",""110341""
","""event"",""trial"",""time""
""blur"",""7"",""109382""
""blur"",""7"",""109964""
","""event"",""trial"",""time""
""focus"",""7"",""109847""
""focus"",""7"",""110341""
","""event"",""trial"",""time""
""fullscreenenter"",""1"",""3061""
","
","","","140.79999995231628","","","13","3336","2608","&#9826;","elianto","#f73b6a7A","-1"," ","0","-10","[991.6000000238419]","1","0","3","","","","","","","",""
"pit-trial","73","646620","0.0-2.0-14.0-3.0","battery-v0.2","","""event"",""trial"",""time""
""fullscreenenter"",""1"",""3061""
""blur"",""7"",""109382""
""focus"",""7"",""109847""
""blur"",""7"",""109964""
""focus"",""7"",""110341""
","""event"",""trial"",""time""
""blur"",""7"",""109382""
""blur"",""7"",""109964""
","""event"",""trial"",""time""
""focus"",""7"",""109847""
""focus"",""7"",""110341""
","""event"",""trial"",""time""
""fullscreenenter"",""1"",""3061""
","
","","","-1","","","13","3336","2608","&#9826;","elianto","#f73b6a7A","-1","-1","1","-10","[]","0","0","3","","","","","","","",""
"pit-trial","74","651480","0.0-2.0-14.0-4.0","battery-v0.2","","""event"",""trial"",""time""
""fullscreenenter"",""1"",""3061""
""blur"",""7"",""109382""
""focus"",""7"",""109847""
""blur"",""7"",""109964""
""focus"",""7"",""110341""
","""event"",""trial"",""time""
""blur"",""7"",""109382""
""blur"",""7"",""109964""
","""event"",""trial"",""time""
""focus"",""7"",""109847""
""focus"",""7"",""110341""
","""event"",""trial"",""time""
""fullscreenenter"",""1"",""3061""
","
","","","-1","","","13","3336","2608","&#9826;","elianto","#f73b6a7A","-1","-1","1","0","[]","0","0","3","","","","","","","",""
"pit-trial","75","656344","0.0-2.0-14.1-0.1","battery-v0.2","","""event"",""trial"",""time""
""fullscreenenter"",""1"",""3061""
""blur"",""7"",""109382""
""focus"",""7"",""109847""
""blur"",""7"",""109964""
""focus"",""7"",""110341""
","""event"",""trial"",""time""
""blur"",""7"",""109382""
""blur"",""7"",""109964""
","""event"",""trial"",""time""
""focus"",""7"",""109847""
""focus"",""7"",""110341""
","""event"",""trial"",""time""
""fullscreenenter"",""1"",""3061""
","
","","","-1","","","13","3336","2608","&#9826;","elianto","#f73b6a7A","-1","-1","1","0","[]","0","0","3","","","","","","","",""
"pit-trial","76","661205","0.0-2.0-14.1-1.1","battery-v0.2","","""event"",""trial"",""time""
""fullscreenenter"",""1"",""3061""
""blur"",""7"",""109382""
""focus"",""7"",""109847""
""blur"",""7"",""109964""
""focus"",""7"",""110341""
","""event"",""trial"",""time""
""blur"",""7"",""109382""
""blur"",""7"",""109964""
","""event"",""trial"",""time""
""focus"",""7"",""109847""
""focus"",""7"",""110341""
","""event"",""trial"",""time""
""fullscreenenter"",""1"",""3061""
","
","","","-1","","","13","3336","2608","&#9826;","elianto","#f73b6a7A","-1","-1","1","0","[]","0","0","3","","","","","","","",""
"pit-trial","77","666063","0.0-2.0-14.1-2.1","battery-v0.2","","""event"",""trial"",""time""
""fullscreenenter"",""1"",""3061""
""blur"",""7"",""109382""
""focus"",""7"",""109847""
""blur"",""7"",""109964""
""focus"",""7"",""110341""
","""event"",""trial"",""time""
""blur"",""7"",""109382""
""blur"",""7"",""109964""
","""event"",""trial"",""time""
""focus"",""7"",""109847""
""focus"",""7"",""110341""
","""event"",""trial"",""time""
""fullscreenenter"",""1"",""3061""
","
","","","-1","","","13","3336","2608","&#9826;","elianto","#f73b6a7A","-1","-1","1","0","[]","0","0","3","","","","","","","",""
"pit-trial","78","670922","0.0-2.0-14.1-3.1","battery-v0.2","","""event"",""trial"",""time""
""fullscreenenter"",""1"",""3061""
""blur"",""7"",""109382""
""focus"",""7"",""109847""
""blur"",""7"",""109964""
""focus"",""7"",""110341""
","""event"",""trial"",""time""
""blur"",""7"",""109382""
""blur"",""7"",""109964""
","""event"",""trial"",""time""
""focus"",""7"",""109847""
""focus"",""7"",""110341""
","""event"",""trial"",""time""
""fullscreenenter"",""1"",""3061""
","
","","","-1","","","13","3336","2608","&#9826;","elianto","#f73b6a7A","-1","-1","1","-10","[]","0","0","3","","","","","","","",""
"pit-trial","79","675781","0.0-2.0-14.1-4.1","battery-v0.2","","""event"",""trial"",""time""
""fullscreenenter"",""1"",""3061""
""blur"",""7"",""109382""
""focus"",""7"",""109847""
""blur"",""7"",""109964""
""focus"",""7"",""110341""
","""event"",""trial"",""time""
""blur"",""7"",""109382""
""blur"",""7"",""109964""
","""event"",""trial"",""time""
""focus"",""7"",""109847""
""focus"",""7"",""110341""
","""event"",""trial"",""time""
""fullscreenenter"",""1"",""3061""
","
","","","-1","","","13","3336","2608","&#9826;","elianto","#f73b6a7A","-1","-1","1","0","[]","0","0","3","","","","","","","",""
"call-function","80","675786","0.0-2.0-15.0","battery-v0.2","","""event"",""trial"",""time""
""fullscreenenter"",""1"",""3061""
""blur"",""7"",""109382""
""focus"",""7"",""109847""
""blur"",""7"",""109964""
""focus"",""7"",""110341""
","""event"",""trial"",""time""
""blur"",""7"",""109382""
""blur"",""7"",""109964""
","""event"",""trial"",""time""
""focus"",""7"",""109847""
""focus"",""7"",""110341""
","""event"",""trial"",""time""
""fullscreenenter"",""1"",""3061""
","
","","","","","","","","","","","","","","","","","","","","","","","","","","",""
"pit-instructions","81","706609","0.0-2.0-16.0","battery-v0.2","","""event"",""trial"",""time""
""fullscreenenter"",""1"",""3061""
""blur"",""7"",""109382""
""focus"",""7"",""109847""
""blur"",""7"",""109964""
""focus"",""7"",""110341""
","""event"",""trial"",""time""
""blur"",""7"",""109382""
""blur"",""7"",""109964""
","""event"",""trial"",""time""
""focus"",""7"",""109847""
""focus"",""7"",""110341""
","""event"",""trial"",""time""
""fullscreenenter"",""1"",""3061""
","
","","[{""page_index"":0,""viewing_time"":7563.399999976158},{""page_index"":1,""viewing_time"":8721},{""page_index"":2,""viewing_time"":4849.300000071526},{""page_index"":3,""viewing_time"":9686.5}]","30821.200000047684","","","","","","","","","","","","","","","","","","","","","","","",""
"pit-trial","82","709949","0.0-2.0-17.0-0.0","battery-v0.2","","""event"",""trial"",""time""
""fullscreenenter"",""1"",""3061""
""blur"",""7"",""109382""
""focus"",""7"",""109847""
""blur"",""7"",""109964""
""focus"",""7"",""110341""
","""event"",""trial"",""time""
""blur"",""7"",""109382""
""blur"",""7"",""109964""
","""event"",""trial"",""time""
""focus"",""7"",""109847""
""focus"",""7"",""110341""
","""event"",""trial"",""time""
""fullscreenenter"",""1"",""3061""
","
","","","481.2000000476837","","","13","3336","2608","&#9789;","elianto","#f73b6a7A"," "," ","1","0","[1331.5]","1","0","4","","","","","","","",""
"pit-trial","83","712968","0.0-2.0-17.0-1.0","battery-v0.2","","""event"",""trial"",""time""
""fullscreenenter"",""1"",""3061""
""blur"",""7"",""109382""
""focus"",""7"",""109847""
""blur"",""7"",""109964""
""focus"",""7"",""110341""
","""event"",""trial"",""time""
""blur"",""7"",""109382""
""blur"",""7"",""109964""
","""event"",""trial"",""time""
""focus"",""7"",""109847""
""focus"",""7"",""110341""
","""event"",""trial"",""time""
""fullscreenenter"",""1"",""3061""
","
","","","162.79999995231628","","","13","3336","2608","&#9789;","elianto","#f73b6a7A"," "," ","1","0","[1014.7999999523163]","1","0","4","","","","","","","",""
"pit-trial","84","717828","0.0-2.0-17.0-2.0","battery-v0.2","","""event"",""trial"",""time""
""fullscreenenter"",""1"",""3061""
""blur"",""7"",""109382""
""focus"",""7"",""109847""
""blur"",""7"",""109964""
""focus"",""7"",""110341""
","""event"",""trial"",""time""
""blur"",""7"",""109382""
""blur"",""7"",""109964""
","""event"",""trial"",""time""
""focus"",""7"",""109847""
""focus"",""7"",""110341""
","""event"",""trial"",""time""
""fullscreenenter"",""1"",""3061""
","
","","","-1","","","13","3336","2608","&#9789;","elianto","#f73b6a7A"," ","-1","0","-10","[]","0","0","4","","","","","","","",""
"pit-trial","85","722688","0.0-2.0-17.0-3.0","battery-v0.2","","""event"",""trial"",""time""
""fullscreenenter"",""1"",""3061""
""blur"",""7"",""109382""
""focus"",""7"",""109847""
""blur"",""7"",""109964""
""focus"",""7"",""110341""
","""event"",""trial"",""time""
""blur"",""7"",""109382""
""blur"",""7"",""109964""
","""event"",""trial"",""time""
""focus"",""7"",""109847""
""focus"",""7"",""110341""
","""event"",""trial"",""time""
""fullscreenenter"",""1"",""3061""
","
","","","-1","","","13","3336","2608","&#9789;","elianto","#f73b6a7A"," ","-1","0","0","[]","0","0","4","","","","","","","",""
"pit-trial","86","726001","0.0-2.0-17.0-4.0","battery-v0.2","","""event"",""trial"",""time""
""fullscreenenter"",""1"",""3061""
""blur"",""7"",""109382""
""focus"",""7"",""109847""
""blur"",""7"",""109964""
""focus"",""7"",""110341""
","""event"",""trial"",""time""
""blur"",""7"",""109382""
""blur"",""7"",""109964""
","""event"",""trial"",""time""
""focus"",""7"",""109847""
""focus"",""7"",""110341""
","""event"",""trial"",""time""
""fullscreenenter"",""1"",""3061""
","
","","","451","","","13","3336","2608","&#9789;","elianto","#f73b6a7A"," "," ","1","0","[1302.7000000476837]","1","0","4","","","","","","","",""
"pit-trial","87","729013","0.0-2.0-17.1-0.1","battery-v0.2","","""event"",""trial"",""time""
""fullscreenenter"",""1"",""3061""
""blur"",""7"",""109382""
""focus"",""7"",""109847""
""blur"",""7"",""109964""
""focus"",""7"",""110341""
","""event"",""trial"",""time""
""blur"",""7"",""109382""
""blur"",""7"",""109964""
","""event"",""trial"",""time""
""focus"",""7"",""109847""
""focus"",""7"",""110341""
","""event"",""trial"",""time""
""fullscreenenter"",""1"",""3061""
","
","","","147.60000002384186","","","13","3336","2608","&#9789;","elianto","#f73b6a7A"," "," ","1","0","[1000.3999999761581]","1","0","4","","","","","","","",""
"pit-trial","88","731990","0.0-2.0-17.1-1.1","battery-v0.2","","""event"",""trial"",""time""
""fullscreenenter"",""1"",""3061""
""blur"",""7"",""109382""
""focus"",""7"",""109847""
""blur"",""7"",""109964""
""focus"",""7"",""110341""
","""event"",""trial"",""time""
""blur"",""7"",""109382""
""blur"",""7"",""109964""
","""event"",""trial"",""time""
""focus"",""7"",""109847""
""focus"",""7"",""110341""
","""event"",""trial"",""time""
""fullscreenenter"",""1"",""3061""
","
","","","120.20000004768372","","","13","3336","2608","&#9789;","elianto","#f73b6a7A"," "," ","1","0","[970.8999999761581]","1","0","4","","","","","","","",""
"pit-trial","89","735189","0.0-2.0-17.1-2.1","battery-v0.2","","""event"",""trial"",""time""
""fullscreenenter"",""1"",""3061""
""blur"",""7"",""109382""
""focus"",""7"",""109847""
""blur"",""7"",""109964""
""focus"",""7"",""110341""
","""event"",""trial"",""time""
""blur"",""7"",""109382""
""blur"",""7"",""109964""
","""event"",""trial"",""time""
""focus"",""7"",""109847""
""focus"",""7"",""110341""
","""event"",""trial"",""time""
""fullscreenenter"",""1"",""3061""
","
","","","337.8000000715256","","","13","3336","2608","&#9789;","elianto","#f73b6a7A"," "," ","1","0","[1187.8999999761581]","1","0","4","","","","","","","",""
"pit-trial","90","738080","0.0-2.0-17.1-3.1","battery-v0.2","","""event"",""trial"",""time""
""fullscreenenter"",""1"",""3061""
""blur"",""7"",""109382""
""focus"",""7"",""109847""
""blur"",""7"",""109964""
""focus"",""7"",""110341""
","""event"",""trial"",""time""
""blur"",""7"",""109382""
""blur"",""7"",""109964""
","""event"",""trial"",""time""
""focus"",""7"",""109847""
""focus"",""7"",""110341""
","""event"",""trial"",""time""
""fullscreenenter"",""1"",""3061""
","
","","","33.89999997615814","","","13","3336","2608","&#9789;","elianto","#f73b6a7A"," "," ","1","-10","[884]","1","0","4","","","","","","","",""
"pit-trial","91","741088","0.0-2.0-17.1-4.1","battery-v0.2","","""event"",""trial"",""time""
""fullscreenenter"",""1"",""3061""
""blur"",""7"",""109382""
""focus"",""7"",""109847""
""blur"",""7"",""109964""
""focus"",""7"",""110341""
","""event"",""trial"",""time""
""blur"",""7"",""109382""
""blur"",""7"",""109964""
","""event"",""trial"",""time""
""focus"",""7"",""109847""
""focus"",""7"",""110341""
","""event"",""trial"",""time""
""fullscreenenter"",""1"",""3061""
","
","","","148.79999995231628","","","13","3336","2608","&#9789;","elianto","#f73b6a7A"," "," ","1","0","[999]","1","0","4","","","","","","","",""
"call-function","92","741093","0.0-2.0-18.0","battery-v0.2","","""event"",""trial"",""time""
""fullscreenenter"",""1"",""3061""
""blur"",""7"",""109382""
""focus"",""7"",""109847""
""blur"",""7"",""109964""
""focus"",""7"",""110341""
""blur"",""93"",""783277""
""focus"",""93"",""784397""
","""event"",""trial"",""time""
""blur"",""7"",""109382""
""blur"",""7"",""109964""
""blur"",""93"",""783277""
","""event"",""trial"",""time""
""focus"",""7"",""109847""
""focus"",""7"",""110341""
""focus"",""93"",""784397""
","""event"",""trial"",""time""
""fullscreenenter"",""1"",""3061""
","
","","","","","","","","","","","","","","","","","","","","","","","","","","",""
"pit-instructions","93","840940","0.0-2.0-19.0","battery-v0.2","","""event"",""trial"",""time""
""fullscreenenter"",""1"",""3061""
""blur"",""7"",""109382""
""focus"",""7"",""109847""
""blur"",""7"",""109964""
""focus"",""7"",""110341""
""blur"",""93"",""783277""
""focus"",""93"",""784397""
","""event"",""trial"",""time""
""blur"",""7"",""109382""
""blur"",""7"",""109964""
""blur"",""93"",""783277""
","""event"",""trial"",""time""
""focus"",""7"",""109847""
""focus"",""7"",""110341""
""focus"",""93"",""784397""
","""event"",""trial"",""time""
""fullscreenenter"",""1"",""3061""
","
","","[{""page_index"":0,""viewing_time"":11749},{""page_index"":1,""viewing_time"":8192.700000047684},{""page_index"":2,""viewing_time"":14844.199999928474},{""page_index"":3,""viewing_time"":7447.5},{""page_index"":4,""viewing_time"":13748.300000071526},{""page_index"":5,""viewing_time"":26017.299999952316},{""page_index"":6,""viewing_time"":7891.399999976158},{""page_index"":7,""viewing_time"":6356.5},{""page_index"":8,""viewing_time"":3597.7000000476837}]","99845.79999995232","","","","","","","","","","","","","","","","","","","","","","","",""
"pit-comprehension","94","845047","0.0-2.0-20.0-0.0","battery-v0.2","","""event"",""trial"",""time""
""fullscreenenter"",""1"",""3061""
""blur"",""7"",""109382""
""focus"",""7"",""109847""
""blur"",""7"",""109964""
""focus"",""7"",""110341""
""blur"",""93"",""783277""
""focus"",""93"",""784397""
","""event"",""trial"",""time""
""blur"",""7"",""109382""
""blur"",""7"",""109964""
""blur"",""93"",""783277""
","""event"",""trial"",""time""
""focus"",""7"",""109847""
""focus"",""7"",""110341""
""focus"",""93"",""784397""
","""event"",""trial"",""time""
""fullscreenenter"",""1"",""3061""
","
","","","4099.700000047684","[""SPACE""]","0","13","3336","2608","","","","","","","","","","","","","","","","","","",""
"pit-instructions","95","847508","0.0-2.0-20.0-1.0","battery-v0.2","","""event"",""trial"",""time""
""fullscreenenter"",""1"",""3061""
""blur"",""7"",""109382""
""focus"",""7"",""109847""
""blur"",""7"",""109964""
""focus"",""7"",""110341""
""blur"",""93"",""783277""
""focus"",""93"",""784397""
","""event"",""trial"",""time""
""blur"",""7"",""109382""
""blur"",""7"",""109964""
""blur"",""93"",""783277""
","""event"",""trial"",""time""
""focus"",""7"",""109847""
""focus"",""7"",""110341""
""focus"",""93"",""784397""
","""event"",""trial"",""time""
""fullscreenenter"",""1"",""3061""
","
","","[{""page_index"":0,""viewing_time"":2425.899999976158}]","2427.100000023842","","","","","","","","","","","","","","","","","","","","","","","",""
"pit-comprehension","96","853988","0.0-2.0-21.0-0.0","battery-v0.2","","""event"",""trial"",""time""
""fullscreenenter"",""1"",""3061""
""blur"",""7"",""109382""
""focus"",""7"",""109847""
""blur"",""7"",""109964""
""focus"",""7"",""110341""
""blur"",""93"",""783277""
""focus"",""93"",""784397""
","""event"",""trial"",""time""
""blur"",""7"",""109382""
""blur"",""7"",""109964""
""blur"",""93"",""783277""
","""event"",""trial"",""time""
""focus"",""7"",""109847""
""focus"",""7"",""110341""
""focus"",""93"",""784397""
","""event"",""trial"",""time""
""fullscreenenter"",""1"",""3061""
","
","","","6473.200000047684","[""10""]","0","13","3336","2608","","","","","","","","","","","","","","","","","","",""
"pit-instructions","97","855499","0.0-2.0-21.0-1.0","battery-v0.2","","""event"",""trial"",""time""
""fullscreenenter"",""1"",""3061""
""blur"",""7"",""109382""
""focus"",""7"",""109847""
""blur"",""7"",""109964""
""focus"",""7"",""110341""
""blur"",""93"",""783277""
""focus"",""93"",""784397""
","""event"",""trial"",""time""
""blur"",""7"",""109382""
""blur"",""7"",""109964""
""blur"",""93"",""783277""
","""event"",""trial"",""time""
""focus"",""7"",""109847""
""focus"",""7"",""110341""
""focus"",""93"",""784397""
","""event"",""trial"",""time""
""fullscreenenter"",""1"",""3061""
","
","","[{""page_index"":0,""viewing_time"":1479.3000000715256}]","1479.5","","","","","","","","","","","","","","","","","","","","","","","",""
"pit-comprehension","98","862958","0.0-2.0-22.0-0.0","battery-v0.2","","""event"",""trial"",""time""
""fullscreenenter"",""1"",""3061""
""blur"",""7"",""109382""
""focus"",""7"",""109847""
""blur"",""7"",""109964""
""focus"",""7"",""110341""
""blur"",""93"",""783277""
""focus"",""93"",""784397""
","""event"",""trial"",""time""
""blur"",""7"",""109382""
""blur"",""7"",""109964""
""blur"",""93"",""783277""
","""event"",""trial"",""time""
""focus"",""7"",""109847""
""focus"",""7"",""110341""
""focus"",""93"",""784397""
","""event"",""trial"",""time""
""fullscreenenter"",""1"",""3061""
","
","","","7454.699999928474","[""-10""]","1","13","3336","2608","","","","","","","","","","","","","","","","","","",""
"pit-instructions","99","866119","0.0-2.0-22.0-1.0","battery-v0.2","","""event"",""trial"",""time""
""fullscreenenter"",""1"",""3061""
""blur"",""7"",""109382""
""focus"",""7"",""109847""
""blur"",""7"",""109964""
""focus"",""7"",""110341""
""blur"",""93"",""783277""
""focus"",""93"",""784397""
","""event"",""trial"",""time""
""blur"",""7"",""109382""
""blur"",""7"",""109964""
""blur"",""93"",""783277""
","""event"",""trial"",""time""
""focus"",""7"",""109847""
""focus"",""7"",""110341""
""focus"",""93"",""784397""
","""event"",""trial"",""time""
""fullscreenenter"",""1"",""3061""
","
","","[{""page_index"":0,""viewing_time"":3132.2999999523163}]","3133.100000023842","","","","","","","","","","","","","","","","","","","","","","","",""
"pit-instructions","100","867529","0.0-2.0-22.0-2.0-0.0","battery-v0.2","","""event"",""trial"",""time""
""fullscreenenter"",""1"",""3061""
""blur"",""7"",""109382""
""focus"",""7"",""109847""
""blur"",""7"",""109964""
""focus"",""7"",""110341""
""blur"",""93"",""783277""
""focus"",""93"",""784397""
","""event"",""trial"",""time""
""blur"",""7"",""109382""
""blur"",""7"",""109964""
""blur"",""93"",""783277""
","""event"",""trial"",""time""
""focus"",""7"",""109847""
""focus"",""7"",""110341""
""focus"",""93"",""784397""
","""event"",""trial"",""time""
""fullscreenenter"",""1"",""3061""
","
","","[{""page_index"":0,""viewing_time"":1406}]","1406.6000000238419","","","","","","","","","","","","","","","","","","","","","","","",""
"pit-comprehension","101","873953","0.0-2.0-22.1-0.1","battery-v0.2","","""event"",""trial"",""time""
""fullscreenenter"",""1"",""3061""
""blur"",""7"",""109382""
""focus"",""7"",""109847""
""blur"",""7"",""109964""
""focus"",""7"",""110341""
""blur"",""93"",""783277""
""focus"",""93"",""784397""
","""event"",""trial"",""time""
""blur"",""7"",""109382""
""blur"",""7"",""109964""
""blur"",""93"",""783277""
","""event"",""trial"",""time""
""focus"",""7"",""109847""
""focus"",""7"",""110341""
""focus"",""93"",""784397""
","""event"",""trial"",""time""
""fullscreenenter"",""1"",""3061""
","
","","","6418.399999976158","[""0""]","0","13","3336","2608","","","","","","","","","","","","","","","","","","",""
"pit-instructions","102","876246","0.0-2.0-22.1-1.1","battery-v0.2","","""event"",""trial"",""time""
""fullscreenenter"",""1"",""3061""
""blur"",""7"",""109382""
""focus"",""7"",""109847""
""blur"",""7"",""109964""
""focus"",""7"",""110341""
""blur"",""93"",""783277""
""focus"",""93"",""784397""
","""event"",""trial"",""time""
""blur"",""7"",""109382""
""blur"",""7"",""109964""
""blur"",""93"",""783277""
","""event"",""trial"",""time""
""focus"",""7"",""109847""
""focus"",""7"",""110341""
""focus"",""93"",""784397""
","""event"",""trial"",""time""
""fullscreenenter"",""1"",""3061""
","
","","[{""page_index"":0,""viewing_time"":2257.600000023842}]","2258.600000023842","","","","","","","","","","","","","","","","","","","","","","","",""
"pit-comprehension","103","887060","0.0-2.0-23.0-0.0","battery-v0.2","","""event"",""trial"",""time""
""fullscreenenter"",""1"",""3061""
""blur"",""7"",""109382""
""focus"",""7"",""109847""
""blur"",""7"",""109964""
""focus"",""7"",""110341""
""blur"",""93"",""783277""
""focus"",""93"",""784397""
","""event"",""trial"",""time""
""blur"",""7"",""109382""
""blur"",""7"",""109964""
""blur"",""93"",""783277""
","""event"",""trial"",""time""
""focus"",""7"",""109847""
""focus"",""7"",""110341""
""focus"",""93"",""784397""
","""event"",""trial"",""time""
""fullscreenenter"",""1"",""3061""
","
","","","10809.399999976158","[""False""]","1","13","3336","2608","","","","","","","","","","","","","","","","","","",""
"pit-instructions","104","889844","0.0-2.0-23.0-1.0","battery-v0.2","","""event"",""trial"",""time""
""fullscreenenter"",""1"",""3061""
""blur"",""7"",""109382""
""focus"",""7"",""109847""
""blur"",""7"",""109964""
""focus"",""7"",""110341""
""blur"",""93"",""783277""
""focus"",""93"",""784397""
","""event"",""trial"",""time""
""blur"",""7"",""109382""
""blur"",""7"",""109964""
""blur"",""93"",""783277""
","""event"",""trial"",""time""
""focus"",""7"",""109847""
""focus"",""7"",""110341""
""focus"",""93"",""784397""
","""event"",""trial"",""time""
""fullscreenenter"",""1"",""3061""
","
","","[{""page_index"":0,""viewing_time"":2751.600000023842}]","2752.3000000715256","","","","","","","","","","","","","","","","","","","","","","","",""
"pit-instructions","105","892753","0.0-2.0-23.0-2.0-0.0","battery-v0.2","","""event"",""trial"",""time""
""fullscreenenter"",""1"",""3061""
""blur"",""7"",""109382""
""focus"",""7"",""109847""
""blur"",""7"",""109964""
""focus"",""7"",""110341""
""blur"",""93"",""783277""
""focus"",""93"",""784397""
","""event"",""trial"",""time""
""blur"",""7"",""109382""
""blur"",""7"",""109964""
""blur"",""93"",""783277""
","""event"",""trial"",""time""
""focus"",""7"",""109847""
""focus"",""7"",""110341""
""focus"",""93"",""784397""
","""event"",""trial"",""time""
""fullscreenenter"",""1"",""3061""
","
","","[{""page_index"":0,""viewing_time"":2905.3000000715256}]","2905.600000023842","","","","","","","","","","","","","","","","","","","","","","","",""
"pit-comprehension","106","901093","0.0-2.0-23.1-0.1","battery-v0.2","","""event"",""trial"",""time""
""fullscreenenter"",""1"",""3061""
""blur"",""7"",""109382""
""focus"",""7"",""109847""
""blur"",""7"",""109964""
""focus"",""7"",""110341""
""blur"",""93"",""783277""
""focus"",""93"",""784397""
","""event"",""trial"",""time""
""blur"",""7"",""109382""
""blur"",""7"",""109964""
""blur"",""93"",""783277""
","""event"",""trial"",""time""
""focus"",""7"",""109847""
""focus"",""7"",""110341""
""focus"",""93"",""784397""
","""event"",""trial"",""time""
""fullscreenenter"",""1"",""3061""
","
","","","8336.5","[""True""]","0","13","3336","2608","","","","","","","","","","","","","","","","","","",""
"pit-instructions","107","902785","0.0-2.0-23.1-1.1","battery-v0.2","","""event"",""trial"",""time""
""fullscreenenter"",""1"",""3061""
""blur"",""7"",""109382""
""focus"",""7"",""109847""
""blur"",""7"",""109964""
""focus"",""7"",""110341""
""blur"",""93"",""783277""
""focus"",""93"",""784397""
","""event"",""trial"",""time""
""blur"",""7"",""109382""
""blur"",""7"",""109964""
""blur"",""93"",""783277""
","""event"",""trial"",""time""
""focus"",""7"",""109847""
""focus"",""7"",""110341""
""focus"",""93"",""784397""
","""event"",""trial"",""time""
""fullscreenenter"",""1"",""3061""
","
","","[{""page_index"":0,""viewing_time"":1656.6000000238419}]","1657.7000000476837","","","","","","","","","","","","","","","","","","","","","","","",""
"pit-comprehension","108","910203","0.0-2.0-24.0-0.0","battery-v0.2","","""event"",""trial"",""time""
""fullscreenenter"",""1"",""3061""
""blur"",""7"",""109382""
""focus"",""7"",""109847""
""blur"",""7"",""109964""
""focus"",""7"",""110341""
""blur"",""93"",""783277""
""focus"",""93"",""784397""
","""event"",""trial"",""time""
""blur"",""7"",""109382""
""blur"",""7"",""109964""
""blur"",""93"",""783277""
","""event"",""trial"",""time""
""focus"",""7"",""109847""
""focus"",""7"",""110341""
""focus"",""93"",""784397""
","""event"",""trial"",""time""
""fullscreenenter"",""1"",""3061""
","
","","","7411.600000023842","[""True""]","0","13","3336","2608","","","","","","","","","","","","","","","","","","",""
"pit-instructions","109","912046","0.0-2.0-24.0-1.0","battery-v0.2","","""event"",""trial"",""time""
""fullscreenenter"",""1"",""3061""
""blur"",""7"",""109382""
""focus"",""7"",""109847""
""blur"",""7"",""109964""
""focus"",""7"",""110341""
""blur"",""93"",""783277""
""focus"",""93"",""784397""
","""event"",""trial"",""time""
""blur"",""7"",""109382""
""blur"",""7"",""109964""
""blur"",""93"",""783277""
","""event"",""trial"",""time""
""focus"",""7"",""109847""
""focus"",""7"",""110341""
""focus"",""93"",""784397""
","""event"",""trial"",""time""
""fullscreenenter"",""1"",""3061""
","
","","[{""page_index"":0,""viewing_time"":1807.7000000476837}]","1808.5","","","","","","","","","","","","","","","","","","","","","","","",""
"pit-comprehension","110","919426","0.0-2.0-25.0-0.0","battery-v0.2","","""event"",""trial"",""time""
""fullscreenenter"",""1"",""3061""
""blur"",""7"",""109382""
""focus"",""7"",""109847""
""blur"",""7"",""109964""
""focus"",""7"",""110341""
""blur"",""93"",""783277""
""focus"",""93"",""784397""
","""event"",""trial"",""time""
""blur"",""7"",""109382""
""blur"",""7"",""109964""
""blur"",""93"",""783277""
","""event"",""trial"",""time""
""focus"",""7"",""109847""
""focus"",""7"",""110341""
""focus"",""93"",""784397""
","""event"",""trial"",""time""
""fullscreenenter"",""1"",""3061""
","
","","","7373.899999976158","[""True""]","0","13","3336","2608","","","","","","","","","","","","","","","","","","",""
"pit-instructions","111","921375","0.0-2.0-25.0-1.0","battery-v0.2","","""event"",""trial"",""time""
""fullscreenenter"",""1"",""3061""
""blur"",""7"",""109382""
""focus"",""7"",""109847""
""blur"",""7"",""109964""
""focus"",""7"",""110341""
""blur"",""93"",""783277""
""focus"",""93"",""784397""
","""event"",""trial"",""time""
""blur"",""7"",""109382""
""blur"",""7"",""109964""
""blur"",""93"",""783277""
","""event"",""trial"",""time""
""focus"",""7"",""109847""
""focus"",""7"",""110341""
""focus"",""93"",""784397""
","""event"",""trial"",""time""
""fullscreenenter"",""1"",""3061""
","
","","[{""page_index"":0,""viewing_time"":1916.1000000238419}]","1917.1000000238419","","","","","","","","","","","","","","","","","","","","","","","",""
"pit-comprehension","112","926056","0.0-2.0-26.0-0.0","battery-v0.2","","""event"",""trial"",""time""
""fullscreenenter"",""1"",""3061""
""blur"",""7"",""109382""
""focus"",""7"",""109847""
""blur"",""7"",""109964""
""focus"",""7"",""110341""
""blur"",""93"",""783277""
""focus"",""93"",""784397""
","""event"",""trial"",""time""
""blur"",""7"",""109382""
""blur"",""7"",""109964""
""blur"",""93"",""783277""
","""event"",""trial"",""time""
""focus"",""7"",""109847""
""focus"",""7"",""110341""
""focus"",""93"",""784397""
","""event"",""trial"",""time""
""fullscreenenter"",""1"",""3061""
","
","","","4675.599999904633","[""False""]","0","13","3336","2608","","","","","","","","","","","","","","","","","","",""
"pit-instructions","113","931232","0.0-2.0-26.0-1.0","battery-v0.2","","""event"",""trial"",""time""
""fullscreenenter"",""1"",""3061""
""blur"",""7"",""109382""
""focus"",""7"",""109847""
""blur"",""7"",""109964""
""focus"",""7"",""110341""
""blur"",""93"",""783277""
""focus"",""93"",""784397""
","""event"",""trial"",""time""
""blur"",""7"",""109382""
""blur"",""7"",""109964""
""blur"",""93"",""783277""
","""event"",""trial"",""time""
""focus"",""7"",""109847""
""focus"",""7"",""110341""
""focus"",""93"",""784397""
","""event"",""trial"",""time""
""fullscreenenter"",""1"",""3061""
","
","","[{""page_index"":0,""viewing_time"":5148.699999928474}]","5149","","","","","","","","","","","","","","","","","","","","","","","",""
"pit-instructions","114","955348","0.0-3.0","battery-v0.2","","""event"",""trial"",""time""
""fullscreenenter"",""1"",""3061""
""blur"",""7"",""109382""
""focus"",""7"",""109847""
""blur"",""7"",""109964""
""focus"",""7"",""110341""
""blur"",""93"",""783277""
""focus"",""93"",""784397""
","""event"",""trial"",""time""
""blur"",""7"",""109382""
""blur"",""7"",""109964""
""blur"",""93"",""783277""
","""event"",""trial"",""time""
""focus"",""7"",""109847""
""focus"",""7"",""110341""
""focus"",""93"",""784397""
","""event"",""trial"",""time""
""fullscreenenter"",""1"",""3061""
","
","","[{""page_index"":0,""viewing_time"":6227.299999952316},{""page_index"":1,""viewing_time"":7227.700000047684},{""page_index"":2,""viewing_time"":10656.399999976158}]","24111.899999976158","","","","","","","","","","","","","","","","","","","","","","","",""
"pit-trial","115","960213","0.0-4.0","battery-v0.2","","""event"",""trial"",""time""
""fullscreenenter"",""1"",""3061""
""blur"",""7"",""109382""
""focus"",""7"",""109847""
""blur"",""7"",""109964""
""focus"",""7"",""110341""
""blur"",""93"",""783277""
""focus"",""93"",""784397""
","""event"",""trial"",""time""
""blur"",""7"",""109382""
""blur"",""7"",""109964""
""blur"",""93"",""783277""
","""event"",""trial"",""time""
""focus"",""7"",""109847""
""focus"",""7"",""110341""
""focus"",""93"",""784397""
","""event"",""trial"",""time""
""fullscreenenter"",""1"",""3061""
","
","","","-1","","","13","3336","2608","&#9752;","elianto","#f73b6a7A"," ","-1","0","-10","[]","0","1","","","3336","1","3","3","lose","go","0"
"pit-trial","116","963981","0.0-5.0","battery-v0.2","","""event"",""trial"",""time""
""fullscreenenter"",""1"",""3061""
""blur"",""7"",""109382""
""focus"",""7"",""109847""
""blur"",""7"",""109964""
""focus"",""7"",""110341""
""blur"",""93"",""783277""
""focus"",""93"",""784397""
","""event"",""trial"",""time""
""blur"",""7"",""109382""
""blur"",""7"",""109964""
""blur"",""93"",""783277""
","""event"",""trial"",""time""
""focus"",""7"",""109847""
""focus"",""7"",""110341""
""focus"",""93"",""784397""
","""event"",""trial"",""time""
""fullscreenenter"",""1"",""3061""
","
","","","907.5","","","13","3336","2608","&#9733;","elianto","#3366ff99","-1"," ","0","0","[1758.3999999761581]","1","1","","","3336","2","2","2","win","no-go","0"
"pit-trial","117","968843","0.0-6.0","battery-v0.2","","""event"",""trial"",""time""
""fullscreenenter"",""1"",""3061""
""blur"",""7"",""109382""
""focus"",""7"",""109847""
""blur"",""7"",""109964""
""focus"",""7"",""110341""
""blur"",""93"",""783277""
""focus"",""93"",""784397""
","""event"",""trial"",""time""
""blur"",""7"",""109382""
""blur"",""7"",""109964""
""blur"",""93"",""783277""
","""event"",""trial"",""time""
""focus"",""7"",""109847""
""focus"",""7"",""110341""
""focus"",""93"",""784397""
","""event"",""trial"",""time""
""fullscreenenter"",""1"",""3061""
","
","","","-1","","","13","3336","2608","&#9728;","elianto","#f73b6a7A","-1","-1","1","0","[3452.100000023842]","1","1","","","3336","3","0","4","lose","no-go","0"
"pit-trial","118","972090","0.0-7.0","battery-v0.2","","""event"",""trial"",""time""
""fullscreenenter"",""1"",""3061""
""blur"",""7"",""109382""
""focus"",""7"",""109847""
""blur"",""7"",""109964""
""focus"",""7"",""110341""
""blur"",""93"",""783277""
""focus"",""93"",""784397""
","""event"",""trial"",""time""
""blur"",""7"",""109382""
""blur"",""7"",""109964""
""blur"",""93"",""783277""
","""event"",""trial"",""time""
""focus"",""7"",""109847""
""focus"",""7"",""110341""
""focus"",""93"",""784397""
","""event"",""trial"",""time""
""fullscreenenter"",""1"",""3061""
","
","","","388.89999997615814","","","13","3336","2608","&#9730;","elianto","#3366ff99"," "," ","1","+10","[1239]","1","1","","","3336","4","1","1","win","go","0"
"pit-trial","119","975747","0.0-8.0","battery-v0.2","","""event"",""trial"",""time""
""fullscreenenter"",""1"",""3061""
""blur"",""7"",""109382""
""focus"",""7"",""109847""
""blur"",""7"",""109964""
""focus"",""7"",""110341""
""blur"",""93"",""783277""
""focus"",""93"",""784397""
","""event"",""trial"",""time""
""blur"",""7"",""109382""
""blur"",""7"",""109964""
""blur"",""93"",""783277""
","""event"",""trial"",""time""
""focus"",""7"",""109847""
""focus"",""7"",""110341""
""focus"",""93"",""784397""
","""event"",""trial"",""time""
""fullscreenenter"",""1"",""3061""
","
","","","795.3999999761581","","","13","3336","2608","&#9728;","elianto","#f73b6a7A","-1"," ","0","-10","[1646.6000000238419]","1","1","","","3336","5","0","4","lose","no-go","0"
"pit-trial","120","979687","0.0-9.0","battery-v0.2","","""event"",""trial"",""time""
""fullscreenenter"",""1"",""3061""
""blur"",""7"",""109382""
""focus"",""7"",""109847""
""blur"",""7"",""109964""
""focus"",""7"",""110341""
""blur"",""93"",""783277""
""focus"",""93"",""784397""
","""event"",""trial"",""time""
""blur"",""7"",""109382""
""blur"",""7"",""109964""
""blur"",""93"",""783277""
","""event"",""trial"",""time""
""focus"",""7"",""109847""
""focus"",""7"",""110341""
""focus"",""93"",""784397""
","""event"",""trial"",""time""
""fullscreenenter"",""1"",""3061""
","
","","","1081.5","","","13","3336","2608","&#9733;","elianto","#3366ff99","-1"," ","0","0","[1932]","1","1","","","3336","6","2","2","win","no-go","0"
"pit-trial","121","983099","0.0-10.0","battery-v0.2","","""event"",""trial"",""time""
""fullscreenenter"",""1"",""3061""
""blur"",""7"",""109382""
""focus"",""7"",""109847""
""blur"",""7"",""109964""
""focus"",""7"",""110341""
""blur"",""93"",""783277""
""focus"",""93"",""784397""
","""event"",""trial"",""time""
""blur"",""7"",""109382""
""blur"",""7"",""109964""
""blur"",""93"",""783277""
","""event"",""trial"",""time""
""focus"",""7"",""109847""
""focus"",""7"",""110341""
""focus"",""93"",""784397""
","""event"",""trial"",""time""
""fullscreenenter"",""1"",""3061""
","
","","","552.4000000953674","","","13","3336","2608","&#9730;","elianto","#3366ff99"," "," ","1","+10","[1403.5]","1","1","","","3336","7","1","1","win","go","0"
"pit-trial","122","986872","0.0-11.0","battery-v0.2","","""event"",""trial"",""time""
""fullscreenenter"",""1"",""3061""
""blur"",""7"",""109382""
""focus"",""7"",""109847""
""blur"",""7"",""109964""
""focus"",""7"",""110341""
""blur"",""93"",""783277""
""focus"",""93"",""784397""
","""event"",""trial"",""time""
""blur"",""7"",""109382""
""blur"",""7"",""109964""
""blur"",""93"",""783277""
","""event"",""trial"",""time""
""focus"",""7"",""109847""
""focus"",""7"",""110341""
""focus"",""93"",""784397""
","""event"",""trial"",""time""
""fullscreenenter"",""1"",""3061""
","
","","","915.3000000715256","","","13","3336","2608","&#9752;","elianto","#f73b6a7A"," "," ","1","0","[1766.5]","1","1","","","3336","8","3","3","lose","go","0"
"pit-trial","123","990552","0.0-12.0","battery-v0.2","","""event"",""trial"",""time""
""fullscreenenter"",""1"",""3061""
""blur"",""7"",""109382""
""focus"",""7"",""109847""
""blur"",""7"",""109964""
""focus"",""7"",""110341""
""blur"",""93"",""783277""
""focus"",""93"",""784397""
","""event"",""trial"",""time""
""blur"",""7"",""109382""
""blur"",""7"",""109964""
""blur"",""93"",""783277""
","""event"",""trial"",""time""
""focus"",""7"",""109847""
""focus"",""7"",""110341""
""focus"",""93"",""784397""
","""event"",""trial"",""time""
""fullscreenenter"",""1"",""3061""
","
","","","818","","","13","3336","2608","&#9752;","elianto","#f73b6a7A"," "," ","1","0","[1669.7999999523163]","1","1","","","3336","9","3","3","lose","go","0"
"pit-trial","124","994279","0.0-13.0","battery-v0.2","","""event"",""trial"",""time""
""fullscreenenter"",""1"",""3061""
""blur"",""7"",""109382""
""focus"",""7"",""109847""
""blur"",""7"",""109964""
""focus"",""7"",""110341""
""blur"",""93"",""783277""
""focus"",""93"",""784397""
","""event"",""trial"",""time""
""blur"",""7"",""109382""
""blur"",""7"",""109964""
""blur"",""93"",""783277""
","""event"",""trial"",""time""
""focus"",""7"",""109847""
""focus"",""7"",""110341""
""focus"",""93"",""784397""
","""event"",""trial"",""time""
""fullscreenenter"",""1"",""3061""
","
","","","870.6999999284744","","","13","3336","2608","&#9730;","elianto","#3366ff99"," "," ","1","+10","[1722]","1","1","","","3336","10","1","1","win","go","0"
"pit-trial","125","999138","0.0-14.0","battery-v0.2","","""event"",""trial"",""time""
""fullscreenenter"",""1"",""3061""
""blur"",""7"",""109382""
""focus"",""7"",""109847""
""blur"",""7"",""109964""
""focus"",""7"",""110341""
""blur"",""93"",""783277""
""focus"",""93"",""784397""
","""event"",""trial"",""time""
""blur"",""7"",""109382""
""blur"",""7"",""109964""
""blur"",""93"",""783277""
","""event"",""trial"",""time""
""focus"",""7"",""109847""
""focus"",""7"",""110341""
""focus"",""93"",""784397""
","""event"",""trial"",""time""
""fullscreenenter"",""1"",""3061""
","
","","","-1","","","13","3336","2608","&#9733;","elianto","#3366ff99","-1","-1","1","+10","[3009.5]","1","1","","","3336","11","2","2","win","no-go","0"
"pit-trial","126","1003997","0.0-15.0","battery-v0.2","","""event"",""trial"",""time""
""fullscreenenter"",""1"",""3061""
""blur"",""7"",""109382""
""focus"",""7"",""109847""
""blur"",""7"",""109964""
""focus"",""7"",""110341""
""blur"",""93"",""783277""
""focus"",""93"",""784397""
","""event"",""trial"",""time""
""blur"",""7"",""109382""
""blur"",""7"",""109964""
""blur"",""93"",""783277""
","""event"",""trial"",""time""
""focus"",""7"",""109847""
""focus"",""7"",""110341""
""focus"",""93"",""784397""
","""event"",""trial"",""time""
""fullscreenenter"",""1"",""3061""
","
","","","-1","","","13","3336","2608","&#9728;","elianto","#f73b6a7A","-1","-1","1","0","[]","0","1","","","3336","12","0","4","lose","no-go","0"
"pit-trial","127","1007556","0.0-16.0","battery-v0.2","","""event"",""trial"",""time""
""fullscreenenter"",""1"",""3061""
""blur"",""7"",""109382""
""focus"",""7"",""109847""
""blur"",""7"",""109964""
""focus"",""7"",""110341""
""blur"",""93"",""783277""
""focus"",""93"",""784397""
","""event"",""trial"",""time""
""blur"",""7"",""109382""
""blur"",""7"",""109964""
""blur"",""93"",""783277""
","""event"",""trial"",""time""
""focus"",""7"",""109847""
""focus"",""7"",""110341""
""focus"",""93"",""784397""
","""event"",""trial"",""time""
""fullscreenenter"",""1"",""3061""
","
","","","700.7999999523163","","","13","3336","2608","&#9730;","elianto","#3366ff99"," "," ","1","+10","[1551.5]","1","1","","","3336","13","1","1","win","go","0"
"pit-trial","128","1011410","0.0-17.0","battery-v0.2","","""event"",""trial"",""time""
""fullscreenenter"",""1"",""3061""
""blur"",""7"",""109382""
""focus"",""7"",""109847""
""blur"",""7"",""109964""
""focus"",""7"",""110341""
""blur"",""93"",""783277""
""focus"",""93"",""784397""
","""event"",""trial"",""time""
""blur"",""7"",""109382""
""blur"",""7"",""109964""
""blur"",""93"",""783277""
","""event"",""trial"",""time""
""focus"",""7"",""109847""
""focus"",""7"",""110341""
""focus"",""93"",""784397""
","""event"",""trial"",""time""
""fullscreenenter"",""1"",""3061""
","
","","","996.1999999284744","","","13","3336","2608","&#9752;","elianto","#f73b6a7A"," "," ","1","0","[1848.1999999284744]","1","1","","","3336","14","3","3","lose","go","0"
"pit-trial","129","1015977","0.0-18.0","battery-v0.2","","""event"",""trial"",""time""
""fullscreenenter"",""1"",""3061""
""blur"",""7"",""109382""
""focus"",""7"",""109847""
""blur"",""7"",""109964""
""focus"",""7"",""110341""
""blur"",""93"",""783277""
""focus"",""93"",""784397""
","""event"",""trial"",""time""
""blur"",""7"",""109382""
""blur"",""7"",""109964""
""blur"",""93"",""783277""
","""event"",""trial"",""time""
""focus"",""7"",""109847""
""focus"",""7"",""110341""
""focus"",""93"",""784397""
","""event"",""trial"",""time""
""fullscreenenter"",""1"",""3061""
","
","","","1707.7000000476837","","","13","3336","2608","&#9733;","elianto","#3366ff99","-1"," ","0","+10","[2557.5999999046326]","1","1","","","3336","15","2","2","win","no-go","1"
"pit-trial","130","1020837","0.0-19.0","battery-v0.2","","""event"",""trial"",""time""
""fullscreenenter"",""1"",""3061""
""blur"",""7"",""109382""
""focus"",""7"",""109847""
""blur"",""7"",""109964""
""focus"",""7"",""110341""
""blur"",""93"",""783277""
""focus"",""93"",""784397""
","""event"",""trial"",""time""
""blur"",""7"",""109382""
""blur"",""7"",""109964""
""blur"",""93"",""783277""
","""event"",""trial"",""time""
""focus"",""7"",""109847""
""focus"",""7"",""110341""
""focus"",""93"",""784397""
","""event"",""trial"",""time""
""fullscreenenter"",""1"",""3061""
","
","","","-1","","","13","3336","2608","&#9728;","elianto","#f73b6a7A","-1","-1","1","0","[]","0","1","","","3336","16","0","4","lose","no-go","0"
"pit-trial","131","1024158","0.0-20.0","battery-v0.2","","""event"",""trial"",""time""
""fullscreenenter"",""1"",""3061""
""blur"",""7"",""109382""
""focus"",""7"",""109847""
""blur"",""7"",""109964""
""focus"",""7"",""110341""
""blur"",""93"",""783277""
""focus"",""93"",""784397""
","""event"",""trial"",""time""
""blur"",""7"",""109382""
""blur"",""7"",""109964""
""blur"",""93"",""783277""
","""event"",""trial"",""time""
""focus"",""7"",""109847""
""focus"",""7"",""110341""
""focus"",""93"",""784397""
","""event"",""trial"",""time""
""fullscreenenter"",""1"",""3061""
","
","","","459.89999997615814","","","13","3336","2608","&#9733;","elianto","#3366ff99","-1"," ","0","0","[1313]","1","1","","","3336","17","2","2","win","no-go","0"
"pit-trial","132","1027165","0.0-21.0","battery-v0.2","","""event"",""trial"",""time""
""fullscreenenter"",""1"",""3061""
""blur"",""7"",""109382""
""focus"",""7"",""109847""
""blur"",""7"",""109964""
""focus"",""7"",""110341""
""blur"",""93"",""783277""
""focus"",""93"",""784397""
","""event"",""trial"",""time""
""blur"",""7"",""109382""
""blur"",""7"",""109964""
""blur"",""93"",""783277""
","""event"",""trial"",""time""
""focus"",""7"",""109847""
""focus"",""7"",""110341""
""focus"",""93"",""784397""
","""event"",""trial"",""time""
""fullscreenenter"",""1"",""3061""
","
","","","148.5","","","13","3336","2608","&#9730;","elianto","#3366ff99"," "," ","1","+10","[999.2000000476837]","1","1","","","3336","18","1","1","win","go","0"
"pit-trial","133","1031960","0.0-22.0","battery-v0.2","","""event"",""trial"",""time""
""fullscreenenter"",""1"",""3061""
""blur"",""7"",""109382""
""focus"",""7"",""109847""
""blur"",""7"",""109964""
""focus"",""7"",""110341""
""blur"",""93"",""783277""
""focus"",""93"",""784397""
","""event"",""trial"",""time""
""blur"",""7"",""109382""
""blur"",""7"",""109964""
""blur"",""93"",""783277""
","""event"",""trial"",""time""
""focus"",""7"",""109847""
""focus"",""7"",""110341""
""focus"",""93"",""784397""
","""event"",""trial"",""time""
""fullscreenenter"",""1"",""3061""
","
","","","1938.3000000715256","","","13","3336","2608","&#9728;","elianto","#f73b6a7A","-1"," ","0","0","[2789.5]","1","1","","","3336","19","0","4","lose","no-go","1"
"pit-trial","134","1035344","0.0-23.0","battery-v0.2","","""event"",""trial"",""time""
""fullscreenenter"",""1"",""3061""
""blur"",""7"",""109382""
""focus"",""7"",""109847""
""blur"",""7"",""109964""
""focus"",""7"",""110341""
""blur"",""93"",""783277""
""focus"",""93"",""784397""
","""event"",""trial"",""time""
""blur"",""7"",""109382""
""blur"",""7"",""109964""
""blur"",""93"",""783277""
","""event"",""trial"",""time""
""focus"",""7"",""109847""
""focus"",""7"",""110341""
""focus"",""93"",""784397""
","""event"",""trial"",""time""
""fullscreenenter"",""1"",""3061""
","
","","","527.5","","","13","3336","2608","&#9752;","elianto","#f73b6a7A"," "," ","1","0","[1378.5]","1","1","","","3336","20","3","3","lose","go","0"
"pit-instructions","135","1054749","0.0-24.0","battery-v0.2","","""event"",""trial"",""time""
""fullscreenenter"",""1"",""3061""
""blur"",""7"",""109382""
""focus"",""7"",""109847""
""blur"",""7"",""109964""
""focus"",""7"",""110341""
""blur"",""93"",""783277""
""focus"",""93"",""784397""
","""event"",""trial"",""time""
""blur"",""7"",""109382""
""blur"",""7"",""109964""
""blur"",""93"",""783277""
","""event"",""trial"",""time""
""focus"",""7"",""109847""
""focus"",""7"",""110341""
""focus"",""93"",""784397""
","""event"",""trial"",""time""
""fullscreenenter"",""1"",""3061""
","
","","[{""page_index"":0,""viewing_time"":8969.800000071526},{""page_index"":1,""viewing_time"":10430.699999928474}]","19401.100000023842","","","","","","","","","","","","","","","","","","","","","","","",""
"pit-trial","136","1058773","0.0-25.0","battery-v0.2","","""event"",""trial"",""time""
""fullscreenenter"",""1"",""3061""
""blur"",""7"",""109382""
""focus"",""7"",""109847""
""blur"",""7"",""109964""
""focus"",""7"",""110341""
""blur"",""93"",""783277""
""focus"",""93"",""784397""
","""event"",""trial"",""time""
""blur"",""7"",""109382""
""blur"",""7"",""109964""
""blur"",""93"",""783277""
","""event"",""trial"",""time""
""focus"",""7"",""109847""
""focus"",""7"",""110341""
""focus"",""93"",""784397""
","""event"",""trial"",""time""
""fullscreenenter"",""1"",""3061""
","
","","","1163.9000000953674","","","13","3336","2608","n","elianto","#f73b6a7A","-1"," ","0","-10","[2013.9000000953674]","1","2","","","3336","21","0","4","lose","no-go","0"
"pit-trial","137","1062304","0.0-26.0","battery-v0.2","","""event"",""trial"",""time""
""fullscreenenter"",""1"",""3061""
""blur"",""7"",""109382""
""focus"",""7"",""109847""
""blur"",""7"",""109964""
""focus"",""7"",""110341""
""blur"",""93"",""783277""
""focus"",""93"",""784397""
","""event"",""trial"",""time""
""blur"",""7"",""109382""
""blur"",""7"",""109964""
""blur"",""93"",""783277""
","""event"",""trial"",""time""
""focus"",""7"",""109847""
""focus"",""7"",""110341""
""focus"",""93"",""784397""
","""event"",""trial"",""time""
""fullscreenenter"",""1"",""3061""
","
","","","670.7999999523163","","","13","3336","2608","f","elianto","#3366ff99"," "," ","1","+10","[1523.6000000238419]","1","2","","","3336","22","1","1","win","go","0"
"pit-trial","138","1066047","0.0-27.0","battery-v0.2","","""event"",""trial"",""time""
""fullscreenenter"",""1"",""3061""
""blur"",""7"",""109382""
""focus"",""7"",""109847""
""blur"",""7"",""109964""
""focus"",""7"",""110341""
""blur"",""93"",""783277""
""focus"",""93"",""784397""
","""event"",""trial"",""time""
""blur"",""7"",""109382""
""blur"",""7"",""109964""
""blur"",""93"",""783277""
","""event"",""trial"",""time""
""focus"",""7"",""109847""
""focus"",""7"",""110341""
""focus"",""93"",""784397""
","""event"",""trial"",""time""
""fullscreenenter"",""1"",""3061""
","
","","","885.1999999284744","","","13","3336","2608","t","elianto","#f73b6a7A","-1"," ","0","-10","[1737.1999999284744]","1","2","","","3336","23","2","4","lose","no-go","0"
"pit-trial","139","1069697","0.0-28.0","battery-v0.2","","""event"",""trial"",""time""
""fullscreenenter"",""1"",""3061""
""blur"",""7"",""109382""
""focus"",""7"",""109847""
""blur"",""7"",""109964""
""focus"",""7"",""110341""
""blur"",""93"",""783277""
""focus"",""93"",""784397""
","""event"",""trial"",""time""
""blur"",""7"",""109382""
""blur"",""7"",""109964""
""blur"",""93"",""783277""
","""event"",""trial"",""time""
""focus"",""7"",""109847""
""focus"",""7"",""110341""
""focus"",""93"",""784397""
","""event"",""trial"",""time""
""fullscreenenter"",""1"",""3061""
","
","","","790","","","13","3336","2608","b","elianto","#f73b6a7A"," "," ","1","0","[1641.2000000476837]","1","2","","","3336","24","3","3","lose","go","0"
"pit-trial","140","1073301","0.0-29.0","battery-v0.2","","""event"",""trial"",""time""
""fullscreenenter"",""1"",""3061""
""blur"",""7"",""109382""
""focus"",""7"",""109847""
""blur"",""7"",""109964""
""focus"",""7"",""110341""
""blur"",""93"",""783277""
""focus"",""93"",""784397""
","""event"",""trial"",""time""
""blur"",""7"",""109382""
""blur"",""7"",""109964""
""blur"",""93"",""783277""
","""event"",""trial"",""time""
""focus"",""7"",""109847""
""focus"",""7"",""110341""
""focus"",""93"",""784397""
","""event"",""trial"",""time""
""fullscreenenter"",""1"",""3061""
","
","","","743.5","","","13","3336","2608","f","elianto","#3366ff99"," "," ","1","+10","[1594]","1","2","","","3336","25","1","1","win","go","0"
"pit-trial","141","1078167","0.0-30.0","battery-v0.2","","""event"",""trial"",""time""
""fullscreenenter"",""1"",""3061""
""blur"",""7"",""109382""
""focus"",""7"",""109847""
""blur"",""7"",""109964""
""focus"",""7"",""110341""
""blur"",""93"",""783277""
""focus"",""93"",""784397""
","""event"",""trial"",""time""
""blur"",""7"",""109382""
""blur"",""7"",""109964""
""blur"",""93"",""783277""
","""event"",""trial"",""time""
""focus"",""7"",""109847""
""focus"",""7"",""110341""
""focus"",""93"",""784397""
","""event"",""trial"",""time""
""fullscreenenter"",""1"",""3061""
","
","","","-1","","","13","3336","2608","t","elianto","#f73b6a7A","-1","-1","1","-10","[]","0","2","","","3336","26","2","4","lose","no-go","1"
"pit-trial","142","1081766","0.0-31.0","battery-v0.2","","""event"",""trial"",""time""
""fullscreenenter"",""1"",""3061""
""blur"",""7"",""109382""
""focus"",""7"",""109847""
""blur"",""7"",""109964""
""focus"",""7"",""110341""
""blur"",""93"",""783277""
""focus"",""93"",""784397""
","""event"",""trial"",""time""
""blur"",""7"",""109382""
""blur"",""7"",""109964""
""blur"",""93"",""783277""
","""event"",""trial"",""time""
""focus"",""7"",""109847""
""focus"",""7"",""110341""
""focus"",""93"",""784397""
","""event"",""trial"",""time""
""fullscreenenter"",""1"",""3061""
","
","","","739.5","","","13","3336","2608","b","elianto","#f73b6a7A"," "," ","1","-10","[1590.7999999523163]","1","2","","","3336","27","3","3","lose","go","1"
"pit-trial","143","1085492","0.0-32.0","battery-v0.2","","""event"",""trial"",""time""
""fullscreenenter"",""1"",""3061""
""blur"",""7"",""109382""
""focus"",""7"",""109847""
""blur"",""7"",""109964""
""focus"",""7"",""110341""
""blur"",""93"",""783277""
""focus"",""93"",""784397""
","""event"",""trial"",""time""
""blur"",""7"",""109382""
""blur"",""7"",""109964""
""blur"",""93"",""783277""
","""event"",""trial"",""time""
""focus"",""7"",""109847""
""focus"",""7"",""110341""
""focus"",""93"",""784397""
","""event"",""trial"",""time""
""fullscreenenter"",""1"",""3061""
","
","","","869.6000000238419","","","13","3336","2608","n","elianto","#f73b6a7A","-1"," ","0","-10","[1719.8999999761581]","1","2","","","3336","28","0","4","lose","no-go","0"
"pit-trial","144","1089527","0.0-33.0","battery-v0.2","","""event"",""trial"",""time""
""fullscreenenter"",""1"",""3061""
""blur"",""7"",""109382""
""focus"",""7"",""109847""
""blur"",""7"",""109964""
""focus"",""7"",""110341""
""blur"",""93"",""783277""
""focus"",""93"",""784397""
","""event"",""trial"",""time""
""blur"",""7"",""109382""
""blur"",""7"",""109964""
""blur"",""93"",""783277""
","""event"",""trial"",""time""
""focus"",""7"",""109847""
""focus"",""7"",""110341""
""focus"",""93"",""784397""
","""event"",""trial"",""time""
""fullscreenenter"",""1"",""3061""
","
