"trial_type","trial_index","time_elapsed","internal_node_id","task_version","subject_id","interactions","blur_events","focus_events","fullscreenenter_events","fullscreenexit_events","success","view_history","rt","responses","num_errors","age","subject","participantId","rune","rune_set","hex","correct","choice","accuracy","outcome","keys","total_keys","block","practice","value","sub","trial","stimulus","robot","valence","action","sham"
"pavlovia","0","9","0.0-0.0","battery-v0.2","","""event"",""trial"",""time""
""focus"",""0"",""0""
""blur"",""1"",""2756""
""focus"",""1"",""2777""
""fullscreenenter"",""1"",""2780""
","""event"",""trial"",""time""
""blur"",""1"",""2756""
","""event"",""trial"",""time""
""focus"",""0"",""0""
""focus"",""1"",""2777""
","""event"",""trial"",""time""
""fullscreenenter"",""1"",""2780""
","
","","","","","","","","","","","","","","","","","","","","","","","","","","",""
"fullscreen","1","3546","0.0-1.0","battery-v0.2","","""event"",""trial"",""time""
""focus"",""0"",""0""
""blur"",""1"",""2756""
""focus"",""1"",""2777""
""fullscreenenter"",""1"",""2780""
","""event"",""trial"",""time""
""blur"",""1"",""2756""
","""event"",""trial"",""time""
""focus"",""0"",""0""
""focus"",""1"",""2777""
","""event"",""trial"",""time""
""fullscreenenter"",""1"",""2780""
","
","true","","","","","","","","","","","","","","","","","","","","","","","","","",""
"pit-instructions","2","7291","0.0-2.0-0.0","battery-v0.2","","""event"",""trial"",""time""
""focus"",""0"",""0""
""blur"",""1"",""2756""
""focus"",""1"",""2777""
""fullscreenenter"",""1"",""2780""
","""event"",""trial"",""time""
""blur"",""1"",""2756""
","""event"",""trial"",""time""
""focus"",""0"",""0""
""focus"",""1"",""2777""
","""event"",""trial"",""time""
""fullscreenenter"",""1"",""2780""
","
","","[{""page_index"":0,""viewing_time"":3738}]","3739","","","","","","","","","","","","","","","","","","","","","","","",""
"pit-comprehension","3","10204","0.0-2.0-1.0-0.0","battery-v0.2","","""event"",""trial"",""time""
""focus"",""0"",""0""
""blur"",""1"",""2756""
""focus"",""1"",""2777""
""fullscreenenter"",""1"",""2780""
","""event"",""trial"",""time""
""blur"",""1"",""2756""
","""event"",""trial"",""time""
""focus"",""0"",""0""
""focus"",""1"",""2777""
","""event"",""trial"",""time""
""fullscreenenter"",""1"",""2780""
","
","","","2905","[""shark""]","0","21","10260","4892","","","","","","","","","","","","","","","","","","",""
"pit-instructions","4","11382","0.0-2.0-1.0-1.0","battery-v0.2","","""event"",""trial"",""time""
""focus"",""0"",""0""
""blur"",""1"",""2756""
""focus"",""1"",""2777""
""fullscreenenter"",""1"",""2780""
","""event"",""trial"",""time""
""blur"",""1"",""2756""
","""event"",""trial"",""time""
""focus"",""0"",""0""
""focus"",""1"",""2777""
","""event"",""trial"",""time""
""fullscreenenter"",""1"",""2780""
","
","","[{""page_index"":0,""viewing_time"":1171}]","1171","","","","","","","","","","","","","","","","","","","","","","","",""
"pit-comprehension","5","13773","0.0-2.0-2.0-0.0","battery-v0.2","","""event"",""trial"",""time""
""focus"",""0"",""0""
""blur"",""1"",""2756""
""focus"",""1"",""2777""
""fullscreenenter"",""1"",""2780""
","""event"",""trial"",""time""
""blur"",""1"",""2756""
","""event"",""trial"",""time""
""focus"",""0"",""0""
""focus"",""1"",""2777""
","""event"",""trial"",""time""
""fullscreenenter"",""1"",""2780""
","
","","","2380","[""tiger""]","0","21","10260","4892","","","","","","","","","","","","","","","","","","",""
"pit-instructions","6","14421","0.0-2.0-2.0-1.0","battery-v0.2","","""event"",""trial"",""time""
""focus"",""0"",""0""
""blur"",""1"",""2756""
""focus"",""1"",""2777""
""fullscreenenter"",""1"",""2780""
""blur"",""7"",""33476""
""focus"",""7"",""40261""
","""event"",""trial"",""time""
""blur"",""1"",""2756""
""blur"",""7"",""33476""
","""event"",""trial"",""time""
""focus"",""0"",""0""
""focus"",""1"",""2777""
""focus"",""7"",""40261""
","""event"",""trial"",""time""
""fullscreenenter"",""1"",""2780""
","
","","[{""page_index"":0,""viewing_time"":639}]","639","","","","","","","","","","","","","","","","","","","","","","","",""
"pit-instructions","7","131452","0.0-2.0-3.0","battery-v0.2","","""event"",""trial"",""time""
""focus"",""0"",""0""
""blur"",""1"",""2756""
""focus"",""1"",""2777""
""fullscreenenter"",""1"",""2780""
""blur"",""7"",""33476""
""focus"",""7"",""40261""
","""event"",""trial"",""time""
""blur"",""1"",""2756""
""blur"",""7"",""33476""
","""event"",""trial"",""time""
""focus"",""0"",""0""
""focus"",""1"",""2777""
""focus"",""7"",""40261""
","""event"",""trial"",""time""
""fullscreenenter"",""1"",""2780""
","
","","[{""page_index"":0,""viewing_time"":10510},{""page_index"":1,""viewing_time"":18200},{""page_index"":2,""viewing_time"":8574},{""page_index"":3,""viewing_time"":6435},{""page_index"":4,""viewing_time"":8564},{""page_index"":5,""viewing_time"":6398},{""page_index"":6,""viewing_time"":8164},{""page_index"":7,""viewing_time"":7557},{""page_index"":8,""viewing_time"":6557},{""page_index"":9,""viewing_time"":8381},{""page_index"":10,""viewing_time"":7194},{""page_index"":11,""viewing_time"":8309},{""page_index"":12,""viewing_time"":6779},{""page_index"":13,""viewing_time"":5401}]","117024","","","","","","","","","","","","","","","","","","","","","","","",""
"pit-trial","8","134829","0.0-2.0-4.0-0.0","battery-v0.2","","""event"",""trial"",""time""
""focus"",""0"",""0""
""blur"",""1"",""2756""
""focus"",""1"",""2777""
""fullscreenenter"",""1"",""2780""
""blur"",""7"",""33476""
""focus"",""7"",""40261""
","""event"",""trial"",""time""
""blur"",""1"",""2756""
""blur"",""7"",""33476""
","""event"",""trial"",""time""
""focus"",""0"",""0""
""focus"",""1"",""2777""
""focus"",""7"",""40261""
","""event"",""trial"",""time""
""fullscreenenter"",""1"",""2780""
","
","","","513","","","21","10260","4892","&#9784;","elianto","#FFFFF080"," "," ","1","&#10004","[1364]","1","0","0","","","","","","","",""
"pit-trial","9","138369","0.0-2.0-4.1-0.1","battery-v0.2","","""event"",""trial"",""time""
""focus"",""0"",""0""
""blur"",""1"",""2756""
""focus"",""1"",""2777""
""fullscreenenter"",""1"",""2780""
""blur"",""7"",""33476""
""focus"",""7"",""40261""
","""event"",""trial"",""time""
""blur"",""1"",""2756""
""blur"",""7"",""33476""
","""event"",""trial"",""time""
""focus"",""0"",""0""
""focus"",""1"",""2777""
""focus"",""7"",""40261""
","""event"",""trial"",""time""
""fullscreenenter"",""1"",""2780""
","
","","","674","","","21","10260","4892","&#9784;","elianto","#FFFFF080"," "," ","1","&#10004","[1526]","1","0","0","","","","","","","",""
"pit-trial","10","141793","0.0-2.0-4.2-0.2","battery-v0.2","","""event"",""trial"",""time""
""focus"",""0"",""0""
""blur"",""1"",""2756""
""focus"",""1"",""2777""
""fullscreenenter"",""1"",""2780""
""blur"",""7"",""33476""
""focus"",""7"",""40261""
","""event"",""trial"",""time""
""blur"",""1"",""2756""
""blur"",""7"",""33476""
","""event"",""trial"",""time""
""focus"",""0"",""0""
""focus"",""1"",""2777""
""focus"",""7"",""40261""
","""event"",""trial"",""time""
""fullscreenenter"",""1"",""2780""
","
","","","555","","","21","10260","4892","&#9784;","elianto","#FFFFF080"," "," ","1","&#10004","[1410]","1","0","0","","","","","","","",""
"pit-trial","11","145391","0.0-2.0-4.3-0.3","battery-v0.2","","""event"",""trial"",""time""
""focus"",""0"",""0""
""blur"",""1"",""2756""
""focus"",""1"",""2777""
""fullscreenenter"",""1"",""2780""
""blur"",""7"",""33476""
""focus"",""7"",""40261""
","""event"",""trial"",""time""
""blur"",""1"",""2756""
""blur"",""7"",""33476""
","""event"",""trial"",""time""
""focus"",""0"",""0""
""focus"",""1"",""2777""
""focus"",""7"",""40261""
","""event"",""trial"",""time""
""fullscreenenter"",""1"",""2780""
","
","","","738","","","21","10260","4892","&#9784;","elianto","#FFFFF080"," "," ","1","&#10004","[1588]","1","0","0","","","","","","","",""
"pit-trial","12","148816","0.0-2.0-4.4-0.4","battery-v0.2","","""event"",""trial"",""time""
""focus"",""0"",""0""
""blur"",""1"",""2756""
""focus"",""1"",""2777""
""fullscreenenter"",""1"",""2780""
""blur"",""7"",""33476""
""focus"",""7"",""40261""
","""event"",""trial"",""time""
""blur"",""1"",""2756""
""blur"",""7"",""33476""
","""event"",""trial"",""time""
""focus"",""0"",""0""
""focus"",""1"",""2777""
""focus"",""7"",""40261""
","""event"",""trial"",""time""
""fullscreenenter"",""1"",""2780""
","
","","","560","","","21","10260","4892","&#9784;","elianto","#FFFFF080"," "," ","1","&#10004","[1416]","1","0","0","","","","","","","",""
"pit-instructions","13","172670","0.0-2.0-5.0","battery-v0.2","","""event"",""trial"",""time""
""focus"",""0"",""0""
""blur"",""1"",""2756""
""focus"",""1"",""2777""
""fullscreenenter"",""1"",""2780""
""blur"",""7"",""33476""
""focus"",""7"",""40261""
","""event"",""trial"",""time""
""blur"",""1"",""2756""
""blur"",""7"",""33476""
","""event"",""trial"",""time""
""focus"",""0"",""0""
""focus"",""1"",""2777""
""focus"",""7"",""40261""
","""event"",""trial"",""time""
""fullscreenenter"",""1"",""2780""
","
","","[{""page_index"":0,""viewing_time"":5543},{""page_index"":1,""viewing_time"":5892},{""page_index"":2,""viewing_time"":5944},{""page_index"":3,""viewing_time"":6468}]","23847","","","","","","","","","","","","","","","","","","","","","","","",""
"pit-trial","14","177533","0.0-2.0-6.0-0.0","battery-v0.2","","""event"",""trial"",""time""
""focus"",""0"",""0""
""blur"",""1"",""2756""
""focus"",""1"",""2777""
""fullscreenenter"",""1"",""2780""
""blur"",""7"",""33476""
""focus"",""7"",""40261""
","""event"",""trial"",""time""
""blur"",""1"",""2756""
""blur"",""7"",""33476""
","""event"",""trial"",""time""
""focus"",""0"",""0""
""focus"",""1"",""2777""
""focus"",""7"",""40261""
","""event"",""trial"",""time""
""fullscreenenter"",""1"",""2780""
","
","","","-1","","","21","10260","4892","&#9854;","elianto","#FFFFF080","-1","-1","1","&#10004","[]","0","0","1","","","","","","","",""
"pit-trial","15","182401","0.0-2.0-6.1-0.1","battery-v0.2","","""event"",""trial"",""time""
""focus"",""0"",""0""
""blur"",""1"",""2756""
""focus"",""1"",""2777""
""fullscreenenter"",""1"",""2780""
""blur"",""7"",""33476""
""focus"",""7"",""40261""
","""event"",""trial"",""time""
""blur"",""1"",""2756""
""blur"",""7"",""33476""
","""event"",""trial"",""time""
""focus"",""0"",""0""
""focus"",""1"",""2777""
""focus"",""7"",""40261""
","""event"",""trial"",""time""
""fullscreenenter"",""1"",""2780""
","
","","","-1","","","21","10260","4892","&#9854;","elianto","#FFFFF080","-1","-1","1","&#10004","[]","0","0","1","","","","","","","",""
"pit-trial","16","187265","0.0-2.0-6.2-0.2","battery-v0.2","","""event"",""trial"",""time""
""focus"",""0"",""0""
""blur"",""1"",""2756""
""focus"",""1"",""2777""
""fullscreenenter"",""1"",""2780""
""blur"",""7"",""33476""
""focus"",""7"",""40261""
","""event"",""trial"",""time""
""blur"",""1"",""2756""
""blur"",""7"",""33476""
","""event"",""trial"",""time""
""focus"",""0"",""0""
""focus"",""1"",""2777""
""focus"",""7"",""40261""
","""event"",""trial"",""time""
""fullscreenenter"",""1"",""2780""
","
","","","-1","","","21","10260","4892","&#9854;","elianto","#FFFFF080","-1","-1","1","&#10004","[]","0","0","1","","","","","","","",""
"pit-trial","17","192130","0.0-2.0-6.3-0.3","battery-v0.2","","""event"",""trial"",""time""
""focus"",""0"",""0""
""blur"",""1"",""2756""
""focus"",""1"",""2777""
""fullscreenenter"",""1"",""2780""
""blur"",""7"",""33476""
""focus"",""7"",""40261""
","""event"",""trial"",""time""
""blur"",""1"",""2756""
""blur"",""7"",""33476""
","""event"",""trial"",""time""
""focus"",""0"",""0""
""focus"",""1"",""2777""
""focus"",""7"",""40261""
","""event"",""trial"",""time""
""fullscreenenter"",""1"",""2780""
","
","","","-1","","","21","10260","4892","&#9854;","elianto","#FFFFF080","-1","-1","1","&#10004","[]","0","0","1","","","","","","","",""
"pit-trial","18","196995","0.0-2.0-6.4-0.4","battery-v0.2","","""event"",""trial"",""time""
""focus"",""0"",""0""
""blur"",""1"",""2756""
""focus"",""1"",""2777""
""fullscreenenter"",""1"",""2780""
""blur"",""7"",""33476""
""focus"",""7"",""40261""
","""event"",""trial"",""time""
""blur"",""1"",""2756""
""blur"",""7"",""33476""
","""event"",""trial"",""time""
""focus"",""0"",""0""
""focus"",""1"",""2777""
""focus"",""7"",""40261""
","""event"",""trial"",""time""
""fullscreenenter"",""1"",""2780""
","
","","","-1","","","21","10260","4892","&#9854;","elianto","#FFFFF080","-1","-1","1","&#10004","[]","0","0","1","","","","","","","",""
"pit-instructions","19","337454","0.0-2.0-7.0","battery-v0.2","","""event"",""trial"",""time""
""focus"",""0"",""0""
""blur"",""1"",""2756""
""focus"",""1"",""2777""
""fullscreenenter"",""1"",""2780""
""blur"",""7"",""33476""
""focus"",""7"",""40261""
","""event"",""trial"",""time""
""blur"",""1"",""2756""
""blur"",""7"",""33476""
","""event"",""trial"",""time""
""focus"",""0"",""0""
""focus"",""1"",""2777""
""focus"",""7"",""40261""
","""event"",""trial"",""time""
""fullscreenenter"",""1"",""2780""
","
","","[{""page_index"":0,""viewing_time"":6051},{""page_index"":1,""viewing_time"":8654},{""page_index"":2,""viewing_time"":7502},{""page_index"":3,""viewing_time"":7773},{""page_index"":4,""viewing_time"":6846},{""page_index"":5,""viewing_time"":7103},{""page_index"":6,""viewing_time"":5272},{""page_index"":7,""viewing_time"":8923},{""page_index"":8,""viewing_time"":9778},{""page_index"":9,""viewing_time"":8809},{""page_index"":10,""viewing_time"":9366},{""page_index"":11,""viewing_time"":5813},{""page_index"":12,""viewing_time"":7663},{""page_index"":13,""viewing_time"":8485},{""page_index"":14,""viewing_time"":9432},{""page_index"":15,""viewing_time"":7226},{""page_index"":16,""viewing_time"":7341},{""page_index"":17,""viewing_time"":8414}]","140451","","","","","","","","","","","","","","","","","","","","","","","",""
"pit-trial","20","340814","0.0-2.0-8.0-0.0","battery-v0.2","","""event"",""trial"",""time""
""focus"",""0"",""0""
""blur"",""1"",""2756""
""focus"",""1"",""2777""
""fullscreenenter"",""1"",""2780""
""blur"",""7"",""33476""
""focus"",""7"",""40261""
","""event"",""trial"",""time""
""blur"",""1"",""2756""
""blur"",""7"",""33476""
","""event"",""trial"",""time""
""focus"",""0"",""0""
""focus"",""1"",""2777""
""focus"",""7"",""40261""
","""event"",""trial"",""time""
""fullscreenenter"",""1"",""2780""
","
","","","492","","","21","10260","4892","&#9776;","elianto","#3366ff99"," "," ","1","+10","[1347]","1","0","1","","","","","","","",""
"pit-trial","21","344299","0.0-2.0-8.0-1.0","battery-v0.2","","""event"",""trial"",""time""
""focus"",""0"",""0""
""blur"",""1"",""2756""
""focus"",""1"",""2777""
""fullscreenenter"",""1"",""2780""
""blur"",""7"",""33476""
""focus"",""7"",""40261""
","""event"",""trial"",""time""
""blur"",""1"",""2756""
""blur"",""7"",""33476""
","""event"",""trial"",""time""
""focus"",""0"",""0""
""focus"",""1"",""2777""
""focus"",""7"",""40261""
","""event"",""trial"",""time""
""fullscreenenter"",""1"",""2780""
","
","","","619","","","21","10260","4892","&#9776;","elianto","#3366ff99"," "," ","1","+10","[1473]","1","0","1","","","","","","","",""
"pit-trial","22","347641","0.0-2.0-8.0-2.0","battery-v0.2","","""event"",""trial"",""time""
""focus"",""0"",""0""
""blur"",""1"",""2756""
""focus"",""1"",""2777""
""fullscreenenter"",""1"",""2780""
""blur"",""7"",""33476""
""focus"",""7"",""40261""
","""event"",""trial"",""time""
""blur"",""1"",""2756""
""blur"",""7"",""33476""
","""event"",""trial"",""time""
""focus"",""0"",""0""
""focus"",""1"",""2777""
""focus"",""7"",""40261""
","""event"",""trial"",""time""
""fullscreenenter"",""1"",""2780""
","
","","","479","","","21","10260","4892","&#9776;","elianto","#3366ff99"," "," ","1","+10","[1330]","1","0","1","","","","","","","",""
"pit-trial","23","350982","0.0-2.0-8.0-3.0","battery-v0.2","","""event"",""trial"",""time""
""focus"",""0"",""0""
""blur"",""1"",""2756""
""focus"",""1"",""2777""
""fullscreenenter"",""1"",""2780""
""blur"",""7"",""33476""
""focus"",""7"",""40261""
","""event"",""trial"",""time""
""blur"",""1"",""2756""
""blur"",""7"",""33476""
","""event"",""trial"",""time""
""focus"",""0"",""0""
""focus"",""1"",""2777""
""focus"",""7"",""40261""
","""event"",""trial"",""time""
""fullscreenenter"",""1"",""2780""
","
","","","477","","","21","10260","4892","&#9776;","elianto","#3366ff99"," "," ","1","0","[1331]","1","0","1","","","","","","","",""
"pit-trial","24","354462","0.0-2.0-8.0-4.0","battery-v0.2","","""event"",""trial"",""time""
""focus"",""0"",""0""
""blur"",""1"",""2756""
""focus"",""1"",""2777""
""fullscreenenter"",""1"",""2780""
""blur"",""7"",""33476""
""focus"",""7"",""40261""
","""event"",""trial"",""time""
""blur"",""1"",""2756""
""blur"",""7"",""33476""
","""event"",""trial"",""time""
""focus"",""0"",""0""
""focus"",""1"",""2777""
""focus"",""7"",""40261""
","""event"",""trial"",""time""
""fullscreenenter"",""1"",""2780""
","
","","","616","","","21","10260","4892","&#9776;","elianto","#3366ff99"," "," ","1","+10","[1469]","1","0","1","","","","","","","",""
"pit-trial","25","358037","0.0-2.0-8.1-0.1","battery-v0.2","","""event"",""trial"",""time""
""focus"",""0"",""0""
""blur"",""1"",""2756""
""focus"",""1"",""2777""
""fullscreenenter"",""1"",""2780""
""blur"",""7"",""33476""
""focus"",""7"",""40261""
","""event"",""trial"",""time""
""blur"",""1"",""2756""
""blur"",""7"",""33476""
","""event"",""trial"",""time""
""focus"",""0"",""0""
""focus"",""1"",""2777""
""focus"",""7"",""40261""
","""event"",""trial"",""time""
""fullscreenenter"",""1"",""2780""
","
","","","711","","","21","10260","4892","&#9776;","elianto","#3366ff99"," "," ","1","+10","[1562]","1","0","1","","","","","","","",""
"pit-trial","26","361377","0.0-2.0-8.1-1.1","battery-v0.2","","""event"",""trial"",""time""
""focus"",""0"",""0""
""blur"",""1"",""2756""
""focus"",""1"",""2777""
""fullscreenenter"",""1"",""2780""
""blur"",""7"",""33476""
""focus"",""7"",""40261""
","""event"",""trial"",""time""
""blur"",""1"",""2756""
""blur"",""7"",""33476""
","""event"",""trial"",""time""
""focus"",""0"",""0""
""focus"",""1"",""2777""
""focus"",""7"",""40261""
","""event"",""trial"",""time""
""fullscreenenter"",""1"",""2780""
","
","","","478","","","21","10260","4892","&#9776;","elianto","#3366ff99"," "," ","1","+10","[1327]","1","0","1","","","","","","","",""
"pit-trial","27","364764","0.0-2.0-8.1-2.1","battery-v0.2","","""event"",""trial"",""time""
""focus"",""0"",""0""
""blur"",""1"",""2756""
""focus"",""1"",""2777""
""fullscreenenter"",""1"",""2780""
""blur"",""7"",""33476""
""focus"",""7"",""40261""
","""event"",""trial"",""time""
""blur"",""1"",""2756""
""blur"",""7"",""33476""
","""event"",""trial"",""time""
""focus"",""0"",""0""
""focus"",""1"",""2777""
""focus"",""7"",""40261""
","""event"",""trial"",""time""
""fullscreenenter"",""1"",""2780""
","
","","","525","","","21","10260","4892","&#9776;","elianto","#3366ff99"," "," ","1","+10","[1380]","1","0","1","","","","","","","",""
"pit-trial","28","368157","0.0-2.0-8.1-3.1","battery-v0.2","","""event"",""trial"",""time""
""focus"",""0"",""0""
""blur"",""1"",""2756""
""focus"",""1"",""2777""
""fullscreenenter"",""1"",""2780""
""blur"",""7"",""33476""
""focus"",""7"",""40261""
","""event"",""trial"",""time""
""blur"",""1"",""2756""
""blur"",""7"",""33476""
","""event"",""trial"",""time""
""focus"",""0"",""0""
""focus"",""1"",""2777""
""focus"",""7"",""40261""
","""event"",""trial"",""time""
""fullscreenenter"",""1"",""2780""
","
","","","528","","","21","10260","4892","&#9776;","elianto","#3366ff99"," "," ","1","0","[1380]","1","0","1","","","","","","","",""
"pit-trial","29","371509","0.0-2.0-8.1-4.1","battery-v0.2","","""event"",""trial"",""time""
""focus"",""0"",""0""
""blur"",""1"",""2756""
""focus"",""1"",""2777""
""fullscreenenter"",""1"",""2780""
""blur"",""7"",""33476""
""focus"",""7"",""40261""
","""event"",""trial"",""time""
""blur"",""1"",""2756""
""blur"",""7"",""33476""
","""event"",""trial"",""time""
""focus"",""0"",""0""
""focus"",""1"",""2777""
""focus"",""7"",""40261""
","""event"",""trial"",""time""
""fullscreenenter"",""1"",""2780""
","
","","","489","","","21","10260","4892","&#9776;","elianto","#3366ff99"," "," ","1","+10","[1340]","1","0","1","","","","","","","",""
"pit-trial","30","374817","0.0-2.0-8.2-0.2","battery-v0.2","","""event"",""trial"",""time""
""focus"",""0"",""0""
""blur"",""1"",""2756""
""focus"",""1"",""2777""
""fullscreenenter"",""1"",""2780""
""blur"",""7"",""33476""
""focus"",""7"",""40261""
","""event"",""trial"",""time""
""blur"",""1"",""2756""
""blur"",""7"",""33476""
","""event"",""trial"",""time""
""focus"",""0"",""0""
""focus"",""1"",""2777""
""focus"",""7"",""40261""
","""event"",""trial"",""time""
""fullscreenenter"",""1"",""2780""
","
","","","442","","","21","10260","4892","&#9776;","elianto","#3366ff99"," "," ","1","+10","[1297]","1","0","1","","","","","","","",""
"pit-trial","31","378219","0.0-2.0-8.2-1.2","battery-v0.2","","""event"",""trial"",""time""
""focus"",""0"",""0""
""blur"",""1"",""2756""
""focus"",""1"",""2777""
""fullscreenenter"",""1"",""2780""
""blur"",""7"",""33476""
""focus"",""7"",""40261""
","""event"",""trial"",""time""
""blur"",""1"",""2756""
""blur"",""7"",""33476""
","""event"",""trial"",""time""
""focus"",""0"",""0""
""focus"",""1"",""2777""
""focus"",""7"",""40261""
","""event"",""trial"",""time""
""fullscreenenter"",""1"",""2780""
","
","","","538","","","21","10260","4892","&#9776;","elianto","#3366ff99"," "," ","1","+10","[1392]","1","0","1","","","","","","","",""
"pit-trial","32","381534","0.0-2.0-8.2-2.2","battery-v0.2","","""event"",""trial"",""time""
""focus"",""0"",""0""
""blur"",""1"",""2756""
""focus"",""1"",""2777""
""fullscreenenter"",""1"",""2780""
""blur"",""7"",""33476""
""focus"",""7"",""40261""
","""event"",""trial"",""time""
""blur"",""1"",""2756""
""blur"",""7"",""33476""
","""event"",""trial"",""time""
""focus"",""0"",""0""
""focus"",""1"",""2777""
""focus"",""7"",""40261""
","""event"",""trial"",""time""
""fullscreenenter"",""1"",""2780""
","
","","","452","","","21","10260","4892","&#9776;","elianto","#3366ff99"," "," ","1","+10","[1304]","1","0","1","","","","","","","",""
"pit-trial","33","384818","0.0-2.0-8.2-3.2","battery-v0.2","","""event"",""trial"",""time""
""focus"",""0"",""0""
""blur"",""1"",""2756""
""focus"",""1"",""2777""
""fullscreenenter"",""1"",""2780""
""blur"",""7"",""33476""
""focus"",""7"",""40261""
","""event"",""trial"",""time""
""blur"",""1"",""2756""
""blur"",""7"",""33476""
","""event"",""trial"",""time""
""focus"",""0"",""0""
""focus"",""1"",""2777""
""focus"",""7"",""40261""
","""event"",""trial"",""time""
""fullscreenenter"",""1"",""2780""
","
","","","423","","","21","10260","4892","&#9776;","elianto","#3366ff99"," "," ","1","0","[1274]","1","0","1","","","","","","","",""
"pit-trial","34","388111","0.0-2.0-8.2-4.2","battery-v0.2","","""event"",""trial"",""time""
""focus"",""0"",""0""
""blur"",""1"",""2756""
""focus"",""1"",""2777""
""fullscreenenter"",""1"",""2780""
""blur"",""7"",""33476""
""focus"",""7"",""40261""
","""event"",""trial"",""time""
""blur"",""1"",""2756""
""blur"",""7"",""33476""
","""event"",""trial"",""time""
""focus"",""0"",""0""
""focus"",""1"",""2777""
""focus"",""7"",""40261""
","""event"",""trial"",""time""
""fullscreenenter"",""1"",""2780""
","
","","","429","","","21","10260","4892","&#9776;","elianto","#3366ff99"," "," ","1","+10","[1281]","1","0","1","","","","","","","",""
"call-function","35","388118","0.0-2.0-9.0","battery-v0.2","","""event"",""trial"",""time""
""focus"",""0"",""0""
""blur"",""1"",""2756""
""focus"",""1"",""2777""
""fullscreenenter"",""1"",""2780""
""blur"",""7"",""33476""
""focus"",""7"",""40261""
","""event"",""trial"",""time""
""blur"",""1"",""2756""
""blur"",""7"",""33476""
","""event"",""trial"",""time""
""focus"",""0"",""0""
""focus"",""1"",""2777""
""focus"",""7"",""40261""
","""event"",""trial"",""time""
""fullscreenenter"",""1"",""2780""
","
","","","","","","","","","","","","","","","","","","","","","","","","","","",""
"pit-instructions","36","433619","0.0-2.0-10.0","battery-v0.2","","""event"",""trial"",""time""
""focus"",""0"",""0""
""blur"",""1"",""2756""
""focus"",""1"",""2777""
""fullscreenenter"",""1"",""2780""
""blur"",""7"",""33476""
""focus"",""7"",""40261""
","""event"",""trial"",""time""
""blur"",""1"",""2756""
""blur"",""7"",""33476""
","""event"",""trial"",""time""
""focus"",""0"",""0""
""focus"",""1"",""2777""
""focus"",""7"",""40261""
","""event"",""trial"",""time""
""fullscreenenter"",""1"",""2780""
","
","","[{""page_index"":0,""viewing_time"":7046},{""page_index"":1,""viewing_time"":9787},{""page_index"":2,""viewing_time"":10514},{""page_index"":3,""viewing_time"":9698},{""page_index"":4,""viewing_time"":8454}]","45500","","","","","","","","","","","","","","","","","","","","","","","",""
"pit-trial","37","438528","0.0-2.0-11.0-0.0","battery-v0.2","","""event"",""trial"",""time""
""focus"",""0"",""0""
""blur"",""1"",""2756""
""focus"",""1"",""2777""
""fullscreenenter"",""1"",""2780""
""blur"",""7"",""33476""
""focus"",""7"",""40261""
","""event"",""trial"",""time""
""blur"",""1"",""2756""
""blur"",""7"",""33476""
","""event"",""trial"",""time""
""focus"",""0"",""0""
""focus"",""1"",""2777""
""focus"",""7"",""40261""
","""event"",""trial"",""time""
""fullscreenenter"",""1"",""2780""
","
","","","-1","","","21","10260","4892","&#9761;","elianto","#3366ff99","-1","-1","1","+10","[]","0","0","2","","","","","","","",""
"pit-trial","38","443392","0.0-2.0-11.0-1.0","battery-v0.2","","""event"",""trial"",""time""
""focus"",""0"",""0""
""blur"",""1"",""2756""
""focus"",""1"",""2777""
""fullscreenenter"",""1"",""2780""
""blur"",""7"",""33476""
""focus"",""7"",""40261""
","""event"",""trial"",""time""
""blur"",""1"",""2756""
""blur"",""7"",""33476""
","""event"",""trial"",""time""
""focus"",""0"",""0""
""focus"",""1"",""2777""
""focus"",""7"",""40261""
","""event"",""trial"",""time""
""fullscreenenter"",""1"",""2780""
","
","","","-1","","","21","10260","4892","&#9761;","elianto","#3366ff99","-1","-1","1","+10","[]","0","0","2","","","","","","","",""
"pit-trial","39","448261","0.0-2.0-11.0-2.0","battery-v0.2","","""event"",""trial"",""time""
""focus"",""0"",""0""
""blur"",""1"",""2756""
""focus"",""1"",""2777""
""fullscreenenter"",""1"",""2780""
""blur"",""7"",""33476""
""focus"",""7"",""40261""
","""event"",""trial"",""time""
""blur"",""1"",""2756""
""blur"",""7"",""33476""
","""event"",""trial"",""time""
""focus"",""0"",""0""
""focus"",""1"",""2777""
""focus"",""7"",""40261""
","""event"",""trial"",""time""
""fullscreenenter"",""1"",""2780""
","
","","","-1","","","21","10260","4892","&#9761;","elianto","#3366ff99","-1","-1","1","+10","[]","0","0","2","","","","","","","",""
"pit-trial","40","453128","0.0-2.0-11.0-3.0","battery-v0.2","","""event"",""trial"",""time""
""focus"",""0"",""0""
""blur"",""1"",""2756""
""focus"",""1"",""2777""
""fullscreenenter"",""1"",""2780""
""blur"",""7"",""33476""
""focus"",""7"",""40261""
","""event"",""trial"",""time""
""blur"",""1"",""2756""
""blur"",""7"",""33476""
","""event"",""trial"",""time""
""focus"",""0"",""0""
""focus"",""1"",""2777""
""focus"",""7"",""40261""
","""event"",""trial"",""time""
""fullscreenenter"",""1"",""2780""
","
","","","-1","","","21","10260","4892","&#9761;","elianto","#3366ff99","-1","-1","1","0","[]","0","0","2","","","","","","","",""
"pit-trial","41","457996","0.0-2.0-11.0-4.0","battery-v0.2","","""event"",""trial"",""time""
""focus"",""0"",""0""
""blur"",""1"",""2756""
""focus"",""1"",""2777""
""fullscreenenter"",""1"",""2780""
""blur"",""7"",""33476""
""focus"",""7"",""40261""
","""event"",""trial"",""time""
""blur"",""1"",""2756""
""blur"",""7"",""33476""
","""event"",""trial"",""time""
""focus"",""0"",""0""
""focus"",""1"",""2777""
""focus"",""7"",""40261""
","""event"",""trial"",""time""
""fullscreenenter"",""1"",""2780""
","
","","","-1","","","21","10260","4892","&#9761;","elianto","#3366ff99","-1","-1","1","+10","[]","0","0","2","","","","","","","",""
"pit-trial","42","462860","0.0-2.0-11.1-0.1","battery-v0.2","","""event"",""trial"",""time""
""focus"",""0"",""0""
""blur"",""1"",""2756""
""focus"",""1"",""2777""
""fullscreenenter"",""1"",""2780""
""blur"",""7"",""33476""
""focus"",""7"",""40261""
","""event"",""trial"",""time""
""blur"",""1"",""2756""
""blur"",""7"",""33476""
","""event"",""trial"",""time""
""focus"",""0"",""0""
""focus"",""1"",""2777""
""focus"",""7"",""40261""
","""event"",""trial"",""time""
""fullscreenenter"",""1"",""2780""
","
","","","-1","","","21","10260","4892","&#9761;","elianto","#3366ff99","-1","-1","1","+10","[]","0","0","2","","","","","","","",""
"pit-trial","43","467728","0.0-2.0-11.1-1.1","battery-v0.2","","""event"",""trial"",""time""
""focus"",""0"",""0""
""blur"",""1"",""2756""
""focus"",""1"",""2777""
""fullscreenenter"",""1"",""2780""
""blur"",""7"",""33476""
""focus"",""7"",""40261""
","""event"",""trial"",""time""
""blur"",""1"",""2756""
""blur"",""7"",""33476""
","""event"",""trial"",""time""
""focus"",""0"",""0""
""focus"",""1"",""2777""
""focus"",""7"",""40261""
","""event"",""trial"",""time""
""fullscreenenter"",""1"",""2780""
","
","","","-1","","","21","10260","4892","&#9761;","elianto","#3366ff99","-1","-1","1","+10","[]","0","0","2","","","","","","","",""
"pit-trial","44","472595","0.0-2.0-11.1-2.1","battery-v0.2","","""event"",""trial"",""time""
""focus"",""0"",""0""
""blur"",""1"",""2756""
""focus"",""1"",""2777""
""fullscreenenter"",""1"",""2780""
""blur"",""7"",""33476""
""focus"",""7"",""40261""
","""event"",""trial"",""time""
""blur"",""1"",""2756""
""blur"",""7"",""33476""
","""event"",""trial"",""time""
""focus"",""0"",""0""
""focus"",""1"",""2777""
""focus"",""7"",""40261""
","""event"",""trial"",""time""
""fullscreenenter"",""1"",""2780""
","
","","","-1","","","21","10260","4892","&#9761;","elianto","#3366ff99","-1","-1","1","+10","[]","0","0","2","","","","","","","",""
"pit-trial","45","477460","0.0-2.0-11.1-3.1","battery-v0.2","","""event"",""trial"",""time""
""focus"",""0"",""0""
""blur"",""1"",""2756""
""focus"",""1"",""2777""
""fullscreenenter"",""1"",""2780""
""blur"",""7"",""33476""
""focus"",""7"",""40261""
","""event"",""trial"",""time""
""blur"",""1"",""2756""
""blur"",""7"",""33476""
","""event"",""trial"",""time""
""focus"",""0"",""0""
""focus"",""1"",""2777""
""focus"",""7"",""40261""
","""event"",""trial"",""time""
""fullscreenenter"",""1"",""2780""
","
","","","-1","","","21","10260","4892","&#9761;","elianto","#3366ff99","-1","-1","1","0","[]","0","0","2","","","","","","","",""
"pit-trial","46","482325","0.0-2.0-11.1-4.1","battery-v0.2","","""event"",""trial"",""time""
""focus"",""0"",""0""
""blur"",""1"",""2756""
""focus"",""1"",""2777""
""fullscreenenter"",""1"",""2780""
""blur"",""7"",""33476""
""focus"",""7"",""40261""
","""event"",""trial"",""time""
""blur"",""1"",""2756""
""blur"",""7"",""33476""
","""event"",""trial"",""time""
""focus"",""0"",""0""
""focus"",""1"",""2777""
""focus"",""7"",""40261""
","""event"",""trial"",""time""
""fullscreenenter"",""1"",""2780""
","
","","","-1","","","21","10260","4892","&#9761;","elianto","#3366ff99","-1","-1","1","+10","[]","0","0","2","","","","","","","",""
"pit-trial","47","487188","0.0-2.0-11.2-0.2","battery-v0.2","","""event"",""trial"",""time""
""focus"",""0"",""0""
""blur"",""1"",""2756""
""focus"",""1"",""2777""
""fullscreenenter"",""1"",""2780""
""blur"",""7"",""33476""
""focus"",""7"",""40261""
","""event"",""trial"",""time""
""blur"",""1"",""2756""
""blur"",""7"",""33476""
","""event"",""trial"",""time""
""focus"",""0"",""0""
""focus"",""1"",""2777""
""focus"",""7"",""40261""
","""event"",""trial"",""time""
""fullscreenenter"",""1"",""2780""
","
","","","-1","","","21","10260","4892","&#9761;","elianto","#3366ff99","-1","-1","1","+10","[]","0","0","2","","","","","","","",""
"pit-trial","48","492046","0.0-2.0-11.2-1.2","battery-v0.2","","""event"",""trial"",""time""
""focus"",""0"",""0""
""blur"",""1"",""2756""
""focus"",""1"",""2777""
""fullscreenenter"",""1"",""2780""
""blur"",""7"",""33476""
""focus"",""7"",""40261""
","""event"",""trial"",""time""
""blur"",""1"",""2756""
""blur"",""7"",""33476""
","""event"",""trial"",""time""
""focus"",""0"",""0""
""focus"",""1"",""2777""
""focus"",""7"",""40261""
","""event"",""trial"",""time""
""fullscreenenter"",""1"",""2780""
","
","","","-1","","","21","10260","4892","&#9761;","elianto","#3366ff99","-1","-1","1","+10","[]","0","0","2","","","","","","","",""
"pit-trial","49","496913","0.0-2.0-11.2-2.2","battery-v0.2","","""event"",""trial"",""time""
""focus"",""0"",""0""
""blur"",""1"",""2756""
""focus"",""1"",""2777""
""fullscreenenter"",""1"",""2780""
""blur"",""7"",""33476""
""focus"",""7"",""40261""
","""event"",""trial"",""time""
""blur"",""1"",""2756""
""blur"",""7"",""33476""
","""event"",""trial"",""time""
""focus"",""0"",""0""
""focus"",""1"",""2777""
""focus"",""7"",""40261""
","""event"",""trial"",""time""
""fullscreenenter"",""1"",""2780""
","
","","","-1","","","21","10260","4892","&#9761;","elianto","#3366ff99","-1","-1","1","+10","[]","0","0","2","","","","","","","",""
"pit-trial","50","501776","0.0-2.0-11.2-3.2","battery-v0.2","","""event"",""trial"",""time""
""focus"",""0"",""0""
""blur"",""1"",""2756""
""focus"",""1"",""2777""
""fullscreenenter"",""1"",""2780""
""blur"",""7"",""33476""
""focus"",""7"",""40261""
","""event"",""trial"",""time""
""blur"",""1"",""2756""
""blur"",""7"",""33476""
","""event"",""trial"",""time""
""focus"",""0"",""0""
""focus"",""1"",""2777""
""focus"",""7"",""40261""
","""event"",""trial"",""time""
""fullscreenenter"",""1"",""2780""
","
","","","-1","","","21","10260","4892","&#9761;","elianto","#3366ff99","-1","-1","1","0","[]","0","0","2","","","","","","","",""
"pit-trial","51","506642","0.0-2.0-11.2-4.2","battery-v0.2","","""event"",""trial"",""time""
""focus"",""0"",""0""
""blur"",""1"",""2756""
""focus"",""1"",""2777""
""fullscreenenter"",""1"",""2780""
""blur"",""7"",""33476""
""focus"",""7"",""40261""
","""event"",""trial"",""time""
""blur"",""1"",""2756""
""blur"",""7"",""33476""
","""event"",""trial"",""time""
""focus"",""0"",""0""
""focus"",""1"",""2777""
""focus"",""7"",""40261""
","""event"",""trial"",""time""
""fullscreenenter"",""1"",""2780""
","
","","","-1","","","21","10260","4892","&#9761;","elianto","#3366ff99","-1","-1","1","+10","[]","0","0","2","","","","","","","",""
"pit-trial","52","511509","0.0-2.0-11.3-0.3","battery-v0.2","","""event"",""trial"",""time""
""focus"",""0"",""0""
""blur"",""1"",""2756""
""focus"",""1"",""2777""
""fullscreenenter"",""1"",""2780""
""blur"",""7"",""33476""
""focus"",""7"",""40261""
","""event"",""trial"",""time""
""blur"",""1"",""2756""
""blur"",""7"",""33476""
","""event"",""trial"",""time""
""focus"",""0"",""0""
""focus"",""1"",""2777""
""focus"",""7"",""40261""
","""event"",""trial"",""time""
""fullscreenenter"",""1"",""2780""
","
","","","-1","","","21","10260","4892","&#9761;","elianto","#3366ff99","-1","-1","1","+10","[]","0","0","2","","","","","","","",""
"pit-trial","53","516376","0.0-2.0-11.3-1.3","battery-v0.2","","""event"",""trial"",""time""
""focus"",""0"",""0""
""blur"",""1"",""2756""
""focus"",""1"",""2777""
""fullscreenenter"",""1"",""2780""
""blur"",""7"",""33476""
""focus"",""7"",""40261""
","""event"",""trial"",""time""
""blur"",""1"",""2756""
""blur"",""7"",""33476""
","""event"",""trial"",""time""
""focus"",""0"",""0""
""focus"",""1"",""2777""
""focus"",""7"",""40261""
","""event"",""trial"",""time""
""fullscreenenter"",""1"",""2780""
","
","","","-1","","","21","10260","4892","&#9761;","elianto","#3366ff99","-1","-1","1","+10","[]","0","0","2","","","","","","","",""
"pit-trial","54","521238","0.0-2.0-11.3-2.3","battery-v0.2","","""event"",""trial"",""time""
""focus"",""0"",""0""
""blur"",""1"",""2756""
""focus"",""1"",""2777""
""fullscreenenter"",""1"",""2780""
""blur"",""7"",""33476""
""focus"",""7"",""40261""
","""event"",""trial"",""time""
""blur"",""1"",""2756""
""blur"",""7"",""33476""
","""event"",""trial"",""time""
""focus"",""0"",""0""
""focus"",""1"",""2777""
""focus"",""7"",""40261""
","""event"",""trial"",""time""
""fullscreenenter"",""1"",""2780""
","
","","","-1","","","21","10260","4892","&#9761;","elianto","#3366ff99","-1","-1","1","+10","[]","0","0","2","","","","","","","",""
"pit-trial","55","526106","0.0-2.0-11.3-3.3","battery-v0.2","","""event"",""trial"",""time""
""focus"",""0"",""0""
""blur"",""1"",""2756""
""focus"",""1"",""2777""
""fullscreenenter"",""1"",""2780""
""blur"",""7"",""33476""
""focus"",""7"",""40261""
","""event"",""trial"",""time""
""blur"",""1"",""2756""
""blur"",""7"",""33476""
","""event"",""trial"",""time""
""focus"",""0"",""0""
""focus"",""1"",""2777""
""focus"",""7"",""40261""
","""event"",""trial"",""time""
""fullscreenenter"",""1"",""2780""
","
","","","-1","","","21","10260","4892","&#9761;","elianto","#3366ff99","-1","-1","1","0","[]","0","0","2","","","","","","","",""
"pit-trial","56","530970","0.0-2.0-11.3-4.3","battery-v0.2","","""event"",""trial"",""time""
""focus"",""0"",""0""
""blur"",""1"",""2756""
""focus"",""1"",""2777""
""fullscreenenter"",""1"",""2780""
""blur"",""7"",""33476""
""focus"",""7"",""40261""
","""event"",""trial"",""time""
""blur"",""1"",""2756""
""blur"",""7"",""33476""
","""event"",""trial"",""time""
""focus"",""0"",""0""
""focus"",""1"",""2777""
""focus"",""7"",""40261""
","""event"",""trial"",""time""
""fullscreenenter"",""1"",""2780""
","
","","","-1","","","21","10260","4892","&#9761;","elianto","#3366ff99","-1","-1","1","+10","[]","0","0","2","","","","","","","",""
"call-function","57","530977","0.0-2.0-12.0","battery-v0.2","","""event"",""trial"",""time""
""focus"",""0"",""0""
""blur"",""1"",""2756""
""focus"",""1"",""2777""
""fullscreenenter"",""1"",""2780""
""blur"",""7"",""33476""
""focus"",""7"",""40261""
","""event"",""trial"",""time""
""blur"",""1"",""2756""
""blur"",""7"",""33476""
","""event"",""trial"",""time""
""focus"",""0"",""0""
""focus"",""1"",""2777""
""focus"",""7"",""40261""
","""event"",""trial"",""time""
""fullscreenenter"",""1"",""2780""
","
","","","","","","","","","","","","","","","","","","","","","","","","","","",""
"pit-instructions","58","569386","0.0-2.0-13.0","battery-v0.2","","""event"",""trial"",""time""
""focus"",""0"",""0""
""blur"",""1"",""2756""
""focus"",""1"",""2777""
""fullscreenenter"",""1"",""2780""
""blur"",""7"",""33476""
""focus"",""7"",""40261""
","""event"",""trial"",""time""
""blur"",""1"",""2756""
""blur"",""7"",""33476""
","""event"",""trial"",""time""
""focus"",""0"",""0""
""focus"",""1"",""2777""
""focus"",""7"",""40261""
","""event"",""trial"",""time""
""fullscreenenter"",""1"",""2780""
","
","","[{""page_index"":0,""viewing_time"":6281},{""page_index"":1,""viewing_time"":8487},{""page_index"":2,""viewing_time"":5424},{""page_index"":3,""viewing_time"":12137},{""page_index"":4,""viewing_time"":6079}]","38410","","","","","","","","","","","","","","","","","","","","","","","",""
"pit-trial","59","572657","0.0-2.0-14.0-0.0","battery-v0.2","","""event"",""trial"",""time""
""focus"",""0"",""0""
""blur"",""1"",""2756""
""focus"",""1"",""2777""
""fullscreenenter"",""1"",""2780""
""blur"",""7"",""33476""
""focus"",""7"",""40261""
","""event"",""trial"",""time""
""blur"",""1"",""2756""
""blur"",""7"",""33476""
","""event"",""trial"",""time""
""focus"",""0"",""0""
""focus"",""1"",""2777""
""focus"",""7"",""40261""
","""event"",""trial"",""time""
""fullscreenenter"",""1"",""2780""
","
","","","403","","","21","10260","4892","&#9826;","elianto","#f73b6a7A","-1"," ","0","-10","[1256]","1","0","3","","","","","","","",""
"pit-trial","60","577523","0.0-2.0-14.0-1.0","battery-v0.2","","""event"",""trial"",""time""
""focus"",""0"",""0""
""blur"",""1"",""2756""
""focus"",""1"",""2777""
""fullscreenenter"",""1"",""2780""
""blur"",""7"",""33476""
""focus"",""7"",""40261""
","""event"",""trial"",""time""
""blur"",""1"",""2756""
""blur"",""7"",""33476""
","""event"",""trial"",""time""
""focus"",""0"",""0""
""focus"",""1"",""2777""
""focus"",""7"",""40261""
","""event"",""trial"",""time""
""fullscreenenter"",""1"",""2780""
","
","","","-1","","","21","10260","4892","&#9826;","elianto","#f73b6a7A","-1","-1","1","0","[]","0","0","3","","","","","","","",""
"pit-trial","61","582390","0.0-2.0-14.0-2.0","battery-v0.2","","""event"",""trial"",""time""
""focus"",""0"",""0""
""blur"",""1"",""2756""
""focus"",""1"",""2777""
""fullscreenenter"",""1"",""2780""
""blur"",""7"",""33476""
""focus"",""7"",""40261""
","""event"",""trial"",""time""
""blur"",""1"",""2756""
""blur"",""7"",""33476""
","""event"",""trial"",""time""
""focus"",""0"",""0""
""focus"",""1"",""2777""
""focus"",""7"",""40261""
","""event"",""trial"",""time""
""fullscreenenter"",""1"",""2780""
","
","","","-1","","","21","10260","4892","&#9826;","elianto","#f73b6a7A","-1","-1","1","0","[]","0","0","3","","","","","","","",""
"pit-trial","62","587258","0.0-2.0-14.0-3.0","battery-v0.2","","""event"",""trial"",""time""
""focus"",""0"",""0""
""blur"",""1"",""2756""
""focus"",""1"",""2777""
""fullscreenenter"",""1"",""2780""
""blur"",""7"",""33476""
""focus"",""7"",""40261""
","""event"",""trial"",""time""
""blur"",""1"",""2756""
""blur"",""7"",""33476""
","""event"",""trial"",""time""
""focus"",""0"",""0""
""focus"",""1"",""2777""
""focus"",""7"",""40261""
","""event"",""trial"",""time""
""fullscreenenter"",""1"",""2780""
","
","","","-1","","","21","10260","4892","&#9826;","elianto","#f73b6a7A","-1","-1","1","-10","[]","0","0","3","","","","","","","",""
"pit-trial","63","592123","0.0-2.0-14.0-4.0","battery-v0.2","","""event"",""trial"",""time""
""focus"",""0"",""0""
""blur"",""1"",""2756""
""focus"",""1"",""2777""
""fullscreenenter"",""1"",""2780""
""blur"",""7"",""33476""
""focus"",""7"",""40261""
","""event"",""trial"",""time""
""blur"",""1"",""2756""
""blur"",""7"",""33476""
","""event"",""trial"",""time""
""focus"",""0"",""0""
""focus"",""1"",""2777""
""focus"",""7"",""40261""
","""event"",""trial"",""time""
""fullscreenenter"",""1"",""2780""
","
","","","-1","","","21","10260","4892","&#9826;","elianto","#f73b6a7A","-1","-1","1","0","[]","0","0","3","","","","","","","",""
"pit-trial","64","596990","0.0-2.0-14.1-0.1","battery-v0.2","","""event"",""trial"",""time""
""focus"",""0"",""0""
""blur"",""1"",""2756""
""focus"",""1"",""2777""
""fullscreenenter"",""1"",""2780""
""blur"",""7"",""33476""
""focus"",""7"",""40261""
","""event"",""trial"",""time""
""blur"",""1"",""2756""
""blur"",""7"",""33476""
","""event"",""trial"",""time""
""focus"",""0"",""0""
""focus"",""1"",""2777""
""focus"",""7"",""40261""
","""event"",""trial"",""time""
""fullscreenenter"",""1"",""2780""
","
","","","-1","","","21","10260","4892","&#9826;","elianto","#f73b6a7A","-1","-1","1","0","[]","0","0","3","","","","","","","",""
"pit-trial","65","601853","0.0-2.0-14.1-1.1","battery-v0.2","","""event"",""trial"",""time""
""focus"",""0"",""0""
""blur"",""1"",""2756""
""focus"",""1"",""2777""
""fullscreenenter"",""1"",""2780""
""blur"",""7"",""33476""
""focus"",""7"",""40261""
","""event"",""trial"",""time""
""blur"",""1"",""2756""
""blur"",""7"",""33476""
","""event"",""trial"",""time""
""focus"",""0"",""0""
""focus"",""1"",""2777""
""focus"",""7"",""40261""
","""event"",""trial"",""time""
""fullscreenenter"",""1"",""2780""
","
","","","-1","","","21","10260","4892","&#9826;","elianto","#f73b6a7A","-1","-1","1","0","[]","0","0","3","","","","","","","",""
"pit-trial","66","606721","0.0-2.0-14.1-2.1","battery-v0.2","","""event"",""trial"",""time""
""focus"",""0"",""0""
""blur"",""1"",""2756""
""focus"",""1"",""2777""
""fullscreenenter"",""1"",""2780""
""blur"",""7"",""33476""
""focus"",""7"",""40261""
","""event"",""trial"",""time""
""blur"",""1"",""2756""
""blur"",""7"",""33476""
","""event"",""trial"",""time""
""focus"",""0"",""0""
""focus"",""1"",""2777""
""focus"",""7"",""40261""
","""event"",""trial"",""time""
""fullscreenenter"",""1"",""2780""
","
","","","-1","","","21","10260","4892","&#9826;","elianto","#f73b6a7A","-1","-1","1","0","[]","0","0","3","","","","","","","",""
"pit-trial","67","611588","0.0-2.0-14.1-3.1","battery-v0.2","","""event"",""trial"",""time""
""focus"",""0"",""0""
""blur"",""1"",""2756""
""focus"",""1"",""2777""
""fullscreenenter"",""1"",""2780""
""blur"",""7"",""33476""
""focus"",""7"",""40261""
","""event"",""trial"",""time""
""blur"",""1"",""2756""
""blur"",""7"",""33476""
","""event"",""trial"",""time""
""focus"",""0"",""0""
""focus"",""1"",""2777""
""focus"",""7"",""40261""
","""event"",""trial"",""time""
""fullscreenenter"",""1"",""2780""
","
","","","-1","","","21","10260","4892","&#9826;","elianto","#f73b6a7A","-1","-1","1","-10","[]","0","0","3","","","","","","","",""
"pit-trial","68","616451","0.0-2.0-14.1-4.1","battery-v0.2","","""event"",""trial"",""time""
""focus"",""0"",""0""
""blur"",""1"",""2756""
""focus"",""1"",""2777""
""fullscreenenter"",""1"",""2780""
""blur"",""7"",""33476""
""focus"",""7"",""40261""
","""event"",""trial"",""time""
""blur"",""1"",""2756""
""blur"",""7"",""33476""
","""event"",""trial"",""time""
""focus"",""0"",""0""
""focus"",""1"",""2777""
""focus"",""7"",""40261""
","""event"",""trial"",""time""
""fullscreenenter"",""1"",""2780""
","
","","","-1","","","21","10260","4892","&#9826;","elianto","#f73b6a7A","-1","-1","1","0","[]","0","0","3","","","","","","","",""
"pit-trial","69","621319","0.0-2.0-14.2-0.2","battery-v0.2","","""event"",""trial"",""time""
""focus"",""0"",""0""
""blur"",""1"",""2756""
""focus"",""1"",""2777""
""fullscreenenter"",""1"",""2780""
""blur"",""7"",""33476""
""focus"",""7"",""40261""
","""event"",""trial"",""time""
""blur"",""1"",""2756""
""blur"",""7"",""33476""
","""event"",""trial"",""time""
""focus"",""0"",""0""
""focus"",""1"",""2777""
""focus"",""7"",""40261""
","""event"",""trial"",""time""
""fullscreenenter"",""1"",""2780""
","
","","","-1","","","21","10260","4892","&#9826;","elianto","#f73b6a7A","-1","-1","1","0","[]","0","0","3","","","","","","","",""
"pit-trial","70","626186","0.0-2.0-14.2-1.2","battery-v0.2","","""event"",""trial"",""time""
""focus"",""0"",""0""
""blur"",""1"",""2756""
""focus"",""1"",""2777""
""fullscreenenter"",""1"",""2780""
""blur"",""7"",""33476""
""focus"",""7"",""40261""
","""event"",""trial"",""time""
""blur"",""1"",""2756""
""blur"",""7"",""33476""
","""event"",""trial"",""time""
""focus"",""0"",""0""
""focus"",""1"",""2777""
""focus"",""7"",""40261""
","""event"",""trial"",""time""
""fullscreenenter"",""1"",""2780""
","
","","","-1","","","21","10260","4892","&#9826;","elianto","#f73b6a7A","-1","-1","1","0","[]","0","0","3","","","","","","","",""
"pit-trial","71","631049","0.0-2.0-14.2-2.2","battery-v0.2","","""event"",""trial"",""time""
""focus"",""0"",""0""
""blur"",""1"",""2756""
""focus"",""1"",""2777""
""fullscreenenter"",""1"",""2780""
""blur"",""7"",""33476""
""focus"",""7"",""40261""
","""event"",""trial"",""time""
""blur"",""1"",""2756""
""blur"",""7"",""33476""
","""event"",""trial"",""time""
""focus"",""0"",""0""
""focus"",""1"",""2777""
""focus"",""7"",""40261""
","""event"",""trial"",""time""
""fullscreenenter"",""1"",""2780""
","
","","","-1","","","21","10260","4892","&#9826;","elianto","#f73b6a7A","-1","-1","1","0","[]","0","0","3","","","","","","","",""
"pit-trial","72","635909","0.0-2.0-14.2-3.2","battery-v0.2","","""event"",""trial"",""time""
""focus"",""0"",""0""
""blur"",""1"",""2756""
""focus"",""1"",""2777""
""fullscreenenter"",""1"",""2780""
""blur"",""7"",""33476""
""focus"",""7"",""40261""
","""event"",""trial"",""time""
""blur"",""1"",""2756""
""blur"",""7"",""33476""
","""event"",""trial"",""time""
""focus"",""0"",""0""
""focus"",""1"",""2777""
""focus"",""7"",""40261""
","""event"",""trial"",""time""
""fullscreenenter"",""1"",""2780""
","
","","","-1","","","21","10260","4892","&#9826;","elianto","#f73b6a7A","-1","-1","1","-10","[]","0","0","3","","","","","","","",""
"pit-trial","73","640776","0.0-2.0-14.2-4.2","battery-v0.2","","""event"",""trial"",""time""
""focus"",""0"",""0""
""blur"",""1"",""2756""
""focus"",""1"",""2777""
""fullscreenenter"",""1"",""2780""
""blur"",""7"",""33476""
""focus"",""7"",""40261""
","""event"",""trial"",""time""
""blur"",""1"",""2756""
""blur"",""7"",""33476""
","""event"",""trial"",""time""
""focus"",""0"",""0""
""focus"",""1"",""2777""
""focus"",""7"",""40261""
","""event"",""trial"",""time""
""fullscreenenter"",""1"",""2780""
","
","","","-1","","","21","10260","4892","&#9826;","elianto","#f73b6a7A","-1","-1","1","0","[]","0","0","3","","","","","","","",""
"pit-trial","74","645644","0.0-2.0-14.3-0.3","battery-v0.2","","""event"",""trial"",""time""
""focus"",""0"",""0""
""blur"",""1"",""2756""
""focus"",""1"",""2777""
""fullscreenenter"",""1"",""2780""
""blur"",""7"",""33476""
""focus"",""7"",""40261""
","""event"",""trial"",""time""
""blur"",""1"",""2756""
""blur"",""7"",""33476""
","""event"",""trial"",""time""
""focus"",""0"",""0""
""focus"",""1"",""2777""
""focus"",""7"",""40261""
","""event"",""trial"",""time""
""fullscreenenter"",""1"",""2780""
","
","","","-1","","","21","10260","4892","&#9826;","elianto","#f73b6a7A","-1","-1","1","0","[]","0","0","3","","","","","","","",""
"pit-trial","75","650508","0.0-2.0-14.3-1.3","battery-v0.2","","""event"",""trial"",""time""
""focus"",""0"",""0""
""blur"",""1"",""2756""
""focus"",""1"",""2777""
""fullscreenenter"",""1"",""2780""
""blur"",""7"",""33476""
""focus"",""7"",""40261""
","""event"",""trial"",""time""
""blur"",""1"",""2756""
""blur"",""7"",""33476""
","""event"",""trial"",""time""
""focus"",""0"",""0""
""focus"",""1"",""2777""
""focus"",""7"",""40261""
","""event"",""trial"",""time""
""fullscreenenter"",""1"",""2780""
","
","","","-1","","","21","10260","4892","&#9826;","elianto","#f73b6a7A","-1","-1","1","0","[]","0","0","3","","","","","","","",""
"pit-trial","76","655376","0.0-2.0-14.3-2.3","battery-v0.2","","""event"",""trial"",""time""
""focus"",""0"",""0""
""blur"",""1"",""2756""
""focus"",""1"",""2777""
""fullscreenenter"",""1"",""2780""
""blur"",""7"",""33476""
""focus"",""7"",""40261""
","""event"",""trial"",""time""
""blur"",""1"",""2756""
""blur"",""7"",""33476""
","""event"",""trial"",""time""
""focus"",""0"",""0""
""focus"",""1"",""2777""
""focus"",""7"",""40261""
","""event"",""trial"",""time""
""fullscreenenter"",""1"",""2780""
","
","","","-1","","","21","10260","4892","&#9826;","elianto","#f73b6a7A","-1","-1","1","0","[]","0","0","3","","","","","","","",""
"pit-trial","77","660243","0.0-2.0-14.3-3.3","battery-v0.2","","""event"",""trial"",""time""
""focus"",""0"",""0""
""blur"",""1"",""2756""
""focus"",""1"",""2777""
""fullscreenenter"",""1"",""2780""
""blur"",""7"",""33476""
""focus"",""7"",""40261""
","""event"",""trial"",""time""
""blur"",""1"",""2756""
""blur"",""7"",""33476""
","""event"",""trial"",""time""
""focus"",""0"",""0""
""focus"",""1"",""2777""
""focus"",""7"",""40261""
","""event"",""trial"",""time""
""fullscreenenter"",""1"",""2780""
","
","","","-1","","","21","10260","4892","&#9826;","elianto","#f73b6a7A","-1","-1","1","-10","[]","0","0","3","","","","","","","",""
"pit-trial","78","665110","0.0-2.0-14.3-4.3","battery-v0.2","","""event"",""trial"",""time""
""focus"",""0"",""0""
""blur"",""1"",""2756""
""focus"",""1"",""2777""
""fullscreenenter"",""1"",""2780""
""blur"",""7"",""33476""
""focus"",""7"",""40261""
","""event"",""trial"",""time""
""blur"",""1"",""2756""
""blur"",""7"",""33476""
","""event"",""trial"",""time""
""focus"",""0"",""0""
""focus"",""1"",""2777""
""focus"",""7"",""40261""
","""event"",""trial"",""time""
""fullscreenenter"",""1"",""2780""
","
","","","-1","","","21","10260","4892","&#9826;","elianto","#f73b6a7A","-1","-1","1","0","[]","0","0","3","","","","","","","",""
"call-function","79","665116","0.0-2.0-15.0","battery-v0.2","","""event"",""trial"",""time""
""focus"",""0"",""0""
""blur"",""1"",""2756""
""focus"",""1"",""2777""
""fullscreenenter"",""1"",""2780""
""blur"",""7"",""33476""
""focus"",""7"",""40261""
","""event"",""trial"",""time""
""blur"",""1"",""2756""
""blur"",""7"",""33476""
","""event"",""trial"",""time""
""focus"",""0"",""0""
""focus"",""1"",""2777""
""focus"",""7"",""40261""
","""event"",""trial"",""time""
""fullscreenenter"",""1"",""2780""
","
","","","","","","","","","","","","","","","","","","","","","","","","","","",""
"pit-instructions","80","697118","0.0-2.0-16.0","battery-v0.2","","""event"",""trial"",""time""
""focus"",""0"",""0""
""blur"",""1"",""2756""
""focus"",""1"",""2777""
""fullscreenenter"",""1"",""2780""
""blur"",""7"",""33476""
""focus"",""7"",""40261""
","""event"",""trial"",""time""
""blur"",""1"",""2756""
""blur"",""7"",""33476""
","""event"",""trial"",""time""
""focus"",""0"",""0""
""focus"",""1"",""2777""
""focus"",""7"",""40261""
","""event"",""trial"",""time""
""fullscreenenter"",""1"",""2780""
","
","","[{""page_index"":0,""viewing_time"":8945},{""page_index"":1,""viewing_time"":10660},{""page_index"":2,""viewing_time"":5521},{""page_index"":3,""viewing_time"":6874}]","32000","","","","","","","","","","","","","","","","","","","","","","","",""
"pit-trial","81","700383","0.0-2.0-17.0-0.0","battery-v0.2","","""event"",""trial"",""time""
""focus"",""0"",""0""
""blur"",""1"",""2756""
""focus"",""1"",""2777""
""fullscreenenter"",""1"",""2780""
""blur"",""7"",""33476""
""focus"",""7"",""40261""
","""event"",""trial"",""time""
""blur"",""1"",""2756""
""blur"",""7"",""33476""
","""event"",""trial"",""time""
""focus"",""0"",""0""
""focus"",""1"",""2777""
""focus"",""7"",""40261""
","""event"",""trial"",""time""
""fullscreenenter"",""1"",""2780""
","
","","","398","","","21","10260","4892","&#9789;","elianto","#f73b6a7A"," "," ","1","0","[1252]","1","0","4","","","","","","","",""
"pit-trial","82","703816","0.0-2.0-17.0-1.0","battery-v0.2","","""event"",""trial"",""time""
""focus"",""0"",""0""
""blur"",""1"",""2756""
""focus"",""1"",""2777""
""fullscreenenter"",""1"",""2780""
""blur"",""7"",""33476""
""focus"",""7"",""40261""
","""event"",""trial"",""time""
""blur"",""1"",""2756""
""blur"",""7"",""33476""
","""event"",""trial"",""time""
""focus"",""0"",""0""
""focus"",""1"",""2777""
""focus"",""7"",""40261""
","""event"",""trial"",""time""
""fullscreenenter"",""1"",""2780""
","
","","","564","","","21","10260","4892","&#9789;","elianto","#f73b6a7A"," "," ","1","0","[1419]","1","0","4","","","","","","","",""
"pit-trial","83","707213","0.0-2.0-17.0-2.0","battery-v0.2","","""event"",""trial"",""time""
""focus"",""0"",""0""
""blur"",""1"",""2756""
""focus"",""1"",""2777""
""fullscreenenter"",""1"",""2780""
""blur"",""7"",""33476""
""focus"",""7"",""40261""
","""event"",""trial"",""time""
""blur"",""1"",""2756""
""blur"",""7"",""33476""
","""event"",""trial"",""time""
""focus"",""0"",""0""
""focus"",""1"",""2777""
""focus"",""7"",""40261""
","""event"",""trial"",""time""
""fullscreenenter"",""1"",""2780""
","
","","","533","","","21","10260","4892","&#9789;","elianto","#f73b6a7A"," "," ","1","0","[1386]","1","0","4","","","","","","","",""
"pit-trial","84","710415","0.0-2.0-17.0-3.0","battery-v0.2","","""event"",""trial"",""time""
""focus"",""0"",""0""
""blur"",""1"",""2756""
""focus"",""1"",""2777""
""fullscreenenter"",""1"",""2780""
""blur"",""7"",""33476""
""focus"",""7"",""40261""
","""event"",""trial"",""time""
""blur"",""1"",""2756""
""blur"",""7"",""33476""
","""event"",""trial"",""time""
""focus"",""0"",""0""
""focus"",""1"",""2777""
""focus"",""7"",""40261""
","""event"",""trial"",""time""
""fullscreenenter"",""1"",""2780""
","
","","","336","","","21","10260","4892","&#9789;","elianto","#f73b6a7A"," "," ","1","-10","[1190]","1","0","4","","","","","","","",""
"pit-trial","85","713656","0.0-2.0-17.0-4.0","battery-v0.2","","""event"",""trial"",""time""
""focus"",""0"",""0""
""blur"",""1"",""2756""
""focus"",""1"",""2777""
""fullscreenenter"",""1"",""2780""
""blur"",""7"",""33476""
""focus"",""7"",""40261""
","""event"",""trial"",""time""
""blur"",""1"",""2756""
""blur"",""7"",""33476""
","""event"",""trial"",""time""
""focus"",""0"",""0""
""focus"",""1"",""2777""
""focus"",""7"",""40261""
","""event"",""trial"",""time""
""fullscreenenter"",""1"",""2780""
","
","","","380","","","21","10260","4892","&#9789;","elianto","#f73b6a7A"," "," ","1","0","[1232]","1","0","4","","","","","","","",""
"pit-trial","86","716895","0.0-2.0-17.1-0.1","battery-v0.2","","""event"",""trial"",""time""
""focus"",""0"",""0""
""blur"",""1"",""2756""
""focus"",""1"",""2777""
""fullscreenenter"",""1"",""2780""
""blur"",""7"",""33476""
""focus"",""7"",""40261""
","""event"",""trial"",""time""
""blur"",""1"",""2756""
""blur"",""7"",""33476""
","""event"",""trial"",""time""
""focus"",""0"",""0""
""focus"",""1"",""2777""
""focus"",""7"",""40261""
","""event"",""trial"",""time""
""fullscreenenter"",""1"",""2780""
","
","","","373","","","21","10260","4892","&#9789;","elianto","#f73b6a7A"," "," ","1","0","[1228]","1","0","4","","","","","","","",""
"pit-trial","87","720429","0.0-2.0-17.1-1.1","battery-v0.2","","""event"",""trial"",""time""
""focus"",""0"",""0""
""blur"",""1"",""2756""
""focus"",""1"",""2777""
""fullscreenenter"",""1"",""2780""
""blur"",""7"",""33476""
""focus"",""7"",""40261""
","""event"",""trial"",""time""
""blur"",""1"",""2756""
""blur"",""7"",""33476""
","""event"",""trial"",""time""
""focus"",""0"",""0""
""focus"",""1"",""2777""
""focus"",""7"",""40261""
","""event"",""trial"",""time""
""fullscreenenter"",""1"",""2780""
","
","","","670","","","21","10260","4892","&#9789;","elianto","#f73b6a7A"," "," ","1","0","[1525]","1","0","4","","","","","","","",""
"pit-trial","88","723749","0.0-2.0-17.1-2.1","battery-v0.2","","""event"",""trial"",""time""
""focus"",""0"",""0""
""blur"",""1"",""2756""
""focus"",""1"",""2777""
""fullscreenenter"",""1"",""2780""
""blur"",""7"",""33476""
""focus"",""7"",""40261""
","""event"",""trial"",""time""
""blur"",""1"",""2756""
""blur"",""7"",""33476""
","""event"",""trial"",""time""
""focus"",""0"",""0""
""focus"",""1"",""2777""
""focus"",""7"",""40261""
","""event"",""trial"",""time""
""fullscreenenter"",""1"",""2780""
","
","","","459","","","21","10260","4892","&#9789;","elianto","#f73b6a7A"," "," ","1","0","[1310]","1","0","4","","","","","","","",""
"pit-trial","89","727293","0.0-2.0-17.1-3.1","battery-v0.2","","""event"",""trial"",""time""
""focus"",""0"",""0""
""blur"",""1"",""2756""
""focus"",""1"",""2777""
""fullscreenenter"",""1"",""2780""
""blur"",""7"",""33476""
""focus"",""7"",""40261""
","""event"",""trial"",""time""
""blur"",""1"",""2756""
""blur"",""7"",""33476""
","""event"",""trial"",""time""
""focus"",""0"",""0""
""focus"",""1"",""2777""
""focus"",""7"",""40261""
","""event"",""trial"",""time""
""fullscreenenter"",""1"",""2780""
","
","","","680","","","21","10260","4892","&#9789;","elianto","#f73b6a7A"," "," ","1","-10","[1535]","1","0","4","","","","","","","",""
"pit-trial","90","730950","0.0-2.0-17.1-4.1","battery-v0.2","","""event"",""trial"",""time""
""focus"",""0"",""0""
""blur"",""1"",""2756""
""focus"",""1"",""2777""
""fullscreenenter"",""1"",""2780""
""blur"",""7"",""33476""
""focus"",""7"",""40261""
","""event"",""trial"",""time""
""blur"",""1"",""2756""
""blur"",""7"",""33476""
","""event"",""trial"",""time""
""focus"",""0"",""0""
""focus"",""1"",""2777""
""focus"",""7"",""40261""
","""event"",""trial"",""time""
""fullscreenenter"",""1"",""2780""
","
","","","795","","","21","10260","4892","&#9789;","elianto","#f73b6a7A"," "," ","1","0","[1646]","1","0","4","","","","","","","",""
"pit-trial","91","734497","0.0-2.0-17.2-0.2","battery-v0.2","","""event"",""trial"",""time""
""focus"",""0"",""0""
""blur"",""1"",""2756""
""focus"",""1"",""2777""
""fullscreenenter"",""1"",""2780""
""blur"",""7"",""33476""
""focus"",""7"",""40261""
","""event"",""trial"",""time""
""blur"",""1"",""2756""
""blur"",""7"",""33476""
","""event"",""trial"",""time""
""focus"",""0"",""0""
""focus"",""1"",""2777""
""focus"",""7"",""40261""
","""event"",""trial"",""time""
""fullscreenenter"",""1"",""2780""
","
","","","681","","","21","10260","4892","&#9789;","elianto","#f73b6a7A"," "," ","1","0","[1535]","1","0","4","","","","","","","",""
"pit-trial","92","737824","0.0-2.0-17.2-1.2","battery-v0.2","","""event"",""trial"",""time""
""focus"",""0"",""0""
""blur"",""1"",""2756""
""focus"",""1"",""2777""
""fullscreenenter"",""1"",""2780""
""blur"",""7"",""33476""
""focus"",""7"",""40261""
","""event"",""trial"",""time""
""blur"",""1"",""2756""
""blur"",""7"",""33476""
","""event"",""trial"",""time""
""focus"",""0"",""0""
""focus"",""1"",""2777""
""focus"",""7"",""40261""
","""event"",""trial"",""time""
""fullscreenenter"",""1"",""2780""
","
","","","464","","","21","10260","4892","&#9789;","elianto","#f73b6a7A"," "," ","1","0","[1315]","1","0","4","","","","","","","",""
"pit-trial","93","741217","0.0-2.0-17.2-2.2","battery-v0.2","","""event"",""trial"",""time""
""focus"",""0"",""0""
""blur"",""1"",""2756""
""focus"",""1"",""2777""
""fullscreenenter"",""1"",""2780""
""blur"",""7"",""33476""
""focus"",""7"",""40261""
","""event"",""trial"",""time""
""blur"",""1"",""2756""
""blur"",""7"",""33476""
","""event"",""trial"",""time""
""focus"",""0"",""0""
""focus"",""1"",""2777""
""focus"",""7"",""40261""
","""event"",""trial"",""time""
""fullscreenenter"",""1"",""2780""
","
","","","526","","","21","10260","4892","&#9789;","elianto","#f73b6a7A"," "," ","1","0","[1380]","1","0","4","","","","","","","",""
"pit-trial","94","744584","0.0-2.0-17.2-3.2","battery-v0.2","","""event"",""trial"",""time""
""focus"",""0"",""0""
""blur"",""1"",""2756""
""focus"",""1"",""2777""
""fullscreenenter"",""1"",""2780""
""blur"",""7"",""33476""
""focus"",""7"",""40261""
","""event"",""trial"",""time""
""blur"",""1"",""2756""
""blur"",""7"",""33476""
","""event"",""trial"",""time""
""focus"",""0"",""0""
""focus"",""1"",""2777""
""focus"",""7"",""40261""
","""event"",""trial"",""time""
""fullscreenenter"",""1"",""2780""
","
","","","504","","","21","10260","4892","&#9789;","elianto","#f73b6a7A"," "," ","1","-10","[1355]","1","0","4","","","","","","","",""
"pit-trial","95","748029","0.0-2.0-17.2-4.2","battery-v0.2","","""event"",""trial"",""time""
""focus"",""0"",""0""
""blur"",""1"",""2756""
""focus"",""1"",""2777""
""fullscreenenter"",""1"",""2780""
""blur"",""7"",""33476""
""focus"",""7"",""40261""
","""event"",""trial"",""time""
""blur"",""1"",""2756""
""blur"",""7"",""33476""
","""event"",""trial"",""time""
""focus"",""0"",""0""
""focus"",""1"",""2777""
""focus"",""7"",""40261""
","""event"",""trial"",""time""
""fullscreenenter"",""1"",""2780""
","
","","","578","","","21","10260","4892","&#9789;","elianto","#f73b6a7A"," "," ","1","0","[1432]","1","0","4","","","","","","","",""
"pit-trial","96","751356","0.0-2.0-17.3-0.3","battery-v0.2","","""event"",""trial"",""time""
""focus"",""0"",""0""
""blur"",""1"",""2756""
""focus"",""1"",""2777""
""fullscreenenter"",""1"",""2780""
""blur"",""7"",""33476""
""focus"",""7"",""40261""
","""event"",""trial"",""time""
""blur"",""1"",""2756""
""blur"",""7"",""33476""
","""event"",""trial"",""time""
""focus"",""0"",""0""
""focus"",""1"",""2777""
""focus"",""7"",""40261""
","""event"",""trial"",""time""
""fullscreenenter"",""1"",""2780""
","
","","","464","","","21","10260","4892","&#9789;","elianto","#f73b6a7A"," "," ","1","0","[1319]","1","0","4","","","","","","","",""
"pit-trial","97","754625","0.0-2.0-17.3-1.3","battery-v0.2","","""event"",""trial"",""time""
""focus"",""0"",""0""
""blur"",""1"",""2756""
""focus"",""1"",""2777""
""fullscreenenter"",""1"",""2780""
""blur"",""7"",""33476""
""focus"",""7"",""40261""
","""event"",""trial"",""time""
""blur"",""1"",""2756""
""blur"",""7"",""33476""
","""event"",""trial"",""time""
""focus"",""0"",""0""
""focus"",""1"",""2777""
""focus"",""7"",""40261""
","""event"",""trial"",""time""
""fullscreenenter"",""1"",""2780""
","
","","","402","","","21","10260","4892","&#9789;","elianto","#f73b6a7A"," "," ","1","0","[1257]","1","0","4","","","","","","","",""
"pit-trial","98","757876","0.0-2.0-17.3-2.3","battery-v0.2","","""event"",""trial"",""time""
""focus"",""0"",""0""
""blur"",""1"",""2756""
""focus"",""1"",""2777""
""fullscreenenter"",""1"",""2780""
""blur"",""7"",""33476""
""focus"",""7"",""40261""
","""event"",""trial"",""time""
""blur"",""1"",""2756""
""blur"",""7"",""33476""
","""event"",""trial"",""time""
""focus"",""0"",""0""
""focus"",""1"",""2777""
""focus"",""7"",""40261""
","""event"",""trial"",""time""
""fullscreenenter"",""1"",""2780""
","
","","","387","","","21","10260","4892","&#9789;","elianto","#f73b6a7A"," "," ","1","0","[1237]","1","0","4","","","","","","","",""
"pit-trial","99","761214","0.0-2.0-17.3-3.3","battery-v0.2","","""event"",""trial"",""time""
""focus"",""0"",""0""
""blur"",""1"",""2756""
""focus"",""1"",""2777""
""fullscreenenter"",""1"",""2780""
""blur"",""7"",""33476""
""focus"",""7"",""40261""
","""event"",""trial"",""time""
""blur"",""1"",""2756""
""blur"",""7"",""33476""
","""event"",""trial"",""time""
""focus"",""0"",""0""
""focus"",""1"",""2777""
""focus"",""7"",""40261""
","""event"",""trial"",""time""
""fullscreenenter"",""1"",""2780""
","
","","","470","","","21","10260","4892","&#9789;","elianto","#f73b6a7A"," "," ","1","-10","[1325]","1","0","4","","","","","","","",""
"pit-trial","100","764568","0.0-2.0-17.3-4.3","battery-v0.2","","""event"",""trial"",""time""
""focus"",""0"",""0""
""blur"",""1"",""2756""
""focus"",""1"",""2777""
""fullscreenenter"",""1"",""2780""
""blur"",""7"",""33476""
""focus"",""7"",""40261""
","""event"",""trial"",""time""
""blur"",""1"",""2756""
""blur"",""7"",""33476""
","""event"",""trial"",""time""
""focus"",""0"",""0""
""focus"",""1"",""2777""
""focus"",""7"",""40261""
","""event"",""trial"",""time""
""fullscreenenter"",""1"",""2780""
","
","","","487","","","21","10260","4892","&#9789;","elianto","#f73b6a7A"," "," ","1","0","[1341]","1","0","4","","","","","","","",""
"call-function","101","764574","0.0-2.0-18.0","battery-v0.2","","""event"",""trial"",""time""
""focus"",""0"",""0""
""blur"",""1"",""2756""
""focus"",""1"",""2777""
""fullscreenenter"",""1"",""2780""
""blur"",""7"",""33476""
""focus"",""7"",""40261""
","""event"",""trial"",""time""
""blur"",""1"",""2756""
""blur"",""7"",""33476""
","""event"",""trial"",""time""
""focus"",""0"",""0""
""focus"",""1"",""2777""
""focus"",""7"",""40261""
","""event"",""trial"",""time""
""fullscreenenter"",""1"",""2780""
","
","","","","","","","","","","","","","","","","","","","","","","","","","","",""
"pit-instructions","102","851732","0.0-2.0-19.0","battery-v0.2","","""event"",""trial"",""time""
""focus"",""0"",""0""
""blur"",""1"",""2756""
""focus"",""1"",""2777""
""fullscreenenter"",""1"",""2780""
""blur"",""7"",""33476""
""focus"",""7"",""40261""
","""event"",""trial"",""time""
""blur"",""1"",""2756""
""blur"",""7"",""33476""
","""event"",""trial"",""time""
""focus"",""0"",""0""
""focus"",""1"",""2777""
""focus"",""7"",""40261""
","""event"",""trial"",""time""
""fullscreenenter"",""1"",""2780""
","
","","[{""page_index"":0,""viewing_time"":8583},{""page_index"":1,""viewing_time"":7615},{""page_index"":2,""viewing_time"":16742},{""page_index"":3,""viewing_time"":9148},{""page_index"":4,""viewing_time"":11613},{""page_index"":5,""viewing_time"":9968},{""page_index"":6,""viewing_time"":9763},{""page_index"":7,""viewing_time"":7451},{""page_index"":8,""viewing_time"":6274}]","87158","","","","","","","","","","","","","","","","","","","","","","","",""
"pit-comprehension","103","858295","0.0-2.0-20.0-0.0","battery-v0.2","","""event"",""trial"",""time""
""focus"",""0"",""0""
""blur"",""1"",""2756""
""focus"",""1"",""2777""
""fullscreenenter"",""1"",""2780""
""blur"",""7"",""33476""
""focus"",""7"",""40261""
","""event"",""trial"",""time""
""blur"",""1"",""2756""
""blur"",""7"",""33476""
","""event"",""trial"",""time""
""focus"",""0"",""0""
""focus"",""1"",""2777""
""focus"",""7"",""40261""
","""event"",""trial"",""time""
""fullscreenenter"",""1"",""2780""
","
","","","6555","[""SPACE""]","0","21","10260","4892","","","","","","","","","","","","","","","","","","",""
"pit-instructions","104","860942","0.0-2.0-20.0-1.0","battery-v0.2","","""event"",""trial"",""time""
""focus"",""0"",""0""
""blur"",""1"",""2756""
""focus"",""1"",""2777""
""fullscreenenter"",""1"",""2780""
""blur"",""7"",""33476""
""focus"",""7"",""40261""
","""event"",""trial"",""time""
""blur"",""1"",""2756""
""blur"",""7"",""33476""
","""event"",""trial"",""time""
""focus"",""0"",""0""
""focus"",""1"",""2777""
""focus"",""7"",""40261""
","""event"",""trial"",""time""
""fullscreenenter"",""1"",""2780""
","
","","[{""page_index"":0,""viewing_time"":2608}]","2608","","","","","","","","","","","","","","","","","","","","","","","",""
"pit-comprehension","105","867506","0.0-2.0-21.0-0.0","battery-v0.2","","""event"",""trial"",""time""
""focus"",""0"",""0""
""blur"",""1"",""2756""
""focus"",""1"",""2777""
""fullscreenenter"",""1"",""2780""
""blur"",""7"",""33476""
""focus"",""7"",""40261""
","""event"",""trial"",""time""
""blur"",""1"",""2756""
""blur"",""7"",""33476""
","""event"",""trial"",""time""
""focus"",""0"",""0""
""focus"",""1"",""2777""
""focus"",""7"",""40261""
","""event"",""trial"",""time""
""fullscreenenter"",""1"",""2780""
","
","","","6553","[""10""]","0","21","10260","4892","","","","","","","","","","","","","","","","","","",""
"pit-instructions","106","868718","0.0-2.0-21.0-1.0","battery-v0.2","","""event"",""trial"",""time""
""focus"",""0"",""0""
""blur"",""1"",""2756""
""focus"",""1"",""2777""
""fullscreenenter"",""1"",""2780""
""blur"",""7"",""33476""
""focus"",""7"",""40261""
","""event"",""trial"",""time""
""blur"",""1"",""2756""
""blur"",""7"",""33476""
","""event"",""trial"",""time""
""focus"",""0"",""0""
""focus"",""1"",""2777""
""focus"",""7"",""40261""
","""event"",""trial"",""time""
""fullscreenenter"",""1"",""2780""
","
","","[{""page_index"":0,""viewing_time"":1177}]","1177","","","","","","","","","","","","","","","","","","","","","","","",""
"pit-comprehension","107","875786","0.0-2.0-22.0-0.0","battery-v0.2","","""event"",""trial"",""time""
""focus"",""0"",""0""
""blur"",""1"",""2756""
""focus"",""1"",""2777""
""fullscreenenter"",""1"",""2780""
""blur"",""7"",""33476""
""focus"",""7"",""40261""
","""event"",""trial"",""time""
""blur"",""1"",""2756""
""blur"",""7"",""33476""
","""event"",""trial"",""time""
""focus"",""0"",""0""
""focus"",""1"",""2777""
""focus"",""7"",""40261""
","""event"",""trial"",""time""
""fullscreenenter"",""1"",""2780""
","
","","","7059","[""0""]","0","21","10260","4892","","","","","","","","","","","","","","","","","","",""
"pit-instructions","108","877224","0.0-2.0-22.0-1.0","battery-v0.2","","""event"",""trial"",""time""
""focus"",""0"",""0""
""blur"",""1"",""2756""
""focus"",""1"",""2777""
""fullscreenenter"",""1"",""2780""
""blur"",""7"",""33476""
""focus"",""7"",""40261""
","""event"",""trial"",""time""
""blur"",""1"",""2756""
""blur"",""7"",""33476""
","""event"",""trial"",""time""
""focus"",""0"",""0""
""focus"",""1"",""2777""
""focus"",""7"",""40261""
","""event"",""trial"",""time""
""fullscreenenter"",""1"",""2780""
","
","","[{""page_index"":0,""viewing_time"":1400}]","1401","","","","","","","","","","","","","","","","","","","","","","","",""
"pit-comprehension","109","887335","0.0-2.0-23.0-0.0","battery-v0.2","","""event"",""trial"",""time""
""focus"",""0"",""0""
""blur"",""1"",""2756""
""focus"",""1"",""2777""
""fullscreenenter"",""1"",""2780""
""blur"",""7"",""33476""
""focus"",""7"",""40261""
","""event"",""trial"",""time""
""blur"",""1"",""2756""
""blur"",""7"",""33476""
","""event"",""trial"",""time""
""focus"",""0"",""0""
""focus"",""1"",""2777""
""focus"",""7"",""40261""
","""event"",""trial"",""time""
""fullscreenenter"",""1"",""2780""
","
","","","10103","[""False""]","1","21","10260","4892","","","","","","","","","","","","","","","","","","",""
"pit-instructions","110","889737","0.0-2.0-23.0-1.0","battery-v0.2","","""event"",""trial"",""time""
""focus"",""0"",""0""
""blur"",""1"",""2756""
""focus"",""1"",""2777""
""fullscreenenter"",""1"",""2780""
""blur"",""7"",""33476""
""focus"",""7"",""40261""
","""event"",""trial"",""time""
""blur"",""1"",""2756""
""blur"",""7"",""33476""
","""event"",""trial"",""time""
""focus"",""0"",""0""
""focus"",""1"",""2777""
""focus"",""7"",""40261""
","""event"",""trial"",""time""
""fullscreenenter"",""1"",""2780""
","
","","[{""page_index"":0,""viewing_time"":2363}]","2363","","","","","","","","","","","","","","","","","","","","","","","",""
"pit-instructions","111","891833","0.0-2.0-23.0-2.0-0.0","battery-v0.2","","""event"",""trial"",""time""
""focus"",""0"",""0""
""blur"",""1"",""2756""
""focus"",""1"",""2777""
""fullscreenenter"",""1"",""2780""
""blur"",""7"",""33476""
""focus"",""7"",""40261""
","""event"",""trial"",""time""
""blur"",""1"",""2756""
""blur"",""7"",""33476""
","""event"",""trial"",""time""
""focus"",""0"",""0""
""focus"",""1"",""2777""
""focus"",""7"",""40261""
","""event"",""trial"",""time""
""fullscreenenter"",""1"",""2780""
","
","","[{""page_index"":0,""viewing_time"":2089}]","2089","","","","","","","","","","","","","","","","","","","","","","","",""
"pit-comprehension","112","900896","0.0-2.0-23.1-0.1","battery-v0.2","","""event"",""trial"",""time""
""focus"",""0"",""0""
""blur"",""1"",""2756""
""focus"",""1"",""2777""
""fullscreenenter"",""1"",""2780""
""blur"",""7"",""33476""
""focus"",""7"",""40261""
","""event"",""trial"",""time""
""blur"",""1"",""2756""
""blur"",""7"",""33476""
","""event"",""trial"",""time""
""focus"",""0"",""0""
""focus"",""1"",""2777""
""focus"",""7"",""40261""
","""event"",""trial"",""time""
""fullscreenenter"",""1"",""2780""
","
","","","9058","[""True""]","0","21","10260","4892","","","","","","","","","","","","","","","","","","",""
"pit-instructions","113","902982","0.0-2.0-23.1-1.1","battery-v0.2","","""event"",""trial"",""time""
""focus"",""0"",""0""
""blur"",""1"",""2756""
""focus"",""1"",""2777""
""fullscreenenter"",""1"",""2780""
""blur"",""7"",""33476""
""focus"",""7"",""40261""
","""event"",""trial"",""time""
""blur"",""1"",""2756""
""blur"",""7"",""33476""
","""event"",""trial"",""time""
""focus"",""0"",""0""
""focus"",""1"",""2777""
""focus"",""7"",""40261""
","""event"",""trial"",""time""
""fullscreenenter"",""1"",""2780""
","
","","[{""page_index"":0,""viewing_time"":2046}]","2046","","","","","","","","","","","","","","","","","","","","","","","",""
"pit-comprehension","114","912646","0.0-2.0-24.0-0.0","battery-v0.2","","""event"",""trial"",""time""
""focus"",""0"",""0""
""blur"",""1"",""2756""
""focus"",""1"",""2777""
""fullscreenenter"",""1"",""2780""
""blur"",""7"",""33476""
""focus"",""7"",""40261""
","""event"",""trial"",""time""
""blur"",""1"",""2756""
""blur"",""7"",""33476""
","""event"",""trial"",""time""
""focus"",""0"",""0""
""focus"",""1"",""2777""
""focus"",""7"",""40261""
","""event"",""trial"",""time""
""fullscreenenter"",""1"",""2780""
","
","","","9659","[""True""]","0","21","10260","4892","","","","","","","","","","","","","","","","","","",""
"pit-instructions","115","914847","0.0-2.0-24.0-1.0","battery-v0.2","","""event"",""trial"",""time""
""focus"",""0"",""0""
""blur"",""1"",""2756""
""focus"",""1"",""2777""
""fullscreenenter"",""1"",""2780""
""blur"",""7"",""33476""
""focus"",""7"",""40261""
","""event"",""trial"",""time""
""blur"",""1"",""2756""
""blur"",""7"",""33476""
","""event"",""trial"",""time""
""focus"",""0"",""0""
""focus"",""1"",""2777""
""focus"",""7"",""40261""
","""event"",""trial"",""time""
""fullscreenenter"",""1"",""2780""
","
","","[{""page_index"":0,""viewing_time"":2164}]","2165","","","","","","","","","","","","","","","","","","","","","","","",""
"pit-comprehension","116","921682","0.0-2.0-25.0-0.0","battery-v0.2","","""event"",""trial"",""time""
""focus"",""0"",""0""
""blur"",""1"",""2756""
""focus"",""1"",""2777""
""fullscreenenter"",""1"",""2780""
""blur"",""7"",""33476""
""focus"",""7"",""40261""
","""event"",""trial"",""time""
""blur"",""1"",""2756""
""blur"",""7"",""33476""
","""event"",""trial"",""time""
""focus"",""0"",""0""
""focus"",""1"",""2777""
""focus"",""7"",""40261""
","""event"",""trial"",""time""
""fullscreenenter"",""1"",""2780""
","
","","","6825","[""True""]","0","21","10260","4892","","","","","","","","","","","","","","","","","","",""
"pit-instructions","117","926057","0.0-2.0-25.0-1.0","battery-v0.2","","""event"",""trial"",""time""
""focus"",""0"",""0""
""blur"",""1"",""2756""
""focus"",""1"",""2777""
""fullscreenenter"",""1"",""2780""
""blur"",""7"",""33476""
""focus"",""7"",""40261""
","""event"",""trial"",""time""
""blur"",""1"",""2756""
""blur"",""7"",""33476""
","""event"",""trial"",""time""
""focus"",""0"",""0""
""focus"",""1"",""2777""
""focus"",""7"",""40261""
","""event"",""trial"",""time""
""fullscreenenter"",""1"",""2780""
","
","","[{""page_index"":0,""viewing_time"":4334}]","4334","","","","","","","","","","","","","","","","","","","","","","","",""
"pit-comprehension","118","935417","0.0-2.0-26.0-0.0","battery-v0.2","","""event"",""trial"",""time""
""focus"",""0"",""0""
""blur"",""1"",""2756""
""focus"",""1"",""2777""
""fullscreenenter"",""1"",""2780""
""blur"",""7"",""33476""
""focus"",""7"",""40261""
","""event"",""trial"",""time""
""blur"",""1"",""2756""
""blur"",""7"",""33476""
","""event"",""trial"",""time""
""focus"",""0"",""0""
""focus"",""1"",""2777""
""focus"",""7"",""40261""
","""event"",""trial"",""time""
""fullscreenenter"",""1"",""2780""
","
","","","9352","[""False""]","0","21","10260","4892","","","","","","","","","","","","","","","","","","",""
"pit-instructions","119","938860","0.0-2.0-26.0-1.0","battery-v0.2","","""event"",""trial"",""time""
""focus"",""0"",""0""
""blur"",""1"",""2756""
""focus"",""1"",""2777""
""fullscreenenter"",""1"",""2780""
""blur"",""7"",""33476""
""focus"",""7"",""40261""
","""event"",""trial"",""time""
""blur"",""1"",""2756""
""blur"",""7"",""33476""
","""event"",""trial"",""time""
""focus"",""0"",""0""
""focus"",""1"",""2777""
""focus"",""7"",""40261""
","""event"",""trial"",""time""
""fullscreenenter"",""1"",""2780""
","
","","[{""page_index"":0,""viewing_time"":3402}]","3403","","","","","","","","","","","","","","","","","","","","","","","",""
"pit-instructions","120","960923","0.0-3.0","battery-v0.2","","""event"",""trial"",""time""
""focus"",""0"",""0""
""blur"",""1"",""2756""
""focus"",""1"",""2777""
""fullscreenenter"",""1"",""2780""
""blur"",""7"",""33476""
""focus"",""7"",""40261""
","""event"",""trial"",""time""
""blur"",""1"",""2756""
""blur"",""7"",""33476""
","""event"",""trial"",""time""
""focus"",""0"",""0""
""focus"",""1"",""2777""
""focus"",""7"",""40261""
","""event"",""trial"",""time""
""fullscreenenter"",""1"",""2780""
","
","","[{""page_index"":0,""viewing_time"":7825},{""page_index"":1,""viewing_time"":6515},{""page_index"":2,""viewing_time"":7716}]","22057","","","","","","","","","","","","","","","","","","","","","","","",""
"pit-trial","121","964407","0.0-4.0","battery-v0.2","","""event"",""trial"",""time""
""focus"",""0"",""0""
""blur"",""1"",""2756""
""focus"",""1"",""2777""
""fullscreenenter"",""1"",""2780""
""blur"",""7"",""33476""
""focus"",""7"",""40261""
","""event"",""trial"",""time""
""blur"",""1"",""2756""
""blur"",""7"",""33476""
","""event"",""trial"",""time""
""focus"",""0"",""0""
""focus"",""1"",""2777""
""focus"",""7"",""40261""
","""event"",""trial"",""time""
""fullscreenenter"",""1"",""2780""
","
","","","617","","","21","10260","4892","&#9730;","elianto","#3366ff99"," "," ","1","+10","[1468]","1","1","","","10260","1","1","1","win","go","0"
"pit-trial","122","968252","0.0-5.0","battery-v0.2","","""event"",""trial"",""time""
""focus"",""0"",""0""
""blur"",""1"",""2756""
""focus"",""1"",""2777""
""fullscreenenter"",""1"",""2780""
""blur"",""7"",""33476""
""focus"",""7"",""40261""
","""event"",""trial"",""time""
""blur"",""1"",""2756""
""blur"",""7"",""33476""
","""event"",""trial"",""time""
""focus"",""0"",""0""
""focus"",""1"",""2777""
""focus"",""7"",""40261""
","""event"",""trial"",""time""
""fullscreenenter"",""1"",""2780""
","
","","","981","","","21","10260","4892","&#9752;","elianto","#f73b6a7A"," "," ","1","0","[1833]","1","1","","","10260","2","3","3","lose","go","0"
"pit-trial","123","971877","0.0-6.0","battery-v0.2","","""event"",""trial"",""time""
""focus"",""0"",""0""
""blur"",""1"",""2756""
""focus"",""1"",""2777""
""fullscreenenter"",""1"",""2780""
""blur"",""7"",""33476""
""focus"",""7"",""40261""
","""event"",""trial"",""time""
""blur"",""1"",""2756""
""blur"",""7"",""33476""
","""event"",""trial"",""time""
""focus"",""0"",""0""
""focus"",""1"",""2777""
""focus"",""7"",""40261""
","""event"",""trial"",""time""
""fullscreenenter"",""1"",""2780""
","
","","","761","","","21","10260","4892","&#9733;","elianto","#3366ff99","-1"," ","0","0","[1614]","1","1","","","10260","3","2","2","win","no-go","0"
"pit-trial","124","975755","0.0-7.0","battery-v0.2","","""event"",""trial"",""time""
""focus"",""0"",""0""
""blur"",""1"",""2756""
""focus"",""1"",""2777""
""fullscreenenter"",""1"",""2780""
""blur"",""7"",""33476""
""focus"",""7"",""40261""
","""event"",""trial"",""time""
""blur"",""1"",""2756""
""blur"",""7"",""33476""
","""event"",""trial"",""time""
""focus"",""0"",""0""
""focus"",""1"",""2777""
""focus"",""7"",""40261""
","""event"",""trial"",""time""
""fullscreenenter"",""1"",""2780""
","
","","","1012","","","21","10260","4892","&#9728;","elianto","#f73b6a7A","-1"," ","0","-10","[1866]","1","1","","","10260","4","0","4","lose","no-go","0"
"pit-trial","125","979699","0.0-8.0","battery-v0.2","","""event"",""trial"",""time""
""focus"",""0"",""0""
""blur"",""1"",""2756""
""focus"",""1"",""2777""
""fullscreenenter"",""1"",""2780""
""blur"",""7"",""33476""
""focus"",""7"",""40261""
","""event"",""trial"",""time""
""blur"",""1"",""2756""
""blur"",""7"",""33476""
","""event"",""trial"",""time""
""focus"",""0"",""0""
""focus"",""1"",""2777""
""focus"",""7"",""40261""
","""event"",""trial"",""time""
""fullscreenenter"",""1"",""2780""
","
","","","1076","","","21","10260","4892","&#9730;","elianto","#3366ff99"," "," ","1","+10","[1931]","1","1","","","10260","5","1","1","win","go","0"
"pit-trial","126","984566","0.0-9.0","battery-v0.2","","""event"",""trial"",""time""
""focus"",""0"",""0""
""blur"",""1"",""2756""
""focus"",""1"",""2777""
""fullscreenenter"",""1"",""2780""
""blur"",""7"",""33476""
""focus"",""7"",""40261""
","""event"",""trial"",""time""
""blur"",""1"",""2756""
""blur"",""7"",""33476""
","""event"",""trial"",""time""
""focus"",""0"",""0""
""focus"",""1"",""2777""
""focus"",""7"",""40261""
","""event"",""trial"",""time""
""fullscreenenter"",""1"",""2780""
","
","","","-1","","","21","10260","4892","&#9728;","elianto","#f73b6a7A","-1","-1","1","0","[]","0","1","","","10260","6","0","4","lose","no-go","0"
"pit-trial","127","988586","0.0-10.0","battery-v0.2","","""event"",""trial"",""time""
""focus"",""0"",""0""
""blur"",""1"",""2756""
""focus"",""1"",""2777""
""fullscreenenter"",""1"",""2780""
""blur"",""7"",""33476""
""focus"",""7"",""40261""
","""event"",""trial"",""time""
""blur"",""1"",""2756""
""blur"",""7"",""33476""
","""event"",""trial"",""time""
""focus"",""0"",""0""
""focus"",""1"",""2777""
""focus"",""7"",""40261""
","""event"",""trial"",""time""
""fullscreenenter"",""1"",""2780""
","
","","","1157","","","21","10260","4892","&#9752;","elianto","#f73b6a7A"," "," ","1","0","[2013]","1","1","","","10260","7","3","3","lose","go","0"
"pit-trial","128","993450","0.0-11.0","battery-v0.2","","""event"",""trial"",""time""
""focus"",""0"",""0""
""blur"",""1"",""2756""
""focus"",""1"",""2777""
""fullscreenenter"",""1"",""2780""
""blur"",""7"",""33476""
""focus"",""7"",""40261""
","""event"",""trial"",""time""
""blur"",""1"",""2756""
""blur"",""7"",""33476""
","""event"",""trial"",""time""
""focus"",""0"",""0""
""focus"",""1"",""2777""
""focus"",""7"",""40261""
","""event"",""trial"",""time""
""fullscreenenter"",""1"",""2780""
","
","","","-1","","","21","10260","4892","&#9733;","elianto","#3366ff99","-1","-1","1","0","[]","0","1","","","10260","8","2","2","win","no-go","1"
"pit-trial","129","997803","0.0-12.0","battery-v0.2","","""event"",""trial"",""time""
""focus"",""0"",""0""
""blur"",""1"",""2756""
""focus"",""1"",""2777""
""fullscreenenter"",""1"",""2780""
""blur"",""7"",""33476""
""focus"",""7"",""40261""
","""event"",""trial"",""time""
""blur"",""1"",""2756""
""blur"",""7"",""33476""
","""event"",""trial"",""time""
""focus"",""0"",""0""
""focus"",""1"",""2777""
""focus"",""7"",""40261""
","""event"",""trial"",""time""
""fullscreenenter"",""1"",""2780""
","
","","","1490","","","21","10260","4892","&#9752;","elianto","#f73b6a7A"," "," ","1","-10","[2344]","1","1","","","10260","9","3","3","lose","go","1"
"pit-trial","130","1002670","0.0-13.0","battery-v0.2","","""event"",""trial"",""time""
""focus"",""0"",""0""
""blur"",""1"",""2756""
""focus"",""1"",""2777""
""fullscreenenter"",""1"",""2780""
""blur"",""7"",""33476""
""focus"",""7"",""40261""
","""event"",""trial"",""time""
""blur"",""1"",""2756""
""blur"",""7"",""33476""
","""event"",""trial"",""time""
""focus"",""0"",""0""
""focus"",""1"",""2777""
""focus"",""7"",""40261""
","""event"",""trial"",""time""
""fullscreenenter"",""1"",""2780""
","
","","","-1","","","21","10260","4892","&#9733;","elianto","#3366ff99","-1","-1","1","0","[]","0","1","","","10260","10","2","2","win","no-go","1"
"pit-trial","131","1006354","0.0-14.0","battery-v0.2","","""event"",""trial"",""time""
""focus"",""0"",""0""
""blur"",""1"",""2756""
""focus"",""1"",""2777""
""fullscreenenter"",""1"",""2780""
""blur"",""7"",""33476""
""focus"",""7"",""40261""
","""event"",""trial"",""time""
""blur"",""1"",""2756""
""blur"",""7"",""33476""
","""event"",""trial"",""time""
""focus"",""0"",""0""
""focus"",""1"",""2777""
""focus"",""7"",""40261""
","""event"",""trial"",""time""
""fullscreenenter"",""1"",""2780""
","
","","","821","","","21","10260","4892","&#9730;","elianto","#3366ff99"," "," ","1","0","[1672]","1","1","","","10260","11","1","1","win","go","1"
"pit-trial","132","1011215","0.0-15.0","battery-v0.2","","""event"",""trial"",""time""
""focus"",""0"",""0""
""blur"",""1"",""2756""
""focus"",""1"",""2777""
""fullscreenenter"",""1"",""2780""
""blur"",""7"",""33476""
""focus"",""7"",""40261""
","""event"",""trial"",""time""
""blur"",""1"",""2756""
""blur"",""7"",""33476""
","""event"",""trial"",""time""
""focus"",""0"",""0""
""focus"",""1"",""2777""
""focus"",""7"",""40261""
","""event"",""trial"",""time""
""fullscreenenter"",""1"",""2780""
","
","","","-1","","","21","10260","4892","&#9728;","elianto","#f73b6a7A","-1","-1","1","0","[]","0","1","","","10260","12","0","4","lose","no-go","0"
"pit-trial","133","1016080","0.0-16.0","battery-v0.2","","""event"",""trial"",""time""
""focus"",""0"",""0""
""blur"",""1"",""2756""
""focus"",""1"",""2777""
""fullscreenenter"",""1"",""2780""
""blur"",""7"",""33476""
""focus"",""7"",""40261""
","""event"",""trial"",""time""
""blur"",""1"",""2756""
""blur"",""7"",""33476""
","""event"",""trial"",""time""
""focus"",""0"",""0""
""focus"",""1"",""2777""
""focus"",""7"",""40261""
","""event"",""trial"",""time""
""fullscreenenter"",""1"",""2780""
","
","","","-1","","","21","10260","4892","&#9733;","elianto","#3366ff99","-1","-1","1","+10","[]","0","1","","","10260","13","2","2","win","no-go","0"
"pit-trial","134","1020946","0.0-17.0","battery-v0.2","","""event"",""trial"",""time""
""focus"",""0"",""0""
""blur"",""1"",""2756""
""focus"",""1"",""2777""
""fullscreenenter"",""1"",""2780""
""blur"",""7"",""33476""
""focus"",""7"",""40261""
","""event"",""trial"",""time""
""blur"",""1"",""2756""
""blur"",""7"",""33476""
","""event"",""trial"",""time""
""focus"",""0"",""0""
""focus"",""1"",""2777""
""focus"",""7"",""40261""
","""event"",""trial"",""time""
""fullscreenenter"",""1"",""2780""
","
","","","-1","","","21","10260","4892","&#9728;","elianto","#f73b6a7A","-1","-1","1","0","[]","0","1","","","10260","14","0","4","lose","no-go","0"
"pit-trial","135","1024396","0.0-18.0","battery-v0.2","","""event"",""trial"",""time""
""focus"",""0"",""0""
""blur"",""1"",""2756""
""focus"",""1"",""2777""
""fullscreenenter"",""1"",""2780""
""blur"",""7"",""33476""
""focus"",""7"",""40261""
","""event"",""trial"",""time""
""blur"",""1"",""2756""
""blur"",""7"",""33476""
","""event"",""trial"",""time""
""focus"",""0"",""0""
""focus"",""1"",""2777""
""focus"",""7"",""40261""
","""event"",""trial"",""time""
""fullscreenenter"",""1"",""2780""
","
","","","591","","","21","10260","4892","&#9730;","elianto","#3366ff99"," "," ","1","+10","[1443]","1","1","","","10260","15","1","1","win","go","0"
"pit-trial","136","1028006","0.0-19.0","battery-v0.2","","""event"",""trial"",""time""
""focus"",""0"",""0""
""blur"",""1"",""2756""
""focus"",""1"",""2777""
""fullscreenenter"",""1"",""2780""
""blur"",""7"",""33476""
""focus"",""7"",""40261""
","""event"",""trial"",""time""
""blur"",""1"",""2756""
""blur"",""7"",""33476""
","""event"",""trial"",""time""
""focus"",""0"",""0""
""focus"",""1"",""2777""
""focus"",""7"",""40261""
","""event"",""trial"",""time""
""fullscreenenter"",""1"",""2780""
","
","","","752","","","21","10260","4892","&#9752;","elianto","#f73b6a7A"," "," ","1","0","[1603]","1","1","","","10260","16","3","3","lose","go","0"
"pit-trial","137","1032873","0.0-20.0","battery-v0.2","","""event"",""trial"",""time""
""focus"",""0"",""0""
""blur"",""1"",""2756""
""focus"",""1"",""2777""
""fullscreenenter"",""1"",""2780""
""blur"",""7"",""33476""
""focus"",""7"",""40261""
","""event"",""trial"",""time""
""blur"",""1"",""2756""
""blur"",""7"",""33476""
","""event"",""trial"",""time""
""focus"",""0"",""0""
""focus"",""1"",""2777""
""focus"",""7"",""40261""
","""event"",""trial"",""time""
""fullscreenenter"",""1"",""2780""
","
","","","-1","","","21","10260","4892","&#9728;","elianto","#f73b6a7A","-1","-1","1","0","[]","0","1","","","10260","17","0","4","lose","no-go","0"
"pit-trial","138","1036536","0.0-21.0","battery-v0.2","","""event"",""trial"",""time""
""focus"",""0"",""0""
""blur"",""1"",""2756""
""focus"",""1"",""2777""
""fullscreenenter"",""1"",""2780""
""blur"",""7"",""33476""
""focus"",""7"",""40261""
","""event"",""trial"",""time""
""blur"",""1"",""2756""
""blur"",""7"",""33476""
","""event"",""trial"",""time""
""focus"",""0"",""0""
""focus"",""1"",""2777""
""focus"",""7"",""40261""
","""event"",""trial"",""time""
""fullscreenenter"",""1"",""2780""
","
","","","803","","","21","10260","4892","&#9730;","elianto","#3366ff99"," "," ","1","+10","[1654]","1","1","","","10260","18","1","1","win","go","0"
"pit-trial","139","1040848","0.0-22.0","battery-v0.2","","""event"",""trial"",""time""
""focus"",""0"",""0""
""blur"",""1"",""2756""
""focus"",""1"",""2777""
""fullscreenenter"",""1"",""2780""
""blur"",""7"",""33476""
""focus"",""7"",""40261""
","""event"",""trial"",""time""
""blur"",""1"",""2756""
""blur"",""7"",""33476""
","""event"",""trial"",""time""
""focus"",""0"",""0""
""focus"",""1"",""2777""
""focus"",""7"",""40261""
","""event"",""trial"",""time""
""fullscreenenter"",""1"",""2780""
","
","","","1448","","","21","10260","4892","&#9752;","elianto","#f73b6a7A"," "," ","1","-10","[2300]","1","1","","","10260","19","3","3","lose","go","1"
"pit-trial","140","1045714","0.0-23.0","battery-v0.2","","""event"",""trial"",""time""
""focus"",""0"",""0""
""blur"",""1"",""2756""
""focus"",""1"",""2777""
""fullscreenenter"",""1"",""2780""
""blur"",""7"",""33476""
""focus"",""7"",""40261""
","""event"",""trial"",""time""
""blur"",""1"",""2756""
""blur"",""7"",""33476""
","""event"",""trial"",""time""
""focus"",""0"",""0""
""focus"",""1"",""2777""
""focus"",""7"",""40261""
","""event"",""trial"",""time""
""fullscreenenter"",""1"",""2780""
","
","","","-1","","","21","10260","4892","&#9733;","elianto","#3366ff99","-1","-1","1","+10","[]","0","1","","","10260","20","2","2","win","no-go","0"
"pit-instructions","141","1061279","0.0-24.0","battery-v0.2","","""event"",""trial"",""time""
""focus"",""0"",""0""
""blur"",""1"",""2756""
""focus"",""1"",""2777""
""fullscreenenter"",""1"",""2780""
""blur"",""7"",""33476""
""focus"",""7"",""40261""
","""event"",""trial"",""time""
""blur"",""1"",""2756""
""blur"",""7"",""33476""
","""event"",""trial"",""time""
""focus"",""0"",""0""
""focus"",""1"",""2777""
""focus"",""7"",""40261""
","""event"",""trial"",""time""
""fullscreenenter"",""1"",""2780""
","
","","[{""page_index"":0,""viewing_time"":9096},{""page_index"":1,""viewing_time"":6462}]","15559","","","","","","","","","","","","","","","","","","","","","","","",""
"pit-trial","142","1064720","0.0-25.0","battery-v0.2","","""event"",""trial"",""time""
""focus"",""0"",""0""
""blur"",""1"",""2756""
""focus"",""1"",""2777""
""fullscreenenter"",""1"",""2780""
""blur"",""7"",""33476""
""focus"",""7"",""40261""
","""event"",""trial"",""time""
""blur"",""1"",""2756""
""blur"",""7"",""33476""
","""event"",""trial"",""time""
""focus"",""0"",""0""
""focus"",""1"",""2777""
""focus"",""7"",""40261""
","""event"",""trial"",""time""
""fullscreenenter"",""1"",""2780""
","
","","","573","","","21","10260","4892","e","elianto","#f73b6a7A","-1"," ","0","0","[1426]","1","2","","","10260","21","2","4","lose","no-go","1"
"pit-trial","143","1068347","0.0-26.0","battery-v0.2","","""event"",""trial"",""time""
""focus"",""0"",""0""
""blur"",""1"",""2756""
""focus"",""1"",""2777""
""fullscreenenter"",""1"",""2780""
""blur"",""7"",""33476""
""focus"",""7"",""40261""
","""event"",""trial"",""time""
""blur"",""1"",""2756""
""blur"",""7"",""33476""
","""event"",""trial"",""time""
""focus"",""0"",""0""
""focus"",""1"",""2777""
""focus"",""7"",""40261""
","""event"",""trial"",""time""
""fullscreenenter"",""1"",""2780""
","
","","","766","","","21","10260","4892","j","elianto","#f73b6a7A","-1"," ","0","0","[1619]","1","2","","","10260","22","0","4","lose","no-go","1"
"pit-trial","144","1071862","0.0-27.0","battery-v0.2","","""event"",""trial"",""time""
""focus"",""0"",""0""
""blur"",""1"",""2756""
""focus"",""1"",""2777""
""fullscreenenter"",""1"",""2780""
""blur"",""7"",""33476""
""focus"",""7"",""40261""
","""event"",""trial"",""time""
""blur"",""1"",""2756""
""blur"",""7"",""33476""
","""event"",""trial"",""time""
""focus"",""0"",""0""
""focus"",""1"",""2777""
""focus"",""7"",""40261""
","""event"",""trial"",""time""
""fullscreenenter"",""1"",""2780""
","
","","","648","","","21","10260","4892","d","elianto","#3366ff99"," "," ","1","+10","[1503]","1","2","","","10260","23","1","1","win","go","0"
"pit-trial","145","1075571","0.0-28.0","battery-v0.2","","""event"",""trial"",""time""
""focus"",""0"",""0""
""blur"",""1"",""2756""
""focus"",""1"",""2777""
""fullscreenenter"",""1"",""2780""
""blur"",""7"",""33476""
""focus"",""7"",""40261""
","""event"",""trial"",""time""
""blur"",""1"",""2756""
""blur"",""7"",""33476""
","""event"",""trial"",""time""
""focus"",""0"",""0""
""focus"",""1"",""2777""
""focus"",""7"",""40261""
","""event"",""trial"",""time""
""fullscreenenter"",""1"",""2780""
","
","","","849","","","21","10260","4892","w","elianto","#f73b6a7A"," "," ","1","0","[1701]","1","2","","","10260","24","3","3","lose","go","0"
"pit-trial","146","1079574","0.0-29.0","battery-v0.2","","""event"",""trial"",""time""
""focus"",""0"",""0""
""blur"",""1"",""2756""
""focus"",""1"",""2777""
""fullscreenenter"",""1"",""2780""
""blur"",""7"",""33476""
""focus"",""7"",""40261""
","""event"",""trial"",""time""
""blur"",""1"",""2756""
""blur"",""7"",""33476""
","""event"",""trial"",""time""
""focus"",""0"",""0""
""focus"",""1"",""2777""
""focus"",""7"",""40261""
","""event"",""trial"",""time""
""fullscreenenter"",""1"",""2780""
","
","","","1135","","","21","10260","4892","d","elianto","#3366ff99"," "," ","1","0","[1990]","1","2","","","10260","25","1","1","win","go","1"
"pit-trial","147","1083472","0.0-30.0","battery-v0.2","","""event"",""trial"",""time""
""focus"",""0"",""0""
""blur"",""1"",""2756""
""focus"",""1"",""2777""
""fullscreenenter"",""1"",""2780""
""blur"",""7"",""33476""
""focus"",""7"",""40261""
","""event"",""trial"",""time""
""blur"",""1"",""2756""
""blur"",""7"",""33476""
","""event"",""trial"",""time""
""focus"",""0"",""0""
""focus"",""1"",""2777""
""focus"",""7"",""40261""
","""event"",""trial"",""time""
""fullscreenenter"",""1"",""2780""
","
","","","1030","","","21","10260","4892","e","elianto","#f73b6a7A","-1"," ","0","-10","[1886]","1","2","","","10260","26","2","4","lose","no-go","0"
"pit-trial","148","1088325","0.0-31.0","battery-v0.2","","""event"",""trial"",""time""
""focus"",""0"",""0""
""blur"",""1"",""2756""
""focus"",""1"",""2777""
""fullscreenenter"",""1"",""2780""
""blur"",""7"",""33476""
""focus"",""7"",""40261""
","""event"",""trial"",""time""
""blur"",""1"",""2756""
""blur"",""7"",""33476""
","""event"",""trial"",""time""
""focus"",""0"",""0""
""focus"",""1"",""2777""
""focus"",""7"",""40261""
","""event"",""trial"",""time""
""fullscreenenter"",""1"",""2780""
","
","","","1985","","","21","10260","4892","w","elianto","#f73b6a7A"," "," ","1","-10","[2840]","1","2","","","10260","27","3","3","lose","go","1"
"pit-trial","149","1093190","0.0-32.0","battery-v0.2","","""event"",""trial"",""time""
""focus"",""0"",""0""
""blur"",""1"",""2756""
