"trial_type","trial_index","time_elapsed","internal_node_id","task_version","subject_id","interactions","blur_events","focus_events","fullscreenenter_events","fullscreenexit_events","success","view_history","rt","responses","num_errors","age","subject","participantId","rune","rune_set","hex","correct","choice","accuracy","outcome","keys","total_keys","block","practice","value","sub","trial","stimulus","robot","valence","action","sham"
"pavlovia","0","10","0.0-0.0","battery-v0.2","","""event"",""trial"",""time""
""focus"",""0"",""0""
""fullscreenenter"",""1"",""5207""
","
","""event"",""trial"",""time""
""focus"",""0"",""0""
","""event"",""trial"",""time""
""fullscreenenter"",""1"",""5207""
","
","","","","","","","","","","","","","","","","","","","","","","","","","","",""
"fullscreen","1","6004","0.0-1.0","battery-v0.2","","""event"",""trial"",""time""
""focus"",""0"",""0""
""fullscreenenter"",""1"",""5207""
","
","""event"",""trial"",""time""
""focus"",""0"",""0""
","""event"",""trial"",""time""
""fullscreenenter"",""1"",""5207""
","
","true","","","","","","","","","","","","","","","","","","","","","","","","","",""
"pit-instructions","2","10266","0.0-2.0-0.0","battery-v0.2","","""event"",""trial"",""time""
""focus"",""0"",""0""
""fullscreenenter"",""1"",""5207""
","
","""event"",""trial"",""time""
""focus"",""0"",""0""
","""event"",""trial"",""time""
""fullscreenenter"",""1"",""5207""
","
","","[{""page_index"":0,""viewing_time"":4254}]","4254","","","","","","","","","","","","","","","","","","","","","","","",""
"pit-comprehension","3","13259","0.0-2.0-1.0-0.0","battery-v0.2","","""event"",""trial"",""time""
""focus"",""0"",""0""
""fullscreenenter"",""1"",""5207""
","
","""event"",""trial"",""time""
""focus"",""0"",""0""
","""event"",""trial"",""time""
""fullscreenenter"",""1"",""5207""
","
","","","2989","[""shark""]","0","14","3015","1876","","","","","","","","","","","","","","","","","","",""
"pit-instructions","4","14386","0.0-2.0-1.0-1.0","battery-v0.2","","""event"",""trial"",""time""
""focus"",""0"",""0""
""fullscreenenter"",""1"",""5207""
","
","""event"",""trial"",""time""
""focus"",""0"",""0""
","""event"",""trial"",""time""
""fullscreenenter"",""1"",""5207""
","
","","[{""page_index"":0,""viewing_time"":1123}]","1123","","","","","","","","","","","","","","","","","","","","","","","",""
"pit-comprehension","5","16883","0.0-2.0-2.0-0.0","battery-v0.2","","""event"",""trial"",""time""
""focus"",""0"",""0""
""fullscreenenter"",""1"",""5207""
","
","""event"",""trial"",""time""
""focus"",""0"",""0""
","""event"",""trial"",""time""
""fullscreenenter"",""1"",""5207""
","
","","","2494","[""tiger""]","0","14","3015","1876","","","","","","","","","","","","","","","","","","",""
"pit-instructions","6","18098","0.0-2.0-2.0-1.0","battery-v0.2","","""event"",""trial"",""time""
""focus"",""0"",""0""
""fullscreenenter"",""1"",""5207""
","
","""event"",""trial"",""time""
""focus"",""0"",""0""
","""event"",""trial"",""time""
""fullscreenenter"",""1"",""5207""
","
","","[{""page_index"":0,""viewing_time"":1213}]","1213","","","","","","","","","","","","","","","","","","","","","","","",""
"pit-instructions","7","115987","0.0-2.0-3.0","battery-v0.2","","""event"",""trial"",""time""
""focus"",""0"",""0""
""fullscreenenter"",""1"",""5207""
","
","""event"",""trial"",""time""
""focus"",""0"",""0""
","""event"",""trial"",""time""
""fullscreenenter"",""1"",""5207""
","
","","[{""page_index"":0,""viewing_time"":8198},{""page_index"":1,""viewing_time"":6784},{""page_index"":2,""viewing_time"":6743},{""page_index"":3,""viewing_time"":10577},{""page_index"":4,""viewing_time"":5808},{""page_index"":5,""viewing_time"":5255},{""page_index"":6,""viewing_time"":6392},{""page_index"":7,""viewing_time"":6265},{""page_index"":8,""viewing_time"":8400},{""page_index"":9,""viewing_time"":7952},{""page_index"":10,""viewing_time"":7112},{""page_index"":11,""viewing_time"":7616},{""page_index"":12,""viewing_time"":6033},{""page_index"":13,""viewing_time"":4751}]","97886","","","","","","","","","","","","","","","","","","","","","","","",""
"pit-trial","8","119445","0.0-2.0-4.0-0.0","battery-v0.2","","""event"",""trial"",""time""
""focus"",""0"",""0""
""fullscreenenter"",""1"",""5207""
","
","""event"",""trial"",""time""
""focus"",""0"",""0""
","""event"",""trial"",""time""
""fullscreenenter"",""1"",""5207""
","
","","","596","","","14","3015","1876","&#9784;","elianto","#FFFFF080"," "," ","1","&#10004","[1452]","1","0","0","","","","","","","",""
"pit-trial","9","122874","0.0-2.0-4.1-0.1","battery-v0.2","","""event"",""trial"",""time""
""focus"",""0"",""0""
""fullscreenenter"",""1"",""5207""
","
","""event"",""trial"",""time""
""focus"",""0"",""0""
","""event"",""trial"",""time""
""fullscreenenter"",""1"",""5207""
","
","","","556","","","14","3015","1876","&#9784;","elianto","#FFFFF080"," "," ","1","&#10004","[1411]","1","0","0","","","","","","","",""
"pit-trial","10","126496","0.0-2.0-4.2-0.2","battery-v0.2","","""event"",""trial"",""time""
""focus"",""0"",""0""
""fullscreenenter"",""1"",""5207""
","
","""event"",""trial"",""time""
""focus"",""0"",""0""
","""event"",""trial"",""time""
""fullscreenenter"",""1"",""5207""
","
","","","753","","","14","3015","1876","&#9784;","elianto","#FFFFF080"," "," ","1","&#10004","[1612]","1","0","0","","","","","","","",""
"pit-trial","11","129926","0.0-2.0-4.3-0.3","battery-v0.2","","""event"",""trial"",""time""
""focus"",""0"",""0""
""fullscreenenter"",""1"",""5207""
","
","""event"",""trial"",""time""
""focus"",""0"",""0""
","""event"",""trial"",""time""
""fullscreenenter"",""1"",""5207""
","
","","","561","","","14","3015","1876","&#9784;","elianto","#FFFFF080"," "," ","1","&#10004","[1415,2906]","2","0","0","","","","","","","",""
"pit-trial","12","133306","0.0-2.0-4.4-0.4","battery-v0.2","","""event"",""trial"",""time""
""focus"",""0"",""0""
""fullscreenenter"",""1"",""5207""
","
","""event"",""trial"",""time""
""focus"",""0"",""0""
","""event"",""trial"",""time""
""fullscreenenter"",""1"",""5207""
","
","","","517","","","14","3015","1876","&#9784;","elianto","#FFFFF080"," "," ","1","&#10004","[1373]","1","0","0","","","","","","","",""
"pit-instructions","13","154194","0.0-2.0-5.0","battery-v0.2","","""event"",""trial"",""time""
""focus"",""0"",""0""
""fullscreenenter"",""1"",""5207""
","
","""event"",""trial"",""time""
""focus"",""0"",""0""
","""event"",""trial"",""time""
""fullscreenenter"",""1"",""5207""
","
","","[{""page_index"":0,""viewing_time"":5276},{""page_index"":1,""viewing_time"":5120},{""page_index"":2,""viewing_time"":5080},{""page_index"":3,""viewing_time"":5400}]","20876","","","","","","","","","","","","","","","","","","","","","","","",""
"pit-trial","14","159085","0.0-2.0-6.0-0.0","battery-v0.2","","""event"",""trial"",""time""
""focus"",""0"",""0""
""fullscreenenter"",""1"",""5207""
","
","""event"",""trial"",""time""
""focus"",""0"",""0""
","""event"",""trial"",""time""
""fullscreenenter"",""1"",""5207""
","
","","","-1","","","14","3015","1876","&#9854;","elianto","#FFFFF080","-1","-1","1","&#10004","[]","0","0","1","","","","","","","",""
"pit-trial","15","163965","0.0-2.0-6.1-0.1","battery-v0.2","","""event"",""trial"",""time""
""focus"",""0"",""0""
""fullscreenenter"",""1"",""5207""
","
","""event"",""trial"",""time""
""focus"",""0"",""0""
","""event"",""trial"",""time""
""fullscreenenter"",""1"",""5207""
","
","","","-1","","","14","3015","1876","&#9854;","elianto","#FFFFF080","-1","-1","1","&#10004","[]","0","0","1","","","","","","","",""
"pit-trial","16","168845","0.0-2.0-6.2-0.2","battery-v0.2","","""event"",""trial"",""time""
""focus"",""0"",""0""
""fullscreenenter"",""1"",""5207""
","
","""event"",""trial"",""time""
""focus"",""0"",""0""
","""event"",""trial"",""time""
""fullscreenenter"",""1"",""5207""
","
","","","-1","","","14","3015","1876","&#9854;","elianto","#FFFFF080","-1","-1","1","&#10004","[]","0","0","1","","","","","","","",""
"pit-trial","17","173725","0.0-2.0-6.3-0.3","battery-v0.2","","""event"",""trial"",""time""
""focus"",""0"",""0""
""fullscreenenter"",""1"",""5207""
","
","""event"",""trial"",""time""
""focus"",""0"",""0""
","""event"",""trial"",""time""
""fullscreenenter"",""1"",""5207""
","
","","","-1","","","14","3015","1876","&#9854;","elianto","#FFFFF080","-1","-1","1","&#10004","[]","0","0","1","","","","","","","",""
"pit-trial","18","178585","0.0-2.0-6.4-0.4","battery-v0.2","","""event"",""trial"",""time""
""focus"",""0"",""0""
""fullscreenenter"",""1"",""5207""
","
","""event"",""trial"",""time""
""focus"",""0"",""0""
","""event"",""trial"",""time""
""fullscreenenter"",""1"",""5207""
","
","","","-1","","","14","3015","1876","&#9854;","elianto","#FFFFF080","-1","-1","1","&#10004","[]","0","0","1","","","","","","","",""
"pit-instructions","19","306314","0.0-2.0-7.0","battery-v0.2","","""event"",""trial"",""time""
""focus"",""0"",""0""
""fullscreenenter"",""1"",""5207""
","
","""event"",""trial"",""time""
""focus"",""0"",""0""
","""event"",""trial"",""time""
""fullscreenenter"",""1"",""5207""
","
","","[{""page_index"":0,""viewing_time"":5635},{""page_index"":1,""viewing_time"":7824},{""page_index"":2,""viewing_time"":5481},{""page_index"":3,""viewing_time"":6199},{""page_index"":4,""viewing_time"":5769},{""page_index"":5,""viewing_time"":5176},{""page_index"":6,""viewing_time"":11360},{""page_index"":7,""viewing_time"":7688},{""page_index"":8,""viewing_time"":7664},{""page_index"":9,""viewing_time"":5464},{""page_index"":10,""viewing_time"":8583},{""page_index"":11,""viewing_time"":11153},{""page_index"":12,""viewing_time"":7200},{""page_index"":13,""viewing_time"":6784},{""page_index"":14,""viewing_time"":6287},{""page_index"":15,""viewing_time"":6329},{""page_index"":16,""viewing_time"":6313},{""page_index"":17,""viewing_time"":6815}]","127724","","","","","","","","","","","","","","","","","","","","","","","",""
"pit-trial","20","309594","0.0-2.0-8.0-0.0","battery-v0.2","","""event"",""trial"",""time""
""focus"",""0"",""0""
""fullscreenenter"",""1"",""5207""
","
","""event"",""trial"",""time""
""focus"",""0"",""0""
","""event"",""trial"",""time""
""fullscreenenter"",""1"",""5207""
","
","","","390","","","14","3015","1876","&#9776;","elianto","#3366ff99"," "," ","1","+10","[1258]","1","0","1","","","","","","","",""
"pit-trial","21","312755","0.0-2.0-8.0-1.0","battery-v0.2","","""event"",""trial"",""time""
""focus"",""0"",""0""
""fullscreenenter"",""1"",""5207""
","
","""event"",""trial"",""time""
""focus"",""0"",""0""
","""event"",""trial"",""time""
""fullscreenenter"",""1"",""5207""
","
","","","285","","","14","3015","1876","&#9776;","elianto","#3366ff99"," "," ","1","+10","[1144]","1","0","1","","","","","","","",""
"pit-trial","22","316096","0.0-2.0-8.0-2.0","battery-v0.2","","""event"",""trial"",""time""
""focus"",""0"",""0""
""fullscreenenter"",""1"",""5207""
","
","""event"",""trial"",""time""
""focus"",""0"",""0""
","""event"",""trial"",""time""
""fullscreenenter"",""1"",""5207""
","
","","","464","","","14","3015","1876","&#9776;","elianto","#3366ff99"," "," ","1","+10","[1320]","1","0","1","","","","","","","",""
"pit-trial","23","319475","0.0-2.0-8.0-3.0","battery-v0.2","","""event"",""trial"",""time""
""focus"",""0"",""0""
""fullscreenenter"",""1"",""5207""
","
","""event"",""trial"",""time""
""focus"",""0"",""0""
","""event"",""trial"",""time""
""fullscreenenter"",""1"",""5207""
","
","","","519","","","14","3015","1876","&#9776;","elianto","#3366ff99"," "," ","1","0","[1374]","1","0","1","","","","","","","",""
"pit-trial","24","322615","0.0-2.0-8.0-4.0","battery-v0.2","","""event"",""trial"",""time""
""focus"",""0"",""0""
""fullscreenenter"",""1"",""5207""
","
","""event"",""trial"",""time""
""focus"",""0"",""0""
","""event"",""trial"",""time""
""fullscreenenter"",""1"",""5207""
","
","","","268","","","14","3015","1876","&#9776;","elianto","#3366ff99"," "," ","1","+10","[1124]","1","0","1","","","","","","","",""
"call-function","25","322619","0.0-2.0-9.0","battery-v0.2","","""event"",""trial"",""time""
""focus"",""0"",""0""
""fullscreenenter"",""1"",""5207""
","
","""event"",""trial"",""time""
""focus"",""0"",""0""
","""event"",""trial"",""time""
""fullscreenenter"",""1"",""5207""
","
","","","","","","","","","","","","","","","","","","","","","","","","","","",""
"pit-instructions","26","362586","0.0-2.0-10.0","battery-v0.2","","""event"",""trial"",""time""
""focus"",""0"",""0""
""fullscreenenter"",""1"",""5207""
","
","""event"",""trial"",""time""
""focus"",""0"",""0""
","""event"",""trial"",""time""
""fullscreenenter"",""1"",""5207""
","
","","[{""page_index"":0,""viewing_time"":5630},{""page_index"":1,""viewing_time"":6056},{""page_index"":2,""viewing_time"":10225},{""page_index"":3,""viewing_time"":9927},{""page_index"":4,""viewing_time"":8128}]","39967","","","","","","","","","","","","","","","","","","","","","","","",""
"pit-trial","27","365626","0.0-2.0-11.0-0.0","battery-v0.2","","""event"",""trial"",""time""
""focus"",""0"",""0""
""fullscreenenter"",""1"",""5207""
","
","""event"",""trial"",""time""
""focus"",""0"",""0""
","""event"",""trial"",""time""
""fullscreenenter"",""1"",""5207""
","
","","","174","","","14","3015","1876","&#9761;","elianto","#3366ff99","-1"," ","0","0","[1030]","1","0","2","","","","","","","",""
"pit-trial","28","370505","0.0-2.0-11.0-1.0","battery-v0.2","","""event"",""trial"",""time""
""focus"",""0"",""0""
""fullscreenenter"",""1"",""5207""
","
","""event"",""trial"",""time""
""focus"",""0"",""0""
","""event"",""trial"",""time""
""fullscreenenter"",""1"",""5207""
","
","","","-1","","","14","3015","1876","&#9761;","elianto","#3366ff99","-1","-1","1","+10","[]","0","0","2","","","","","","","",""
"pit-trial","29","375385","0.0-2.0-11.0-2.0","battery-v0.2","","""event"",""trial"",""time""
""focus"",""0"",""0""
""fullscreenenter"",""1"",""5207""
","
","""event"",""trial"",""time""
""focus"",""0"",""0""
","""event"",""trial"",""time""
""fullscreenenter"",""1"",""5207""
","
","","","-1","","","14","3015","1876","&#9761;","elianto","#3366ff99","-1","-1","1","+10","[]","0","0","2","","","","","","","",""
"pit-trial","30","380266","0.0-2.0-11.0-3.0","battery-v0.2","","""event"",""trial"",""time""
""focus"",""0"",""0""
""fullscreenenter"",""1"",""5207""
","
","""event"",""trial"",""time""
""focus"",""0"",""0""
","""event"",""trial"",""time""
""fullscreenenter"",""1"",""5207""
","
","","","-1","","","14","3015","1876","&#9761;","elianto","#3366ff99","-1","-1","1","0","[]","0","0","2","","","","","","","",""
"pit-trial","31","385144","0.0-2.0-11.0-4.0","battery-v0.2","","""event"",""trial"",""time""
""focus"",""0"",""0""
""fullscreenenter"",""1"",""5207""
","
","""event"",""trial"",""time""
""focus"",""0"",""0""
","""event"",""trial"",""time""
""fullscreenenter"",""1"",""5207""
","
","","","-1","","","14","3015","1876","&#9761;","elianto","#3366ff99","-1","-1","1","+10","[]","0","0","2","","","","","","","",""
"call-function","32","385145","0.0-2.0-12.0","battery-v0.2","","""event"",""trial"",""time""
""focus"",""0"",""0""
""fullscreenenter"",""1"",""5207""
","
","""event"",""trial"",""time""
""focus"",""0"",""0""
","""event"",""trial"",""time""
""fullscreenenter"",""1"",""5207""
","
","","","","","","","","","","","","","","","","","","","","","","","","","","",""
"pit-instructions","33","416971","0.0-2.0-13.0","battery-v0.2","","""event"",""trial"",""time""
""focus"",""0"",""0""
""fullscreenenter"",""1"",""5207""
","
","""event"",""trial"",""time""
""focus"",""0"",""0""
","""event"",""trial"",""time""
""fullscreenenter"",""1"",""5207""
","
","","[{""page_index"":0,""viewing_time"":5409},{""page_index"":1,""viewing_time"":7288},{""page_index"":2,""viewing_time"":3472},{""page_index"":3,""viewing_time"":10888},{""page_index"":4,""viewing_time"":4768}]","31826","","","","","","","","","","","","","","","","","","","","","","","",""
"pit-trial","34","421846","0.0-2.0-14.0-0.0","battery-v0.2","","""event"",""trial"",""time""
""focus"",""0"",""0""
""fullscreenenter"",""1"",""5207""
","
","""event"",""trial"",""time""
""focus"",""0"",""0""
","""event"",""trial"",""time""
""fullscreenenter"",""1"",""5207""
","
","","","-1","","","14","3015","1876","&#9826;","elianto","#f73b6a7A","-1","-1","1","0","[]","0","0","3","","","","","","","",""
"pit-trial","35","426726","0.0-2.0-14.0-1.0","battery-v0.2","","""event"",""trial"",""time""
""focus"",""0"",""0""
""fullscreenenter"",""1"",""5207""
","
","""event"",""trial"",""time""
""focus"",""0"",""0""
","""event"",""trial"",""time""
""fullscreenenter"",""1"",""5207""
","
","","","-1","","","14","3015","1876","&#9826;","elianto","#f73b6a7A","-1","-1","1","0","[]","0","0","3","","","","","","","",""
"pit-trial","36","431583","0.0-2.0-14.0-2.0","battery-v0.2","","""event"",""trial"",""time""
""focus"",""0"",""0""
""fullscreenenter"",""1"",""5207""
","
","""event"",""trial"",""time""
""focus"",""0"",""0""
","""event"",""trial"",""time""
""fullscreenenter"",""1"",""5207""
","
","","","-1","","","14","3015","1876","&#9826;","elianto","#f73b6a7A","-1","-1","1","0","[]","0","0","3","","","","","","","",""
"pit-trial","37","436445","0.0-2.0-14.0-3.0","battery-v0.2","","""event"",""trial"",""time""
""focus"",""0"",""0""
""fullscreenenter"",""1"",""5207""
","
","""event"",""trial"",""time""
""focus"",""0"",""0""
","""event"",""trial"",""time""
""fullscreenenter"",""1"",""5207""
","
","","","-1","","","14","3015","1876","&#9826;","elianto","#f73b6a7A","-1","-1","1","-10","[]","0","0","3","","","","","","","",""
"pit-trial","38","441324","0.0-2.0-14.0-4.0","battery-v0.2","","""event"",""trial"",""time""
""focus"",""0"",""0""
""fullscreenenter"",""1"",""5207""
","
","""event"",""trial"",""time""
""focus"",""0"",""0""
","""event"",""trial"",""time""
""fullscreenenter"",""1"",""5207""
","
","","","-1","","","14","3015","1876","&#9826;","elianto","#f73b6a7A","-1","-1","1","0","[]","0","0","3","","","","","","","",""
"call-function","39","441325","0.0-2.0-15.0","battery-v0.2","","""event"",""trial"",""time""
""focus"",""0"",""0""
""fullscreenenter"",""1"",""5207""
","
","""event"",""trial"",""time""
""focus"",""0"",""0""
","""event"",""trial"",""time""
""fullscreenenter"",""1"",""5207""
","
","","","","","","","","","","","","","","","","","","","","","","","","","","",""
"pit-instructions","40","470026","0.0-2.0-16.0","battery-v0.2","","""event"",""trial"",""time""
""focus"",""0"",""0""
""fullscreenenter"",""1"",""5207""
","
","""event"",""trial"",""time""
""focus"",""0"",""0""
","""event"",""trial"",""time""
""fullscreenenter"",""1"",""5207""
","
","","[{""page_index"":0,""viewing_time"":7300},{""page_index"":1,""viewing_time"":8169},{""page_index"":2,""viewing_time"":6871},{""page_index"":3,""viewing_time"":6360}]","28700","","","","","","","","","","","","","","","","","","","","","","","",""
"pit-trial","41","474906","0.0-2.0-17.0-0.0","battery-v0.2","","""event"",""trial"",""time""
""focus"",""0"",""0""
""fullscreenenter"",""1"",""5207""
","
","""event"",""trial"",""time""
""focus"",""0"",""0""
","""event"",""trial"",""time""
""fullscreenenter"",""1"",""5207""
","
","","","-1","","","14","3015","1876","&#9789;","elianto","#f73b6a7A"," ","-1","0","-10","[]","0","0","4","","","","","","","",""
"pit-trial","42","479785","0.0-2.0-17.0-1.0","battery-v0.2","","""event"",""trial"",""time""
""focus"",""0"",""0""
""fullscreenenter"",""1"",""5207""
","
","""event"",""trial"",""time""
""focus"",""0"",""0""
","""event"",""trial"",""time""
""fullscreenenter"",""1"",""5207""
","
","","","-1","","","14","3015","1876","&#9789;","elianto","#f73b6a7A"," ","-1","0","-10","[]","0","0","4","","","","","","","",""
"pit-trial","43","482846","0.0-2.0-17.0-2.0","battery-v0.2","","""event"",""trial"",""time""
""focus"",""0"",""0""
""fullscreenenter"",""1"",""5207""
","
","""event"",""trial"",""time""
""focus"",""0"",""0""
","""event"",""trial"",""time""
""fullscreenenter"",""1"",""5207""
","
","","","184","","","14","3015","1876","&#9789;","elianto","#f73b6a7A"," "," ","1","0","[1040]","1","0","4","","","","","","","",""
"pit-trial","44","485985","0.0-2.0-17.0-3.0","battery-v0.2","","""event"",""trial"",""time""
""focus"",""0"",""0""
""fullscreenenter"",""1"",""5207""
","
","""event"",""trial"",""time""
""focus"",""0"",""0""
","""event"",""trial"",""time""
""fullscreenenter"",""1"",""5207""
","
","","","273","","","14","3015","1876","&#9789;","elianto","#f73b6a7A"," "," ","1","-10","[1130]","1","0","4","","","","","","","",""
"pit-trial","45","489286","0.0-2.0-17.0-4.0","battery-v0.2","","""event"",""trial"",""time""
""focus"",""0"",""0""
""fullscreenenter"",""1"",""5207""
","
","""event"",""trial"",""time""
""focus"",""0"",""0""
","""event"",""trial"",""time""
""fullscreenenter"",""1"",""5207""
","
","","","432","","","14","3015","1876","&#9789;","elianto","#f73b6a7A"," "," ","1","0","[1285]","1","0","4","","","","","","","",""
"pit-trial","46","492564","0.0-2.0-17.1-0.1","battery-v0.2","","""event"",""trial"",""time""
""focus"",""0"",""0""
""fullscreenenter"",""1"",""5207""
","
","""event"",""trial"",""time""
""focus"",""0"",""0""
","""event"",""trial"",""time""
""fullscreenenter"",""1"",""5207""
","
","","","420","","","14","3015","1876","&#9789;","elianto","#f73b6a7A"," "," ","1","0","[1276]","1","0","4","","","","","","","",""
"pit-trial","47","495865","0.0-2.0-17.1-1.1","battery-v0.2","","""event"",""trial"",""time""
""focus"",""0"",""0""
""fullscreenenter"",""1"",""5207""
","
","""event"",""trial"",""time""
""focus"",""0"",""0""
","""event"",""trial"",""time""
""fullscreenenter"",""1"",""5207""
","
","","","424","","","14","3015","1876","&#9789;","elianto","#f73b6a7A"," "," ","1","0","[1283]","1","0","4","","","","","","","",""
"pit-trial","48","499045","0.0-2.0-17.1-2.1","battery-v0.2","","""event"",""trial"",""time""
""focus"",""0"",""0""
""fullscreenenter"",""1"",""5207""
","
","""event"",""trial"",""time""
""focus"",""0"",""0""
","""event"",""trial"",""time""
""fullscreenenter"",""1"",""5207""
","
","","","304","","","14","3015","1876","&#9789;","elianto","#f73b6a7A"," "," ","1","0","[1160]","1","0","4","","","","","","","",""
"pit-trial","49","502165","0.0-2.0-17.1-3.1","battery-v0.2","","""event"",""trial"",""time""
""focus"",""0"",""0""
""fullscreenenter"",""1"",""5207""
","
","""event"",""trial"",""time""
""focus"",""0"",""0""
","""event"",""trial"",""time""
""fullscreenenter"",""1"",""5207""
","
","","","259","","","14","3015","1876","&#9789;","elianto","#f73b6a7A"," "," ","1","-10","[1116]","1","0","4","","","","","","","",""
"pit-trial","50","505326","0.0-2.0-17.1-4.1","battery-v0.2","","""event"",""trial"",""time""
""focus"",""0"",""0""
""fullscreenenter"",""1"",""5207""
","
","""event"",""trial"",""time""
""focus"",""0"",""0""
","""event"",""trial"",""time""
""fullscreenenter"",""1"",""5207""
","
","","","292","","","14","3015","1876","&#9789;","elianto","#f73b6a7A"," "," ","1","0","[1150]","1","0","4","","","","","","","",""
"call-function","51","505327","0.0-2.0-18.0","battery-v0.2","","""event"",""trial"",""time""
""focus"",""0"",""0""
""fullscreenenter"",""1"",""5207""
","
","""event"",""trial"",""time""
""focus"",""0"",""0""
","""event"",""trial"",""time""
""fullscreenenter"",""1"",""5207""
","
","","","","","","","","","","","","","","","","","","","","","","","","","","",""
"pit-instructions","52","577259","0.0-2.0-19.0","battery-v0.2","","""event"",""trial"",""time""
""focus"",""0"",""0""
""fullscreenenter"",""1"",""5207""
","
","""event"",""trial"",""time""
""focus"",""0"",""0""
","""event"",""trial"",""time""
""fullscreenenter"",""1"",""5207""
","
","","[{""page_index"":0,""viewing_time"":6498},{""page_index"":1,""viewing_time"":5840},{""page_index"":2,""viewing_time"":13104},{""page_index"":3,""viewing_time"":8392},{""page_index"":4,""viewing_time"":8984},{""page_index"":5,""viewing_time"":10273},{""page_index"":6,""viewing_time"":9015},{""page_index"":7,""viewing_time"":6184},{""page_index"":8,""viewing_time"":3640}]","71930","","","","","","","","","","","","","","","","","","","","","","","",""
"pit-comprehension","53","581835","0.0-2.0-20.0-0.0","battery-v0.2","","""event"",""trial"",""time""
""focus"",""0"",""0""
""fullscreenenter"",""1"",""5207""
","
","""event"",""trial"",""time""
""focus"",""0"",""0""
","""event"",""trial"",""time""
""fullscreenenter"",""1"",""5207""
","
","","","4575","[""SPACE""]","0","14","3015","1876","","","","","","","","","","","","","","","","","","",""
"pit-instructions","54","587658","0.0-2.0-20.0-1.0","battery-v0.2","","""event"",""trial"",""time""
""focus"",""0"",""0""
""fullscreenenter"",""1"",""5207""
","
","""event"",""trial"",""time""
""focus"",""0"",""0""
","""event"",""trial"",""time""
""fullscreenenter"",""1"",""5207""
","
","","[{""page_index"":0,""viewing_time"":5805}]","5805","","","","","","","","","","","","","","","","","","","","","","","",""
"pit-comprehension","55","594788","0.0-2.0-21.0-0.0","battery-v0.2","","""event"",""trial"",""time""
""focus"",""0"",""0""
""fullscreenenter"",""1"",""5207""
","
","""event"",""trial"",""time""
""focus"",""0"",""0""
","""event"",""trial"",""time""
""fullscreenenter"",""1"",""5207""
","
","","","7127","[""10""]","0","14","3015","1876","","","","","","","","","","","","","","","","","","",""
"pit-instructions","56","596499","0.0-2.0-21.0-1.0","battery-v0.2","","""event"",""trial"",""time""
""focus"",""0"",""0""
""fullscreenenter"",""1"",""5207""
","
","""event"",""trial"",""time""
""focus"",""0"",""0""
","""event"",""trial"",""time""
""fullscreenenter"",""1"",""5207""
","
","","[{""page_index"":0,""viewing_time"":1693}]","1693","","","","","","","","","","","","","","","","","","","","","","","",""
"pit-comprehension","57","605139","0.0-2.0-22.0-0.0","battery-v0.2","","""event"",""trial"",""time""
""focus"",""0"",""0""
""fullscreenenter"",""1"",""5207""
","
","""event"",""trial"",""time""
""focus"",""0"",""0""
","""event"",""trial"",""time""
""fullscreenenter"",""1"",""5207""
","
","","","8638","[""0""]","0","14","3015","1876","","","","","","","","","","","","","","","","","","",""
"pit-instructions","58","609442","0.0-2.0-22.0-1.0","battery-v0.2","","""event"",""trial"",""time""
""focus"",""0"",""0""
""fullscreenenter"",""1"",""5207""
","
","""event"",""trial"",""time""
""focus"",""0"",""0""
","""event"",""trial"",""time""
""fullscreenenter"",""1"",""5207""
","
","","[{""page_index"":0,""viewing_time"":4283}]","4283","","","","","","","","","","","","","","","","","","","","","","","",""
"pit-comprehension","59","618340","0.0-2.0-23.0-0.0","battery-v0.2","","""event"",""trial"",""time""
""focus"",""0"",""0""
""fullscreenenter"",""1"",""5207""
","
","""event"",""trial"",""time""
""focus"",""0"",""0""
","""event"",""trial"",""time""
""fullscreenenter"",""1"",""5207""
","
","","","8895","[""True""]","0","14","3015","1876","","","","","","","","","","","","","","","","","","",""
"pit-instructions","60","620155","0.0-2.0-23.0-1.0","battery-v0.2","","""event"",""trial"",""time""
""focus"",""0"",""0""
""fullscreenenter"",""1"",""5207""
","
","""event"",""trial"",""time""
""focus"",""0"",""0""
","""event"",""trial"",""time""
""fullscreenenter"",""1"",""5207""
","
","","[{""page_index"":0,""viewing_time"":1795}]","1795","","","","","","","","","","","","","","","","","","","","","","","",""
"pit-comprehension","61","628043","0.0-2.0-24.0-0.0","battery-v0.2","","""event"",""trial"",""time""
""focus"",""0"",""0""
""fullscreenenter"",""1"",""5207""
","
","""event"",""trial"",""time""
""focus"",""0"",""0""
","""event"",""trial"",""time""
""fullscreenenter"",""1"",""5207""
","
","","","7887","[""True""]","0","14","3015","1876","","","","","","","","","","","","","","","","","","",""
"pit-instructions","62","630394","0.0-2.0-24.0-1.0","battery-v0.2","","""event"",""trial"",""time""
""focus"",""0"",""0""
""fullscreenenter"",""1"",""5207""
","
","""event"",""trial"",""time""
""focus"",""0"",""0""
","""event"",""trial"",""time""
""fullscreenenter"",""1"",""5207""
","
","","[{""page_index"":0,""viewing_time"":2331}]","2331","","","","","","","","","","","","","","","","","","","","","","","",""
"pit-comprehension","63","636931","0.0-2.0-25.0-0.0","battery-v0.2","","""event"",""trial"",""time""
""focus"",""0"",""0""
""fullscreenenter"",""1"",""5207""
","
","""event"",""trial"",""time""
""focus"",""0"",""0""
","""event"",""trial"",""time""
""fullscreenenter"",""1"",""5207""
","
","","","6536","[""True""]","0","14","3015","1876","","","","","","","","","","","","","","","","","","",""
"pit-instructions","64","639315","0.0-2.0-25.0-1.0","battery-v0.2","","""event"",""trial"",""time""
""focus"",""0"",""0""
""fullscreenenter"",""1"",""5207""
","
","""event"",""trial"",""time""
""focus"",""0"",""0""
","""event"",""trial"",""time""
""fullscreenenter"",""1"",""5207""
","
","","[{""page_index"":0,""viewing_time"":2363}]","2363","","","","","","","","","","","","","","","","","","","","","","","",""
"pit-comprehension","65","644627","0.0-2.0-26.0-0.0","battery-v0.2","","""event"",""trial"",""time""
""focus"",""0"",""0""
""fullscreenenter"",""1"",""5207""
","
","""event"",""trial"",""time""
""focus"",""0"",""0""
","""event"",""trial"",""time""
""fullscreenenter"",""1"",""5207""
","
","","","5311","[""False""]","0","14","3015","1876","","","","","","","","","","","","","","","","","","",""
"pit-instructions","66","646939","0.0-2.0-26.0-1.0","battery-v0.2","","""event"",""trial"",""time""
""focus"",""0"",""0""
""fullscreenenter"",""1"",""5207""
","
","""event"",""trial"",""time""
""focus"",""0"",""0""
","""event"",""trial"",""time""
""fullscreenenter"",""1"",""5207""
","
","","[{""page_index"":0,""viewing_time"":2289}]","2290","","","","","","","","","","","","","","","","","","","","","","","",""
"pit-instructions","67","665147","0.0-3.0","battery-v0.2","","""event"",""trial"",""time""
""focus"",""0"",""0""
""fullscreenenter"",""1"",""5207""
","
","""event"",""trial"",""time""
""focus"",""0"",""0""
","""event"",""trial"",""time""
""fullscreenenter"",""1"",""5207""
","
","","[{""page_index"":0,""viewing_time"":5278},{""page_index"":1,""viewing_time"":5489},{""page_index"":2,""viewing_time"":7439}]","18206","","","","","","","","","","","","","","","","","","","","","","","",""
"pit-trial","68","668545","0.0-4.0","battery-v0.2","","""event"",""trial"",""time""
""focus"",""0"",""0""
""fullscreenenter"",""1"",""5207""
","
","""event"",""trial"",""time""
""focus"",""0"",""0""
","""event"",""trial"",""time""
""fullscreenenter"",""1"",""5207""
","
","","","539","","","14","3015","1876","&#9730;","elianto","#3366ff99"," "," ","1","+10","[1395]","1","1","","","3015","1","1","1","win","go","0"
"pit-trial","69","672985","0.0-5.0","battery-v0.2","","""event"",""trial"",""time""
""focus"",""0"",""0""
""fullscreenenter"",""1"",""5207""
","
","""event"",""trial"",""time""
""focus"",""0"",""0""
","""event"",""trial"",""time""
""fullscreenenter"",""1"",""5207""
","
","","","1567","","","14","3015","1876","&#9728;","elianto","#f73b6a7A","-1"," ","0","-10","[2424]","1","1","","","3015","2","0","4","lose","no-go","0"
"pit-trial","70","676946","0.0-6.0","battery-v0.2","","""event"",""trial"",""time""
""focus"",""0"",""0""
""fullscreenenter"",""1"",""5207""
","
","""event"",""trial"",""time""
""focus"",""0"",""0""
","""event"",""trial"",""time""
""fullscreenenter"",""1"",""5207""
","
","","","1089","","","14","3015","1876","&#9733;","elianto","#3366ff99","-1"," ","0","0","[1945]","1","1","","","3015","3","2","2","win","no-go","0"
"pit-trial","71","680785","0.0-7.0","battery-v0.2","","""event"",""trial"",""time""
""focus"",""0"",""0""
""fullscreenenter"",""1"",""5207""
","
","""event"",""trial"",""time""
""focus"",""0"",""0""
","""event"",""trial"",""time""
""fullscreenenter"",""1"",""5207""
","
","","","970","","","14","3015","1876","&#9752;","elianto","#f73b6a7A"," "," ","1","0","[1827]","1","1","","","3015","4","3","3","lose","go","0"
"pit-trial","72","684445","0.0-8.0","battery-v0.2","","""event"",""trial"",""time""
""focus"",""0"",""0""
""fullscreenenter"",""1"",""5207""
","
","""event"",""trial"",""time""
""focus"",""0"",""0""
","""event"",""trial"",""time""
""fullscreenenter"",""1"",""5207""
","
","","","786","","","14","3015","1876","&#9728;","elianto","#f73b6a7A","-1"," ","0","-10","[1642]","1","1","","","3015","5","0","4","lose","no-go","0"
"pit-trial","73","688285","0.0-9.0","battery-v0.2","","""event"",""trial"",""time""
""focus"",""0"",""0""
""fullscreenenter"",""1"",""5207""
","
","""event"",""trial"",""time""
""focus"",""0"",""0""
","""event"",""trial"",""time""
""fullscreenenter"",""1"",""5207""
","
","","","963","","","14","3015","1876","&#9730;","elianto","#3366ff99"," "," ","1","+10","[1820]","1","1","","","3015","6","1","1","win","go","0"
"pit-trial","74","692424","0.0-10.0","battery-v0.2","","""event"",""trial"",""time""
""focus"",""0"",""0""
""fullscreenenter"",""1"",""5207""
","
","""event"",""trial"",""time""
""focus"",""0"",""0""
","""event"",""trial"",""time""
""fullscreenenter"",""1"",""5207""
","
","","","1261","","","14","3015","1876","&#9733;","elianto","#3366ff99","-1"," ","0","0","[2119]","1","1","","","3015","7","2","2","win","no-go","0"
"pit-trial","75","696485","0.0-11.0","battery-v0.2","","""event"",""trial"",""time""
""focus"",""0"",""0""
""fullscreenenter"",""1"",""5207""
","
","""event"",""trial"",""time""
""focus"",""0"",""0""
","""event"",""trial"",""time""
""fullscreenenter"",""1"",""5207""
","
","","","1187","","","14","3015","1876","&#9752;","elianto","#f73b6a7A"," "," ","1","0","[2047]","1","1","","","3015","8","3","3","lose","go","0"
"pit-trial","76","701366","0.0-12.0","battery-v0.2","","""event"",""trial"",""time""
""focus"",""0"",""0""
""fullscreenenter"",""1"",""5207""
","
","""event"",""trial"",""time""
""focus"",""0"",""0""
","""event"",""trial"",""time""
""fullscreenenter"",""1"",""5207""
","
","","","-1","","","14","3015","1876","&#9728;","elianto","#f73b6a7A","-1","-1","1","0","[]","0","1","","","3015","9","0","4","lose","no-go","0"
"pit-trial","77","706226","0.0-13.0","battery-v0.2","","""event"",""trial"",""time""
""focus"",""0"",""0""
""fullscreenenter"",""1"",""5207""
","
","""event"",""trial"",""time""
""focus"",""0"",""0""
","""event"",""trial"",""time""
""fullscreenenter"",""1"",""5207""
","
","","","-1","","","14","3015","1876","&#9730;","elianto","#3366ff99"," ","-1","0","0","[]","0","1","","","3015","10","1","1","win","go","0"
"pit-trial","78","709985","0.0-14.0","battery-v0.2","","""event"",""trial"",""time""
""focus"",""0"",""0""
""fullscreenenter"",""1"",""5207""
","
","""event"",""trial"",""time""
""focus"",""0"",""0""
","""event"",""trial"",""time""
""fullscreenenter"",""1"",""5207""
","
","","","898","","","14","3015","1876","&#9733;","elianto","#3366ff99","-1"," ","0","0","[1753]","1","1","","","3015","11","2","2","win","no-go","0"
"pit-trial","79","713905","0.0-15.0","battery-v0.2","","""event"",""trial"",""time""
""focus"",""0"",""0""
""fullscreenenter"",""1"",""5207""
","
","""event"",""trial"",""time""
""focus"",""0"",""0""
","""event"",""trial"",""time""
""fullscreenenter"",""1"",""5207""
","
","","","1054","","","14","3015","1876","&#9752;","elianto","#f73b6a7A"," "," ","1","0","[1907]","1","1","","","3015","12","3","3","lose","go","0"
"pit-trial","80","718706","0.0-16.0","battery-v0.2","","""event"",""trial"",""time""
""focus"",""0"",""0""
""fullscreenenter"",""1"",""5207""
","
","""event"",""trial"",""time""
""focus"",""0"",""0""
","""event"",""trial"",""time""
""fullscreenenter"",""1"",""5207""
","
","","","1921","","","14","3015","1876","&#9733;","elianto","#3366ff99","-1"," ","0","0","[2776]","1","1","","","3015","13","2","2","win","no-go","0"
"pit-trial","81","722506","0.0-17.0","battery-v0.2","","""event"",""trial"",""time""
""focus"",""0"",""0""
""fullscreenenter"",""1"",""5207""
","
","""event"",""trial"",""time""
""focus"",""0"",""0""
","""event"",""trial"",""time""
""fullscreenenter"",""1"",""5207""
","
","","","936","","","14","3015","1876","&#9730;","elianto","#3366ff99"," "," ","1","+10","[1793]","1","1","","","3015","14","1","1","win","go","0"
"pit-trial","82","727376","0.0-18.0","battery-v0.2","","""event"",""trial"",""time""
""focus"",""0"",""0""
""fullscreenenter"",""1"",""5207""
","
","""event"",""trial"",""time""
""focus"",""0"",""0""
","""event"",""trial"",""time""
""fullscreenenter"",""1"",""5207""
","
","","","-1","","","14","3015","1876","&#9728;","elianto","#f73b6a7A","-1","-1","1","0","[]","0","1","","","3015","15","0","4","lose","no-go","0"
"pit-trial","83","731226","0.0-19.0","battery-v0.2","","""event"",""trial"",""time""
""focus"",""0"",""0""
""fullscreenenter"",""1"",""5207""
","
","""event"",""trial"",""time""
""focus"",""0"",""0""
","""event"",""trial"",""time""
""fullscreenenter"",""1"",""5207""
","
","","","982","","","14","3015","1876","&#9752;","elianto","#f73b6a7A"," "," ","1","-10","[1839]","1","1","","","3015","16","3","3","lose","go","1"
"pit-trial","84","736105","0.0-20.0","battery-v0.2","","""event"",""trial"",""time""
""focus"",""0"",""0""
""fullscreenenter"",""1"",""5207""
","
","""event"",""trial"",""time""
""focus"",""0"",""0""
","""event"",""trial"",""time""
""fullscreenenter"",""1"",""5207""
","
","","","-1","","","14","3015","1876","&#9730;","elianto","#3366ff99"," ","-1","0","0","[]","0","1","","","3015","17","1","1","win","go","0"
"pit-trial","85","740986","0.0-21.0","battery-v0.2","","""event"",""trial"",""time""
""focus"",""0"",""0""
""fullscreenenter"",""1"",""5207""
","
","""event"",""trial"",""time""
""focus"",""0"",""0""
","""event"",""trial"",""time""
""fullscreenenter"",""1"",""5207""
","
","","","-1","","","14","3015","1876","&#9733;","elianto","#3366ff99","-1","-1","1","+10","[]","0","1","","","3015","18","2","2","win","no-go","0"
"pit-trial","86","745126","0.0-22.0","battery-v0.2","","""event"",""trial"",""time""
""focus"",""0"",""0""
""fullscreenenter"",""1"",""5207""
","
","""event"",""trial"",""time""
""focus"",""0"",""0""
","""event"",""trial"",""time""
""fullscreenenter"",""1"",""5207""
","
","","","1260","","","14","3015","1876","&#9752;","elianto","#f73b6a7A"," "," ","1","0","[2117]","1","1","","","3015","19","3","3","lose","go","0"
"pit-trial","87","750006","0.0-23.0","battery-v0.2","","""event"",""trial"",""time""
""focus"",""0"",""0""
""fullscreenenter"",""1"",""5207""
","
","""event"",""trial"",""time""
""focus"",""0"",""0""
","""event"",""trial"",""time""
""fullscreenenter"",""1"",""5207""
","
","","","-1","","","14","3015","1876","&#9728;","elianto","#f73b6a7A","-1","-1","1","0","[]","0","1","","","3015","20","0","4","lose","no-go","0"
"pit-instructions","88","763203","0.0-24.0","battery-v0.2","","""event"",""trial"",""time""
""focus"",""0"",""0""
""fullscreenenter"",""1"",""5207""
","
","""event"",""trial"",""time""
""focus"",""0"",""0""
","""event"",""trial"",""time""
""fullscreenenter"",""1"",""5207""
","
","","[{""page_index"":0,""viewing_time"":7027},{""page_index"":1,""viewing_time"":6168}]","13195","","","","","","","","","","","","","","","","","","","","","","","",""
"pit-trial","89","766766","0.0-25.0","battery-v0.2","","""event"",""trial"",""time""
""focus"",""0"",""0""
""fullscreenenter"",""1"",""5207""
","
","""event"",""trial"",""time""
""focus"",""0"",""0""
","""event"",""trial"",""time""
""fullscreenenter"",""1"",""5207""
","
","","","699","","","14","3015","1876","j","elianto","#f73b6a7A"," "," ","1","0","[1558]","1","2","","","3015","21","0","3","lose","go","0"
"pit-trial","90","771625","0.0-26.0","battery-v0.2","","""event"",""trial"",""time""
""focus"",""0"",""0""
""fullscreenenter"",""1"",""5207""
","
","""event"",""trial"",""time""
""focus"",""0"",""0""
","""event"",""trial"",""time""
""fullscreenenter"",""1"",""5207""
","
","","","-1","","","14","3015","1876","e","elianto","#f73b6a7A"," ","-1","0","-10","[2857]","1","2","","","3015","22","2","3","lose","go","0"
"pit-trial","91","776026","0.0-27.0","battery-v0.2","","""event"",""trial"",""time""
""focus"",""0"",""0""
""fullscreenenter"",""1"",""5207""
","
","""event"",""trial"",""time""
""focus"",""0"",""0""
","""event"",""trial"",""time""
""fullscreenenter"",""1"",""5207""
","
","","","1536","","","14","3015","1876","d","elianto","#3366ff99","-1"," ","0","+10","[2394]","1","2","","","3015","23","1","2","win","no-go","1"
"pit-trial","92","780366","0.0-28.0","battery-v0.2","","""event"",""trial"",""time""
""focus"",""0"",""0""
""fullscreenenter"",""1"",""5207""
","
","""event"",""trial"",""time""
""focus"",""0"",""0""
","""event"",""trial"",""time""
""fullscreenenter"",""1"",""5207""
","
","","","1463","","","14","3015","1876","w","elianto","#f73b6a7A","-1"," ","0","-10","[2318]","1","2","","","3015","24","3","4","lose","no-go","0"
"pit-trial","93","785225","0.0-29.0","battery-v0.2","","""event"",""trial"",""time""
""focus"",""0"",""0""
""fullscreenenter"",""1"",""5207""
","
","""event"",""trial"",""time""
""focus"",""0"",""0""
","""event"",""trial"",""time""
""fullscreenenter"",""1"",""5207""
","
","","","-1","","","14","3015","1876","d","elianto","#3366ff99","-1","-1","1","0","[3387]","1","2","","","3015","25","1","2","win","no-go","1"
"pit-trial","94","790116","0.0-30.0","battery-v0.2","","""event"",""trial"",""time""
""focus"",""0"",""0""
""fullscreenenter"",""1"",""5207""
","
","""event"",""trial"",""time""
""focus"",""0"",""0""
","""event"",""trial"",""time""
""fullscreenenter"",""1"",""5207""
","
","","","-1","","","14","3015","1876","j","elianto","#f73b6a7A"," ","-1","0","-10","[3020]","1","2","","","3015","26","0","3","lose","go","0"
"pit-trial","95","793796","0.0-31.0","battery-v0.2","","""event"",""trial"",""time""
""focus"",""0"",""0""
""fullscreenenter"",""1"",""5207""
","
","""event"",""trial"",""time""
""focus"",""0"",""0""
","""event"",""trial"",""time""
""fullscreenenter"",""1"",""5207""
","
","","","800","","","14","3015","1876","e","elianto","#f73b6a7A"," "," ","1","0","[1656]","1","2","","","3015","27","2","3","lose","go","0"
"pit-trial","96","797375","0.0-32.0","battery-v0.2","","""event"",""trial"",""time""
""focus"",""0"",""0""
""fullscreenenter"",""1"",""5207""
","
","""event"",""trial"",""time""
""focus"",""0"",""0""
","""event"",""trial"",""time""
""fullscreenenter"",""1"",""5207""
","
","","","713","","","14","3015","1876","w","elianto","#f73b6a7A","-1"," ","0","-10","[1569]","1","2","","","3015","28","3","4","lose","no-go","0"
"pit-trial","97","801396","0.0-33.0","battery-v0.2","","""event"",""trial"",""time""
""focus"",""0"",""0""
""fullscreenenter"",""1"",""5207""
","
","""event"",""trial"",""time""
""focus"",""0"",""0""
","""event"",""trial"",""time""
""fullscreenenter"",""1"",""5207""
","
","","","1142","","","14","3015","1876","d","elianto","#3366ff99","-1"," ","0","0","[1998]","1","2","","","3015","29","1","2","win","no-go","0"
"pit-trial","98","806255","0.0-34.0","battery-v0.2","","""event"",""trial"",""time""
""focus"",""0"",""0""
""fullscreenenter"",""1"",""5207""
","
","""event"",""trial"",""time""
""focus"",""0"",""0""
","""event"",""trial"",""time""
""fullscreenenter"",""1"",""5207""
","
","","","-1","","","14","3015","1876","w","elianto","#f73b6a7A","-1","-1","1","0","[]","0","2","","","3015","30","3","4","lose","no-go","0"
"pit-trial","99","810145","0.0-35.0","battery-v0.2","","""event"",""trial"",""time""
""focus"",""0"",""0""
""fullscreenenter"",""1"",""5207""
","
","""event"",""trial"",""time""
""focus"",""0"",""0""
","""event"",""trial"",""time""
""fullscreenenter"",""1"",""5207""
","
","","","1029","","","14","3015","1876","j","elianto","#f73b6a7A"," "," ","1","0","[1886]","1","2","","","3015","31","0","3","lose","go","0"
"pit-trial","100","814095","0.0-36.0","battery-v0.2","","""event"",""trial"",""time""
""focus"",""0"",""0""
""fullscreenenter"",""1"",""5207""
","
","""event"",""trial"",""time""
""focus"",""0"",""0""
","""event"",""trial"",""time""
""fullscreenenter"",""1"",""5207""
","
","","","1083","","","14","3015","1876","e","elianto","#f73b6a7A"," "," ","1","0","[1941]","1","2","","","3015","32","2","3","lose","go","0"
"pit-trial","101","817926","0.0-37.0","battery-v0.2","","""event"",""trial"",""time""
""focus"",""0"",""0""
""fullscreenenter"",""1"",""5207""
","
","""event"",""trial"",""time""
""focus"",""0"",""0""
","""event"",""trial"",""time""
""fullscreenenter"",""1"",""5207""
","
","","","956","","","14","3015","1876","j","elianto","#f73b6a7A"," "," ","1","0","[1819]","1","2","","","3015","33","0","3","lose","go","0"
"pit-trial","102","822815","0.0-38.0","battery-v0.2","","""event"",""trial"",""time""
""focus"",""0"",""0""
""fullscreenenter"",""1"",""5207""
","
","""event"",""trial"",""time""
""focus"",""0"",""0""
","""event"",""trial"",""time""
""fullscreenenter"",""1"",""5207""
","
","","","-1","","","14","3015","1876","d","elianto","#3366ff99","-1","-1","1","+10","[2890]","1","2","","","3015","34","1","2","win","no-go","0"
"pit-trial","103","826654","0.0-39.0","battery-v0.2","","""event"",""trial"",""time""
""focus"",""0"",""0""
""fullscreenenter"",""1"",""5207""
","
","""event"",""trial"",""time""
""focus"",""0"",""0""
","""event"",""trial"",""time""
""fullscreenenter"",""1"",""5207""
","
","","","964","","","14","3015","1876","w","elianto","#f73b6a7A","-1"," ","0","-10","[1820]","1","2","","","3015","35","3","4","lose","no-go","0"
"pit-trial","104","830315","0.0-40.0","battery-v0.2","","""event"",""trial"",""time""
""focus"",""0"",""0""
""fullscreenenter"",""1"",""5207""
","
","""event"",""trial"",""time""
""focus"",""0"",""0""
","""event"",""trial"",""time""
""fullscreenenter"",""1"",""5207""
","
","","","799","","","14","3015","1876","e","elianto","#f73b6a7A"," "," ","1","0","[1658]","1","2","","","3015","36","2","3","lose","go","0"
"pit-trial","105","833995","0.0-41.0","battery-v0.2","","""event"",""trial"",""time""
""focus"",""0"",""0""
""fullscreenenter"",""1"",""5207""
","
","""event"",""trial"",""time""
""focus"",""0"",""0""
","""event"",""trial"",""time""
""fullscreenenter"",""1"",""5207""
","
","","","819","","","14","3015","1876","d","elianto","#3366ff99","-1"," ","0","0","[1675]","1","2","","","3015","37","1","2","win","no-go","0"
"pit-trial","106","837716","0.0-42.0","battery-v0.2","","""event"",""trial"",""time""
""focus"",""0"",""0""
""fullscreenenter"",""1"",""5207""
","
","""event"",""trial"",""time""
""focus"",""0"",""0""
","""event"",""trial"",""time""
""fullscreenenter"",""1"",""5207""
","
","","","841","","","14","3015","1876","e","elianto","#f73b6a7A"," "," ","1","-10","[1698]","1","2","","","3015","38","2","3","lose","go","1"
"pit-trial","107","842596","0.0-43.0","battery-v0.2","","""event"",""trial"",""time""
""focus"",""0"",""0""
""fullscreenenter"",""1"",""5207""
","
","""event"",""trial"",""time""
""focus"",""0"",""0""
","""event"",""trial"",""time""
""fullscreenenter"",""1"",""5207""
","
","","","-1","","","14","3015","1876","w","elianto","#f73b6a7A","-1","-1","1","0","[]","0","2","","","3015","39","3","4","lose","no-go","0"
"pit-trial","108","846585","0.0-44.0","battery-v0.2","","""event"",""trial"",""time""
""focus"",""0"",""0""
""fullscreenenter"",""1"",""5207""
","
","""event"",""trial"",""time""
""focus"",""0"",""0""
","""event"",""trial"",""time""
""fullscreenenter"",""1"",""5207""
","
","","","1128","","","14","3015","1876","j","elianto","#f73b6a7A"," "," ","1","0","[1985]","1","2","","","3015","40","0","3","lose","go","0"
"pit-trial","109","851456","0.0-45.0","battery-v0.2","","""event"",""trial"",""time""
""focus"",""0"",""0""
""fullscreenenter"",""1"",""5207""
","
","""event"",""trial"",""time""
""focus"",""0"",""0""
","""event"",""trial"",""time""
""fullscreenenter"",""1"",""5207""
","
","","","-1","","","14","3015","1876","e","elianto","#f73b6a7A"," ","-1","0","-10","[]","0","2","","","3015","41","2","3","lose","go","0"
"pit-trial","110","856336","0.0-46.0","battery-v0.2","","""event"",""trial"",""time""
""focus"",""0"",""0""
""fullscreenenter"",""1"",""5207""
","
","""event"",""trial"",""time""
""focus"",""0"",""0""
","""event"",""trial"",""time""
""fullscreenenter"",""1"",""5207""
","
","","","-1","","","14","3015","1876","w","elianto","#f73b6a7A","-1","-1","1","0","[]","0","2","","","3015","42","3","4","lose","no-go","0"
"pit-trial","111","860256","0.0-47.0","battery-v0.2","","""event"",""trial"",""time""
""focus"",""0"",""0""
""fullscreenenter"",""1"",""5207""
","
","""event"",""trial"",""time""
""focus"",""0"",""0""
","""event"",""trial"",""time""
""fullscreenenter"",""1"",""5207""
","
","","","1052","","","14","3015","1876","d","elianto","#3366ff99","-1"," ","0","0","[1909]","1","2","","","3015","43","1","2","win","no-go","0"
"pit-trial","112","865136","0.0-48.0","battery-v0.2","","""event"",""trial"",""time""
""focus"",""0"",""0""
""fullscreenenter"",""1"",""5207""
","
","""event"",""trial"",""time""
""focus"",""0"",""0""
","""event"",""trial"",""time""
""fullscreenenter"",""1"",""5207""
","
","","","-1","","","14","3015","1876","j","elianto","#f73b6a7A"," ","-1","0","-10","[2875]","1","2","","","3015","44","0","3","lose","go","0"
"pit-trial","113","868656","0.0-49.0","battery-v0.2","","""event"",""trial"",""time""
""focus"",""0"",""0""
""fullscreenenter"",""1"",""5207""
","
","""event"",""trial"",""time""
""focus"",""0"",""0""
","""event"",""trial"",""time""
""fullscreenenter"",""1"",""5207""
","
","","","648","","","14","3015","1876","e","elianto","#f73b6a7A"," "," ","1","0","[1505]","1","2","","","3015","45","2","3","lose","go","0"
"pit-trial","114","872275","0.0-50.0","battery-v0.2","","""event"",""trial"",""time""
""focus"",""0"",""0""
""fullscreenenter"",""1"",""5207""
","
","""event"",""trial"",""time""
""focus"",""0"",""0""
","""event"",""trial"",""time""
""fullscreenenter"",""1"",""5207""
","
","","","751","","","14","3015","1876","w","elianto","#f73b6a7A","-1"," ","0","0","[1608]","1","2","","","3015","46","3","4","lose","no-go","1"
"pit-trial","115","875939","0.0-51.0","battery-v0.2","","""event"",""trial"",""time""
""focus"",""0"",""0""
""fullscreenenter"",""1"",""5207""
","
","""event"",""trial"",""time""
""focus"",""0"",""0""
","""event"",""trial"",""time""
""fullscreenenter"",""1"",""5207""
","
","","","786","","","14","3015","1876","j","elianto","#f73b6a7A"," "," ","1","0","[1644]","1","2","","","3015","47","0","3","lose","go","0"
"pit-trial","116","880816","0.0-52.0","battery-v0.2","","""event"",""trial"",""time""
""focus"",""0"",""0""
""fullscreenenter"",""1"",""5207""
","
","""event"",""trial"",""time""
""focus"",""0"",""0""
","""event"",""trial"",""time""
""fullscreenenter"",""1"",""5207""
","
","","","-1","","","14","3015","1876","d","elianto","#3366ff99","-1","-1","1","+10","[]","0","2","","","3015","48","1","2","win","no-go","0"
"pit-trial","117","885696","0.0-53.0","battery-v0.2","","""event"",""trial"",""time""
""focus"",""0"",""0""
""fullscreenenter"",""1"",""5207""
","
","""event"",""trial"",""time""
""focus"",""0"",""0""
","""event"",""trial"",""time""
""fullscreenenter"",""1"",""5207""
","
","","","-1","","","14","3015","1876","d","elianto","#3366ff99","-1","-1","1","0","[]","0","2","","","3015","49","1","2","win","no-go","1"
"pit-trial","118","889361","0.0-54.0","battery-v0.2","","""event"",""trial"",""time""
""focus"",""0"",""0""
""fullscreenenter"",""1"",""5207""
","
","""event"",""trial"",""time""
""focus"",""0"",""0""
","""event"",""trial"",""time""
""fullscreenenter"",""1"",""5207""
","
","","","781","","","14","3015","1876","e","elianto","#f73b6a7A"," "," ","1","0","[1648]","1","2","","","3015","50","2","3","lose","go","0"
"pit-trial","119","893926","0.0-55.0","battery-v0.2","","""event"",""trial"",""time""
""focus"",""0"",""0""
""fullscreenenter"",""1"",""5207""
","
","""event"",""trial"",""time""
""focus"",""0"",""0""
","""event"",""trial"",""time""
""fullscreenenter"",""1"",""5207""
","
","","","1683","","","14","3015","1876","j","elianto","#f73b6a7A"," "," ","1","0","[2545]","1","2","","","3015","51","0","3","lose","go","0"
"pit-trial","120","897666","0.0-56.0","battery-v0.2","","""event"",""trial"",""time""
""focus"",""0"",""0""
""fullscreenenter"",""1"",""5207""
","
","""event"",""trial"",""time""
""focus"",""0"",""0""
","""event"",""trial"",""time""
""fullscreenenter"",""1"",""5207""
","
","","","873","","","14","3015","1876","w","elianto","#f73b6a7A","-1"," ","0","-10","[1731]","1","2","","","3015","52","3","4","lose","no-go","0"
"pit-trial","121","902546","0.0-57.0","battery-v0.2","","""event"",""trial"",""time""
""focus"",""0"",""0""
""fullscreenenter"",""1"",""5207""
","
","""event"",""trial"",""time""
""focus"",""0"",""0""
","""event"",""trial"",""time""
""fullscreenenter"",""1"",""5207""
","
","","","-1","","","14","3015","1876","w","elianto","#f73b6a7A","-1","-1","1","0","[]","0","2","","","3015","53","3","4","lose","no-go","0"
"pit-trial","122","907426","0.0-58.0","battery-v0.2","","""event"",""trial"",""time""
""focus"",""0"",""0""
""fullscreenenter"",""1"",""5207""
","
","""event"",""trial"",""time""
""focus"",""0"",""0""
","""event"",""trial"",""time""
""fullscreenenter"",""1"",""5207""
","
","","","-1","","","14","3015","1876","d","elianto","#3366ff99","-1","-1","1","+10","[]","0","2","","","3015","54","1","2","win","no-go","0"
"pit-trial","123","911086","0.0-59.0","battery-v0.2","","""event"",""trial"",""time""
""focus"",""0"",""0""
""fullscreenenter"",""1"",""5207""
","
","""event"",""trial"",""time""
""focus"",""0"",""0""
","""event"",""trial"",""time""
""fullscreenenter"",""1"",""5207""
","
","","","788","","","14","3015","1876","e","elianto","#f73b6a7A"," "," ","1","0","[1642]","1","2","","","3015","55","2","3","lose","go","0"
"pit-trial","124","915966","0.0-60.0","battery-v0.2","","""event"",""trial"",""time""
""focus"",""0"",""0""
""fullscreenenter"",""1"",""5207""
","
","""event"",""trial"",""time""
""focus"",""0"",""0""
","""event"",""trial"",""time""
""fullscreenenter"",""1"",""5207""
","
","","","-1","","","14","3015","1876","j","elianto","#f73b6a7A"," ","-1","0","-10","[]","0","2","","","3015","56","0","3","lose","go","0"
"pit-trial","125","920846","0.0-61.0","battery-v0.2","","""event"",""trial"",""time""
""focus"",""0"",""0""
""fullscreenenter"",""1"",""5207""
","
","""event"",""trial"",""time""
""focus"",""0"",""0""
","""event"",""trial"",""time""
""fullscreenenter"",""1"",""5207""
","
","","","-1","","","14","3015","1876","s","elianto","#3366ff99"," ","-1","0","0","[]","0","2","","","3015","57","4","1","win","go","0"
"pit-trial","126","925736","0.0-62.0","battery-v0.2","","""event"",""trial"",""time""
""focus"",""0"",""0""
""fullscreenenter"",""1"",""5207""
","
","""event"",""trial"",""time""
""focus"",""0"",""0""
","""event"",""trial"",""time""
""fullscreenenter"",""1"",""5207""
","
","","","-1","","","14","3015","1876","w","elianto","#f73b6a7A","-1","-1","1","0","[]","0","2","","","3015","58","3","4","lose","no-go","0"
"pit-trial","127","930626","0.0-63.0","battery-v0.2","","""event"",""trial"",""time""
""focus"",""0"",""0""
""fullscreenenter"",""1"",""5207""
","
","""event"",""trial"",""time""
""focus"",""0"",""0""
","""event"",""trial"",""time""
""fullscreenenter"",""1"",""5207""
","
","","","-1","","","14","3015","1876","e","elianto","#f73b6a7A"," ","-1","0","-10","[]","0","2","","","3015","59","2","3","lose","go","0"
"pit-trial","128","935496","0.0-64.0","battery-v0.2","","""event"",""trial"",""time""
""focus"",""0"",""0""
""fullscreenenter"",""1"",""5207""
","
","""event"",""trial"",""time""
""focus"",""0"",""0""
","""event"",""trial"",""time""
""fullscreenenter"",""1"",""5207""
","
","","","-1","","","14","3015","1876","j","elianto","#f73b6a7A"," ","-1","0","-10","[3687]","1","2","","","3015","60","0","3","lose","go","0"
"pit-trial","129","939485","0.0-65.0","battery-v0.2","","""event"",""trial"",""time""
""focus"",""0"",""0""
""fullscreenenter"",""1"",""5207""
","
","""event"",""trial"",""time""
""focus"",""0"",""0""
","""event"",""trial"",""time""
""fullscreenenter"",""1"",""5207""
","
","","","1124","","","14","3015","1876","e","elianto","#f73b6a7A"," "," ","1","-10","[1981]","1","2","","","3015","61","2","3","lose","go","1"
"pit-trial","130","943446","0.0-66.0","battery-v0.2","","""event"",""trial"",""time""
""focus"",""0"",""0""
""fullscreenenter"",""1"",""5207""
","
","""event"",""trial"",""time""
""focus"",""0"",""0""
","""event"",""trial"",""time""
""fullscreenenter"",""1"",""5207""
","
","","","1082","","","14","3015","1876","w","elianto","#f73b6a7A","-1"," ","0","-10","[1938]","1","2","","","3015","62","3","4","lose","no-go","0"
"pit-trial","131","948315","0.0-67.0","battery-v0.2","","""event"",""trial"",""time""
""focus"",""0"",""0""
""fullscreenenter"",""1"",""5207""
","
","""event"",""trial"",""time""
""focus"",""0"",""0""
","""event"",""trial"",""time""
""fullscreenenter"",""1"",""5207""
","
","","","-1","","","14","3015","1876","d","elianto","#3366ff99","-1","-1","1","+10","[]","0","2","","","3015","63","1","2","win","no-go","0"
"pit-trial","132","952916","0.0-68.0","battery-v0.2","","""event"",""trial"",""time""
""focus"",""0"",""0""
""fullscreenenter"",""1"",""5207""
","
","""event"",""trial"",""time""
""focus"",""0"",""0""
","""event"",""trial"",""time""
""fullscreenenter"",""1"",""5207""
","
","","","1723","","","14","3015","1876","s","elianto","#3366ff99"," "," ","1","+10","[2580]","1","2","","","3015","64","4","1","win","go","0"
"pit-trial","133","957796","0.0-69.0","battery-v0.2","","""event"",""trial"",""time""
""focus"",""0"",""0""
""fullscreenenter"",""1"",""5207""
","
","""event"",""trial"",""time""
""focus"",""0"",""0""
","""event"",""trial"",""time""
""fullscreenenter"",""1"",""5207""
","
","","","-1","","","14","3015","1876","d","elianto","#3366ff99","-1","-1","1","+10","[]","0","2","","","3015","65","1","2","win","no-go","0"
"pit-trial","134","962676","0.0-70.0","battery-v0.2","","""event"",""trial"",""time""
""focus"",""0"",""0""
""fullscreenenter"",""1"",""5207""
","
","""event"",""trial"",""time""
""focus"",""0"",""0""
","""event"",""trial"",""time""
""fullscreenenter"",""1"",""5207""
","
","","","-1","","","14","3015","1876","s","elianto","#3366ff99"," ","-1","0","0","[3048]","1","2","","","3015","66","4","1","win","go","0"
"pit-trial","135","967565","0.0-71.0","battery-v0.2","","""event"",""trial"",""time""
""focus"",""0"",""0""
""fullscreenenter"",""1"",""5207""
","
","""event"",""trial"",""time""
""focus"",""0"",""0""
","""event"",""trial"",""time""
""fullscreenenter"",""1"",""5207""
","
","","","-1","","","14","3015","1876","w","elianto","#f73b6a7A","-1","-1","1","-10","[4060]","1","2","","","3015","67","3","4","lose","no-go","1"
"pit-trial","136","971936","0.0-72.0","battery-v0.2","","""event"",""trial"",""time""
""focus"",""0"",""0""
""fullscreenenter"",""1"",""5207""
","
","""event"",""trial"",""time""
""focus"",""0"",""0""
","""event"",""trial"",""time""
""fullscreenenter"",""1"",""5207""
","
","","","1509","","","14","3015","1876","p","elianto","#3366ff99","-1"," ","0","0","[2368]","1","2","","","3015","68","5","2","win","no-go","0"
"pit-trial","137","975756","0.0-73.0","battery-v0.2","","""event"",""trial"",""time""
""focus"",""0"",""0""
""fullscreenenter"",""1"",""5207""
","
","""event"",""trial"",""time""
""focus"",""0"",""0""
","""event"",""trial"",""time""
""fullscreenenter"",""1"",""5207""
","
","","","942","","","14","3015","1876","s","elianto","#3366ff99"," "," ","1","+10","[1799]","1","2","","","3015","69","4","1","win","go","0"
"pit-trial","138","979796","0.0-74.0","battery-v0.2","","""event"",""trial"",""time""
""focus"",""0"",""0""
""fullscreenenter"",""1"",""5207""
","
","""event"",""trial"",""time""
""focus"",""0"",""0""
","""event"",""trial"",""time""
""fullscreenenter"",""1"",""5207""
","
","","","1163","","","14","3015","1876","p","elianto","#3366ff99","-1"," ","0","+10","[2019]","1","2","","","3015","70","5","2","win","no-go","1"
"pit-trial","139","984676","0.0-75.0","battery-v0.2","","""event"",""trial"",""time""
""focus"",""0"",""0""
""fullscreenenter"",""1"",""5207""
","
","""event"",""trial"",""time""
""focus"",""0"",""0""
","""event"",""trial"",""time""
""fullscreenenter"",""1"",""5207""
","
","","","-1","","","14","3015","1876","d","elianto","#3366ff99","-1","-1","1","+10","[]","0","2","","","3015","71","1","2","win","no-go","0"
"pit-trial","140","988966","0.0-76.0","battery-v0.2","","""event"",""trial"",""time""
""focus"",""0"",""0""
""fullscreenenter"",""1"",""5207""
","
","""event"",""trial"",""time""
""focus"",""0"",""0""
","""event"",""trial"",""time""
""fullscreenenter"",""1"",""5207""
","
","","","1425","","","14","3015","1876","e","elianto","#f73b6a7A"," "," ","1","0","[2281]","1","2","","","3015","72","2","3","lose","go","0"
"pit-trial","141","992906","0.0-77.0","battery-v0.2","","""event"",""trial"",""time""
""focus"",""0"",""0""
""fullscreenenter"",""1"",""5207""
","
","""event"",""trial"",""time""
""focus"",""0"",""0""
","""event"",""trial"",""time""
""fullscreenenter"",""1"",""5207""
","
","","","1068","","","14","3015","1876","s","elianto","#3366ff99"," "," ","1","+10","[1927]","1","2","","","3015","73","4","1","win","go","0"
"pit-trial","142","997785","0.0-78.0","battery-v0.2","","""event"",""trial"",""time""
""focus"",""0"",""0""
""fullscreenenter"",""1"",""5207""
","
","""event"",""trial"",""time""
""focus"",""0"",""0""
","""event"",""trial"",""time""
""fullscreenenter"",""1"",""5207""
","
","","","-1","","","14","3015","1876","w","elianto","#f73b6a7A","-1","-1","1","0","[]","0","2","","","3015","74","3","4","lose","no-go","0"
"pit-trial","143","1002666","0.0-79.0","battery-v0.2","","""event"",""trial"",""time""
""focus"",""0"",""0""
""fullscreenenter"",""1"",""5207""
","
","""event"",""trial"",""time""
""focus"",""0"",""0""
","""event"",""trial"",""time""
""fullscreenenter"",""1"",""5207""
","
","","","-1","","","14","3015","1876","d","elianto","#3366ff99","-1","-1","1","0","[]","0","2","","","3015","75","1","2","win","no-go","1"
"pit-trial","144","1006526","0.0-80.0","battery-v0.2","","""event"",""trial"",""time""
""focus"",""0"",""0""
""fullscreenenter"",""1"",""5207""
","
","""event"",""trial"",""time""
""focus"",""0"",""0""
","""event"",""trial"",""time""
""fullscreenenter"",""1"",""5207""
","
","","","988","","","14","3015","1876","p","elianto","#3366ff99","-1"," ","0","0","[1844]","1","2","","","3015","76","5","2","win","no-go","0"
"pit-trial","145","1010597","0.0-81.0","battery-v0.2","","""event"",""trial"",""time""
""focus"",""0"",""0""
""fullscreenenter"",""1"",""5207""
","
","""event"",""trial"",""time""
""focus"",""0"",""0""
","""event"",""trial"",""time""
""fullscreenenter"",""1"",""5207""
","
","","","1198","","","14","3015","1876","s","elianto","#3366ff99"," "," ","1","+10","[2055]","1","2","","","3015","77","4","1","win","go","0"
"pit-trial","146","1015466","0.0-82.0","battery-v0.2","","""event"",""trial"",""time""
""focus"",""0"",""0""
""fullscreenenter"",""1"",""5207""
","
","""event"",""trial"",""time""
""focus"",""0"",""0""
","""event"",""trial"",""time""
""fullscreenenter"",""1"",""5207""
","
","","","-1","","","14","3015","1876","w","elianto","#f73b6a7A","-1","-1","1","0","[]","0","2","","","3015","78","3","4","lose","no-go","0"
"pit-trial","147","1019226","0.0-83.0","battery-v0.2","","""event"",""trial"",""time""
""focus"",""0"",""0""
""fullscreenenter"",""1"",""5207""
","
","""event"",""trial"",""time""
""focus"",""0"",""0""
","""event"",""trial"",""time""
""fullscreenenter"",""1"",""5207""
","
","","","896","","","14","3015","1876","p","elianto","#3366ff99","-1"," ","0","0","[1753]","1","2","","","3015","79","5","2","win","no-go","0"
"pit-trial","148","1023726","0.0-84.0","battery-v0.2","","""event"",""trial"",""time""
""focus"",""0"",""0""
""fullscreenenter"",""1"",""5207""
","
","""event"",""trial"",""time""
""focus"",""0"",""0""
","""event"",""trial"",""time""
""fullscreenenter"",""1"",""5207""
","
","","","1628","","","14","3015","1876","s","elianto","#3366ff99"," "," ","1","+10","[2485]","1","2","","","3015","80","4","1","win","go","0"
"pit-trial","149","1028605","0.0-85.0","battery-v0.2","","""event"",""trial"",""time""
""focus"",""0"",""0""
""fullscreenenter"",""1"",""5207""
","
","""event"",""trial"",""time""
""focus"",""0"",""0""
","""event"",""trial"",""time""
""fullscreenenter"",""1"",""5207""
","
","","","-1","","","14","3015","1876","w","elianto","#f73b6a7A","-1","-1","1","0","[]","0","2","","","3015","81","3","4","lose","no-go","0"
"pit-trial","150","1032385","0.0-86.0","battery-v0.2","","""event"",""trial"",""time""
""focus"",""0"",""0""
""fullscreenenter"",""1"",""5207""
","
","""event"",""trial"",""time""
""focus"",""0"",""0""
","""event"",""trial"",""time""
""fullscreenenter"",""1"",""5207""
","
","","","913","","","14","3015","1876","p","elianto","#3366ff99","-1"," ","0","0","[1770]","1","2","","","3015","82","5","2","win","no-go","0"
"pit-trial","151","1036426","0.0-87.0","battery-v0.2","","""event"",""trial"",""time""
""focus"",""0"",""0""
""fullscreenenter"",""1"",""5207""
","
","""event"",""trial"",""time""
""focus"",""0"",""0""
","""event"",""trial"",""time""
""fullscreenenter"",""1"",""5207""
","
","","","1165","","","14","3015","1876","s","elianto","#3366ff99"," "," ","1","+10","[2021]","1","2","","","3015","83","4","1","win","go","0"
"pit-trial","152","1040786","0.0-88.0","battery-v0.2","","""event"",""trial"",""time""
""focus"",""0"",""0""
""fullscreenenter"",""1"",""5207""
","
","""event"",""trial"",""time""
""focus"",""0"",""0""
","""event"",""trial"",""time""
""fullscreenenter"",""1"",""5207""
","
","","","1495","","","14","3015","1876","a","elianto","#f73b6a7A","-1"," ","0","0","[2352]","1","2","","","3015","84","7","4","lose","no-go","1"
"pit-trial","153","1044985","0.0-89.0","battery-v0.2","","""event"",""trial"",""time""
""focus"",""0"",""0""
""fullscreenenter"",""1"",""5207""
","
","""event"",""trial"",""time""
""focus"",""0"",""0""
","""event"",""trial"",""time""
""fullscreenenter"",""1"",""5207""
","
","","","1336","","","14","3015","1876","s","elianto","#3366ff99"," "," ","1","0","[2192]","1","2","","","3015","85","4","1","win","go","1"
"pit-trial","154","1049867","0.0-90.0","battery-v0.2","","""event"",""trial"",""time""
""focus"",""0"",""0""
""fullscreenenter"",""1"",""5207""
","
","""event"",""trial"",""time""
""focus"",""0"",""0""
","""event"",""trial"",""time""
""fullscreenenter"",""1"",""5207""
","
","","","-1","","","14","3015","1876","g","elianto","#f73b6a7A"," ","-1","0","0","[2992]","1","2","","","3015","86","6","3","lose","go","1"
"pit-trial","155","1053815","0.0-91.0","battery-v0.2","","""event"",""trial"",""time""
""focus"",""0"",""0""
""fullscreenenter"",""1"",""5207""
","
","""event"",""trial"",""time""
""focus"",""0"",""0""
","""event"",""trial"",""time""
""fullscreenenter"",""1"",""5207""
","
","","","1074","","","14","3015","1876","a","elianto","#f73b6a7A","-1"," ","0","0","[1931]","1","2","","","3015","87","7","4","lose","no-go","1"
"pit-trial","156","1058215","0.0-92.0","battery-v0.2","","""event"",""trial"",""time""
""focus"",""0"",""0""
""fullscreenenter"",""1"",""5207""
","
","""event"",""trial"",""time""
""focus"",""0"",""0""
","""event"",""trial"",""time""
""fullscreenenter"",""1"",""5207""
","
","","","1539","","","14","3015","1876","p","elianto","#3366ff99","-1"," ","0","+10","[2399]","1","2","","","3015","88","5","2","win","no-go","1"
"pit-trial","157","1061946","0.0-93.0","battery-v0.2","","""event"",""trial"",""time""
""focus"",""0"",""0""
""fullscreenenter"",""1"",""5207""
","
","""event"",""trial"",""time""
""focus"",""0"",""0""
","""event"",""trial"",""time""
""fullscreenenter"",""1"",""5207""
","
","","","859","","","14","3015","1876","a","elianto","#f73b6a7A","-1"," ","0","-10","[1718]","1","2","","","3015","89","7","4","lose","no-go","0"
"pit-trial","158","1065446","0.0-94.0","battery-v0.2","","""event"",""trial"",""time""
""focus"",""0"",""0""
""fullscreenenter"",""1"",""5207""
","
","""event"",""trial"",""time""
""focus"",""0"",""0""
","""event"",""trial"",""time""
""fullscreenenter"",""1"",""5207""
","
","","","623","","","14","3015","1876","p","elianto","#3366ff99","-1"," ","0","0","[1481]","1","2","","","3015","90","5","2","win","no-go","0"
"pit-trial","159","1069236","0.0-95.0","battery-v0.2","","""event"",""trial"",""time""
""focus"",""0"",""0""
""fullscreenenter"",""1"",""5207""
","
","""event"",""trial"",""time""
""focus"",""0"",""0""
","""event"",""trial"",""time""
""fullscreenenter"",""1"",""5207""
","
","","","923","","","14","3015","1876","g","elianto","#f73b6a7A"," "," ","1","0","[1779]","1","2","","","3015","91","6","3","lose","go","0"
"pit-trial","160","1073076","0.0-96.0","battery-v0.2","","""event"",""trial"",""time""
""focus"",""0"",""0""
""fullscreenenter"",""1"",""5207""
","
","""event"",""trial"",""time""
""focus"",""0"",""0""
","""event"",""trial"",""time""
""fullscreenenter"",""1"",""5207""
","
","","","970","","","14","3015","1876","s","elianto","#3366ff99"," "," ","1","0","[1826]","1","2","","","3015","92","4","1","win","go","1"
"pit-trial","161","1076775","0.0-97.0","battery-v0.2","","""event"",""trial"",""time""
""focus"",""0"",""0""
""fullscreenenter"",""1"",""5207""
","
","""event"",""trial"",""time""
""focus"",""0"",""0""
","""event"",""trial"",""time""
""fullscreenenter"",""1"",""5207""
","
","","","828","","","14","3015","1876","p","elianto","#3366ff99","-1"," ","0","+10","[1685]","1","2","","","3015","93","5","2","win","no-go","1"
"pit-trial","162","1080606","0.0-98.0","battery-v0.2","","""event"",""trial"",""time""
""focus"",""0"",""0""
""fullscreenenter"",""1"",""5207""
","
","""event"",""trial"",""time""
""focus"",""0"",""0""
","""event"",""trial"",""time""
""fullscreenenter"",""1"",""5207""
","
","","","944","","","14","3015","1876","a","elianto","#f73b6a7A","-1"," ","0","0","[1811]","1","2","","","3015","94","7","4","lose","no-go","1"
"pit-trial","163","1084226","0.0-99.0","battery-v0.2","","""event"",""trial"",""time""
""focus"",""0"",""0""
""fullscreenenter"",""1"",""5207""
","
","""event"",""trial"",""time""
""focus"",""0"",""0""
","""event"",""trial"",""time""
""fullscreenenter"",""1"",""5207""
","
","","","746","","","14","3015","1876","l","elianto","#3366ff99"," "," ","1","+10","[1602]","1","2","","","3015","95","8","1","win","go","0"
"pit-trial","164","1087977","0.0-100.0","battery-v0.2","","""event"",""trial"",""time""
""focus"",""0"",""0""
""fullscreenenter"",""1"",""5207""
","
","""event"",""trial"",""time""
""focus"",""0"",""0""
","""event"",""trial"",""time""
""fullscreenenter"",""1"",""5207""
","
","","","866","","","14","3015","1876","g","elianto","#f73b6a7A"," "," ","1","0","[1733]","1","2","","","3015","96","6","3","lose","go","0"
"pit-trial","165","1091746","0.0-101.0","battery-v0.2","","""event"",""trial"",""time""
""focus"",""0"",""0""
""fullscreenenter"",""1"",""5207""
","
","""event"",""trial"",""time""
""focus"",""0"",""0""
","""event"",""trial"",""time""
""fullscreenenter"",""1"",""5207""
","
","","","889","","","14","3015","1876","a","elianto","#f73b6a7A","-1"," ","0","-10","[1747]","1","2","","","3015","97","7","4","lose","no-go","0"
"pit-trial","166","1095326","0.0-102.0","battery-v0.2","","""event"",""trial"",""time""
""focus"",""0"",""0""
""fullscreenenter"",""1"",""5207""
","
","""event"",""trial"",""time""
""focus"",""0"",""0""
","""event"",""trial"",""time""
""fullscreenenter"",""1"",""5207""
","
","","","706","","","14","3015","1876","l","elianto","#3366ff99"," "," ","1","+10","[1563]","1","2","","","3015","98","8","1","win","go","0"
"pit-trial","167","1100206","0.0-103.0","battery-v0.2","","""event"",""trial"",""time""
""focus"",""0"",""0""
""fullscreenenter"",""1"",""5207""
","
","""event"",""trial"",""time""
""focus"",""0"",""0""
","""event"",""trial"",""time""
""fullscreenenter"",""1"",""5207""
","
","","","-1","","","14","3015","1876","g","elianto","#f73b6a7A"," ","-1","0","-10","[]","0","2","","","3015","99","6","3","lose","go","0"
"pit-trial","168","1105086","0.0-104.0","battery-v0.2","","""event"",""trial"",""time""
""focus"",""0"",""0""
""fullscreenenter"",""1"",""5207""
","
","""event"",""trial"",""time""
""focus"",""0"",""0""
","""event"",""trial"",""time""
""fullscreenenter"",""1"",""5207""
","
","","","-1","","","14","3015","1876","p","elianto","#3366ff99","-1","-1","1","0","[]","0","2","","","3015","100","5","2","win","no-go","1"
"pit-trial","169","1108766","0.0-105.0","battery-v0.2","","""event"",""trial"",""time""
""focus"",""0"",""0""
""fullscreenenter"",""1"",""5207""
","
","""event"",""trial"",""time""
""focus"",""0"",""0""
","""event"",""trial"",""time""
""fullscreenenter"",""1"",""5207""
","
","","","807","","","14","3015","1876","a","elianto","#f73b6a7A","-1"," ","0","-10","[1663]","1","2","","","3015","101","7","4","lose","no-go","0"
"pit-trial","170","1112506","0.0-106.0","battery-v0.2","","""event"",""trial"",""time""
""focus"",""0"",""0""
""fullscreenenter"",""1"",""5207""
","
","""event"",""trial"",""time""
""focus"",""0"",""0""
","""event"",""trial"",""time""
""fullscreenenter"",""1"",""5207""
","
","","","863","","","14","3015","1876","u","elianto","#3366ff99"," "," ","1","+10","[1720]","1","2","","","3015","102","9","1","win","go","0"
"pit-trial","171","1116066","0.0-107.0","battery-v0.2","","""event"",""trial"",""time""
""focus"",""0"",""0""
""fullscreenenter"",""1"",""5207""
","
","""event"",""trial"",""time""
""focus"",""0"",""0""
","""event"",""trial"",""time""
""fullscreenenter"",""1"",""5207""
","
","","","681","","","14","3015","1876","l","elianto","#3366ff99"," "," ","1","+10","[1537]","1","2","","","3015","103","8","1","win","go","0"
"pit-trial","172","1119616","0.0-108.0","battery-v0.2","","""event"",""trial"",""time""
""focus"",""0"",""0""
""fullscreenenter"",""1"",""5207""
","
","""event"",""trial"",""time""
""focus"",""0"",""0""
","""event"",""trial"",""time""
""fullscreenenter"",""1"",""5207""
","
","","","668","","","14","3015","1876","p","elianto","#3366ff99","-1"," ","0","0","[1536]","1","2","","","3015","104","5","2","win","no-go","0"
"pit-trial","173","1124120","0.0-109.0","battery-v0.2","","""event"",""trial"",""time""
""focus"",""0"",""0""
""fullscreenenter"",""1"",""5207""
","
","""event"",""trial"",""time""
""focus"",""0"",""0""
","""event"",""trial"",""time""
""fullscreenenter"",""1"",""5207""
","
","","","1645","","","14","3015","1876","u","elianto","#3366ff99"," "," ","1","+10","[2502]","1","2","","","3015","105","9","1","win","go","0"
"pit-trial","174","1127746","0.0-110.0","battery-v0.2","","""event"",""trial"",""time""
""focus"",""0"",""0""
""fullscreenenter"",""1"",""5207""
","
","""event"",""trial"",""time""
""focus"",""0"",""0""
","""event"",""trial"",""time""
""fullscreenenter"",""1"",""5207""
","
","","","747","","","14","3015","1876","s","elianto","#3366ff99"," "," ","1","+10","[1609]","1","2","","","3015","106","4","1","win","go","0"
"pit-trial","175","1131047","0.0-111.0","battery-v0.2","","""event"",""trial"",""time""
""focus"",""0"",""0""
""fullscreenenter"",""1"",""5207""
","
","""event"",""trial"",""time""
""focus"",""0"",""0""
","""event"",""trial"",""time""
""fullscreenenter"",""1"",""5207""
","
","","","421","","","14","3015","1876","l","elianto","#3366ff99"," "," ","1","+10","[1276]","1","2","","","3015","107","8","1","win","go","0"
"pit-trial","176","1135924","0.0-112.0","battery-v0.2","","""event"",""trial"",""time""
""focus"",""0"",""0""
""fullscreenenter"",""1"",""5207""
","
","""event"",""trial"",""time""
""focus"",""0"",""0""
","""event"",""trial"",""time""
""fullscreenenter"",""1"",""5207""
","
","","","-1","","","14","3015","1876","g","elianto","#f73b6a7A"," ","-1","0","-10","[]","0","2","","","3015","108","6","3","lose","go","0"
"pit-trial","177","1139366","0.0-113.0","battery-v0.2","","""event"",""trial"",""time""
""focus"",""0"",""0""
""fullscreenenter"",""1"",""5207""
","
","""event"",""trial"",""time""
""focus"",""0"",""0""
","""event"",""trial"",""time""
""fullscreenenter"",""1"",""5207""
","
","","","576","","","14","3015","1876","l","elianto","#3366ff99"," "," ","1","+10","[1435]","1","2","","","3015","109","8","1","win","go","0"
"pit-trial","178","1143047","0.0-114.0","battery-v0.2","","""event"",""trial"",""time""
""focus"",""0"",""0""
""fullscreenenter"",""1"",""5207""
","
","""event"",""trial"",""time""
""focus"",""0"",""0""
","""event"",""trial"",""time""
""fullscreenenter"",""1"",""5207""
","
","","","809","","","14","3015","1876","p","elianto","#3366ff99","-1"," ","0","+10","[1666]","1","2","","","3015","110","5","2","win","no-go","1"
"pit-trial","179","1146566","0.0-115.0","battery-v0.2","","""event"",""trial"",""time""
""focus"",""0"",""0""
""fullscreenenter"",""1"",""5207""
","
","""event"",""trial"",""time""
""focus"",""0"",""0""
","""event"",""trial"",""time""
""fullscreenenter"",""1"",""5207""
","
","","","651","","","14","3015","1876","g","elianto","#f73b6a7A"," "," ","1","0","[1508]","1","2","","","3015","111","6","3","lose","go","0"
"pit-trial","180","1149986","0.0-116.0","battery-v0.2","","""event"",""trial"",""time""
""focus"",""0"",""0""
""fullscreenenter"",""1"",""5207""
","
","""event"",""trial"",""time""
""focus"",""0"",""0""
","""event"",""trial"",""time""
""fullscreenenter"",""1"",""5207""
","
","","","551","","","14","3015","1876","u","elianto","#3366ff99"," "," ","1","+10","[1407]","1","2","","","3015","112","9","1","win","go","0"
"pit-trial","181","1153586","0.0-117.0","battery-v0.2","","""event"",""trial"",""time""
""focus"",""0"",""0""
""fullscreenenter"",""1"",""5207""
","
","""event"",""trial"",""time""
""focus"",""0"",""0""
","""event"",""trial"",""time""
""fullscreenenter"",""1"",""5207""
","
","","","730","","","14","3015","1876","u","elianto","#3366ff99"," "," ","1","+10","[1586]","1","2","","","3015","113","9","1","win","go","0"
"pit-trial","182","1157206","0.0-118.0","battery-v0.2","","""event"",""trial"",""time""
""focus"",""0"",""0""
""fullscreenenter"",""1"",""5207""
","
","""event"",""trial"",""time""
""focus"",""0"",""0""
","""event"",""trial"",""time""
""fullscreenenter"",""1"",""5207""
","
","","","757","","","14","3015","1876","l","elianto","#3366ff99"," "," ","1","+10","[1614]","1","2","","","3015","114","8","1","win","go","0"
"pit-trial","183","1162086","0.0-119.0","battery-v0.2","","""event"",""trial"",""time""
""focus"",""0"",""0""
""fullscreenenter"",""1"",""5207""
","
","""event"",""trial"",""time""
""focus"",""0"",""0""
","""event"",""trial"",""time""
""fullscreenenter"",""1"",""5207""
","
","","","-1","","","14","3015","1876","g","elianto","#f73b6a7A"," ","-1","0","0","[]","0","2","","","3015","115","6","3","lose","go","1"
"pit-trial","184","1165886","0.0-120.0","battery-v0.2","","""event"",""trial"",""time""
""focus"",""0"",""0""
""fullscreenenter"",""1"",""5207""
","
","""event"",""trial"",""time""
""focus"",""0"",""0""
","""event"",""trial"",""time""
""fullscreenenter"",""1"",""5207""
","
","","","931","","","14","3015","1876","p","elianto","#3366ff99","-1"," ","0","0","[1787]","1","2","","","3015","116","5","2","win","no-go","0"
"pit-trial","185","1169605","0.0-121.0","battery-v0.2","","""event"",""trial"",""time""
""focus"",""0"",""0""
""fullscreenenter"",""1"",""5207""
","
","""event"",""trial"",""time""
""focus"",""0"",""0""
","""event"",""trial"",""time""
""fullscreenenter"",""1"",""5207""
","
","","","858","","","14","3015","1876","p","elianto","#3366ff99","-1"," ","0","0","[1716]","1","2","","","3015","117","5","2","win","no-go","0"
"pit-trial","186","1173446","0.0-122.0","battery-v0.2","","""event"",""trial"",""time""
""focus"",""0"",""0""
""fullscreenenter"",""1"",""5207""
","
","""event"",""trial"",""time""
""focus"",""0"",""0""
","""event"",""trial"",""time""
""fullscreenenter"",""1"",""5207""
","
","","","975","","","14","3015","1876","g","elianto","#f73b6a7A"," "," ","1","0","[1834]","1","2","","","3015","118","6","3","lose","go","0"
"pit-trial","187","1177216","0.0-123.0","battery-v0.2","","""event"",""trial"",""time""
""focus"",""0"",""0""
""fullscreenenter"",""1"",""5207""
","
","""event"",""trial"",""time""
""focus"",""0"",""0""
","""event"",""trial"",""time""
""fullscreenenter"",""1"",""5207""
","
","","","908","","","14","3015","1876","u","elianto","#3366ff99"," "," ","1","+10","[1765]","1","2","","","3015","119","9","1","win","go","0"
"pit-trial","188","1180846","0.0-124.0","battery-v0.2","","""event"",""trial"",""time""
""focus"",""0"",""0""
""fullscreenenter"",""1"",""5207""
","
","""event"",""trial"",""time""
""focus"",""0"",""0""
","""event"",""trial"",""time""
""fullscreenenter"",""1"",""5207""
","
","","","761","","","14","3015","1876","l","elianto","#3366ff99"," "," ","1","+10","[1617]","1","2","","","3015","120","8","1","win","go","0"
"pit-trial","189","1184435","0.0-125.0","battery-v0.2","","""event"",""trial"",""time""
""focus"",""0"",""0""
""fullscreenenter"",""1"",""5207""
","
","""event"",""trial"",""time""
""focus"",""0"",""0""
","""event"",""trial"",""time""
""fullscreenenter"",""1"",""5207""
","
","","","715","","","14","3015","1876","u","elianto","#3366ff99"," "," ","1","+10","[1572]","1","2","","","3015","121","9","1","win","go","0"
"pit-trial","190","1188515","0.0-126.0","battery-v0.2","","""event"",""trial"",""time""
""focus"",""0"",""0""
""fullscreenenter"",""1"",""5207""
","
","""event"",""trial"",""time""
""focus"",""0"",""0""
","""event"",""trial"",""time""
""fullscreenenter"",""1"",""5207""
","
","","","1212","","","14","3015","1876","a","elianto","#f73b6a7A","-1"," ","0","-10","[2070]","1","2","","","3015","122","7","4","lose","no-go","0"
"pit-trial","191","1192536","0.0-127.0","battery-v0.2","","""event"",""trial"",""time""
""focus"",""0"",""0""
""fullscreenenter"",""1"",""5207""
","
","""event"",""trial"",""time""
""focus"",""0"",""0""
","""event"",""trial"",""time""
""fullscreenenter"",""1"",""5207""
","
","","","1143","","","14","3015","1876","l","elianto","#3366ff99"," "," ","1","+10","[2000]","1","2","","","3015","123","8","1","win","go","0"
"pit-trial","192","1197406","0.0-128.0","battery-v0.2","","""event"",""trial"",""time""
""focus"",""0"",""0""
""fullscreenenter"",""1"",""5207""
","
","""event"",""trial"",""time""
""focus"",""0"",""0""
","""event"",""trial"",""time""
""fullscreenenter"",""1"",""5207""
","
","","","-1","","","14","3015","1876","g","elianto","#f73b6a7A"," ","-1","0","0","[]","0","2","","","3015","124","6","3","lose","go","1"
"pit-trial","193","1200887","0.0-129.0","battery-v0.2","","""event"",""trial"",""time""
""focus"",""0"",""0""
""fullscreenenter"",""1"",""5207""
","
","""event"",""trial"",""time""
""focus"",""0"",""0""
","""event"",""trial"",""time""
""fullscreenenter"",""1"",""5207""
","
","","","611","","","14","3015","1876","u","elianto","#3366ff99"," "," ","1","+10","[1468]","1","2","","","3015","125","9","1","win","go","0"
"pit-trial","194","1205006","0.0-130.0","battery-v0.2","","""event"",""trial"",""time""
""focus"",""0"",""0""
""fullscreenenter"",""1"",""5207""
","
","""event"",""trial"",""time""
""focus"",""0"",""0""
","""event"",""trial"",""time""
""fullscreenenter"",""1"",""5207""
","
","","","1251","","","14","3015","1876","g","elianto","#f73b6a7A"," "," ","1","0","[2108]","1","2","","","3015","126","6","3","lose","go","0"
"pit-trial","195","1209866","0.0-131.0","battery-v0.2","","""event"",""trial"",""time""
""focus"",""0"",""0""
""fullscreenenter"",""1"",""5207""
","
","""event"",""trial"",""time""
""focus"",""0"",""0""
","""event"",""trial"",""time""
""fullscreenenter"",""1"",""5207""
","
","","","-1","","","14","3015","1876","a","elianto","#f73b6a7A","-1","-1","1","0","[]","0","2","","","3015","127","7","4","lose","no-go","0"
"pit-trial","196","1213466","0.0-132.0","battery-v0.2","","""event"",""trial"",""time""
""focus"",""0"",""0""
""fullscreenenter"",""1"",""5207""
","
","""event"",""trial"",""time""
""focus"",""0"",""0""
","""event"",""trial"",""time""
""fullscreenenter"",""1"",""5207""
","
","","","725","","","14","3015","1876","l","elianto","#3366ff99"," "," ","1","+10","[1582]","1","2","","","3015","128","8","1","win","go","0"
"pit-trial","197","1216966","0.0-133.0","battery-v0.2","","""event"",""trial"",""time""
""focus"",""0"",""0""
""fullscreenenter"",""1"",""5207""
","
","""event"",""trial"",""time""
""focus"",""0"",""0""
","""event"",""trial"",""time""
""fullscreenenter"",""1"",""5207""
","
","","","638","","","14","3015","1876","g","elianto","#f73b6a7A"," "," ","1","0","[1496]","1","2","","","3015","129","6","3","lose","go","0"
"pit-trial","198","1220516","0.0-134.0","battery-v0.2","","""event"",""trial"",""time""
""focus"",""0"",""0""
""fullscreenenter"",""1"",""5207""
","
","""event"",""trial"",""time""
""focus"",""0"",""0""
","""event"",""trial"",""time""
""fullscreenenter"",""1"",""5207""
","
","","","682","","","14","3015","1876","u","elianto","#3366ff99"," "," ","1","+10","[1538]","1","2","","","3015","130","9","1","win","go","0"
"pit-trial","199","1225396","0.0-135.0","battery-v0.2","","""event"",""trial"",""time""
""focus"",""0"",""0""
""fullscreenenter"",""1"",""5207""
","
","""event"",""trial"",""time""
""focus"",""0"",""0""
","""event"",""trial"",""time""
""fullscreenenter"",""1"",""5207""
","
","","","-1","","","14","3015","1876","a","elianto","#f73b6a7A","-1","-1","1","0","[]","0","2","","","3015","131","7","4","lose","no-go","0"
"pit-trial","200","1228976","0.0-136.0","battery-v0.2","","""event"",""trial"",""time""
""focus"",""0"",""0""
""fullscreenenter"",""1"",""5207""
","
","""event"",""trial"",""time""
""focus"",""0"",""0""
","""event"",""trial"",""time""
""fullscreenenter"",""1"",""5207""
","
","","","708","","","14","3015","1876","l","elianto","#3366ff99"," "," ","1","+10","[1566]","1","2","","","3015","132","8","1","win","go","0"
"pit-trial","201","1232436","0.0-137.0","battery-v0.2","","""event"",""trial"",""time""
""focus"",""0"",""0""
""fullscreenenter"",""1"",""5207""
","
","""event"",""trial"",""time""
""focus"",""0"",""0""
","""event"",""trial"",""time""
""fullscreenenter"",""1"",""5207""
","
","","","581","","","14","3015","1876","u","elianto","#3366ff99"," "," ","1","+10","[1437]","1","2","","","3015","133","9","1","win","go","0"
"pit-trial","202","1236316","0.0-138.0","battery-v0.2","","""event"",""trial"",""time""
""focus"",""0"",""0""
""fullscreenenter"",""1"",""5207""
","
","""event"",""trial"",""time""
""focus"",""0"",""0""
","""event"",""trial"",""time""
""fullscreenenter"",""1"",""5207""
","
","","","1002","","","14","3015","1876","a","elianto","#f73b6a7A","-1"," ","0","-10","[1859]","1","2","","","3015","134","7","4","lose","no-go","0"
"pit-trial","203","1239917","0.0-139.0","battery-v0.2","","""event"",""trial"",""time""
""focus"",""0"",""0""
""fullscreenenter"",""1"",""5207""
","
","""event"",""trial"",""time""
""focus"",""0"",""0""
","""event"",""trial"",""time""
""fullscreenenter"",""1"",""5207""
","
","","","724","","","14","3015","1876","l","elianto","#3366ff99"," "," ","1","+10","[1581]","1","2","","","3015","135","8","1","win","go","0"
"pit-trial","204","1244786","0.0-140.0","battery-v0.2","","""event"",""trial"",""time""
""focus"",""0"",""0""
""fullscreenenter"",""1"",""5207""
","
","""event"",""trial"",""time""
""focus"",""0"",""0""
","""event"",""trial"",""time""
""fullscreenenter"",""1"",""5207""
","
","","","-1","","","14","3015","1876","g","elianto","#f73b6a7A"," ","-1","0","-10","[]","0","2","","","3015","136","6","3","lose","go","0"
"pit-trial","205","1248746","0.0-141.0","battery-v0.2","","""event"",""trial"",""time""
""focus"",""0"",""0""
""fullscreenenter"",""1"",""5207""
","
","""event"",""trial"",""time""
""focus"",""0"",""0""
","""event"",""trial"",""time""
""fullscreenenter"",""1"",""5207""
","
","","","1091","","","14","3015","1876","g","elianto","#f73b6a7A"," "," ","1","0","[1947]","1","2","","","3015","137","6","3","lose","go","0"
"pit-trial","206","1252356","0.0-142.0","battery-v0.2","","""event"",""trial"",""time""
""focus"",""0"",""0""
""fullscreenenter"",""1"",""5207""
","
","""event"",""trial"",""time""
""focus"",""0"",""0""
","""event"",""trial"",""time""
""fullscreenenter"",""1"",""5207""
","
","","","750","","","14","3015","1876","l","elianto","#3366ff99"," "," ","1","0","[1606]","1","2","","","3015","138","8","1","win","go","1"
"pit-trial","207","1255916","0.0-143.0","battery-v0.2","","""event"",""trial"",""time""
""focus"",""0"",""0""
""fullscreenenter"",""1"",""5207""
","
","""event"",""trial"",""time""
""focus"",""0"",""0""
","""event"",""trial"",""time""
""fullscreenenter"",""1"",""5207""
","
","","","681","","","14","3015","1876","a","elianto","#f73b6a7A","-1"," ","0","0","[1538]","1","2","","","3015","139","7","4","lose","no-go","1"
"pit-trial","208","1259416","0.0-144.0","battery-v0.2","","""event"",""trial"",""time""
""focus"",""0"",""0""
""fullscreenenter"",""1"",""5207""
","
","""event"",""trial"",""time""
""focus"",""0"",""0""
","""event"",""trial"",""time""
""fullscreenenter"",""1"",""5207""
","
","","","633","","","14","3015","1876","u","elianto","#3366ff99"," "," ","1","+10","[1490]","1","2","","","3015","140","9","1","win","go","0"
"pit-instructions","209","1274708","0.0-145.0","battery-v0.2","","""event"",""trial"",""time""
""focus"",""0"",""0""
""fullscreenenter"",""1"",""5207""
","
","""event"",""trial"",""time""
""focus"",""0"",""0""
","""event"",""trial"",""time""
""fullscreenenter"",""1"",""5207""
","
","","[{""page_index"":0,""viewing_time"":7097},{""page_index"":1,""viewing_time"":8191}]","15289","","","","","","","","","","","","","","","","","","","","","","","",""
"pit-trial","210","1278646","0.0-146.0","battery-v0.2","","""event"",""trial"",""time""
""focus"",""0"",""0""
""fullscreenenter"",""1"",""5207""
","
","""event"",""trial"",""time""
""focus"",""0"",""0""
","""event"",""trial"",""time""
""fullscreenenter"",""1"",""5207""
","
","","","1079","","","14","3015","1876","r","elianto","#3366ff99"," "," ","1","+10","[1935]","1","3","","","3015","141","1","1","win","go","0"
"pit-trial","211","1282266","0.0-147.0","battery-v0.2","","""event"",""trial"",""time""
""focus"",""0"",""0""
""fullscreenenter"",""1"",""5207""
","
","""event"",""trial"",""time""
""focus"",""0"",""0""
","""event"",""trial"",""time""
""fullscreenenter"",""1"",""5207""
","
","","","740","","","14","3015","1876","h","elianto","#f73b6a7A"," "," ","1","-10","[1597]","1","3","","","3015","142","3","3","lose","go","1"
"pit-trial","212","1285876","0.0-148.0","battery-v0.2","","""event"",""trial"",""time""
""focus"",""0"",""0""
""fullscreenenter"",""1"",""5207""
","
","""event"",""trial"",""time""
""focus"",""0"",""0""
","""event"",""trial"",""time""
""fullscreenenter"",""1"",""5207""
","
","","","724","","","14","3015","1876","m","elianto","#f73b6a7A","-1"," ","0","-10","[1589]","1","3","","","3015","143","0","4","lose","no-go","0"
"pit-trial","213","1289136","0.0-149.0","battery-v0.2","","""event"",""trial"",""time""
""focus"",""0"",""0""
""fullscreenenter"",""1"",""5207""
","
","""event"",""trial"",""time""
""focus"",""0"",""0""
","""event"",""trial"",""time""
""fullscreenenter"",""1"",""5207""
","
","","","391","","","14","3015","1876","y","elianto","#f73b6a7A","-1"," ","0","-10","[1249]","1","3","","","3015","144","2","4","lose","no-go","0"
"pit-trial","214","1292536","0.0-150.0","battery-v0.2","","""event"",""trial"",""time""
""focus"",""0"",""0""
""fullscreenenter"",""1"",""5207""
","
","""event"",""trial"",""time""
""focus"",""0"",""0""
","""event"",""trial"",""time""
""fullscreenenter"",""1"",""5207""
","
","","","526","","","14","3015","1876","y","elianto","#f73b6a7A","-1"," ","0","-10","[1384]","1","3","","","3015","145","2","4","lose","no-go","0"
"pit-trial","215","1297397","0.0-151.0","battery-v0.2","","""event"",""trial"",""time""
""focus"",""0"",""0""
""fullscreenenter"",""1"",""5207""
","
","""event"",""trial"",""time""
""focus"",""0"",""0""
","""event"",""trial"",""time""
""fullscreenenter"",""1"",""5207""
","
","","","-1","","","14","3015","1876","h","elianto","#f73b6a7A"," ","-1","0","-10","[]","0","3","","","3015","146","3","3","lose","go","0"
"pit-trial","216","1301016","0.0-152.0","battery-v0.2","","""event"",""trial"",""time""
""focus"",""0"",""0""
""fullscreenenter"",""1"",""5207""
","
","""event"",""trial"",""time""
""focus"",""0"",""0""
","""event"",""trial"",""time""
""fullscreenenter"",""1"",""5207""
","
","","","740","","","14","3015","1876","r","elianto","#3366ff99"," "," ","1","+10","[1597]","1","3","","","3015","147","1","1","win","go","0"
"pit-trial","217","1305897","0.0-153.0","battery-v0.2","","""event"",""trial"",""time""
""focus"",""0"",""0""
""fullscreenenter"",""1"",""5207""
","
","""event"",""trial"",""time""
""focus"",""0"",""0""
","""event"",""trial"",""time""
""fullscreenenter"",""1"",""5207""
","
","","","-1","","","14","3015","1876","m","elianto","#f73b6a7A","-1","-1","1","0","[]","0","3","","","3015","148","0","4","lose","no-go","0"
"pit-trial","218","1310777","0.0-154.0","battery-v0.2","","""event"",""trial"",""time""
""focus"",""0"",""0""
""fullscreenenter"",""1"",""5207""
","
","""event"",""trial"",""time""
""focus"",""0"",""0""
","""event"",""trial"",""time""
""fullscreenenter"",""1"",""5207""
","
","","","-1","","","14","3015","1876","h","elianto","#f73b6a7A"," ","-1","0","-10","[3642]","1","3","","","3015","149","3","3","lose","go","0"
"pit-trial","219","1314887","0.0-155.0","battery-v0.2","","""event"",""trial"",""time""
""focus"",""0"",""0""
""fullscreenenter"",""1"",""5207""
","
","""event"",""trial"",""time""
""focus"",""0"",""0""
","""event"",""trial"",""time""
""fullscreenenter"",""1"",""5207""
","
","","","1248","","","14","3015","1876","r","elianto","#3366ff99"," "," ","1","+10","[2104]","1","3","","","3015","150","1","1","win","go","0"
"pit-trial","220","1318917","0.0-156.0","battery-v0.2","","""event"",""trial"",""time""
""focus"",""0"",""0""
""fullscreenenter"",""1"",""5207""
","
","""event"",""trial"",""time""
""focus"",""0"",""0""
","""event"",""trial"",""time""
""fullscreenenter"",""1"",""5207""
","
","","","1171","","","14","3015","1876","y","elianto","#f73b6a7A","-1"," ","0","0","[2027]","1","3","","","3015","151","2","4","lose","no-go","1"
"pit-trial","221","1323297","0.0-157.0","battery-v0.2","","""event"",""trial"",""time""
""focus"",""0"",""0""
""fullscreenenter"",""1"",""5207""
","
","""event"",""trial"",""time""
""focus"",""0"",""0""
","""event"",""trial"",""time""
""fullscreenenter"",""1"",""5207""
","
","","","1513","","","14","3015","1876","m","elianto","#f73b6a7A","-1"," ","0","-10","[2370]","1","3","","","3015","152","0","4","lose","no-go","0"
"pit-trial","222","1327396","0.0-158.0","battery-v0.2","","""event"",""trial"",""time""
""focus"",""0"",""0""
""fullscreenenter"",""1"",""5207""
","
","""event"",""trial"",""time""
""focus"",""0"",""0""
","""event"",""trial"",""time""
""fullscreenenter"",""1"",""5207""
","
","","","1225","","","14","3015","1876","y","elianto","#f73b6a7A","-1"," ","0","-10","[2080]","1","3","","","3015","153","2","4","lose","no-go","0"
"pit-trial","223","1332287","0.0-159.0","battery-v0.2","","""event"",""trial"",""time""
""focus"",""0"",""0""
""fullscreenenter"",""1"",""5207""
","
","""event"",""trial"",""time""
""focus"",""0"",""0""
","""event"",""trial"",""time""
""fullscreenenter"",""1"",""5207""
","
","","","-1","","","14","3015","1876","m","elianto","#f73b6a7A","-1","-1","1","0","[]","0","3","","","3015","154","0","4","lose","no-go","0"
"pit-trial","224","1335746","0.0-160.0","battery-v0.2","","""event"",""trial"",""time""
""focus"",""0"",""0""
""fullscreenenter"",""1"",""5207""
","
","""event"",""trial"",""time""
""focus"",""0"",""0""
","""event"",""trial"",""time""
""fullscreenenter"",""1"",""5207""
","
","","","593","","","14","3015","1876","r","elianto","#3366ff99"," "," ","1","+10","[1448]","1","3","","","3015","155","1","1","win","go","0"
"pit-trial","225","1340446","0.0-161.0","battery-v0.2","","""event"",""trial"",""time""
""focus"",""0"",""0""
""fullscreenenter"",""1"",""5207""
","
","""event"",""trial"",""time""
""focus"",""0"",""0""
","""event"",""trial"",""time""
""fullscreenenter"",""1"",""5207""
","
","","","1831","","","14","3015","1876","h","elianto","#f73b6a7A"," "," ","1","0","[2688]","1","3","","","3015","156","3","3","lose","go","0"
"pit-trial","226","1345325","0.0-162.0","battery-v0.2","","""event"",""trial"",""time""
""focus"",""0"",""0""
""fullscreenenter"",""1"",""5207""
","
","""event"",""trial"",""time""
""focus"",""0"",""0""
","""event"",""trial"",""time""
""fullscreenenter"",""1"",""5207""
","
","","","-1","","","14","3015","1876","m","elianto","#f73b6a7A","-1","-1","1","-10","[]","0","3","","","3015","157","0","4","lose","no-go","1"
"pit-trial","227","1349126","0.0-163.0","battery-v0.2","","""event"",""trial"",""time""
""focus"",""0"",""0""
""fullscreenenter"",""1"",""5207""
","
","""event"",""trial"",""time""
""focus"",""0"",""0""
","""event"",""trial"",""time""
""fullscreenenter"",""1"",""5207""
","
","","","911","","","14","3015","1876","r","elianto","#3366ff99"," "," ","1","0","[1780]","1","3","","","3015","158","1","1","win","go","1"
"pit-trial","228","1352607","0.0-164.0","battery-v0.2","","""event"",""trial"",""time""
""focus"",""0"",""0""
""fullscreenenter"",""1"",""5207""
","
","""event"",""trial"",""time""
""focus"",""0"",""0""
","""event"",""trial"",""time""
""fullscreenenter"",""1"",""5207""
","
","","","619","","","14","3015","1876","h","elianto","#f73b6a7A"," "," ","1","0","[1477]","1","3","","","3015","159","3","3","lose","go","0"
"pit-trial","229","1357486","0.0-165.0","battery-v0.2","","""event"",""trial"",""time""
""focus"",""0"",""0""
""fullscreenenter"",""1"",""5207""
","
","""event"",""trial"",""time""
""focus"",""0"",""0""
","""event"",""trial"",""time""
""fullscreenenter"",""1"",""5207""
","
","","","-1","","","14","3015","1876","y","elianto","#f73b6a7A","-1","-1","1","-10","[3486]","1","3","","","3015","160","2","4","lose","no-go","1"
"pit-trial","230","1360947","0.0-166.0","battery-v0.2","","""event"",""trial"",""time""
""focus"",""0"",""0""
