"trial_type","trial_index","time_elapsed","internal_node_id","task_version","subject_id","interactions","blur_events","focus_events","fullscreenenter_events","fullscreenexit_events","success","view_history","rt","responses","num_errors","age","subject","participantId","rune","rune_set","hex","correct","choice","accuracy","outcome","keys","total_keys","block","practice","value","sub","trial","stimulus","robot","valence","action","sham"
"pavlovia","0","10","0.0-0.0","battery-v0.2","","""event"",""trial"",""time""
""fullscreenenter"",""1"",""4554""
","
","
","""event"",""trial"",""time""
""fullscreenenter"",""1"",""4554""
","
","","","","","","","","","","","","","","","","","","","","","","","","","","",""
"fullscreen","1","5549","0.0-1.0","battery-v0.2","","""event"",""trial"",""time""
""fullscreenenter"",""1"",""4554""
","
","
","""event"",""trial"",""time""
""fullscreenenter"",""1"",""4554""
","
","true","","","","","","","","","","","","","","","","","","","","","","","","","",""
"pit-instructions","2","9457","0.0-2.0-0.0","battery-v0.2","","""event"",""trial"",""time""
""fullscreenenter"",""1"",""4554""
","
","
","""event"",""trial"",""time""
""fullscreenenter"",""1"",""4554""
","
","","[{""page_index"":0,""viewing_time"":3902.600000000559}]","3903.4000000003725","","","","","","","","","","","","","","","","","","","","","","","",""
"pit-comprehension","3","11717","0.0-2.0-1.0-0.0","battery-v0.2","","""event"",""trial"",""time""
""fullscreenenter"",""1"",""4554""
","
","
","""event"",""trial"",""time""
""fullscreenenter"",""1"",""4554""
","
","","","2251.9000000003725","[""shark""]","0","24","5028","2935","","","","","","","","","","","","","","","","","","",""
"pit-instructions","4","13007","0.0-2.0-1.0-1.0","battery-v0.2","","""event"",""trial"",""time""
""fullscreenenter"",""1"",""4554""
","
","
","""event"",""trial"",""time""
""fullscreenenter"",""1"",""4554""
","
","","[{""page_index"":0,""viewing_time"":1279.3999999994412}]","1280.2999999998137","","","","","","","","","","","","","","","","","","","","","","","",""
"pit-comprehension","5","14928","0.0-2.0-2.0-0.0","battery-v0.2","","""event"",""trial"",""time""
""fullscreenenter"",""1"",""4554""
","
","
","""event"",""trial"",""time""
""fullscreenenter"",""1"",""4554""
","
","","","1913.300000000745","[""tiger""]","0","24","5028","2935","","","","","","","","","","","","","","","","","","",""
"pit-instructions","6","15775","0.0-2.0-2.0-1.0","battery-v0.2","","""event"",""trial"",""time""
""fullscreenenter"",""1"",""4554""
","
","
","""event"",""trial"",""time""
""fullscreenenter"",""1"",""4554""
","
","","[{""page_index"":0,""viewing_time"":838.2999999998137}]","839.0999999996275","","","","","","","","","","","","","","","","","","","","","","","",""
"pit-instructions","7","108707","0.0-2.0-3.0","battery-v0.2","","""event"",""trial"",""time""
""fullscreenenter"",""1"",""4554""
","
","
","""event"",""trial"",""time""
""fullscreenenter"",""1"",""4554""
","
","","[{""page_index"":0,""viewing_time"":7404.600000000559},{""page_index"":1,""viewing_time"":5935.699999999255},{""page_index"":2,""viewing_time"":7108.4000000003725},{""page_index"":3,""viewing_time"":5504},{""page_index"":4,""viewing_time"":5734.5},{""page_index"":5,""viewing_time"":6381.9000000003725},{""page_index"":6,""viewing_time"":6812},{""page_index"":7,""viewing_time"":6439.899999999441},{""page_index"":8,""viewing_time"":6261.299999999814},{""page_index"":9,""viewing_time"":7811.4000000003725},{""page_index"":10,""viewing_time"":8100.299999999814},{""page_index"":11,""viewing_time"":7836.600000000559},{""page_index"":12,""viewing_time"":6479.199999999255},{""page_index"":13,""viewing_time"":5116.700000000186}]","92927.60000000056","","","","","","","","","","","","","","","","","","","","","","","",""
"pit-trial","8","112768","0.0-2.0-4.0-0.0","battery-v0.2","","""event"",""trial"",""time""
""fullscreenenter"",""1"",""4554""
","
","
","""event"",""trial"",""time""
""fullscreenenter"",""1"",""4554""
","
","","","1196.8999999994412","","","24","5028","2935","&#9784;","elianto","#FFFFF080"," "," ","1","&#10004","[2048.5]","1","0","0","","","","","","","",""
"pit-trial","9","116457","0.0-2.0-4.1-0.1","battery-v0.2","","""event"",""trial"",""time""
""fullscreenenter"",""1"",""4554""
","
","
","""event"",""trial"",""time""
""fullscreenenter"",""1"",""4554""
","
","","","822.7999999998137","","","24","5028","2935","&#9784;","elianto","#FFFFF080"," "," ","1","&#10004","[1678]","1","0","0","","","","","","","",""
"pit-trial","10","120108","0.0-2.0-4.2-0.2","battery-v0.2","","""event"",""trial"",""time""
""fullscreenenter"",""1"",""4554""
","
","
","""event"",""trial"",""time""
""fullscreenenter"",""1"",""4554""
","
","","","788","","","24","5028","2935","&#9784;","elianto","#FFFFF080"," "," ","1","&#10004","[1638.6000000005588]","1","0","0","","","","","","","",""
"pit-trial","11","123542","0.0-2.0-4.3-0.3","battery-v0.2","","""event"",""trial"",""time""
""fullscreenenter"",""1"",""4554""
","
","
","""event"",""trial"",""time""
""fullscreenenter"",""1"",""4554""
","
","","","571.5","","","24","5028","2935","&#9784;","elianto","#FFFFF080"," "," ","1","&#10004","[1421.5999999996275]","1","0","0","","","","","","","",""
"pit-trial","12","127004","0.0-2.0-4.4-0.4","battery-v0.2","","""event"",""trial"",""time""
""fullscreenenter"",""1"",""4554""
","
","
","""event"",""trial"",""time""
""fullscreenenter"",""1"",""4554""
","
","","","599","","","24","5028","2935","&#9784;","elianto","#FFFFF080"," "," ","1","&#10004","[1449.5]","1","0","0","","","","","","","",""
"pit-instructions","13","146555","0.0-2.0-5.0","battery-v0.2","","""event"",""trial"",""time""
""fullscreenenter"",""1"",""4554""
","
","
","""event"",""trial"",""time""
""fullscreenenter"",""1"",""4554""
","
","","[{""page_index"":0,""viewing_time"":4544.5999999996275},{""page_index"":1,""viewing_time"":5171.300000000745},{""page_index"":2,""viewing_time"":4808.899999999441},{""page_index"":3,""viewing_time"":5018.799999999814}]","19544.799999999814","","","","","","","","","","","","","","","","","","","","","","","",""
"pit-trial","14","151417","0.0-2.0-6.0-0.0","battery-v0.2","","""event"",""trial"",""time""
""fullscreenenter"",""1"",""4554""
","
","
","""event"",""trial"",""time""
""fullscreenenter"",""1"",""4554""
","
","","","-1","","","24","5028","2935","&#9854;","elianto","#FFFFF080","-1","-1","1","&#10004","[]","0","0","1","","","","","","","",""
"pit-trial","15","156277","0.0-2.0-6.1-0.1","battery-v0.2","","""event"",""trial"",""time""
""fullscreenenter"",""1"",""4554""
","
","
","""event"",""trial"",""time""
""fullscreenenter"",""1"",""4554""
","
","","","-1","","","24","5028","2935","&#9854;","elianto","#FFFFF080","-1","-1","1","&#10004","[]","0","0","1","","","","","","","",""
"pit-trial","16","161140","0.0-2.0-6.2-0.2","battery-v0.2","","""event"",""trial"",""time""
""fullscreenenter"",""1"",""4554""
","
","
","""event"",""trial"",""time""
""fullscreenenter"",""1"",""4554""
","
","","","-1","","","24","5028","2935","&#9854;","elianto","#FFFFF080","-1","-1","1","&#10004","[]","0","0","1","","","","","","","",""
"pit-trial","17","166002","0.0-2.0-6.3-0.3","battery-v0.2","","""event"",""trial"",""time""
""fullscreenenter"",""1"",""4554""
","
","
","""event"",""trial"",""time""
""fullscreenenter"",""1"",""4554""
","
","","","-1","","","24","5028","2935","&#9854;","elianto","#FFFFF080","-1","-1","1","&#10004","[]","0","0","1","","","","","","","",""
"pit-trial","18","170868","0.0-2.0-6.4-0.4","battery-v0.2","","""event"",""trial"",""time""
""fullscreenenter"",""1"",""4554""
","
","
","""event"",""trial"",""time""
""fullscreenenter"",""1"",""4554""
","
","","","-1","","","24","5028","2935","&#9854;","elianto","#FFFFF080","-1","-1","1","&#10004","[]","0","0","1","","","","","","","",""
"pit-instructions","19","283360","0.0-2.0-7.0","battery-v0.2","","""event"",""trial"",""time""
""fullscreenenter"",""1"",""4554""
","
","
","""event"",""trial"",""time""
""fullscreenenter"",""1"",""4554""
","
","","[{""page_index"":0,""viewing_time"":7661.799999999814},{""page_index"":1,""viewing_time"":6667.299999999814},{""page_index"":2,""viewing_time"":5784.9000000003725},{""page_index"":3,""viewing_time"":6140.5999999996275},{""page_index"":4,""viewing_time"":5252.799999999814},{""page_index"":5,""viewing_time"":5735.9000000003725},{""page_index"":6,""viewing_time"":4425},{""page_index"":7,""viewing_time"":7568.399999999441},{""page_index"":8,""viewing_time"":6365.800000000745},{""page_index"":9,""viewing_time"":5954.699999999255},{""page_index"":10,""viewing_time"":6301.5},{""page_index"":11,""viewing_time"":4252.200000000186},{""page_index"":12,""viewing_time"":6576.100000000559},{""page_index"":13,""viewing_time"":6813.5},{""page_index"":14,""viewing_time"":6937.799999999814},{""page_index"":15,""viewing_time"":6606.0999999996275},{""page_index"":16,""viewing_time"":6331.700000000186},{""page_index"":17,""viewing_time"":7110.0999999996275}]","112487.09999999963","","","","","","","","","","","","","","","","","","","","","","","",""
"pit-trial","20","287101","0.0-2.0-8.0-0.0","battery-v0.2","","""event"",""trial"",""time""
""fullscreenenter"",""1"",""4554""
","
","
","""event"",""trial"",""time""
""fullscreenenter"",""1"",""4554""
","
","","","883.3999999994412","","","24","5028","2935","&#9776;","elianto","#3366ff99"," "," ","1","+10","[1734]","1","0","1","","","","","","","",""
"pit-trial","21","290490","0.0-2.0-8.0-1.0","battery-v0.2","","""event"",""trial"",""time""
""fullscreenenter"",""1"",""4554""
","
","
","""event"",""trial"",""time""
""fullscreenenter"",""1"",""4554""
","
","","","522.5999999996275","","","24","5028","2935","&#9776;","elianto","#3366ff99"," "," ","1","+10","[1377.6000000005588]","1","0","1","","","","","","","",""
"pit-trial","22","294031","0.0-2.0-8.0-2.0","battery-v0.2","","""event"",""trial"",""time""
""fullscreenenter"",""1"",""4554""
","
","
","""event"",""trial"",""time""
""fullscreenenter"",""1"",""4554""
","
","","","680.2999999998137","","","24","5028","2935","&#9776;","elianto","#3366ff99"," "," ","1","+10","[1531]","1","0","1","","","","","","","",""
"pit-trial","23","297413","0.0-2.0-8.0-3.0","battery-v0.2","","""event"",""trial"",""time""
""fullscreenenter"",""1"",""4554""
","
","
","""event"",""trial"",""time""
""fullscreenenter"",""1"",""4554""
","
","","","517.6000000005588","","","24","5028","2935","&#9776;","elianto","#3366ff99"," "," ","1","0","[1370.7999999998137]","1","0","1","","","","","","","",""
"pit-trial","24","300774","0.0-2.0-8.0-4.0","battery-v0.2","","""event"",""trial"",""time""
""fullscreenenter"",""1"",""4554""
","
","
","""event"",""trial"",""time""
""fullscreenenter"",""1"",""4554""
","
","","","495.79999999981374","","","24","5028","2935","&#9776;","elianto","#3366ff99"," "," ","1","+10","[1348.3999999994412]","1","0","1","","","","","","","",""
"pit-trial","25","304159","0.0-2.0-8.1-0.1","battery-v0.2","","""event"",""trial"",""time""
""fullscreenenter"",""1"",""4554""
","
","
","""event"",""trial"",""time""
""fullscreenenter"",""1"",""4554""
","
","","","521.0999999996275","","","24","5028","2935","&#9776;","elianto","#3366ff99"," "," ","1","+10","[1373.2000000001863]","1","0","1","","","","","","","",""
"pit-trial","26","307611","0.0-2.0-8.1-1.1","battery-v0.2","","""event"",""trial"",""time""
""fullscreenenter"",""1"",""4554""
","
","
","""event"",""trial"",""time""
""fullscreenenter"",""1"",""4554""
","
","","","593.3999999994412","","","24","5028","2935","&#9776;","elianto","#3366ff99"," "," ","1","+10","[1444.2999999998137]","1","0","1","","","","","","","",""
"pit-trial","27","311106","0.0-2.0-8.1-2.1","battery-v0.2","","""event"",""trial"",""time""
""fullscreenenter"",""1"",""4554""
","
","
","""event"",""trial"",""time""
""fullscreenenter"",""1"",""4554""
","
","","","633.9000000003725","","","24","5028","2935","&#9776;","elianto","#3366ff99"," "," ","1","+10","[1488.4000000003725]","1","0","1","","","","","","","",""
"pit-trial","28","314622","0.0-2.0-8.1-3.1","battery-v0.2","","""event"",""trial"",""time""
""fullscreenenter"",""1"",""4554""
","
","
","""event"",""trial"",""time""
""fullscreenenter"",""1"",""4554""
","
","","","654.5999999996275","","","24","5028","2935","&#9776;","elianto","#3366ff99"," "," ","1","0","[1504.9000000003725]","1","0","1","","","","","","","",""
"pit-trial","29","318147","0.0-2.0-8.1-4.1","battery-v0.2","","""event"",""trial"",""time""
""fullscreenenter"",""1"",""4554""
","
","
","""event"",""trial"",""time""
""fullscreenenter"",""1"",""4554""
","
","","","665.2999999998137","","","24","5028","2935","&#9776;","elianto","#3366ff99"," "," ","1","+10","[1516.9000000003725]","1","0","1","","","","","","","",""
"pit-trial","30","321566","0.0-2.0-8.2-0.2","battery-v0.2","","""event"",""trial"",""time""
""fullscreenenter"",""1"",""4554""
","
","
","""event"",""trial"",""time""
""fullscreenenter"",""1"",""4554""
","
","","","557.2999999998137","","","24","5028","2935","&#9776;","elianto","#3366ff99"," "," ","1","+10","[1409.6000000005588]","1","0","1","","","","","","","",""
"pit-trial","31","324995","0.0-2.0-8.2-1.2","battery-v0.2","","""event"",""trial"",""time""
""fullscreenenter"",""1"",""4554""
","
","
","""event"",""trial"",""time""
""fullscreenenter"",""1"",""4554""
","
","","","567.7000000001863","","","24","5028","2935","&#9776;","elianto","#3366ff99"," "," ","1","+10","[1420.7000000001863]","1","0","1","","","","","","","",""
"pit-trial","32","328254","0.0-2.0-8.2-2.2","battery-v0.2","","""event"",""trial"",""time""
""fullscreenenter"",""1"",""4554""
","
","
","""event"",""trial"",""time""
""fullscreenenter"",""1"",""4554""
","
","","","396.29999999981374","","","24","5028","2935","&#9776;","elianto","#3366ff99"," "," ","1","+10","[1247.5]","1","0","1","","","","","","","",""
"pit-trial","33","331693","0.0-2.0-8.2-3.2","battery-v0.2","","""event"",""trial"",""time""
""fullscreenenter"",""1"",""4554""
","
","
","""event"",""trial"",""time""
""fullscreenenter"",""1"",""4554""
","
","","","574.7999999998137","","","24","5028","2935","&#9776;","elianto","#3366ff99"," "," ","1","0","[1427.0999999996275]","1","0","1","","","","","","","",""
"pit-trial","34","335027","0.0-2.0-8.2-4.2","battery-v0.2","","""event"",""trial"",""time""
""fullscreenenter"",""1"",""4554""
","
","
","""event"",""trial"",""time""
""fullscreenenter"",""1"",""4554""
","
","","","474.5","","","24","5028","2935","&#9776;","elianto","#3366ff99"," "," ","1","+10","[1324.7000000001863]","1","0","1","","","","","","","",""
"call-function","35","335032","0.0-2.0-9.0","battery-v0.2","","""event"",""trial"",""time""
""fullscreenenter"",""1"",""4554""
","
","
","""event"",""trial"",""time""
""fullscreenenter"",""1"",""4554""
","
","","","","","","","","","","","","","","","","","","","","","","","","","","",""
"pit-instructions","36","372983","0.0-2.0-10.0","battery-v0.2","","""event"",""trial"",""time""
""fullscreenenter"",""1"",""4554""
","
","
","""event"",""trial"",""time""
""fullscreenenter"",""1"",""4554""
","
","","[{""page_index"":0,""viewing_time"":5447},{""page_index"":1,""viewing_time"":6221.300000000745},{""page_index"":2,""viewing_time"":9828.899999999441},{""page_index"":3,""viewing_time"":8874.100000000559},{""page_index"":4,""viewing_time"":7578.5}]","37951.40000000037","","","","","","","","","","","","","","","","","","","","","","","",""
"pit-trial","37","376472","0.0-2.0-11.0-0.0","battery-v0.2","","""event"",""trial"",""time""
""fullscreenenter"",""1"",""4554""
","
","
","""event"",""trial"",""time""
""fullscreenenter"",""1"",""4554""
","
","","","621.5999999996275","","","24","5028","2935","&#9761;","elianto","#3366ff99","-1"," ","0","0","[1476.6000000005588]","1","0","2","","","","","","","",""
"pit-trial","38","379829","0.0-2.0-11.0-1.0","battery-v0.2","","""event"",""trial"",""time""
""fullscreenenter"",""1"",""4554""
","
","
","""event"",""trial"",""time""
""fullscreenenter"",""1"",""4554""
","
","","","494.09999999962747","","","24","5028","2935","&#9761;","elianto","#3366ff99","-1"," ","0","0","[1345.5999999996275]","1","0","2","","","","","","","",""
"pit-trial","39","384696","0.0-2.0-11.0-2.0","battery-v0.2","","""event"",""trial"",""time""
""fullscreenenter"",""1"",""4554""
","
","
","""event"",""trial"",""time""
""fullscreenenter"",""1"",""4554""
","
","","","-1","","","24","5028","2935","&#9761;","elianto","#3366ff99","-1","-1","1","+10","[]","0","0","2","","","","","","","",""
"pit-trial","40","389563","0.0-2.0-11.0-3.0","battery-v0.2","","""event"",""trial"",""time""
""fullscreenenter"",""1"",""4554""
","
","
","""event"",""trial"",""time""
""fullscreenenter"",""1"",""4554""
","
","","","-1","","","24","5028","2935","&#9761;","elianto","#3366ff99","-1","-1","1","0","[]","0","0","2","","","","","","","",""
"pit-trial","41","394424","0.0-2.0-11.0-4.0","battery-v0.2","","""event"",""trial"",""time""
""fullscreenenter"",""1"",""4554""
","
","
","""event"",""trial"",""time""
""fullscreenenter"",""1"",""4554""
","
","","","-1","","","24","5028","2935","&#9761;","elianto","#3366ff99","-1","-1","1","+10","[]","0","0","2","","","","","","","",""
"pit-trial","42","399287","0.0-2.0-11.1-0.1","battery-v0.2","","""event"",""trial"",""time""
""fullscreenenter"",""1"",""4554""
","
","
","""event"",""trial"",""time""
""fullscreenenter"",""1"",""4554""
","
","","","-1","","","24","5028","2935","&#9761;","elianto","#3366ff99","-1","-1","1","+10","[]","0","0","2","","","","","","","",""
"pit-trial","43","404152","0.0-2.0-11.1-1.1","battery-v0.2","","""event"",""trial"",""time""
""fullscreenenter"",""1"",""4554""
","
","
","""event"",""trial"",""time""
""fullscreenenter"",""1"",""4554""
","
","","","-1","","","24","5028","2935","&#9761;","elianto","#3366ff99","-1","-1","1","+10","[]","0","0","2","","","","","","","",""
"pit-trial","44","409016","0.0-2.0-11.1-2.1","battery-v0.2","","""event"",""trial"",""time""
""fullscreenenter"",""1"",""4554""
","
","
","""event"",""trial"",""time""
""fullscreenenter"",""1"",""4554""
","
","","","-1","","","24","5028","2935","&#9761;","elianto","#3366ff99","-1","-1","1","+10","[]","0","0","2","","","","","","","",""
"pit-trial","45","413880","0.0-2.0-11.1-3.1","battery-v0.2","","""event"",""trial"",""time""
""fullscreenenter"",""1"",""4554""
","
","
","""event"",""trial"",""time""
""fullscreenenter"",""1"",""4554""
","
","","","-1","","","24","5028","2935","&#9761;","elianto","#3366ff99","-1","-1","1","0","[]","0","0","2","","","","","","","",""
"pit-trial","46","418744","0.0-2.0-11.1-4.1","battery-v0.2","","""event"",""trial"",""time""
""fullscreenenter"",""1"",""4554""
","
","
","""event"",""trial"",""time""
""fullscreenenter"",""1"",""4554""
","
","","","-1","","","24","5028","2935","&#9761;","elianto","#3366ff99","-1","-1","1","+10","[]","0","0","2","","","","","","","",""
"pit-trial","47","423608","0.0-2.0-11.2-0.2","battery-v0.2","","""event"",""trial"",""time""
""fullscreenenter"",""1"",""4554""
","
","
","""event"",""trial"",""time""
""fullscreenenter"",""1"",""4554""
","
","","","-1","","","24","5028","2935","&#9761;","elianto","#3366ff99","-1","-1","1","+10","[]","0","0","2","","","","","","","",""
"pit-trial","48","428472","0.0-2.0-11.2-1.2","battery-v0.2","","""event"",""trial"",""time""
""fullscreenenter"",""1"",""4554""
","
","
","""event"",""trial"",""time""
""fullscreenenter"",""1"",""4554""
","
","","","-1","","","24","5028","2935","&#9761;","elianto","#3366ff99","-1","-1","1","+10","[]","0","0","2","","","","","","","",""
"pit-trial","49","433336","0.0-2.0-11.2-2.2","battery-v0.2","","""event"",""trial"",""time""
""fullscreenenter"",""1"",""4554""
","
","
","""event"",""trial"",""time""
""fullscreenenter"",""1"",""4554""
","
","","","-1","","","24","5028","2935","&#9761;","elianto","#3366ff99","-1","-1","1","+10","[]","0","0","2","","","","","","","",""
"pit-trial","50","438200","0.0-2.0-11.2-3.2","battery-v0.2","","""event"",""trial"",""time""
""fullscreenenter"",""1"",""4554""
","
","
","""event"",""trial"",""time""
""fullscreenenter"",""1"",""4554""
","
","","","-1","","","24","5028","2935","&#9761;","elianto","#3366ff99","-1","-1","1","0","[]","0","0","2","","","","","","","",""
"pit-trial","51","443063","0.0-2.0-11.2-4.2","battery-v0.2","","""event"",""trial"",""time""
""fullscreenenter"",""1"",""4554""
","
","
","""event"",""trial"",""time""
""fullscreenenter"",""1"",""4554""
","
","","","-1","","","24","5028","2935","&#9761;","elianto","#3366ff99","-1","-1","1","+10","[]","0","0","2","","","","","","","",""
"pit-trial","52","447928","0.0-2.0-11.3-0.3","battery-v0.2","","""event"",""trial"",""time""
""fullscreenenter"",""1"",""4554""
","
","
","""event"",""trial"",""time""
""fullscreenenter"",""1"",""4554""
","
","","","-1","","","24","5028","2935","&#9761;","elianto","#3366ff99","-1","-1","1","+10","[]","0","0","2","","","","","","","",""
"pit-trial","53","452792","0.0-2.0-11.3-1.3","battery-v0.2","","""event"",""trial"",""time""
""fullscreenenter"",""1"",""4554""
","
","
","""event"",""trial"",""time""
""fullscreenenter"",""1"",""4554""
","
","","","-1","","","24","5028","2935","&#9761;","elianto","#3366ff99","-1","-1","1","+10","[]","0","0","2","","","","","","","",""
"pit-trial","54","457655","0.0-2.0-11.3-2.3","battery-v0.2","","""event"",""trial"",""time""
""fullscreenenter"",""1"",""4554""
","
","
","""event"",""trial"",""time""
""fullscreenenter"",""1"",""4554""
","
","","","-1","","","24","5028","2935","&#9761;","elianto","#3366ff99","-1","-1","1","+10","[]","0","0","2","","","","","","","",""
"pit-trial","55","462520","0.0-2.0-11.3-3.3","battery-v0.2","","""event"",""trial"",""time""
""fullscreenenter"",""1"",""4554""
","
","
","""event"",""trial"",""time""
""fullscreenenter"",""1"",""4554""
","
","","","-1","","","24","5028","2935","&#9761;","elianto","#3366ff99","-1","-1","1","0","[]","0","0","2","","","","","","","",""
"pit-trial","56","467380","0.0-2.0-11.3-4.3","battery-v0.2","","""event"",""trial"",""time""
""fullscreenenter"",""1"",""4554""
","
","
","""event"",""trial"",""time""
""fullscreenenter"",""1"",""4554""
","
","","","-1","","","24","5028","2935","&#9761;","elianto","#3366ff99","-1","-1","1","+10","[]","0","0","2","","","","","","","",""
"call-function","57","467384","0.0-2.0-12.0","battery-v0.2","","""event"",""trial"",""time""
""fullscreenenter"",""1"",""4554""
","
","
","""event"",""trial"",""time""
""fullscreenenter"",""1"",""4554""
","
","","","","","","","","","","","","","","","","","","","","","","","","","","",""
"pit-instructions","58","497567","0.0-2.0-13.0","battery-v0.2","","""event"",""trial"",""time""
""fullscreenenter"",""1"",""4554""
","
","
","""event"",""trial"",""time""
""fullscreenenter"",""1"",""4554""
","
","","[{""page_index"":0,""viewing_time"":4658.800000000745},{""page_index"":1,""viewing_time"":6823.199999999255},{""page_index"":2,""viewing_time"":3746.9000000003725},{""page_index"":3,""viewing_time"":10142.099999999627},{""page_index"":4,""viewing_time"":4809.5}]","30181.900000000373","","","","","","","","","","","","","","","","","","","","","","","",""
"pit-trial","59","501112","0.0-2.0-14.0-0.0","battery-v0.2","","""event"",""trial"",""time""
""fullscreenenter"",""1"",""4554""
","
","
","""event"",""trial"",""time""
""fullscreenenter"",""1"",""4554""
","
","","","679.8999999994412","","","24","5028","2935","&#9826;","elianto","#f73b6a7A","-1"," ","0","-10","[1534]","1","0","3","","","","","","","",""
"pit-trial","60","505979","0.0-2.0-14.0-1.0","battery-v0.2","","""event"",""trial"",""time""
""fullscreenenter"",""1"",""4554""
","
","
","""event"",""trial"",""time""
""fullscreenenter"",""1"",""4554""
","
","","","-1","","","24","5028","2935","&#9826;","elianto","#f73b6a7A","-1","-1","1","0","[]","0","0","3","","","","","","","",""
"pit-trial","61","510840","0.0-2.0-14.0-2.0","battery-v0.2","","""event"",""trial"",""time""
""fullscreenenter"",""1"",""4554""
","
","
","""event"",""trial"",""time""
""fullscreenenter"",""1"",""4554""
","
","","","-1","","","24","5028","2935","&#9826;","elianto","#f73b6a7A","-1","-1","1","0","[]","0","0","3","","","","","","","",""
"pit-trial","62","515703","0.0-2.0-14.0-3.0","battery-v0.2","","""event"",""trial"",""time""
""fullscreenenter"",""1"",""4554""
","
","
","""event"",""trial"",""time""
""fullscreenenter"",""1"",""4554""
","
","","","-1","","","24","5028","2935","&#9826;","elianto","#f73b6a7A","-1","-1","1","-10","[]","0","0","3","","","","","","","",""
"pit-trial","63","520569","0.0-2.0-14.0-4.0","battery-v0.2","","""event"",""trial"",""time""
""fullscreenenter"",""1"",""4554""
","
","
","""event"",""trial"",""time""
""fullscreenenter"",""1"",""4554""
","
","","","-1","","","24","5028","2935","&#9826;","elianto","#f73b6a7A","-1","-1","1","0","[]","0","0","3","","","","","","","",""
"pit-trial","64","525434","0.0-2.0-14.1-0.1","battery-v0.2","","""event"",""trial"",""time""
""fullscreenenter"",""1"",""4554""
","
","
","""event"",""trial"",""time""
""fullscreenenter"",""1"",""4554""
","
","","","-1","","","24","5028","2935","&#9826;","elianto","#f73b6a7A","-1","-1","1","0","[]","0","0","3","","","","","","","",""
"pit-trial","65","530299","0.0-2.0-14.1-1.1","battery-v0.2","","""event"",""trial"",""time""
""fullscreenenter"",""1"",""4554""
","
","
","""event"",""trial"",""time""
""fullscreenenter"",""1"",""4554""
","
","","","-1","","","24","5028","2935","&#9826;","elianto","#f73b6a7A","-1","-1","1","0","[]","0","0","3","","","","","","","",""
"pit-trial","66","535163","0.0-2.0-14.1-2.1","battery-v0.2","","""event"",""trial"",""time""
""fullscreenenter"",""1"",""4554""
","
","
","""event"",""trial"",""time""
""fullscreenenter"",""1"",""4554""
","
","","","-1","","","24","5028","2935","&#9826;","elianto","#f73b6a7A","-1","-1","1","0","[]","0","0","3","","","","","","","",""
"pit-trial","67","540027","0.0-2.0-14.1-3.1","battery-v0.2","","""event"",""trial"",""time""
""fullscreenenter"",""1"",""4554""
","
","
","""event"",""trial"",""time""
""fullscreenenter"",""1"",""4554""
","
","","","-1","","","24","5028","2935","&#9826;","elianto","#f73b6a7A","-1","-1","1","-10","[]","0","0","3","","","","","","","",""
"pit-trial","68","544891","0.0-2.0-14.1-4.1","battery-v0.2","","""event"",""trial"",""time""
""fullscreenenter"",""1"",""4554""
","
","
","""event"",""trial"",""time""
""fullscreenenter"",""1"",""4554""
","
","","","-1","","","24","5028","2935","&#9826;","elianto","#f73b6a7A","-1","-1","1","0","[]","0","0","3","","","","","","","",""
"pit-trial","69","549755","0.0-2.0-14.2-0.2","battery-v0.2","","""event"",""trial"",""time""
""fullscreenenter"",""1"",""4554""
","
","
","""event"",""trial"",""time""
""fullscreenenter"",""1"",""4554""
","
","","","-1","","","24","5028","2935","&#9826;","elianto","#f73b6a7A","-1","-1","1","0","[]","0","0","3","","","","","","","",""
"pit-trial","70","554619","0.0-2.0-14.2-1.2","battery-v0.2","","""event"",""trial"",""time""
""fullscreenenter"",""1"",""4554""
","
","
","""event"",""trial"",""time""
""fullscreenenter"",""1"",""4554""
","
","","","-1","","","24","5028","2935","&#9826;","elianto","#f73b6a7A","-1","-1","1","0","[]","0","0","3","","","","","","","",""
"pit-trial","71","559483","0.0-2.0-14.2-2.2","battery-v0.2","","""event"",""trial"",""time""
""fullscreenenter"",""1"",""4554""
","
","
","""event"",""trial"",""time""
""fullscreenenter"",""1"",""4554""
","
","","","-1","","","24","5028","2935","&#9826;","elianto","#f73b6a7A","-1","-1","1","0","[]","0","0","3","","","","","","","",""
"pit-trial","72","564343","0.0-2.0-14.2-3.2","battery-v0.2","","""event"",""trial"",""time""
""fullscreenenter"",""1"",""4554""
","
","
","""event"",""trial"",""time""
""fullscreenenter"",""1"",""4554""
","
","","","-1","","","24","5028","2935","&#9826;","elianto","#f73b6a7A","-1","-1","1","-10","[]","0","0","3","","","","","","","",""
"pit-trial","73","569206","0.0-2.0-14.2-4.2","battery-v0.2","","""event"",""trial"",""time""
""fullscreenenter"",""1"",""4554""
","
","
","""event"",""trial"",""time""
""fullscreenenter"",""1"",""4554""
","
","","","-1","","","24","5028","2935","&#9826;","elianto","#f73b6a7A","-1","-1","1","0","[]","0","0","3","","","","","","","",""
"pit-trial","74","574070","0.0-2.0-14.3-0.3","battery-v0.2","","""event"",""trial"",""time""
""fullscreenenter"",""1"",""4554""
","
","
","""event"",""trial"",""time""
""fullscreenenter"",""1"",""4554""
","
","","","-1","","","24","5028","2935","&#9826;","elianto","#f73b6a7A","-1","-1","1","0","[]","0","0","3","","","","","","","",""
"pit-trial","75","578929","0.0-2.0-14.3-1.3","battery-v0.2","","""event"",""trial"",""time""
""fullscreenenter"",""1"",""4554""
","
","
","""event"",""trial"",""time""
""fullscreenenter"",""1"",""4554""
","
","","","-1","","","24","5028","2935","&#9826;","elianto","#f73b6a7A","-1","-1","1","0","[]","0","0","3","","","","","","","",""
"pit-trial","76","583793","0.0-2.0-14.3-2.3","battery-v0.2","","""event"",""trial"",""time""
""fullscreenenter"",""1"",""4554""
","
","
","""event"",""trial"",""time""
""fullscreenenter"",""1"",""4554""
","
","","","-1","","","24","5028","2935","&#9826;","elianto","#f73b6a7A","-1","-1","1","0","[]","0","0","3","","","","","","","",""
"pit-trial","77","588657","0.0-2.0-14.3-3.3","battery-v0.2","","""event"",""trial"",""time""
""fullscreenenter"",""1"",""4554""
","
","
","""event"",""trial"",""time""
""fullscreenenter"",""1"",""4554""
","
","","","-1","","","24","5028","2935","&#9826;","elianto","#f73b6a7A","-1","-1","1","-10","[]","0","0","3","","","","","","","",""
"pit-trial","78","593521","0.0-2.0-14.3-4.3","battery-v0.2","","""event"",""trial"",""time""
""fullscreenenter"",""1"",""4554""
","
","
","""event"",""trial"",""time""
""fullscreenenter"",""1"",""4554""
","
","","","-1","","","24","5028","2935","&#9826;","elianto","#f73b6a7A","-1","-1","1","0","[]","0","0","3","","","","","","","",""
"call-function","79","593525","0.0-2.0-15.0","battery-v0.2","","""event"",""trial"",""time""
""fullscreenenter"",""1"",""4554""
","
","
","""event"",""trial"",""time""
""fullscreenenter"",""1"",""4554""
","
","","","","","","","","","","","","","","","","","","","","","","","","","","",""
"pit-instructions","80","617902","0.0-2.0-16.0","battery-v0.2","","""event"",""trial"",""time""
""fullscreenenter"",""1"",""4554""
","
","
","""event"",""trial"",""time""
""fullscreenenter"",""1"",""4554""
","
","","[{""page_index"":0,""viewing_time"":6637.300000000745},{""page_index"":1,""viewing_time"":8845.5},{""page_index"":2,""viewing_time"":4148.299999999814},{""page_index"":3,""viewing_time"":4744.200000000186}]","24376.60000000056","","","","","","","","","","","","","","","","","","","","","","","",""
"pit-trial","81","621375","0.0-2.0-17.0-0.0","battery-v0.2","","""event"",""trial"",""time""
""fullscreenenter"",""1"",""4554""
","
","
","""event"",""trial"",""time""
""fullscreenenter"",""1"",""4554""
","
","","","607.7000000001863","","","24","5028","2935","&#9789;","elianto","#f73b6a7A"," "," ","1","0","[1460.5999999996275]","1","0","4","","","","","","","",""
"pit-trial","82","624666","0.0-2.0-17.0-1.0","battery-v0.2","","""event"",""trial"",""time""
""fullscreenenter"",""1"",""4554""
","
","
","""event"",""trial"",""time""
""fullscreenenter"",""1"",""4554""
","
","","","428.19999999925494","","","24","5028","2935","&#9789;","elianto","#f73b6a7A"," "," ","1","0","[1282]","1","0","4","","","","","","","",""
"pit-trial","83","628011","0.0-2.0-17.0-2.0","battery-v0.2","","""event"",""trial"",""time""
""fullscreenenter"",""1"",""4554""
","
","
","""event"",""trial"",""time""
""fullscreenenter"",""1"",""4554""
","
","","","479.90000000037253","","","24","5028","2935","&#9789;","elianto","#f73b6a7A"," "," ","1","0","[1334.2000000001863]","1","0","4","","","","","","","",""
"pit-trial","84","631304","0.0-2.0-17.0-3.0","battery-v0.2","","""event"",""trial"",""time""
""fullscreenenter"",""1"",""4554""
","
","
","""event"",""trial"",""time""
""fullscreenenter"",""1"",""4554""
","
","","","430.5","","","24","5028","2935","&#9789;","elianto","#f73b6a7A"," "," ","1","-10","[1281]","1","0","4","","","","","","","",""
"pit-trial","85","634578","0.0-2.0-17.0-4.0","battery-v0.2","","""event"",""trial"",""time""
""fullscreenenter"",""1"",""4554""
","
","
","""event"",""trial"",""time""
""fullscreenenter"",""1"",""4554""
","
","","","411","","","24","5028","2935","&#9789;","elianto","#f73b6a7A"," "," ","1","0","[1261.7999999998137]","1","0","4","","","","","","","",""
"pit-trial","86","637867","0.0-2.0-17.1-0.1","battery-v0.2","","""event"",""trial"",""time""
""fullscreenenter"",""1"",""4554""
","
","
","""event"",""trial"",""time""
""fullscreenenter"",""1"",""4554""
","
","","","425.70000000018626","","","24","5028","2935","&#9789;","elianto","#f73b6a7A"," "," ","1","0","[1276]","1","0","4","","","","","","","",""
"pit-trial","87","641190","0.0-2.0-17.1-1.1","battery-v0.2","","""event"",""trial"",""time""
""fullscreenenter"",""1"",""4554""
","
","
","""event"",""trial"",""time""
""fullscreenenter"",""1"",""4554""
","
","","","458.79999999981374","","","24","5028","2935","&#9789;","elianto","#f73b6a7A"," "," ","1","0","[1312.5]","1","0","4","","","","","","","",""
"pit-trial","88","644502","0.0-2.0-17.1-2.1","battery-v0.2","","""event"",""trial"",""time""
""fullscreenenter"",""1"",""4554""
","
","
","""event"",""trial"",""time""
""fullscreenenter"",""1"",""4554""
","
","","","454.59999999962747","","","24","5028","2935","&#9789;","elianto","#f73b6a7A"," "," ","1","0","[1305.2999999998137]","1","0","4","","","","","","","",""
"pit-trial","89","647991","0.0-2.0-17.1-3.1","battery-v0.2","","""event"",""trial"",""time""
""fullscreenenter"",""1"",""4554""
","
","
","""event"",""trial"",""time""
""fullscreenenter"",""1"",""4554""
","
","","","628.7999999998137","","","24","5028","2935","&#9789;","elianto","#f73b6a7A"," "," ","1","-10","[1480.5999999996275]","1","0","4","","","","","","","",""
"pit-trial","90","651298","0.0-2.0-17.1-4.1","battery-v0.2","","""event"",""trial"",""time""
""fullscreenenter"",""1"",""4554""
","
","
","""event"",""trial"",""time""
""fullscreenenter"",""1"",""4554""
","
","","","442.29999999981374","","","24","5028","2935","&#9789;","elianto","#f73b6a7A"," "," ","1","0","[1295.7000000001863]","1","0","4","","","","","","","",""
"pit-trial","91","654780","0.0-2.0-17.2-0.2","battery-v0.2","","""event"",""trial"",""time""
""fullscreenenter"",""1"",""4554""
","
","
","""event"",""trial"",""time""
""fullscreenenter"",""1"",""4554""
","
","","","620.3999999994412","","","24","5028","2935","&#9789;","elianto","#f73b6a7A"," "," ","1","0","[1473.0999999996275]","1","0","4","","","","","","","",""
"pit-trial","92","658145","0.0-2.0-17.2-1.2","battery-v0.2","","""event"",""trial"",""time""
""fullscreenenter"",""1"",""4554""
","
","
","""event"",""trial"",""time""
""fullscreenenter"",""1"",""4554""
","
","","","503","","","24","5028","2935","&#9789;","elianto","#f73b6a7A"," "," ","1","0","[1355.0999999996275]","1","0","4","","","","","","","",""
"pit-trial","93","661495","0.0-2.0-17.2-2.2","battery-v0.2","","""event"",""trial"",""time""
""fullscreenenter"",""1"",""4554""
","
","
","""event"",""trial"",""time""
""fullscreenenter"",""1"",""4554""
","
","","","489.09999999962747","","","24","5028","2935","&#9789;","elianto","#f73b6a7A"," "," ","1","0","[1342.300000000745]","1","0","4","","","","","","","",""
"pit-trial","94","664785","0.0-2.0-17.2-3.2","battery-v0.2","","""event"",""trial"",""time""
""fullscreenenter"",""1"",""4554""
","
","
","""event"",""trial"",""time""
""fullscreenenter"",""1"",""4554""
","
","","","428.40000000037253","","","24","5028","2935","&#9789;","elianto","#f73b6a7A"," "," ","1","-10","[1280.699999999255]","1","0","4","","","","","","","",""
"pit-trial","95","668209","0.0-2.0-17.2-4.2","battery-v0.2","","""event"",""trial"",""time""
""fullscreenenter"",""1"",""4554""
","
","
","""event"",""trial"",""time""
""fullscreenenter"",""1"",""4554""
","
","","","564.5999999996275","","","24","5028","2935","&#9789;","elianto","#f73b6a7A"," "," ","1","0","[1416.5]","1","0","4","","","","","","","",""
"pit-trial","96","671479","0.0-2.0-17.3-0.3","battery-v0.2","","""event"",""trial"",""time""
""fullscreenenter"",""1"",""4554""
","
","
","""event"",""trial"",""time""
""fullscreenenter"",""1"",""4554""
","
","","","407.79999999981374","","","24","5028","2935","&#9789;","elianto","#f73b6a7A"," "," ","1","0","[1259.800000000745]","1","0","4","","","","","","","",""
"pit-trial","97","674807","0.0-2.0-17.3-1.3","battery-v0.2","","""event"",""trial"",""time""
""fullscreenenter"",""1"",""4554""
","
","
","""event"",""trial"",""time""
""fullscreenenter"",""1"",""4554""
","
","","","465.5","","","24","5028","2935","&#9789;","elianto","#f73b6a7A"," "," ","1","0","[1317.5]","1","0","4","","","","","","","",""
"pit-trial","98","678103","0.0-2.0-17.3-2.3","battery-v0.2","","""event"",""trial"",""time""
""fullscreenenter"",""1"",""4554""
","
","
","""event"",""trial"",""time""
""fullscreenenter"",""1"",""4554""
","
","","","437.09999999962747","","","24","5028","2935","&#9789;","elianto","#f73b6a7A"," "," ","1","0","[1288.5999999996275]","1","0","4","","","","","","","",""
"pit-trial","99","681387","0.0-2.0-17.3-3.3","battery-v0.2","","""event"",""trial"",""time""
""fullscreenenter"",""1"",""4554""
","
","
","""event"",""trial"",""time""
""fullscreenenter"",""1"",""4554""
","
","","","420.90000000037253","","","24","5028","2935","&#9789;","elianto","#f73b6a7A"," "," ","1","-10","[1272.3999999994412]","1","0","4","","","","","","","",""
"pit-trial","100","684679","0.0-2.0-17.3-4.3","battery-v0.2","","""event"",""trial"",""time""
""fullscreenenter"",""1"",""4554""
","
","
","""event"",""trial"",""time""
""fullscreenenter"",""1"",""4554""
","
","","","431.20000000018626","","","24","5028","2935","&#9789;","elianto","#f73b6a7A"," "," ","1","0","[1281.5999999996275]","1","0","4","","","","","","","",""
"call-function","101","684685","0.0-2.0-18.0","battery-v0.2","","""event"",""trial"",""time""
""fullscreenenter"",""1"",""4554""
","
","
","""event"",""trial"",""time""
""fullscreenenter"",""1"",""4554""
","
","","","","","","","","","","","","","","","","","","","","","","","","","","",""
"pit-instructions","102","747435","0.0-2.0-19.0","battery-v0.2","","""event"",""trial"",""time""
""fullscreenenter"",""1"",""4554""
","
","
","""event"",""trial"",""time""
""fullscreenenter"",""1"",""4554""
","
","","[{""page_index"":0,""viewing_time"":6384.299999999814},{""page_index"":1,""viewing_time"":5768.5},{""page_index"":2,""viewing_time"":8722.100000000559},{""page_index"":3,""viewing_time"":6268.5999999996275},{""page_index"":4,""viewing_time"":8705.900000000373},{""page_index"":5,""viewing_time"":8633.399999999441},{""page_index"":6,""viewing_time"":8289.200000000186},{""page_index"":7,""viewing_time"":5849.5},{""page_index"":8,""viewing_time"":4126.9000000003725}]","62749.799999999814","","","","","","","","","","","","","","","","","","","","","","","",""
"pit-comprehension","103","751816","0.0-2.0-20.0-0.0","battery-v0.2","","""event"",""trial"",""time""
""fullscreenenter"",""1"",""4554""
","
","
","""event"",""trial"",""time""
""fullscreenenter"",""1"",""4554""
","
","","","4372.5999999996275","[""SPACE""]","0","24","5028","2935","","","","","","","","","","","","","","","","","","",""
"pit-instructions","104","755009","0.0-2.0-20.0-1.0","battery-v0.2","","""event"",""trial"",""time""
""fullscreenenter"",""1"",""4554""
","
","
","""event"",""trial"",""time""
""fullscreenenter"",""1"",""4554""
","
","","[{""page_index"":0,""viewing_time"":3159.2000000001863}]","3160.5","","","","","","","","","","","","","","","","","","","","","","","",""
"pit-comprehension","105","759432","0.0-2.0-21.0-0.0","battery-v0.2","","""event"",""trial"",""time""
""fullscreenenter"",""1"",""4554""
","
","
","""event"",""trial"",""time""
""fullscreenenter"",""1"",""4554""
","
","","","4414.899999999441","[""10""]","0","24","5028","2935","","","","","","","","","","","","","","","","","","",""
"pit-instructions","106","762695","0.0-2.0-21.0-1.0","battery-v0.2","","""event"",""trial"",""time""
""fullscreenenter"",""1"",""4554""
","
","
","""event"",""trial"",""time""
""fullscreenenter"",""1"",""4554""
","
","","[{""page_index"":0,""viewing_time"":3229.0999999996275}]","3229.7000000001863","","","","","","","","","","","","","","","","","","","","","","","",""
"pit-comprehension","107","769112","0.0-2.0-22.0-0.0","battery-v0.2","","""event"",""trial"",""time""
""fullscreenenter"",""1"",""4554""
","
","
","""event"",""trial"",""time""
""fullscreenenter"",""1"",""4554""
","
","","","6408.9000000003725","[""0""]","0","24","5028","2935","","","","","","","","","","","","","","","","","","",""
"pit-instructions","108","771135","0.0-2.0-22.0-1.0","battery-v0.2","","""event"",""trial"",""time""
""fullscreenenter"",""1"",""4554""
","
","
","""event"",""trial"",""time""
""fullscreenenter"",""1"",""4554""
","
","","[{""page_index"":0,""viewing_time"":1989.7999999998137}]","1990.3999999994412","","","","","","","","","","","","","","","","","","","","","","","",""
"pit-comprehension","109","780213","0.0-2.0-23.0-0.0","battery-v0.2","","""event"",""trial"",""time""
""fullscreenenter"",""1"",""4554""
","
","
","""event"",""trial"",""time""
""fullscreenenter"",""1"",""4554""
","
","","","9070.799999999814","[""True""]","0","24","5028","2935","","","","","","","","","","","","","","","","","","",""
"pit-instructions","110","781655","0.0-2.0-23.0-1.0","battery-v0.2","","""event"",""trial"",""time""
""fullscreenenter"",""1"",""4554""
","
","
","""event"",""trial"",""time""
""fullscreenenter"",""1"",""4554""
","
","","[{""page_index"":0,""viewing_time"":1410.5999999996275}]","1411.5","","","","","","","","","","","","","","","","","","","","","","","",""
"pit-comprehension","111","789022","0.0-2.0-24.0-0.0","battery-v0.2","","""event"",""trial"",""time""
""fullscreenenter"",""1"",""4554""
","
","
","""event"",""trial"",""time""
""fullscreenenter"",""1"",""4554""
","
","","","7359.299999999814","[""True""]","0","24","5028","2935","","","","","","","","","","","","","","","","","","",""
"pit-instructions","112","791781","0.0-2.0-24.0-1.0","battery-v0.2","","""event"",""trial"",""time""
""fullscreenenter"",""1"",""4554""
","
","
","""event"",""trial"",""time""
""fullscreenenter"",""1"",""4554""
","
","","[{""page_index"":0,""viewing_time"":2721.5}]","2722.2999999998137","","","","","","","","","","","","","","","","","","","","","","","",""
"pit-comprehension","113","798139","0.0-2.0-25.0-0.0","battery-v0.2","","""event"",""trial"",""time""
""fullscreenenter"",""1"",""4554""
","
","
","""event"",""trial"",""time""
""fullscreenenter"",""1"",""4554""
","
","","","6350.4000000003725","[""True""]","0","24","5028","2935","","","","","","","","","","","","","","","","","","",""
"pit-instructions","114","799557","0.0-2.0-25.0-1.0","battery-v0.2","","""event"",""trial"",""time""
""fullscreenenter"",""1"",""4554""
","
","
","""event"",""trial"",""time""
""fullscreenenter"",""1"",""4554""
","
","","[{""page_index"":0,""viewing_time"":1383.2000000001863}]","1383.6000000005588","","","","","","","","","","","","","","","","","","","","","","","",""
"pit-comprehension","115","804707","0.0-2.0-26.0-0.0","battery-v0.2","","""event"",""trial"",""time""
""fullscreenenter"",""1"",""4554""
","
","
","""event"",""trial"",""time""
""fullscreenenter"",""1"",""4554""
","
","","","5142.9000000003725","[""False""]","0","24","5028","2935","","","","","","","","","","","","","","","","","","",""
"pit-instructions","116","806763","0.0-2.0-26.0-1.0","battery-v0.2","","""event"",""trial"",""time""
""fullscreenenter"",""1"",""4554""
","
","
","""event"",""trial"",""time""
""fullscreenenter"",""1"",""4554""
","
","","[{""page_index"":0,""viewing_time"":2024}]","2024.300000000745","","","","","","","","","","","","","","","","","","","","","","","",""
"pit-instructions","117","824866","0.0-3.0","battery-v0.2","","""event"",""trial"",""time""
""fullscreenenter"",""1"",""4554""
","
","
","""event"",""trial"",""time""
""fullscreenenter"",""1"",""4554""
","
","","[{""page_index"":0,""viewing_time"":5405.299999999814},{""page_index"":1,""viewing_time"":5043.4000000003725},{""page_index"":2,""viewing_time"":7649.4000000003725}]","18099","","","","","","","","","","","","","","","","","","","","","","","",""
"pit-trial","118","828606","0.0-4.0","battery-v0.2","","""event"",""trial"",""time""
""fullscreenenter"",""1"",""4554""
","
","
","""event"",""trial"",""time""
""fullscreenenter"",""1"",""4554""
","
","","","874.2999999998137","","","24","5028","2935","&#9728;","elianto","#f73b6a7A","-1"," ","0","-10","[1725.4000000003725]","1","1","","","5028","1","0","4","lose","no-go","0"
"pit-trial","119","832258","0.0-5.0","battery-v0.2","","""event"",""trial"",""time""
""fullscreenenter"",""1"",""4554""
","
","
","""event"",""trial"",""time""
""fullscreenenter"",""1"",""4554""
","
","","","786","","","24","5028","2935","&#9733;","elianto","#3366ff99","-1"," ","0","0","[1640.800000000745]","1","1","","","5028","2","2","2","win","no-go","0"
"pit-trial","120","835918","0.0-6.0","battery-v0.2","","""event"",""trial"",""time""
""fullscreenenter"",""1"",""4554""
","
","
","""event"",""trial"",""time""
""fullscreenenter"",""1"",""4554""
","
","","","795.4000000003725","","","24","5028","2935","&#9752;","elianto","#f73b6a7A"," "," ","1","0","[1647.3999999994412]","1","1","","","5028","3","3","3","lose","go","0"
"pit-trial","121","839641","0.0-7.0","battery-v0.2","","""event"",""trial"",""time""
""fullscreenenter"",""1"",""4554""
","
","
","""event"",""trial"",""time""
""fullscreenenter"",""1"",""4554""
","
","","","859.5","","","24","5028","2935","&#9730;","elianto","#3366ff99"," "," ","1","+10","[1711.5999999996275]","1","1","","","5028","4","1","1","win","go","0"
"pit-trial","122","843450","0.0-8.0","battery-v0.2","","""event"",""trial"",""time""
""fullscreenenter"",""1"",""4554""
","
","
","""event"",""trial"",""time""
""fullscreenenter"",""1"",""4554""
","
","","","943.8999999994412","","","24","5028","2935","&#9752;","elianto","#f73b6a7A"," "," ","1","0","[1797.3999999994412]","1","1","","","5028","5","3","3","lose","go","0"
"pit-trial","123","847133","0.0-9.0","battery-v0.2","","""event"",""trial"",""time""
""fullscreenenter"",""1"",""4554""
","
","
","""event"",""trial"",""time""
""fullscreenenter"",""1"",""4554""
","
","","","822.5","","","24","5028","2935","&#9730;","elianto","#3366ff99"," "," ","1","+10","[1675.7000000001863]","1","1","","","5028","6","1","1","win","go","0"
"pit-trial","124","852002","0.0-10.0","battery-v0.2","","""event"",""trial"",""time""
""fullscreenenter"",""1"",""4554""
","
","
","""event"",""trial"",""time""
""fullscreenenter"",""1"",""4554""
","
","","","-1","","","24","5028","2935","&#9728;","elianto","#f73b6a7A","-1","-1","1","-10","[]","0","1","","","5028","7","0","4","lose","no-go","1"
"pit-trial","125","856863","0.0-11.0","battery-v0.2","","""event"",""trial"",""time""
""fullscreenenter"",""1"",""4554""
","
","
","""event"",""trial"",""time""
""fullscreenenter"",""1"",""4554""
","
","","","-1","","","24","5028","2935","&#9733;","elianto","#3366ff99","-1","-1","1","+10","[]","0","1","","","5028","8","2","2","win","no-go","0"
"pit-trial","126","860541","0.0-12.0","battery-v0.2","","""event"",""trial"",""time""
""fullscreenenter"",""1"",""4554""
","
","
","""event"",""trial"",""time""
""fullscreenenter"",""1"",""4554""
","
","","","814.9000000003725","","","24","5028","2935","&#9730;","elianto","#3366ff99"," "," ","1","+10","[1667.4000000003725]","1","1","","","5028","9","1","1","win","go","0"
"pit-trial","127","865407","0.0-13.0","battery-v0.2","","""event"",""trial"",""time""
""fullscreenenter"",""1"",""4554""
","
","
","""event"",""trial"",""time""
""fullscreenenter"",""1"",""4554""
","
","","","-1","","","24","5028","2935","&#9733;","elianto","#3366ff99","-1","-1","1","+10","[]","0","1","","","5028","10","2","2","win","no-go","0"
"pit-trial","128","870271","0.0-14.0","battery-v0.2","","""event"",""trial"",""time""
""fullscreenenter"",""1"",""4554""
","
","
","""event"",""trial"",""time""
""fullscreenenter"",""1"",""4554""
","
","","","-1","","","24","5028","2935","&#9728;","elianto","#f73b6a7A","-1","-1","1","0","[]","0","1","","","5028","11","0","4","lose","no-go","0"
"pit-trial","129","873796","0.0-15.0","battery-v0.2","","""event"",""trial"",""time""
""fullscreenenter"",""1"",""4554""
","
","
","""event"",""trial"",""time""
""fullscreenenter"",""1"",""4554""
","
","","","667.4000000003725","","","24","5028","2935","&#9752;","elianto","#f73b6a7A"," "," ","1","0","[1518.6000000005588]","1","1","","","5028","12","3","3","lose","go","0"
"pit-trial","130","878660","0.0-16.0","battery-v0.2","","""event"",""trial"",""time""
""fullscreenenter"",""1"",""4554""
","
","
","""event"",""trial"",""time""
""fullscreenenter"",""1"",""4554""
","
","","","-1","","","24","5028","2935","&#9728;","elianto","#f73b6a7A","-1","-1","1","0","[]","0","1","","","5028","13","0","4","lose","no-go","0"
"pit-trial","131","882244","0.0-17.0","battery-v0.2","","""event"",""trial"",""time""
""fullscreenenter"",""1"",""4554""
","
","
","""event"",""trial"",""time""
""fullscreenenter"",""1"",""4554""
","
","","","720.4000000003725","","","24","5028","2935","&#9730;","elianto","#3366ff99"," "," ","1","0","[1572.199999999255]","1","1","","","5028","14","1","1","win","go","1"
"pit-trial","132","886127","0.0-18.0","battery-v0.2","","""event"",""trial"",""time""
""fullscreenenter"",""1"",""4554""
","
","
","""event"",""trial"",""time""
""fullscreenenter"",""1"",""4554""
","
","","","1019.2999999998137","","","24","5028","2935","&#9752;","elianto","#f73b6a7A"," "," ","1","0","[1871.4000000003725]","1","1","","","5028","15","3","3","lose","go","0"
"pit-trial","133","890991","0.0-19.0","battery-v0.2","","""event"",""trial"",""time""
""fullscreenenter"",""1"",""4554""
","
","
","""event"",""trial"",""time""
""fullscreenenter"",""1"",""4554""
","
","","","-1","","","24","5028","2935","&#9733;","elianto","#3366ff99","-1","-1","1","+10","[]","0","1","","","5028","16","2","2","win","no-go","0"
"pit-trial","134","895855","0.0-20.0","battery-v0.2","","""event"",""trial"",""time""
""fullscreenenter"",""1"",""4554""
","
","
","""event"",""trial"",""time""
""fullscreenenter"",""1"",""4554""
","
","","","-1","","","24","5028","2935","&#9728;","elianto","#f73b6a7A","-1","-1","1","0","[]","0","1","","","5028","17","0","4","lose","no-go","0"
"pit-trial","135","899551","0.0-21.0","battery-v0.2","","""event"",""trial"",""time""
""fullscreenenter"",""1"",""4554""
","
","
","""event"",""trial"",""time""
""fullscreenenter"",""1"",""4554""
","
","","","836.8999999994412","","","24","5028","2935","&#9752;","elianto","#f73b6a7A"," "," ","1","-10","[1688]","1","1","","","5028","18","3","3","lose","go","1"
"pit-trial","136","904415","0.0-22.0","battery-v0.2","","""event"",""trial"",""time""
""fullscreenenter"",""1"",""4554""
","
","
","""event"",""trial"",""time""
""fullscreenenter"",""1"",""4554""
","
","","","-1","","","24","5028","2935","&#9733;","elianto","#3366ff99","-1","-1","1","+10","[]","0","1","","","5028","19","2","2","win","no-go","0"
"pit-trial","137","907897","0.0-23.0","battery-v0.2","","""event"",""trial"",""time""
""fullscreenenter"",""1"",""4554""
","
","
","""event"",""trial"",""time""
""fullscreenenter"",""1"",""4554""
","
","","","619.0999999996275","","","24","5028","2935","&#9730;","elianto","#3366ff99"," "," ","1","+10","[1472.5]","1","1","","","5028","20","1","1","win","go","0"
"pit-instructions","138","920243","0.0-24.0","battery-v0.2","","""event"",""trial"",""time""
""fullscreenenter"",""1"",""4554""
","
","
","""event"",""trial"",""time""
""fullscreenenter"",""1"",""4554""
","
","","[{""page_index"":0,""viewing_time"":5532.399999999441},{""page_index"":1,""viewing_time"":6807.799999999814}]","12340.799999999814","","","","","","","","","","","","","","","","","","","","","","","",""
"pit-trial","139","925104","0.0-25.0","battery-v0.2","","""event"",""trial"",""time""
""fullscreenenter"",""1"",""4554""
","
","
","""event"",""trial"",""time""
""fullscreenenter"",""1"",""4554""
","
","","","-1","","","24","5028","2935","b","elianto","#f73b6a7A","-1","-1","1","0","[]","0","2","","","5028","21","3","4","lose","no-go","0"
"pit-trial","140","929402","0.0-26.0","battery-v0.2","","""event"",""trial"",""time""
""fullscreenenter"",""1"",""4554""
","
","
","""event"",""trial"",""time""
""fullscreenenter"",""1"",""4554""
","
","","","1438.300000000745","","","24","5028","2935","f","elianto","#3366ff99","-1"," ","0","0","[2289]","1","2","","","5028","22","1","2","win","no-go","0"
"pit-trial","141","934162","0.0-27.0","battery-v0.2","","""event"",""trial"",""time""
""fullscreenenter"",""1"",""4554""
","
","
","""event"",""trial"",""time""
""fullscreenenter"",""1"",""4554""
","
","","","1897.6000000005588","","","24","5028","2935","t","elianto","#f73b6a7A"," "," ","1","0","[2747.699999999255]","1","2","","","5028","23","2","3","lose","go","0"
"pit-trial","142","939028","0.0-28.0","battery-v0.2","","""event"",""trial"",""time""
""fullscreenenter"",""1"",""4554""
","
","
","""event"",""trial"",""time""
""fullscreenenter"",""1"",""4554""
","
","","","-1","","","24","5028","2935","n","elianto","#f73b6a7A"," ","-1","0","-10","[]","0","2","","","5028","24","0","3","lose","go","0"
"pit-trial","143","943891","0.0-29.0","battery-v0.2","","""event"",""trial"",""time""
""fullscreenenter"",""1"",""4554""
","
","
","""event"",""trial"",""time""
""fullscreenenter"",""1"",""4554""
","
","","","-1","","","24","5028","2935","f","elianto","#3366ff99","-1","-1","1","+10","[]","0","2","","","5028","25","1","2","win","no-go","0"
"pit-trial","144","947674","0.0-30.0","battery-v0.2","","""event"",""trial"",""time""
""fullscreenenter"",""1"",""4554""
","
","
","""event"",""trial"",""time""
""fullscreenenter"",""1"",""4554""
","
","","","919.5","","","24","5028","2935","n","elianto","#f73b6a7A"," "," ","1","0","[1771.7999999998137]","1","2","","","5028","26","0","3","lose","go","0"
"pit-trial","145","952406","0.0-31.0","battery-v0.2","","""event"",""trial"",""time""
""fullscreenenter"",""1"",""4554""
","
","
","""event"",""trial"",""time""
""fullscreenenter"",""1"",""4554""
","
","","","1867.5999999996275","","","24","5028","2935","t","elianto","#f73b6a7A"," "," ","1","-10","[2721.2000000001863]","1","2","","","5028","27","2","3","lose","go","1"
"pit-trial","146","957270","0.0-32.0","battery-v0.2","","""event"",""trial"",""time""
""fullscreenenter"",""1"",""4554""
","
","
","""event"",""trial"",""time""
""fullscreenenter"",""1"",""4554""
","
","","","-1","","","24","5028","2935","b","elianto","#f73b6a7A","-1","-1","1","-10","[]","0","2","","","5028","28","3","4","lose","no-go","1"
"pit-trial","147","961936","0.0-33.0","battery-v0.2","","""event"",""trial"",""time""
""fullscreenenter"",""1"",""4554""
","
","
","""event"",""trial"",""time""
""fullscreenenter"",""1"",""4554""
","
","","","1807.300000000745","","","24","5028","2935","n","elianto","#f73b6a7A"," "," ","1","0","[2658.0999999996275]","1","2","","","5028","29","0","3","lose","go","0"
"pit-trial","148","966798","0.0-34.0","battery-v0.2","","""event"",""trial"",""time""
""fullscreenenter"",""1"",""4554""
","
","
","""event"",""trial"",""time""
""fullscreenenter"",""1"",""4554""
","
","","","-1","","","24","5028","2935","t","elianto","#f73b6a7A"," ","-1","0","-10","[]","0","2","","","5028","30","2","3","lose","go","0"
"pit-trial","149","971664","0.0-35.0","battery-v0.2","","""event"",""trial"",""time""
""fullscreenenter"",""1"",""4554""
","
","
","""event"",""trial"",""time""
""fullscreenenter"",""1"",""4554""
","
","","","-1","","","24","5028","2935","b","elianto","#f73b6a7A","-1","-1","1","-10","[]","0","2","","","5028","31","3","4","lose","no-go","1"
"pit-trial","150","976528","0.0-36.0","battery-v0.2","","""event"",""trial"",""time""
""fullscreenenter"",""1"",""4554""
","
","
","""event"",""trial"",""time""
""fullscreenenter"",""1"",""4554""
","
","","","-1","","","24","5028","2935","f","elianto","#3366ff99","-1","-1","1","+10","[]","0","2","","","5028","32","1","2","win","no-go","0"
"pit-trial","151","980475","0.0-37.0","battery-v0.2","","""event"",""trial"",""time""
""fullscreenenter"",""1"",""4554""
","
","
","""event"",""trial"",""time""
""fullscreenenter"",""1"",""4554""
","
","","","1085","","","24","5028","2935","n","elianto","#f73b6a7A"," "," ","1","-10","[1938]","1","2","","","5028","33","0","3","lose","go","1"
"pit-trial","152","985338","0.0-38.0","battery-v0.2","","""event"",""trial"",""time""
""fullscreenenter"",""1"",""4554""
","
","
","""event"",""trial"",""time""
""fullscreenenter"",""1"",""4554""
","
","","","-1","","","24","5028","2935","f","elianto","#3366ff99","-1","-1","1","+10","[]","0","2","","","5028","34","1","2","win","no-go","0"
"pit-trial","153","989093","0.0-39.0","battery-v0.2","","""event"",""trial"",""time""
""fullscreenenter"",""1"",""4554""
","
","
","""event"",""trial"",""time""
""fullscreenenter"",""1"",""4554""
","
","","","893.7000000001863","","","24","5028","2935","b","elianto","#f73b6a7A","-1"," ","0","0","[1748.2999999998137]","1","2","","","5028","35","3","4","lose","no-go","1"
"pit-trial","154","993957","0.0-40.0","battery-v0.2","","""event"",""trial"",""time""
""fullscreenenter"",""1"",""4554""
","
","
","""event"",""trial"",""time""
""fullscreenenter"",""1"",""4554""
","
","","","-1","","","24","5028","2935","t","elianto","#f73b6a7A"," ","-1","0","0","[]","0","2","","","5028","36","2","3","lose","go","1"
"pit-trial","155","998821","0.0-41.0","battery-v0.2","","""event"",""trial"",""time""
""fullscreenenter"",""1"",""4554""
","
","
","""event"",""trial"",""time""
""fullscreenenter"",""1"",""4554""
","
","","","-1","","","24","5028","2935","t","elianto","#f73b6a7A"," ","-1","0","0","[]","0","2","","","5028","37","2","3","lose","go","1"
"pit-trial","156","1003685","0.0-42.0","battery-v0.2","","""event"",""trial"",""time""
""fullscreenenter"",""1"",""4554""
","
","
","""event"",""trial"",""time""
""fullscreenenter"",""1"",""4554""
","
","","","-1","","","24","5028","2935","f","elianto","#3366ff99","-1","-1","1","0","[]","0","2","","","5028","38","1","2","win","no-go","1"
"pit-trial","157","1008122","0.0-43.0","battery-v0.2","","""event"",""trial"",""time""
""fullscreenenter"",""1"",""4554""
","
","
","""event"",""trial"",""time""
""fullscreenenter"",""1"",""4554""
","
","","","1574.2999999998137","","","24","5028","2935","n","elianto","#f73b6a7A"," "," ","1","-10","[2425.7000000001863]","1","2","","","5028","39","0","3","lose","go","1"
"pit-trial","158","1012986","0.0-44.0","battery-v0.2","","""event"",""trial"",""time""
""fullscreenenter"",""1"",""4554""
","
","
","""event"",""trial"",""time""
""fullscreenenter"",""1"",""4554""
","
","","","-1","","","24","5028","2935","b","elianto","#f73b6a7A","-1","-1","1","0","[]","0","2","","","5028","40","3","4","lose","no-go","0"
"pit-trial","159","1017850","0.0-45.0","battery-v0.2","","""event"",""trial"",""time""
""fullscreenenter"",""1"",""4554""
","
","
","""event"",""trial"",""time""
""fullscreenenter"",""1"",""4554""
","
","","","-1","","","24","5028","2935","f","elianto","#3366ff99","-1","-1","1","+10","[]","0","2","","","5028","41","1","2","win","no-go","0"
"pit-trial","160","1022368","0.0-46.0","battery-v0.2","","""event"",""trial"",""time""
""fullscreenenter"",""1"",""4554""
","
","
","""event"",""trial"",""time""
""fullscreenenter"",""1"",""4554""
","
","","","1654.6000000005588","","","24","5028","2935","b","elianto","#f73b6a7A","-1"," ","0","-10","[2504.7000000001863]","1","2","","","5028","42","3","4","lose","no-go","0"
"pit-trial","161","1027232","0.0-47.0","battery-v0.2","","""event"",""trial"",""time""
""fullscreenenter"",""1"",""4554""
","
","
","""event"",""trial"",""time""
""fullscreenenter"",""1"",""4554""
","
","","","-1","","","24","5028","2935","n","elianto","#f73b6a7A"," ","-1","0","-10","[3869.100000000559]","1","2","","","5028","43","0","3","lose","go","0"
"pit-trial","162","1032096","0.0-48.0","battery-v0.2","","""event"",""trial"",""time""
""fullscreenenter"",""1"",""4554""
","
","
","""event"",""trial"",""time""
""fullscreenenter"",""1"",""4554""
","
","","","-1","","","24","5028","2935","t","elianto","#f73b6a7A"," ","-1","0","-10","[]","0","2","","","5028","44","2","3","lose","go","0"
"pit-trial","163","1036960","0.0-49.0","battery-v0.2","","""event"",""trial"",""time""
""fullscreenenter"",""1"",""4554""
","
","
","""event"",""trial"",""time""
""fullscreenenter"",""1"",""4554""
","
","","","-1","","","24","5028","2935","f","elianto","#3366ff99","-1","-1","1","+10","[]","0","2","","","5028","45","1","2","win","no-go","0"
"pit-trial","164","1040490","0.0-50.0","battery-v0.2","","""event"",""trial"",""time""
""fullscreenenter"",""1"",""4554""
","
","
","""event"",""trial"",""time""
""fullscreenenter"",""1"",""4554""
","
","","","666.2000000001863","","","24","5028","2935","n","elianto","#f73b6a7A"," "," ","1","-10","[1517.5]","1","2","","","5028","46","0","3","lose","go","1"
"pit-trial","165","1045354","0.0-51.0","battery-v0.2","","""event"",""trial"",""time""
""fullscreenenter"",""1"",""4554""
","
","
","""event"",""trial"",""time""
""fullscreenenter"",""1"",""4554""
","
","","","-1","","","24","5028","2935","t","elianto","#f73b6a7A"," ","-1","0","-10","[]","0","2","","","5028","47","2","3","lose","go","0"
"pit-trial","166","1049178","0.0-52.0","battery-v0.2","","""event"",""trial"",""time""
""fullscreenenter"",""1"",""4554""
","
","
","""event"",""trial"",""time""
""fullscreenenter"",""1"",""4554""
","
","","","964.5","","","24","5028","2935","b","elianto","#f73b6a7A","-1"," ","0","-10","[1815]","1","2","","","5028","48","3","4","lose","no-go","0"
"pit-trial","167","1053016","0.0-53.0","battery-v0.2","","""event"",""trial"",""time""
""fullscreenenter"",""1"",""4554""
","
","
","""event"",""trial"",""time""
""fullscreenenter"",""1"",""4554""
","
","","","974.1000000005588","","","24","5028","2935","n","elianto","#f73b6a7A"," "," ","1","0","[1825.5999999996275]","1","2","","","5028","49","0","3","lose","go","0"
"pit-trial","168","1057882","0.0-54.0","battery-v0.2","","""event"",""trial"",""time""
""fullscreenenter"",""1"",""4554""
","
","
","""event"",""trial"",""time""
""fullscreenenter"",""1"",""4554""
","
","","","-1","","","24","5028","2935","t","elianto","#f73b6a7A"," ","-1","0","-10","[2945.7999999998137]","1","2","","","5028","50","2","3","lose","go","0"
"pit-trial","169","1061733","0.0-55.0","battery-v0.2","","""event"",""trial"",""time""
""fullscreenenter"",""1"",""4554""
","
","
","""event"",""trial"",""time""
""fullscreenenter"",""1"",""4554""
","
","","","989.1000000005588","","","24","5028","2935","b","elianto","#f73b6a7A","-1"," ","0","-10","[1840.7000000001863]","1","2","","","5028","51","3","4","lose","no-go","0"
"pit-trial","170","1066596","0.0-56.0","battery-v0.2","","""event"",""trial"",""time""
""fullscreenenter"",""1"",""4554""
","
","
","""event"",""trial"",""time""
""fullscreenenter"",""1"",""4554""
","
","","","-1","","","24","5028","2935","f","elianto","#3366ff99","-1","-1","1","+10","[]","0","2","","","5028","52","1","2","win","no-go","0"
"pit-trial","171","1071460","0.0-57.0","battery-v0.2","","""event"",""trial"",""time""
""fullscreenenter"",""1"",""4554""
","
","
","""event"",""trial"",""time""
""fullscreenenter"",""1"",""4554""
","
","","","-1","","","24","5028","2935","f","elianto","#3366ff99","-1","-1","1","+10","[]","0","2","","","5028","53","1","2","win","no-go","0"
"pit-trial","172","1076206","0.0-58.0","battery-v0.2","","""event"",""trial"",""time""
""fullscreenenter"",""1"",""4554""
","
","
","""event"",""trial"",""time""
""fullscreenenter"",""1"",""4554""
","
","","","1887.5","","","24","5028","2935","b","elianto","#f73b6a7A","-1"," ","0","0","[2739.800000000745]","1","2","","","5028","54","3","4","lose","no-go","1"
"pit-trial","173","1079582","0.0-59.0","battery-v0.2","","""event"",""trial"",""time""
""fullscreenenter"",""1"",""4554""
","
","
","""event"",""trial"",""time""
""fullscreenenter"",""1"",""4554""
","
","","","513.8999999994412","","","24","5028","2935","t","elianto","#f73b6a7A"," "," ","1","-10","[1366.6000000005588]","1","2","","","5028","55","2","3","lose","go","1"
"pit-trial","174","1082953","0.0-60.0","battery-v0.2","","""event"",""trial"",""time""
""fullscreenenter"",""1"",""4554""
","
","
","""event"",""trial"",""time""
""fullscreenenter"",""1"",""4554""
","
","","","511.09999999962747","","","24","5028","2935","n","elianto","#f73b6a7A"," "," ","1","0","[1362.5]","1","2","","","5028","56","0","3","lose","go","0"
"pit-trial","175","1086478","0.0-61.0","battery-v0.2","","""event"",""trial"",""time""
""fullscreenenter"",""1"",""4554""
","
","
","""event"",""trial"",""time""
""fullscreenenter"",""1"",""4554""
","
","","","666.9000000003725","","","24","5028","2935","t","elianto","#f73b6a7A"," "," ","1","0","[1518.2000000001863]","1","2","","","5028","57","2","3","lose","go","0"
"pit-trial","176","1089940","0.0-62.0","battery-v0.2","","""event"",""trial"",""time""
""fullscreenenter"",""1"",""4554""
","
","
","""event"",""trial"",""time""
""fullscreenenter"",""1"",""4554""
","
","","","596.4000000003725","","","24","5028","2935","n","elianto","#f73b6a7A"," "," ","1","0","[1451.4000000003725]","1","2","","","5028","58","0","3","lose","go","0"
"pit-trial","177","1093353","0.0-63.0","battery-v0.2","","""event"",""trial"",""time""
""fullscreenenter"",""1"",""4554""
","
","
","""event"",""trial"",""time""
""fullscreenenter"",""1"",""4554""
","
","","","550.1000000005588","","","24","5028","2935","b","elianto","#f73b6a7A","-1"," ","0","-10","[1402.7000000001863]","1","2","","","5028","59","3","4","lose","no-go","0"
"pit-trial","178","1097194","0.0-64.0","battery-v0.2","","""event"",""trial"",""time""
""fullscreenenter"",""1"",""4554""
","
","
","""event"",""trial"",""time""
""fullscreenenter"",""1"",""4554""
","
","","","977.5","","","24","5028","2935","c","elianto","#3366ff99"," "," ","1","+10","[1829.300000000745]","1","2","","","5028","60","4","1","win","go","0"
"pit-trial","179","1102059","0.0-65.0","battery-v0.2","","""event"",""trial"",""time""
""fullscreenenter"",""1"",""4554""
","
","
","""event"",""trial"",""time""
""fullscreenenter"",""1"",""4554""
","
","","","-1","","","24","5028","2935","f","elianto","#3366ff99","-1","-1","1","+10","[]","0","2","","","5028","61","1","2","win","no-go","0"
"pit-trial","180","1106069","0.0-66.0","battery-v0.2","","""event"",""trial"",""time""
""fullscreenenter"",""1"",""4554""
","
","
","""event"",""trial"",""time""
""fullscreenenter"",""1"",""4554""
","
","","","1145.2999999998137","","","24","5028","2935","b","elianto","#f73b6a7A","-1"," ","0","-10","[1997.1000000005588]","1","2","","","5028","62","3","4","lose","no-go","0"
"pit-trial","181","1109507","0.0-67.0","battery-v0.2","","""event"",""trial"",""time""
""fullscreenenter"",""1"",""4554""
","
","
","""event"",""trial"",""time""
""fullscreenenter"",""1"",""4554""
","
","","","576.7000000001863","","","24","5028","2935","t","elianto","#f73b6a7A"," "," ","1","0","[1429.699999999255]","1","2","","","5028","63","2","3","lose","go","0"
"pit-trial","182","1113044","0.0-68.0","battery-v0.2","","""event"",""trial"",""time""
""fullscreenenter"",""1"",""4554""
","
","
","""event"",""trial"",""time""
""fullscreenenter"",""1"",""4554""
","
","","","675.5","","","24","5028","2935","c","elianto","#3366ff99"," "," ","1","+10","[1526.199999999255]","1","2","","","5028","64","4","1","win","go","0"
"pit-trial","183","1117909","0.0-69.0","battery-v0.2","","""event"",""trial"",""time""
""fullscreenenter"",""1"",""4554""
","
","
","""event"",""trial"",""time""
""fullscreenenter"",""1"",""4554""
","
","","","-1","","","24","5028","2935","b","elianto","#f73b6a7A","-1","-1","1","0","[]","0","2","","","5028","65","3","4","lose","no-go","0"
"pit-trial","184","1122774","0.0-70.0","battery-v0.2","","""event"",""trial"",""time""
""fullscreenenter"",""1"",""4554""
","
","
","""event"",""trial"",""time""
""fullscreenenter"",""1"",""4554""
","
","","","-1","","","24","5028","2935","f","elianto","#3366ff99","-1","-1","1","+10","[]","0","2","","","5028","66","1","2","win","no-go","0"
"pit-trial","185","1126582","0.0-71.0","battery-v0.2","","""event"",""trial"",""time""
""fullscreenenter"",""1"",""4554""
","
","
","""event"",""trial"",""time""
""fullscreenenter"",""1"",""4554""
","
","","","947.1000000005588","","","24","5028","2935","z","elianto","#3366ff99","-1"," ","0","0","[1797.7999999998137]","1","2","","","5028","67","5","2","win","no-go","0"
"pit-trial","186","1130040","0.0-72.0","battery-v0.2","","""event"",""trial"",""time""
""fullscreenenter"",""1"",""4554""
","
","
","""event"",""trial"",""time""
""fullscreenenter"",""1"",""4554""
","
","","","596.5","","","24","5028","2935","c","elianto","#3366ff99"," "," ","1","+10","[1447.2999999998137]","1","2","","","5028","68","4","1","win","go","0"
"pit-trial","187","1134902","0.0-73.0","battery-v0.2","","""event"",""trial"",""time""
""fullscreenenter"",""1"",""4554""
","
","
","""event"",""trial"",""time""
""fullscreenenter"",""1"",""4554""
","
","","","-1","","","24","5028","2935","f","elianto","#3366ff99","-1","-1","1","+10","[]","0","2","","","5028","69","1","2","win","no-go","0"
"pit-trial","188","1138534","0.0-74.0","battery-v0.2","","""event"",""trial"",""time""
""fullscreenenter"",""1"",""4554""
","
","
","""event"",""trial"",""time""
""fullscreenenter"",""1"",""4554""
","
","","","768.8000000007451","","","24","5028","2935","t","elianto","#f73b6a7A"," "," ","1","-10","[1620.5]","1","2","","","5028","70","2","3","lose","go","1"
"pit-trial","189","1143399","0.0-75.0","battery-v0.2","","""event"",""trial"",""time""
""fullscreenenter"",""1"",""4554""
","
","
","""event"",""trial"",""time""
""fullscreenenter"",""1"",""4554""
","
","","","-1","","","24","5028","2935","z","elianto","#3366ff99","-1","-1","1","+10","[]","0","2","","","5028","71","5","2","win","no-go","0"
"pit-trial","190","1147411","0.0-76.0","battery-v0.2","","""event"",""trial"",""time""
""fullscreenenter"",""1"",""4554""
","
","
","""event"",""trial"",""time""
""fullscreenenter"",""1"",""4554""
","
","","","1148.0999999996275","","","24","5028","2935","c","elianto","#3366ff99"," "," ","1","+10","[1998.7999999998137]","1","2","","","5028","72","4","1","win","go","0"
"pit-trial","191","1152273","0.0-77.0","battery-v0.2","","""event"",""trial"",""time""
""fullscreenenter"",""1"",""4554""
","
","
","""event"",""trial"",""time""
""fullscreenenter"",""1"",""4554""
","
","","","-1","","","24","5028","2935","f","elianto","#3366ff99","-1","-1","1","0","[]","0","2","","","5028","73","1","2","win","no-go","1"
"pit-trial","192","1157137","0.0-78.0","battery-v0.2","","""event"",""trial"",""time""
""fullscreenenter"",""1"",""4554""
","
","
","""event"",""trial"",""time""
""fullscreenenter"",""1"",""4554""
","
","","","-1","","","24","5028","2935","b","elianto","#f73b6a7A","-1","-1","1","0","[]","0","2","","","5028","74","3","4","lose","no-go","0"
"pit-trial","193","1162001","0.0-79.0","battery-v0.2","","""event"",""trial"",""time""
""fullscreenenter"",""1"",""4554""
","
","
","""event"",""trial"",""time""
""fullscreenenter"",""1"",""4554""
","
","","","-1","","","24","5028","2935","z","elianto","#3366ff99","-1","-1","1","+10","[]","0","2","","","5028","75","5","2","win","no-go","0"
"pit-trial","194","1165723","0.0-80.0","battery-v0.2","","""event"",""trial"",""time""
""fullscreenenter"",""1"",""4554""
","
","
","""event"",""trial"",""time""
""fullscreenenter"",""1"",""4554""
","
","","","863.5999999996275","","","24","5028","2935","c","elianto","#3366ff99"," "," ","1","+10","[1716.7999999998137]","1","2","","","5028","76","4","1","win","go","0"
"pit-trial","195","1169366","0.0-81.0","battery-v0.2","","""event"",""trial"",""time""
""fullscreenenter"",""1"",""4554""
","
","
","""event"",""trial"",""time""
""fullscreenenter"",""1"",""4554""
","
","","","779.5","","","24","5028","2935","c","elianto","#3366ff99"," "," ","1","+10","[1631.5]","1","2","","","5028","77","4","1","win","go","0"
"pit-trial","196","1174230","0.0-82.0","battery-v0.2","","""event"",""trial"",""time""
""fullscreenenter"",""1"",""4554""
","
","
","""event"",""trial"",""time""
""fullscreenenter"",""1"",""4554""
","
","","","-1","","","24","5028","2935","z","elianto","#3366ff99","-1","-1","1","+10","[]","0","2","","","5028","78","5","2","win","no-go","0"
"pit-trial","197","1177803","0.0-83.0","battery-v0.2","","""event"",""trial"",""time""
""fullscreenenter"",""1"",""4554""
","
","
","""event"",""trial"",""time""
""fullscreenenter"",""1"",""4554""
","
","","","711.4000000003725","","","24","5028","2935","c","elianto","#3366ff99"," "," ","1","0","[1564.5999999996275]","1","2","","","5028","79","4","1","win","go","1"
"pit-trial","198","1182667","0.0-84.0","battery-v0.2","","""event"",""trial"",""time""
""fullscreenenter"",""1"",""4554""
","
","
","""event"",""trial"",""time""
""fullscreenenter"",""1"",""4554""
","
","","","-1","","","24","5028","2935","b","elianto","#f73b6a7A","-1","-1","1","0","[]","0","2","","","5028","80","3","4","lose","no-go","0"
"pit-trial","199","1187531","0.0-85.0","battery-v0.2","","""event"",""trial"",""time""
""fullscreenenter"",""1"",""4554""
","
","
","""event"",""trial"",""time""
""fullscreenenter"",""1"",""4554""
","
","","","-1","","","24","5028","2935","b","elianto","#f73b6a7A","-1","-1","1","0","[]","0","2","","","5028","81","3","4","lose","no-go","0"
"pit-trial","200","1192395","0.0-86.0","battery-v0.2","","""event"",""trial"",""time""
""fullscreenenter"",""1"",""4554""
","
","
","""event"",""trial"",""time""
""fullscreenenter"",""1"",""4554""
","
","","","-1","","","24","5028","2935","z","elianto","#3366ff99","-1","-1","1","+10","[]","0","2","","","5028","82","5","2","win","no-go","0"
"pit-trial","201","1196534","0.0-87.0","battery-v0.2","","""event"",""trial"",""time""
""fullscreenenter"",""1"",""4554""
","
","
","""event"",""trial"",""time""
""fullscreenenter"",""1"",""4554""
","
","","","1280.6000000005588","","","24","5028","2935","y","elianto","#f73b6a7A","-1"," ","0","-10","[2130.5999999996275]","1","2","","","5028","83","7","4","lose","no-go","0"
"pit-trial","202","1200285","0.0-88.0","battery-v0.2","","""event"",""trial"",""time""
""fullscreenenter"",""1"",""4554""
","
","
","""event"",""trial"",""time""
""fullscreenenter"",""1"",""4554""
","
","","","888.2999999998137","","","24","5028","2935","c","elianto","#3366ff99"," "," ","1","+10","[1741.300000000745]","1","2","","","5028","84","4","1","win","go","0"
"pit-trial","203","1204256","0.0-89.0","battery-v0.2","","""event"",""trial"",""time""
""fullscreenenter"",""1"",""4554""
","
","
","""event"",""trial"",""time""
""fullscreenenter"",""1"",""4554""
","
","","","1110.199999999255","","","24","5028","2935","h","elianto","#f73b6a7A"," "," ","1","-10","[1961]","1","2","","","5028","85","6","3","lose","go","1"
"pit-trial","204","1209121","0.0-90.0","battery-v0.2","","""event"",""trial"",""time""
""fullscreenenter"",""1"",""4554""
","
","
","""event"",""trial"",""time""
""fullscreenenter"",""1"",""4554""
","
","","","-1","","","24","5028","2935","y","elianto","#f73b6a7A","-1","-1","1","0","[]","0","2","","","5028","86","7","4","lose","no-go","0"
"pit-trial","205","1212907","0.0-91.0","battery-v0.2","","""event"",""trial"",""time""
""fullscreenenter"",""1"",""4554""
","
","
","""event"",""trial"",""time""
""fullscreenenter"",""1"",""4554""
","
","","","919.5","","","24","5028","2935","c","elianto","#3366ff99"," "," ","1","+10","[1774.0999999996275]","1","2","","","5028","87","4","1","win","go","0"
"pit-trial","206","1217771","0.0-92.0","battery-v0.2","","""event"",""trial"",""time""
""fullscreenenter"",""1"",""4554""
","
","
","""event"",""trial"",""time""
""fullscreenenter"",""1"",""4554""
","
","","","-1","","","24","5028","2935","z","elianto","#3366ff99","-1","-1","1","+10","[]","0","2","","","5028","88","5","2","win","no-go","0"
"pit-trial","207","1222635","0.0-93.0","battery-v0.2","","""event"",""trial"",""time""
""fullscreenenter"",""1"",""4554""
","
","
","""event"",""trial"",""time""
""fullscreenenter"",""1"",""4554""
","
","","","-1","","","24","5028","2935","z","elianto","#3366ff99","-1","-1","1","+10","[]","0","2","","","5028","89","5","2","win","no-go","0"
"pit-trial","208","1227499","0.0-94.0","battery-v0.2","","""event"",""trial"",""time""
""fullscreenenter"",""1"",""4554""
","
","
","""event"",""trial"",""time""
""fullscreenenter"",""1"",""4554""
","
","","","-1","","","24","5028","2935","y","elianto","#f73b6a7A","-1","-1","1","0","[]","0","2","","","5028","90","7","4","lose","no-go","0"
"pit-trial","209","1232363","0.0-95.0","battery-v0.2","","""event"",""trial"",""time""
""fullscreenenter"",""1"",""4554""
","
","
","""event"",""trial"",""time""
""fullscreenenter"",""1"",""4554""
","
","","","-1","","","24","5028","2935","h","elianto","#f73b6a7A"," ","-1","0","-10","[]","0","2","","","5028","91","6","3","lose","go","0"
"pit-trial","210","1236416","0.0-96.0","battery-v0.2","","""event"",""trial"",""time""
""fullscreenenter"",""1"",""4554""
","
","
","""event"",""trial"",""time""
""fullscreenenter"",""1"",""4554""
","
","","","1190.300000000745","","","24","5028","2935","c","elianto","#3366ff99"," "," ","1","+10","[2044.4000000003725]","1","2","","","5028","92","4","1","win","go","0"
"pit-trial","211","1241280","0.0-97.0","battery-v0.2","","""event"",""trial"",""time""
""fullscreenenter"",""1"",""4554""
","
","
","""event"",""trial"",""time""
""fullscreenenter"",""1"",""4554""
","
","","","-1","","","24","5028","2935","y","elianto","#f73b6a7A","-1","-1","1","0","[]","0","2","","","5028","93","7","4","lose","no-go","0"
"pit-trial","212","1246144","0.0-98.0","battery-v0.2","","""event"",""trial"",""time""
""fullscreenenter"",""1"",""4554""
","
","
","""event"",""trial"",""time""
""fullscreenenter"",""1"",""4554""
","
","","","-1","","","24","5028","2935","z","elianto","#3366ff99","-1","-1","1","+10","[]","0","2","","","5028","94","5","2","win","no-go","0"
"pit-trial","213","1250219","0.0-99.0","battery-v0.2","","""event"",""trial"",""time""
""fullscreenenter"",""1"",""4554""
","
","
","""event"",""trial"",""time""
""fullscreenenter"",""1"",""4554""
","
","","","1215","","","24","5028","2935","r","elianto","#3366ff99"," "," ","1","+10","[2066.5999999996275]","1","2","","","5028","95","8","1","win","go","0"
"pit-trial","214","1255083","0.0-100.0","battery-v0.2","","""event"",""trial"",""time""
""fullscreenenter"",""1"",""4554""
","
","
","""event"",""trial"",""time""
""fullscreenenter"",""1"",""4554""
","
","","","-1","","","24","5028","2935","h","elianto","#f73b6a7A"," ","-1","0","-10","[]","0","2","","","5028","96","6","3","lose","go","0"
"pit-trial","215","1259947","0.0-101.0","battery-v0.2","","""event"",""trial"",""time""
""fullscreenenter"",""1"",""4554""
","
","
","""event"",""trial"",""time""
""fullscreenenter"",""1"",""4554""
","
","","","-1","","","24","5028","2935","z","elianto","#3366ff99","-1","-1","1","+10","[]","0","2","","","5028","97","5","2","win","no-go","0"
"pit-trial","216","1263685","0.0-102.0","battery-v0.2","","""event"",""trial"",""time""
""fullscreenenter"",""1"",""4554""
","
","
","""event"",""trial"",""time""
""fullscreenenter"",""1"",""4554""
","
","","","876.7999999998137","","","24","5028","2935","r","elianto","#3366ff99"," "," ","1","+10","[1730.2999999998137]","1","2","","","5028","98","8","1","win","go","0"
"pit-trial","217","1268549","0.0-103.0","battery-v0.2","","""event"",""trial"",""time""
""fullscreenenter"",""1"",""4554""
","
","
","""event"",""trial"",""time""
""fullscreenenter"",""1"",""4554""
","
","","","-1","","","24","5028","2935","y","elianto","#f73b6a7A","-1","-1","1","0","[]","0","2","","","5028","99","7","4","lose","no-go","0"
"pit-trial","218","1272303","0.0-104.0","battery-v0.2","","""event"",""trial"",""time""
""fullscreenenter"",""1"",""4554""
","
","
","""event"",""trial"",""time""
""fullscreenenter"",""1"",""4554""
","
","","","895","","","24","5028","2935","h","elianto","#f73b6a7A"," "," ","1","0","[1747.2000000001863]","1","2","","","5028","100","6","3","lose","go","0"
"pit-trial","219","1277167","0.0-105.0","battery-v0.2","","""event"",""trial"",""time""
""fullscreenenter"",""1"",""4554""
","
","
","""event"",""trial"",""time""
""fullscreenenter"",""1"",""4554""
","
","","","-1","","","24","5028","2935","z","elianto","#3366ff99","-1","-1","1","+10","[]","0","2","","","5028","101","5","2","win","no-go","0"
"pit-trial","220","1282031","0.0-106.0","battery-v0.2","","""event"",""trial"",""time""
""fullscreenenter"",""1"",""4554""
","
","
","""event"",""trial"",""time""
""fullscreenenter"",""1"",""4554""
","
","","","-1","","","24","5028","2935","y","elianto","#f73b6a7A","-1","-1","1","-10","[]","0","2","","","5028","102","7","4","lose","no-go","1"
"pit-trial","221","1285674","0.0-107.0","battery-v0.2","","""event"",""trial"",""time""
""fullscreenenter"",""1"",""4554""
","
","
","""event"",""trial"",""time""
""fullscreenenter"",""1"",""4554""
","
","","","783.4000000003725","","","24","5028","2935","r","elianto","#3366ff99"," "," ","1","+10","[1634.7000000001863]","1","2","","","5028","103","8","1","win","go","0"
"pit-trial","222","1289461","0.0-108.0","battery-v0.2","","""event"",""trial"",""time""
""fullscreenenter"",""1"",""4554""
","
","
","""event"",""trial"",""time""
""fullscreenenter"",""1"",""4554""
","
","","","927.1000000005588","","","24","5028","2935","m","elianto","#3366ff99"," "," ","1","+10","[1778.7999999998137]","1","2","","","5028","104","9","1","win","go","0"
"pit-trial","223","1293002","0.0-109.0","battery-v0.2","","""event"",""trial"",""time""
""fullscreenenter"",""1"",""4554""
","
","
","""event"",""trial"",""time""
""fullscreenenter"",""1"",""4554""
","
","","","678.5","","","24","5028","2935","r","elianto","#3366ff99"," "," ","1","0","[1529]","1","2","","","5028","105","8","1","win","go","1"
"pit-trial","224","1296591","0.0-110.0","battery-v0.2","","""event"",""trial"",""time""
""fullscreenenter"",""1"",""4554""
","
","
","""event"",""trial"",""time""
""fullscreenenter"",""1"",""4554""
","
","","","725.6999999992549","","","24","5028","2935","m","elianto","#3366ff99"," "," ","1","+10","[1577.5]","1","2","","","5028","106","9","1","win","go","0"
"pit-trial","225","1300250","0.0-111.0","battery-v0.2","","""event"",""trial"",""time""
""fullscreenenter"",""1"",""4554""
","
","
","""event"",""trial"",""time""
""fullscreenenter"",""1"",""4554""
","
","","","800","","","24","5028","2935","c","elianto","#3366ff99"," "," ","1","+10","[1651]","1","2","","","5028","107","4","1","win","go","0"
"pit-trial","226","1304191","0.0-112.0","battery-v0.2","","""event"",""trial"",""time""
""fullscreenenter"",""1"",""4554""
","
","
","""event"",""trial"",""time""
""fullscreenenter"",""1"",""4554""
","
","","","1080.5999999996275","","","24","5028","2935","h","elianto","#f73b6a7A"," "," ","1","0","[1934.0999999996275]","1","2","","","5028","108","6","3","lose","go","0"
"pit-trial","227","1307882","0.0-113.0","battery-v0.2","","""event"",""trial"",""time""
""fullscreenenter"",""1"",""4554""
","
","
","""event"",""trial"",""time""
""fullscreenenter"",""1"",""4554""
","
","","","830.7999999998137","","","24","5028","2935","h","elianto","#f73b6a7A"," "," ","1","0","[1681.7999999998137]","1","2","","","5028","109","6","3","lose","go","0"
"pit-trial","228","1312746","0.0-114.0","battery-v0.2","","""event"",""trial"",""time""
""fullscreenenter"",""1"",""4554""
","
","
","""event"",""trial"",""time""
""fullscreenenter"",""1"",""4554""
","
","","","-1","","","24","5028","2935","z","elianto","#3366ff99","-1","-1","1","+10","[]","0","2","","","5028","110","5","2","win","no-go","0"
"pit-trial","229","1316964","0.0-115.0","battery-v0.2","","""event"",""trial"",""time""
""fullscreenenter"",""1"",""4554""
","
","
","""event"",""trial"",""time""
""fullscreenenter"",""1"",""4554""
","
","","","1354.800000000745","","","24","5028","2935","r","elianto","#3366ff99"," "," ","1","+10","[2209.100000000559]","1","2","","","5028","111","8","1","win","go","0"
"pit-trial","230","1320793","0.0-116.0","battery-v0.2","","""event"",""trial"",""time""
""fullscreenenter"",""1"",""4554""
","
","
","""event"",""trial"",""time""
""fullscreenenter"",""1"",""4554""
","
","","","969.7000000001863","","","24","5028","2935","m","elianto","#3366ff99"," "," ","1","+10","[1821.2000000001863]","1","2","","","5028","112","9","1","win","go","0"
"pit-trial","231","1324607","0.0-117.0","battery-v0.2","","""event"",""trial"",""time""
""fullscreenenter"",""1"",""4554""
","
","
","""event"",""trial"",""time""
""fullscreenenter"",""1"",""4554""
","
","","","954.9000000003725","","","24","5028","2935","h","elianto","#f73b6a7A"," "," ","1","0","[1805.5]","1","2","","","5028","113","6","3","lose","go","0"
"pit-trial","232","1329471","0.0-118.0","battery-v0.2","","""event"",""trial"",""time""
""fullscreenenter"",""1"",""4554""
","
","
","""event"",""trial"",""time""
""fullscreenenter"",""1"",""4554""
","
","","","-1","","","24","5028","2935","z","elianto","#3366ff99","-1","-1","1","+10","[]","0","2","","","5028","114","5","2","win","no-go","0"
"pit-trial","233","1333140","0.0-119.0","battery-v0.2","","""event"",""trial"",""time""
""fullscreenenter"",""1"",""4554""
","
","
","""event"",""trial"",""time""
""fullscreenenter"",""1"",""4554""
","
","","","802.5","","","24","5028","2935","m","elianto","#3366ff99"," "," ","1","+10","[1656.0999999996275]","1","2","","","5028","115","9","1","win","go","0"
"pit-trial","234","1336831","0.0-120.0","battery-v0.2","","""event"",""trial"",""time""
""fullscreenenter"",""1"",""4554""
","
","
","""event"",""trial"",""time""
""fullscreenenter"",""1"",""4554""
","
","","","827.2000000001863","","","24","5028","2935","r","elianto","#3366ff99"," "," ","1","0","[1678.5999999996275]","1","2","","","5028","116","8","1","win","go","1"
"pit-trial","235","1340686","0.0-121.0","battery-v0.2","","""event"",""trial"",""time""
""fullscreenenter"",""1"",""4554""
","
","
","""event"",""trial"",""time""
""fullscreenenter"",""1"",""4554""
","
","","","991.7000000001863","","","24","5028","2935","h","elianto","#f73b6a7A"," "," ","1","-10","[1844.7999999998137]","1","2","","","5028","117","6","3","lose","go","1"
"pit-trial","236","1345546","0.0-122.0","battery-v0.2","","""event"",""trial"",""time""
""fullscreenenter"",""1"",""4554""
","
","
","""event"",""trial"",""time""
""fullscreenenter"",""1"",""4554""
","
","","","-1","","","24","5028","2935","z","elianto","#3366ff99","-1","-1","1","+10","[]","0","2","","","5028","118","5","2","win","no-go","0"
"pit-trial","237","1349034","0.0-123.0","battery-v0.2","","""event"",""trial"",""time""
""fullscreenenter"",""1"",""4554""
","
","
","""event"",""trial"",""time""
""fullscreenenter"",""1"",""4554""
","
","","","624.5","","","24","5028","2935","m","elianto","#3366ff99"," "," ","1","+10","[1477.5]","1","2","","","5028","119","9","1","win","go","0"
"pit-trial","238","1352570","0.0-124.0","battery-v0.2","","""event"",""trial"",""time""
""fullscreenenter"",""1"",""4554""
","
","
","""event"",""trial"",""time""
""fullscreenenter"",""1"",""4554""
","
","","","672.5","","","24","5028","2935","r","elianto","#3366ff99"," "," ","1","+10","[1524.4000000003725]","1","2","","","5028","120","8","1","win","go","0"
"pit-trial","239","1356190","0.0-125.0","battery-v0.2","","""event"",""trial"",""time""
""fullscreenenter"",""1"",""4554""
","
","
","""event"",""trial"",""time""
""fullscreenenter"",""1"",""4554""
","
","","","757.2000000001863","","","24","5028","2935","h","elianto","#f73b6a7A"," "," ","1","0","[1610.4000000003725]","1","2","","","5028","121","6","3","lose","go","0"
"pit-trial","240","1359662","0.0-126.0","battery-v0.2","","""event"",""trial"",""time""
""fullscreenenter"",""1"",""4554""
","
","
","""event"",""trial"",""time""
""fullscreenenter"",""1"",""4554""
","
","","","612.6000000005588","","","24","5028","2935","m","elianto","#3366ff99"," "," ","1","+10","[1463.7999999998137]","1","2","","","5028","122","9","1","win","go","0"
"pit-trial","241","1363075","0.0-127.0","battery-v0.2","","""event"",""trial"",""time""
""fullscreenenter"",""1"",""4554""
","
","
","""event"",""trial"",""time""
""fullscreenenter"",""1"",""4554""
","
","","","551.7000000001863","","","24","5028","2935","r","elianto","#3366ff99"," "," ","1","0","[1406.2999999998137]","1","2","","","5028","123","8","1","win","go","1"
"pit-trial","242","1367940","0.0-128.0","battery-v0.2","","""event"",""trial"",""time""
""fullscreenenter"",""1"",""4554""
","
","
","""event"",""trial"",""time""
""fullscreenenter"",""1"",""4554""
","
","","","-1","","","24","5028","2935","y","elianto","#f73b6a7A","-1","-1","1","0","[]","0","2","","","5028","124","7","4","lose","no-go","0"
"pit-trial","243","1371374","0.0-129.0","battery-v0.2","","""event"",""trial"",""time""
""fullscreenenter"",""1"",""4554""
","
","
","""event"",""trial"",""time""
""fullscreenenter"",""1"",""4554""
","
","","","572.0999999996275","","","24","5028","2935","m","elianto","#3366ff99"," "," ","1","+10","[1427.5]","1","2","","","5028","125","9","1","win","go","0"
"pit-trial","244","1375255","0.0-130.0","battery-v0.2","","""event"",""trial"",""time""
""fullscreenenter"",""1"",""4554""
","
","
","""event"",""trial"",""time""
""fullscreenenter"",""1"",""4554""
","
","","","1017.9000000003725","","","24","5028","2935","h","elianto","#f73b6a7A"," "," ","1","0","[1870.5999999996275]","1","2","","","5028","126","6","3","lose","go","0"
"pit-trial","245","1378969","0.0-131.0","battery-v0.2","","""event"",""trial"",""time""
""fullscreenenter"",""1"",""4554""
","
","
","""event"",""trial"",""time""
""fullscreenenter"",""1"",""4554""
","
","","","849.7999999998137","","","24","5028","2935","r","elianto","#3366ff99"," "," ","1","+10","[1703.7999999998137]","1","2","","","5028","127","8","1","win","go","0"
"pit-trial","246","1383833","0.0-132.0","battery-v0.2","","""event"",""trial"",""time""
""fullscreenenter"",""1"",""4554""
","
","
","""event"",""trial"",""time""
""fullscreenenter"",""1"",""4554""
","
","","","-1","","","24","5028","2935","y","elianto","#f73b6a7A","-1","-1","1","0","[]","0","2","","","5028","128","7","4","lose","no-go","0"
"pit-trial","247","1387358","0.0-133.0","battery-v0.2","","""event"",""trial"",""time""
""fullscreenenter"",""1"",""4554""
","
","
","""event"",""trial"",""time""
""fullscreenenter"",""1"",""4554""
","
","","","664.2000000001863","","","24","5028","2935","m","elianto","#3366ff99"," "," ","1","+10","[1516.1000000005588]","1","2","","","5028","129","9","1","win","go","0"
"pit-trial","248","1390830","0.0-134.0","battery-v0.2","","""event"",""trial"",""time""
""fullscreenenter"",""1"",""4554""
","
","
","""event"",""trial"",""time""
""fullscreenenter"",""1"",""4554""
","
","","","610.1000000005588","","","24","5028","2935","r","elianto","#3366ff99"," "," ","1","+10","[1461]","1","2","","","5028","130","8","1","win","go","0"
"pit-trial","249","1394692","0.0-135.0","battery-v0.2","","""event"",""trial"",""time""
""fullscreenenter"",""1"",""4554""
","
","
","""event"",""trial"",""time""
""fullscreenenter"",""1"",""4554""
","
","","","1000","","","24","5028","2935","h","elianto","#f73b6a7A"," "," ","1","-10","[1852]","1","2","","","5028","131","6","3","lose","go","1"
"pit-trial","250","1399555","0.0-136.0","battery-v0.2","","""event"",""trial"",""time""
""fullscreenenter"",""1"",""4554""
","
","
","""event"",""trial"",""time""
""fullscreenenter"",""1"",""4554""
","
","","","-1","","","24","5028","2935","y","elianto","#f73b6a7A","-1","-1","1","0","[]","0","2","","","5028","132","7","4","lose","no-go","0"
"pit-trial","251","1403705","0.0-137.0","battery-v0.2","","""event"",""trial"",""time""
""fullscreenenter"",""1"",""4554""
","
","
","""event"",""trial"",""time""
""fullscreenenter"",""1"",""4554""
","
","","","1286.6000000005588","","","24","5028","2935","h","elianto","#f73b6a7A"," "," ","1","0","[2138.5999999996275]","1","2","","","5028","133","6","3","lose","go","0"
"pit-trial","252","1407209","0.0-138.0","battery-v0.2","","""event"",""trial"",""time""
""fullscreenenter"",""1"",""4554""
","
","
","""event"",""trial"",""time""
""fullscreenenter"",""1"",""4554""
","
","","","641.7000000001863","","","24","5028","2935","m","elianto","#3366ff99"," "," ","1","+10","[1494.6000000005588]","1","2","","","5028","134","9","1","win","go","0"
"pit-trial","253","1410574","0.0-139.0","battery-v0.2","","""event"",""trial"",""time""
""fullscreenenter"",""1"",""4554""
","
","
","""event"",""trial"",""time""
""fullscreenenter"",""1"",""4554""
","
","","","502.90000000037253","","","24","5028","2935","r","elianto","#3366ff99"," "," ","1","0","[1354]","1","2","","","5028","135","8","1","win","go","1"
"pit-trial","254","1415438","0.0-140.0","battery-v0.2","","""event"",""trial"",""time""
""fullscreenenter"",""1"",""4554""
","
","
","""event"",""trial"",""time""
""fullscreenenter"",""1"",""4554""
","
","","","-1","","","24","5028","2935","y","elianto","#f73b6a7A","-1","-1","1","0","[]","0","2","","","5028","136","7","4","lose","no-go","0"
"pit-trial","255","1418995","0.0-141.0","battery-v0.2","","""event"",""trial"",""time""
""fullscreenenter"",""1"",""4554""
","
","
","""event"",""trial"",""time""
""fullscreenenter"",""1"",""4554""
","
","","","691.9000000003725","","","24","5028","2935","m","elianto","#3366ff99"," "," ","1","+10","[1544.7000000001863]","1","2","","","5028","137","9","1","win","go","0"
"pit-trial","256","1422382","0.0-142.0","battery-v0.2","","""event"",""trial"",""time""
""fullscreenenter"",""1"",""4554""
","
","
","""event"",""trial"",""time""
""fullscreenenter"",""1"",""4554""
","
","","","523","","","24","5028","2935","r","elianto","#3366ff99"," "," ","1","+10","[1377.5]","1","2","","","5028","138","8","1","win","go","0"
"pit-trial","257","1425961","0.0-143.0","battery-v0.2","","""event"",""trial"",""time""
""fullscreenenter"",""1"",""4554""
","
","
","""event"",""trial"",""time""
""fullscreenenter"",""1"",""4554""
","
","","","718.1000000005588","","","24","5028","2935","h","elianto","#f73b6a7A"," "," ","1","0","[1570.800000000745]","1","2","","","5028","139","6","3","lose","go","0"
"pit-trial","258","1430825","0.0-144.0","battery-v0.2","","""event"",""trial"",""time""
""fullscreenenter"",""1"",""4554""
","
","
","""event"",""trial"",""time""
""fullscreenenter"",""1"",""4554""
","
","","","-1","","","24","5028","2935","y","elianto","#f73b6a7A","-1","-1","1","-10","[]","0","2","","","5028","140","7","4","lose","no-go","1"
"pit-instructions","259","1454407","0.0-145.0","battery-v0.2","","""event"",""trial"",""time""
""fullscreenenter"",""1"",""4554""
","
","
","""event"",""trial"",""time""
""fullscreenenter"",""1"",""4554""
","
","","[{""page_index"":0,""viewing_time"":15151.400000000373},{""page_index"":1,""viewing_time"":8425.199999999255}]","23578","","","","","","","","","","","","","","","","","","","","","","","",""
"pit-trial","260","1458190","0.0-146.0","battery-v0.2","","""event"",""trial"",""time""
""fullscreenenter"",""1"",""4554""
","
","
","""event"",""trial"",""time""
""fullscreenenter"",""1"",""4554""
","
","","","919","","","24","5028","2935","l","elianto","#3366ff99"," "," ","1","+10","[1769.0999999996275]","1","3","","","5028","141","1","1","win","go","0"
"pit-trial","261","1461854","0.0-147.0","battery-v0.2","","""event"",""trial"",""time""
""fullscreenenter"",""1"",""4554""
","
","
","""event"",""trial"",""time""
""fullscreenenter"",""1"",""4554""
","
","","","800.5999999996275","","","24","5028","2935","g","elianto","#f73b6a7A"," "," ","1","0","[1652.0999999996275]","1","3","","","5028","142","3","3","lose","go","0"
"pit-trial","262","1465621","0.0-148.0","battery-v0.2","","""event"",""trial"",""time""
""fullscreenenter"",""1"",""4554""
","
","
","""event"",""trial"",""time""
""fullscreenenter"",""1"",""4554""
","
","","","903.7000000001863","","","24","5028","2935","a","elianto","#f73b6a7A","-1"," ","0","-10","[1757.7999999998137]","1","3","","","5028","143","2","4","lose","no-go","0"
"pit-trial","263","1469249","0.0-149.0","battery-v0.2","","""event"",""trial"",""time""
""fullscreenenter"",""1"",""4554""
","
","
","""event"",""trial"",""time""
""fullscreenenter"",""1"",""4554""
","
","","","766.0999999996275","","","24","5028","2935","u","elianto","#f73b6a7A","-1"," ","0","-10","[1620.4000000003725]","1","3","","","5028","144","0","4","lose","no-go","0"
"pit-trial","264","1472740","0.0-150.0","battery-v0.2","","""event"",""trial"",""time""
""fullscreenenter"",""1"",""4554""
","
","
","""event"",""trial"",""time""
""fullscreenenter"",""1"",""4554""
","
","","","624.0999999996275","","","24","5028","2935","l","elianto","#3366ff99"," "," ","1","0","[1479.2000000001863]","1","3","","","5028","145","1","1","win","go","1"
"pit-trial","265","1477603","0.0-151.0","battery-v0.2","","""event"",""trial"",""time""
""fullscreenenter"",""1"",""4554""
","
","
","""event"",""trial"",""time""
""fullscreenenter"",""1"",""4554""
","
","","","-1","","","24","5028","2935","u","elianto","#f73b6a7A","-1","-1","1","0","[]","0","3","","","5028","146","0","4","lose","no-go","0"
"pit-trial","266","1482469","0.0-152.0","battery-v0.2","","""event"",""trial"",""time""
""fullscreenenter"",""1"",""4554""
","
","
","""event"",""trial"",""time""
""fullscreenenter"",""1"",""4554""
","
","","","-1","","","24","5028","2935","a","elianto","#f73b6a7A","-1","-1","1","0","[]","0","3","","","5028","147","2","4","lose","no-go","0"
"pit-trial","267","1486750","0.0-153.0","battery-v0.2","","""event"",""trial"",""time""
""fullscreenenter"",""1"",""4554""
","
","
","""event"",""trial"",""time""
""fullscreenenter"",""1"",""4554""
","
","","","1415.5999999996275","","","24","5028","2935","g","elianto","#f73b6a7A"," "," ","1","0","[2270.699999999255]","1","3","","","5028","148","3","3","lose","go","0"
