"trial_type","trial_index","time_elapsed","internal_node_id","task_version","subject_id","interactions","blur_events","focus_events","fullscreenenter_events","fullscreenexit_events","success","view_history","rt","responses","num_errors","age","subject","participantId","rune","rune_set","hex","correct","choice","accuracy","outcome","keys","total_keys","block","practice","value","sub","trial","stimulus","robot","valence","action","sham"
"pavlovia","0","10","0.0-0.0","battery-v0.2","","""event"",""trial"",""time""
""fullscreenenter"",""1"",""29900""
","
","
","""event"",""trial"",""time""
""fullscreenenter"",""1"",""29900""
","
","","","","","","","","","","","","","","","","","","","","","","","","","","",""
"fullscreen","1","30881","0.0-1.0","battery-v0.2","","""event"",""trial"",""time""
""fullscreenenter"",""1"",""29900""
","
","
","""event"",""trial"",""time""
""fullscreenenter"",""1"",""29900""
","
","true","","","","","","","","","","","","","","","","","","","","","","","","","",""
"pit-instructions","2","36517","0.0-2.0-0.0","battery-v0.2","","""event"",""trial"",""time""
""fullscreenenter"",""1"",""29900""
","
","
","""event"",""trial"",""time""
""fullscreenenter"",""1"",""29900""
","
","","[{""page_index"":0,""viewing_time"":5632.4000000059605}]","5633.300000011921","","","","","","","","","","","","","","","","","","","","","","","",""
"pit-comprehension","3","48315","0.0-2.0-1.0-0.0","battery-v0.2","","""event"",""trial"",""time""
""fullscreenenter"",""1"",""29900""
","
","
","""event"",""trial"",""time""
""fullscreenenter"",""1"",""29900""
","
","","","11792.299999982119","[""shark""]","0","22","7262","3897","","","","","","","","","","","","","","","","","","",""
"pit-instructions","4","52022","0.0-2.0-1.0-1.0","battery-v0.2","","""event"",""trial"",""time""
""fullscreenenter"",""1"",""29900""
","
","
","""event"",""trial"",""time""
""fullscreenenter"",""1"",""29900""
","
","","[{""page_index"":0,""viewing_time"":3676.0999999940395}]","3676.7000000178814","","","","","","","","","","","","","","","","","","","","","","","",""
"pit-comprehension","5","56929","0.0-2.0-2.0-0.0","battery-v0.2","","""event"",""trial"",""time""
""fullscreenenter"",""1"",""29900""
","
","
","""event"",""trial"",""time""
""fullscreenenter"",""1"",""29900""
","
","","","4902.799999982119","[""tiger""]","0","22","7262","3897","","","","","","","","","","","","","","","","","","",""
"pit-instructions","6","59738","0.0-2.0-2.0-1.0","battery-v0.2","","""event"",""trial"",""time""
""fullscreenenter"",""1"",""29900""
","
","
","""event"",""trial"",""time""
""fullscreenenter"",""1"",""29900""
","
","","[{""page_index"":0,""viewing_time"":2803.5999999940395}]","2804.0999999940395","","","","","","","","","","","","","","","","","","","","","","","",""
"pit-instructions","7","203125","0.0-2.0-3.0","battery-v0.2","","""event"",""trial"",""time""
""fullscreenenter"",""1"",""29900""
","
","
","""event"",""trial"",""time""
""fullscreenenter"",""1"",""29900""
","
","","[{""page_index"":0,""viewing_time"":27730.5},{""page_index"":1,""viewing_time"":15756.799999982119},{""page_index"":2,""viewing_time"":9676},{""page_index"":3,""viewing_time"":7679.4000000059605},{""page_index"":4,""viewing_time"":6254.4000000059605},{""page_index"":5,""viewing_time"":7212.5},{""page_index"":6,""viewing_time"":5922.5999999940395},{""page_index"":7,""viewing_time"":7145.5},{""page_index"":8,""viewing_time"":6200.4000000059605},{""page_index"":9,""viewing_time"":14071.5},{""page_index"":10,""viewing_time"":7825.300000011921},{""page_index"":11,""viewing_time"":10823.899999976158},{""page_index"":12,""viewing_time"":12769.100000023842},{""page_index"":13,""viewing_time"":4313.799999982119}]","143382.69999998808","","","","","","","","","","","","","","","","","","","","","","","",""
"pit-trial","8","207670","0.0-2.0-4.0-0.0","battery-v0.2","","""event"",""trial"",""time""
""fullscreenenter"",""1"",""29900""
","
","
","""event"",""trial"",""time""
""fullscreenenter"",""1"",""29900""
","
","","","1681.0999999940395","","","22","7262","3897","&#9784;","elianto","#FFFFF080"," "," ","1","&#10004","[2533.5]","1","0","0","","","","","","","",""
"pit-trial","9","211214","0.0-2.0-4.1-0.1","battery-v0.2","","""event"",""trial"",""time""
""fullscreenenter"",""1"",""29900""
","
","
","""event"",""trial"",""time""
""fullscreenenter"",""1"",""29900""
","
","","","674.3999999761581","","","22","7262","3897","&#9784;","elianto","#FFFFF080"," "," ","1","&#10004","[1524.8999999761581]","1","0","0","","","","","","","",""
"pit-trial","10","214626","0.0-2.0-4.2-0.2","battery-v0.2","","""event"",""trial"",""time""
""fullscreenenter"",""1"",""29900""
","
","
","""event"",""trial"",""time""
""fullscreenenter"",""1"",""29900""
","
","","","542.5999999940395","","","22","7262","3897","&#9784;","elianto","#FFFFF080"," "," ","1","&#10004","[1397.4000000059605]","1","0","0","","","","","","","",""
"pit-trial","11","218801","0.0-2.0-4.3-0.3","battery-v0.2","","""event"",""trial"",""time""
""fullscreenenter"",""1"",""29900""
","
","
","""event"",""trial"",""time""
""fullscreenenter"",""1"",""29900""
","
","","","1313.4000000059605","","","22","7262","3897","&#9784;","elianto","#FFFFF080"," "," ","1","&#10004","[2167.9000000059605,3061.300000011921]","2","0","0","","","","","","","",""
"pit-trial","12","221887","0.0-2.0-4.4-0.4","battery-v0.2","","""event"",""trial"",""time""
""fullscreenenter"",""1"",""29900""
","
","
","""event"",""trial"",""time""
""fullscreenenter"",""1"",""29900""
","
","","","231.59999999403954","","","22","7262","3897","&#9784;","elianto","#FFFFF080"," "," ","1","&#10004","[1081.800000011921]","1","0","0","","","","","","","",""
"pit-instructions","13","244074","0.0-2.0-5.0","battery-v0.2","","""event"",""trial"",""time""
""fullscreenenter"",""1"",""29900""
","
","
","""event"",""trial"",""time""
""fullscreenenter"",""1"",""29900""
","
","","[{""page_index"":0,""viewing_time"":5419.0999999940395},{""page_index"":1,""viewing_time"":5607},{""page_index"":2,""viewing_time"":5487.4000000059605},{""page_index"":3,""viewing_time"":5665.5}]","22179.70000001788","","","","","","","","","","","","","","","","","","","","","","","",""
"pit-trial","14","248948","0.0-2.0-6.0-0.0","battery-v0.2","","""event"",""trial"",""time""
""fullscreenenter"",""1"",""29900""
","
","
","""event"",""trial"",""time""
""fullscreenenter"",""1"",""29900""
","
","","","-1","","","22","7262","3897","&#9854;","elianto","#FFFFF080","-1","-1","1","&#10004","[]","0","0","1","","","","","","","",""
"pit-trial","15","253816","0.0-2.0-6.1-0.1","battery-v0.2","","""event"",""trial"",""time""
""fullscreenenter"",""1"",""29900""
","
","
","""event"",""trial"",""time""
""fullscreenenter"",""1"",""29900""
","
","","","-1","","","22","7262","3897","&#9854;","elianto","#FFFFF080","-1","-1","1","&#10004","[]","0","0","1","","","","","","","",""
"pit-trial","16","257319","0.0-2.0-6.2-0.2","battery-v0.2","","""event"",""trial"",""time""
""fullscreenenter"",""1"",""29900""
","
","
","""event"",""trial"",""time""
""fullscreenenter"",""1"",""29900""
","
","","","640.3999999761581","","","22","7262","3897","&#9854;","elianto","#FFFFF080","-1"," ","0","&#10060","[1495.7999999821186]","1","0","1","","","","","","","",""
"pit-trial","17","262205","0.0-2.0-6.3-0.3","battery-v0.2","","""event"",""trial"",""time""
""fullscreenenter"",""1"",""29900""
","
","
","""event"",""trial"",""time""
""fullscreenenter"",""1"",""29900""
","
","","","-1","","","22","7262","3897","&#9854;","elianto","#FFFFF080","-1","-1","1","&#10004","[]","0","0","1","","","","","","","",""
"pit-trial","18","267088","0.0-2.0-6.4-0.4","battery-v0.2","","""event"",""trial"",""time""
""fullscreenenter"",""1"",""29900""
","
","
","""event"",""trial"",""time""
""fullscreenenter"",""1"",""29900""
","
","","","-1","","","22","7262","3897","&#9854;","elianto","#FFFFF080","-1","-1","1","&#10004","[]","0","0","1","","","","","","","",""
"pit-trial","19","271946","0.0-2.0-6.5-0.5","battery-v0.2","","""event"",""trial"",""time""
""fullscreenenter"",""1"",""29900""
","
","
","""event"",""trial"",""time""
""fullscreenenter"",""1"",""29900""
","
","","","-1","","","22","7262","3897","&#9854;","elianto","#FFFFF080","-1","-1","1","&#10004","[]","0","0","1","","","","","","","",""
"pit-instructions","20","412685","0.0-2.0-7.0","battery-v0.2","","""event"",""trial"",""time""
""fullscreenenter"",""1"",""29900""
","
","
","""event"",""trial"",""time""
""fullscreenenter"",""1"",""29900""
","
","","[{""page_index"":0,""viewing_time"":7588.300000011921},{""page_index"":1,""viewing_time"":9489.799999982119},{""page_index"":2,""viewing_time"":7911.700000017881},{""page_index"":3,""viewing_time"":5279.799999982119},{""page_index"":4,""viewing_time"":7788.100000023842},{""page_index"":5,""viewing_time"":8565.199999988079},{""page_index"":6,""viewing_time"":6085},{""page_index"":7,""viewing_time"":8395.09999999404},{""page_index"":8,""viewing_time"":7779.5999999940395},{""page_index"":9,""viewing_time"":5759.600000023842},{""page_index"":10,""viewing_time"":6335.899999976158},{""page_index"":11,""viewing_time"":5203.800000011921},{""page_index"":12,""viewing_time"":6930.199999988079},{""page_index"":13,""viewing_time"":7520.9000000059605},{""page_index"":14,""viewing_time"":18348.40000000596},{""page_index"":15,""viewing_time"":7526.199999988079},{""page_index"":16,""viewing_time"":6459.9000000059605},{""page_index"":17,""viewing_time"":7762.9000000059605}]","140731","","","","","","","","","","","","","","","","","","","","","","","",""
"pit-trial","21","417542","0.0-2.0-8.0-0.0","battery-v0.2","","""event"",""trial"",""time""
""fullscreenenter"",""1"",""29900""
","
","
","""event"",""trial"",""time""
""fullscreenenter"",""1"",""29900""
","
","","","-1","","","22","7262","3897","&#9776;","elianto","#3366ff99"," ","-1","0","0","[]","0","0","1","","","","","","","",""
"pit-trial","22","421297","0.0-2.0-8.0-1.0","battery-v0.2","","""event"",""trial"",""time""
""fullscreenenter"",""1"",""29900""
","
","
","""event"",""trial"",""time""
""fullscreenenter"",""1"",""29900""
","
","","","884.1999999880791","","","22","7262","3897","&#9776;","elianto","#3366ff99"," "," ","1","+10","[1740.699999988079]","1","0","1","","","","","","","",""
"pit-trial","23","424776","0.0-2.0-8.0-2.0","battery-v0.2","","""event"",""trial"",""time""
""fullscreenenter"",""1"",""29900""
","
","
","""event"",""trial"",""time""
""fullscreenenter"",""1"",""29900""
","
","","","609.3000000119209","","","22","7262","3897","&#9776;","elianto","#3366ff99"," "," ","1","+10","[1463.4000000059605]","1","0","1","","","","","","","",""
"pit-trial","24","428022","0.0-2.0-8.0-3.0","battery-v0.2","","""event"",""trial"",""time""
""fullscreenenter"",""1"",""29900""
","
","
","""event"",""trial"",""time""
""fullscreenenter"",""1"",""29900""
","
","","","381.60000002384186","","","22","7262","3897","&#9776;","elianto","#3366ff99"," "," ","1","0","[1238.5]","1","0","1","","","","","","","",""
"pit-trial","25","431522","0.0-2.0-8.0-4.0","battery-v0.2","","""event"",""trial"",""time""
""fullscreenenter"",""1"",""29900""
","
","
","""event"",""trial"",""time""
""fullscreenenter"",""1"",""29900""
","
","","","623.3999999761581","","","22","7262","3897","&#9776;","elianto","#3366ff99"," "," ","1","+10","[1478.7999999821186]","1","0","1","","","","","","","",""
"pit-trial","26","434830","0.0-2.0-8.1-0.1","battery-v0.2","","""event"",""trial"",""time""
""fullscreenenter"",""1"",""29900""
","
","
","""event"",""trial"",""time""
""fullscreenenter"",""1"",""29900""
","
","","","445.90000000596046","","","22","7262","3897","&#9776;","elianto","#3366ff99"," "," ","1","+10","[1301.300000011921]","1","0","1","","","","","","","",""
"pit-trial","27","438160","0.0-2.0-8.1-1.1","battery-v0.2","","""event"",""trial"",""time""
""fullscreenenter"",""1"",""29900""
","
","
","""event"",""trial"",""time""
""fullscreenenter"",""1"",""29900""
","
","","","465.59999999403954","","","22","7262","3897","&#9776;","elianto","#3366ff99"," "," ","1","+10","[1319.4000000059605]","1","0","1","","","","","","","",""
"pit-trial","28","441535","0.0-2.0-8.1-2.1","battery-v0.2","","""event"",""trial"",""time""
""fullscreenenter"",""1"",""29900""
","
","
","""event"",""trial"",""time""
""fullscreenenter"",""1"",""29900""
","
","","","508.59999999403954","","","22","7262","3897","&#9776;","elianto","#3366ff99"," "," ","1","+10","[1363.4000000059605]","1","0","1","","","","","","","",""
"pit-trial","29","444979","0.0-2.0-8.1-3.1","battery-v0.2","","""event"",""trial"",""time""
""fullscreenenter"",""1"",""29900""
","
","
","""event"",""trial"",""time""
""fullscreenenter"",""1"",""29900""
","
","","","586.2000000178814","","","22","7262","3897","&#9776;","elianto","#3366ff99"," "," ","1","0","[1437.699999988079,2430.9000000059605]","2","0","1","","","","","","","",""
"pit-trial","30","448275","0.0-2.0-8.1-4.1","battery-v0.2","","""event"",""trial"",""time""
""fullscreenenter"",""1"",""29900""
","
","
","""event"",""trial"",""time""
""fullscreenenter"",""1"",""29900""
","
","","","440.09999999403954","","","22","7262","3897","&#9776;","elianto","#3366ff99"," "," ","1","+10","[365.69999998807907,1290.300000011921,1663.5,1917.199999988079,2197.5999999940395]","5","0","1","","","","","","","",""
"pit-trial","31","451686","0.0-2.0-8.2-0.2","battery-v0.2","","""event"",""trial"",""time""
""fullscreenenter"",""1"",""29900""
","
","
","""event"",""trial"",""time""
""fullscreenenter"",""1"",""29900""
","
","","","552.9000000059605","","","22","7262","3897","&#9776;","elianto","#3366ff99"," "," ","1","+10","[736.9000000059605,1403,1816.4000000059605,2527.2000000178814]","4","0","1","","","","","","","",""
"pit-trial","32","454829","0.0-2.0-8.2-1.2","battery-v0.2","","""event"",""trial"",""time""
""fullscreenenter"",""1"",""29900""
","
","
","""event"",""trial"",""time""
""fullscreenenter"",""1"",""29900""
","
","","","286.09999999403954","","","22","7262","3897","&#9776;","elianto","#3366ff99"," "," ","1","+10","[230,1136.5,1512.5,1851.0999999940395,2529.199999988079]","5","0","1","","","","","","","",""
"pit-trial","33","457941","0.0-2.0-8.2-2.2","battery-v0.2","","""event"",""trial"",""time""
""fullscreenenter"",""1"",""29900""
","
","
","""event"",""trial"",""time""
""fullscreenenter"",""1"",""29900""
","
","","","255.90000000596046","","","22","7262","3897","&#9776;","elianto","#3366ff99"," "," ","1","+10","[1106.199999988079,2593.5999999940395]","2","0","1","","","","","","","",""
"pit-trial","34","460916","0.0-2.0-8.2-3.2","battery-v0.2","","""event"",""trial"",""time""
""fullscreenenter"",""1"",""29900""
","
","
","""event"",""trial"",""time""
""fullscreenenter"",""1"",""29900""
","
","","","120.30000001192093","","","22","7262","3897","&#9776;","elianto","#3366ff99"," "," ","1","0","[971.1000000238419,1565.1000000238419]","2","0","1","","","","","","","",""
"pit-trial","35","464405","0.0-2.0-8.2-4.2","battery-v0.2","","""event"",""trial"",""time""
""fullscreenenter"",""1"",""29900""
","
","
","""event"",""trial"",""time""
""fullscreenenter"",""1"",""29900""
","
","","","633.0999999940395","","","22","7262","3897","&#9776;","elianto","#3366ff99"," "," ","1","+10","[1483.9000000059605]","1","0","1","","","","","","","",""
"call-function","36","464410","0.0-2.0-9.0","battery-v0.2","","""event"",""trial"",""time""
""fullscreenenter"",""1"",""29900""
","
","
","""event"",""trial"",""time""
""fullscreenenter"",""1"",""29900""
","
","","","","","","","","","","","","","","","","","","","","","","","","","","",""
"pit-instructions","37","505536","0.0-2.0-10.0","battery-v0.2","","""event"",""trial"",""time""
""fullscreenenter"",""1"",""29900""
","
","
","""event"",""trial"",""time""
""fullscreenenter"",""1"",""29900""
","
","","[{""page_index"":0,""viewing_time"":6819.800000011921},{""page_index"":1,""viewing_time"":6445.9000000059605},{""page_index"":2,""viewing_time"":10044.799999982119},{""page_index"":3,""viewing_time"":9157.09999999404},{""page_index"":4,""viewing_time"":8655.600000023842}]","41123.90000000596","","","","","","","","","","","","","","","","","","","","","","","",""
"pit-trial","38","508931","0.0-2.0-11.0-0.0","battery-v0.2","","""event"",""trial"",""time""
""fullscreenenter"",""1"",""29900""
","
","
","""event"",""trial"",""time""
""fullscreenenter"",""1"",""29900""
","
","","","528.7999999821186","","","22","7262","3897","&#9761;","elianto","#3366ff99","-1"," ","0","0","[1380.0999999940395]","1","0","2","","","","","","","",""
"pit-trial","39","512206","0.0-2.0-11.0-1.0","battery-v0.2","","""event"",""trial"",""time""
""fullscreenenter"",""1"",""29900""
","
","
","""event"",""trial"",""time""
""fullscreenenter"",""1"",""29900""
","
","","","413.2000000178814","","","22","7262","3897","&#9761;","elianto","#3366ff99","-1"," ","0","0","[1268]","1","0","2","","","","","","","",""
"pit-trial","40","515454","0.0-2.0-11.0-2.0","battery-v0.2","","""event"",""trial"",""time""
""fullscreenenter"",""1"",""29900""
","
","
","""event"",""trial"",""time""
""fullscreenenter"",""1"",""29900""
","
","","","383.7000000178814","","","22","7262","3897","&#9761;","elianto","#3366ff99","-1"," ","0","0","[1238.6000000238419]","1","0","2","","","","","","","",""
"pit-trial","41","518560","0.0-2.0-11.0-3.0","battery-v0.2","","""event"",""trial"",""time""
""fullscreenenter"",""1"",""29900""
","
","
","""event"",""trial"",""time""
""fullscreenenter"",""1"",""29900""
","
","","","241.19999998807907","","","22","7262","3897","&#9761;","elianto","#3366ff99","-1"," ","0","+10","[1091.800000011921]","1","0","2","","","","","","","",""
"pit-trial","42","522017","0.0-2.0-11.0-4.0","battery-v0.2","","""event"",""trial"",""time""
""fullscreenenter"",""1"",""29900""
","
","
","""event"",""trial"",""time""
""fullscreenenter"",""1"",""29900""
","
","","","589.3999999761581","","","22","7262","3897","&#9761;","elianto","#3366ff99","-1"," ","0","0","[1445]","1","0","2","","","","","","","",""
"pit-trial","43","525241","0.0-2.0-11.1-0.1","battery-v0.2","","""event"",""trial"",""time""
""fullscreenenter"",""1"",""29900""
","
","
","""event"",""trial"",""time""
""fullscreenenter"",""1"",""29900""
","
","","","348.30000001192093","","","22","7262","3897","&#9761;","elianto","#3366ff99","-1"," ","0","0","[1209.7000000178814]","1","0","2","","","","","","","",""
"pit-trial","44","528518","0.0-2.0-11.1-1.1","battery-v0.2","","""event"",""trial"",""time""
""fullscreenenter"",""1"",""29900""
","
","
","""event"",""trial"",""time""
""fullscreenenter"",""1"",""29900""
","
","","","414","","","22","7262","3897","&#9761;","elianto","#3366ff99","-1"," ","0","0","[1267.4000000059605]","1","0","2","","","","","","","",""
"pit-trial","45","531428","0.0-2.0-11.1-2.1","battery-v0.2","","""event"",""trial"",""time""
""fullscreenenter"",""1"",""29900""
","
","
","""event"",""trial"",""time""
""fullscreenenter"",""1"",""29900""
","
","","","49.30000001192093","","","22","7262","3897","&#9761;","elianto","#3366ff99","-1"," ","0","0","[900]","1","0","2","","","","","","","",""
"pit-trial","46","534882","0.0-2.0-11.1-3.1","battery-v0.2","","""event"",""trial"",""time""
""fullscreenenter"",""1"",""29900""
","
","
","""event"",""trial"",""time""
""fullscreenenter"",""1"",""29900""
","
","","","591.2999999821186","","","22","7262","3897","&#9761;","elianto","#3366ff99","-1"," ","0","+10","[1442.199999988079]","1","0","2","","","","","","","",""
"pit-trial","47","538308","0.0-2.0-11.1-4.1","battery-v0.2","","""event"",""trial"",""time""
""fullscreenenter"",""1"",""29900""
","
","
","""event"",""trial"",""time""
""fullscreenenter"",""1"",""29900""
","
","","","568.7999999821186","","","22","7262","3897","&#9761;","elianto","#3366ff99","-1"," ","0","0","[1420]","1","0","2","","","","","","","",""
"pit-trial","48","541633","0.0-2.0-11.2-0.2","battery-v0.2","","""event"",""trial"",""time""
""fullscreenenter"",""1"",""29900""
","
","
","""event"",""trial"",""time""
""fullscreenenter"",""1"",""29900""
","
","","","466.80000001192093","","","22","7262","3897","&#9761;","elianto","#3366ff99","-1"," ","0","0","[1318.9000000059605,2031.699999988079]","2","0","2","","","","","","","",""
"pit-trial","49","544830","0.0-2.0-11.2-1.2","battery-v0.2","","""event"",""trial"",""time""
""fullscreenenter"",""1"",""29900""
","
","
","""event"",""trial"",""time""
""fullscreenenter"",""1"",""29900""
","
","","","340.40000000596046","","","22","7262","3897","&#9761;","elianto","#3366ff99","-1"," ","0","0","[1190.5999999940395,2246]","2","0","2","","","","","","","",""
"pit-trial","50","548204","0.0-2.0-11.2-2.2","battery-v0.2","","""event"",""trial"",""time""
""fullscreenenter"",""1"",""29900""
","
","
","""event"",""trial"",""time""
""fullscreenenter"",""1"",""29900""
","
","","","518.7999999821186","","","22","7262","3897","&#9761;","elianto","#3366ff99","-1"," ","0","0","[1369.199999988079]","1","0","2","","","","","","","",""
"pit-trial","51","551160","0.0-2.0-11.2-3.2","battery-v0.2","","""event"",""trial"",""time""
""fullscreenenter"",""1"",""29900""
","
","
","""event"",""trial"",""time""
""fullscreenenter"",""1"",""29900""
","
","","","95.59999999403954","","","22","7262","3897","&#9761;","elianto","#3366ff99","-1"," ","0","+10","[950.0999999940395,1492.0999999940395]","2","0","2","","","","","","","",""
"pit-trial","52","554249","0.0-2.0-11.2-4.2","battery-v0.2","","""event"",""trial"",""time""
""fullscreenenter"",""1"",""29900""
","
","
","""event"",""trial"",""time""
""fullscreenenter"",""1"",""29900""
","
","","","234","","","22","7262","3897","&#9761;","elianto","#3366ff99","-1"," ","0","0","[1084.5]","1","0","2","","","","","","","",""
"pit-trial","53","557297","0.0-2.0-11.3-0.3","battery-v0.2","","""event"",""trial"",""time""
""fullscreenenter"",""1"",""29900""
","
","
","""event"",""trial"",""time""
""fullscreenenter"",""1"",""29900""
","
","","","193.09999999403954","","","22","7262","3897","&#9761;","elianto","#3366ff99","-1"," ","0","0","[1043.5]","1","0","2","","","","","","","",""
"pit-trial","54","560526","0.0-2.0-11.3-1.3","battery-v0.2","","""event"",""trial"",""time""
""fullscreenenter"",""1"",""29900""
","
","
","""event"",""trial"",""time""
""fullscreenenter"",""1"",""29900""
","
","","","374.69999998807907","","","22","7262","3897","&#9761;","elianto","#3366ff99","-1"," ","0","0","[1225]","1","0","2","","","","","","","",""
"pit-trial","55","563674","0.0-2.0-11.3-2.3","battery-v0.2","","""event"",""trial"",""time""
""fullscreenenter"",""1"",""29900""
","
","
","""event"",""trial"",""time""
""fullscreenenter"",""1"",""29900""
","
","","","291.5","","","22","7262","3897","&#9761;","elianto","#3366ff99","-1"," ","0","0","[1142.4000000059605,2471]","2","0","2","","","","","","","",""
"pit-trial","56","566926","0.0-2.0-11.3-3.3","battery-v0.2","","""event"",""trial"",""time""
""fullscreenenter"",""1"",""29900""
","
","
","""event"",""trial"",""time""
""fullscreenenter"",""1"",""29900""
","
","","","394","","","22","7262","3897","&#9761;","elianto","#3366ff99","-1"," ","0","+10","[1244.800000011921]","1","0","2","","","","","","","",""
"pit-trial","57","570165","0.0-2.0-11.3-4.3","battery-v0.2","","""event"",""trial"",""time""
""fullscreenenter"",""1"",""29900""
","
","
","""event"",""trial"",""time""
""fullscreenenter"",""1"",""29900""
","
","","","382.89999997615814","","","22","7262","3897","&#9761;","elianto","#3366ff99","-1"," ","0","0","[1233.699999988079,2163.9000000059605]","2","0","2","","","","","","","",""
"call-function","58","570167","0.0-2.0-12.0","battery-v0.2","","""event"",""trial"",""time""
""fullscreenenter"",""1"",""29900""
","
","
","""event"",""trial"",""time""
""fullscreenenter"",""1"",""29900""
","
","","","","","","","","","","","","","","","","","","","","","","","","","","",""
"pit-instructions","59","621460","0.0-2.0-13.0","battery-v0.2","","""event"",""trial"",""time""
""fullscreenenter"",""1"",""29900""
","
","
","""event"",""trial"",""time""
""fullscreenenter"",""1"",""29900""
","
","","[{""page_index"":0,""viewing_time"":7369.199999988079},{""page_index"":1,""viewing_time"":6147.100000023842},{""page_index"":2,""viewing_time"":13082.399999976158},{""page_index"":3,""viewing_time"":13727.700000017881},{""page_index"":4,""viewing_time"":10966.299999982119}]","51293.30000001192","","","","","","","","","","","","","","","","","","","","","","","",""
"pit-trial","60","626327","0.0-2.0-14.0-0.0","battery-v0.2","","""event"",""trial"",""time""
""fullscreenenter"",""1"",""29900""
","
","
","""event"",""trial"",""time""
""fullscreenenter"",""1"",""29900""
","
","","","-1","","","22","7262","3897","&#9826;","elianto","#f73b6a7A","-1","-1","1","0","[]","0","0","3","","","","","","","",""
"pit-trial","61","631199","0.0-2.0-14.0-1.0","battery-v0.2","","""event"",""trial"",""time""
""fullscreenenter"",""1"",""29900""
","
","
","""event"",""trial"",""time""
""fullscreenenter"",""1"",""29900""
","
","","","-1","","","22","7262","3897","&#9826;","elianto","#f73b6a7A","-1","-1","1","0","[]","0","0","3","","","","","","","",""
"pit-trial","62","636079","0.0-2.0-14.0-2.0","battery-v0.2","","""event"",""trial"",""time""
""fullscreenenter"",""1"",""29900""
","
","
","""event"",""trial"",""time""
""fullscreenenter"",""1"",""29900""
","
","","","-1","","","22","7262","3897","&#9826;","elianto","#f73b6a7A","-1","-1","1","0","[]","0","0","3","","","","","","","",""
"pit-trial","63","640942","0.0-2.0-14.0-3.0","battery-v0.2","","""event"",""trial"",""time""
""fullscreenenter"",""1"",""29900""
","
","
","""event"",""trial"",""time""
""fullscreenenter"",""1"",""29900""
","
","","","-1","","","22","7262","3897","&#9826;","elianto","#f73b6a7A","-1","-1","1","-10","[]","0","0","3","","","","","","","",""
"pit-trial","64","645149","0.0-2.0-14.0-4.0","battery-v0.2","","""event"",""trial"",""time""
""fullscreenenter"",""1"",""29900""
","
","
","""event"",""trial"",""time""
""fullscreenenter"",""1"",""29900""
","
","","","1346.0999999940395","","","22","7262","3897","&#9826;","elianto","#f73b6a7A","-1"," ","0","-10","[2199.7999999821186]","1","0","3","","","","","","","",""
"pit-trial","65","650008","0.0-2.0-14.1-0.1","battery-v0.2","","""event"",""trial"",""time""
""fullscreenenter"",""1"",""29900""
","
","
","""event"",""trial"",""time""
""fullscreenenter"",""1"",""29900""
","
","","","-1","","","22","7262","3897","&#9826;","elianto","#f73b6a7A","-1","-1","1","0","[]","0","0","3","","","","","","","",""
"pit-trial","66","654862","0.0-2.0-14.1-1.1","battery-v0.2","","""event"",""trial"",""time""
""fullscreenenter"",""1"",""29900""
","
","
","""event"",""trial"",""time""
""fullscreenenter"",""1"",""29900""
","
","","","-1","","","22","7262","3897","&#9826;","elianto","#f73b6a7A","-1","-1","1","0","[]","0","0","3","","","","","","","",""
"pit-trial","67","659719","0.0-2.0-14.1-2.1","battery-v0.2","","""event"",""trial"",""time""
""fullscreenenter"",""1"",""29900""
","
","
","""event"",""trial"",""time""
""fullscreenenter"",""1"",""29900""
","
","","","-1","","","22","7262","3897","&#9826;","elianto","#f73b6a7A","-1","-1","1","0","[]","0","0","3","","","","","","","",""
"pit-trial","68","664585","0.0-2.0-14.1-3.1","battery-v0.2","","""event"",""trial"",""time""
""fullscreenenter"",""1"",""29900""
","
","
","""event"",""trial"",""time""
""fullscreenenter"",""1"",""29900""
","
","","","-1","","","22","7262","3897","&#9826;","elianto","#f73b6a7A","-1","-1","1","-10","[]","0","0","3","","","","","","","",""
"pit-trial","69","669441","0.0-2.0-14.1-4.1","battery-v0.2","","""event"",""trial"",""time""
""fullscreenenter"",""1"",""29900""
","
","
","""event"",""trial"",""time""
""fullscreenenter"",""1"",""29900""
","
","","","-1","","","22","7262","3897","&#9826;","elianto","#f73b6a7A","-1","-1","1","0","[]","0","0","3","","","","","","","",""
"pit-trial","70","674300","0.0-2.0-14.2-0.2","battery-v0.2","","""event"",""trial"",""time""
""fullscreenenter"",""1"",""29900""
","
","
","""event"",""trial"",""time""
""fullscreenenter"",""1"",""29900""
","
","","","-1","","","22","7262","3897","&#9826;","elianto","#f73b6a7A","-1","-1","1","0","[]","0","0","3","","","","","","","",""
"pit-trial","71","679154","0.0-2.0-14.2-1.2","battery-v0.2","","""event"",""trial"",""time""
""fullscreenenter"",""1"",""29900""
","
","
","""event"",""trial"",""time""
""fullscreenenter"",""1"",""29900""
","
","","","-1","","","22","7262","3897","&#9826;","elianto","#f73b6a7A","-1","-1","1","0","[]","0","0","3","","","","","","","",""
"pit-trial","72","684009","0.0-2.0-14.2-2.2","battery-v0.2","","""event"",""trial"",""time""
""fullscreenenter"",""1"",""29900""
","
","
","""event"",""trial"",""time""
""fullscreenenter"",""1"",""29900""
","
","","","-1","","","22","7262","3897","&#9826;","elianto","#f73b6a7A","-1","-1","1","0","[]","0","0","3","","","","","","","",""
"pit-trial","73","688868","0.0-2.0-14.2-3.2","battery-v0.2","","""event"",""trial"",""time""
""fullscreenenter"",""1"",""29900""
","
","
","""event"",""trial"",""time""
""fullscreenenter"",""1"",""29900""
","
","","","-1","","","22","7262","3897","&#9826;","elianto","#f73b6a7A","-1","-1","1","-10","[]","0","0","3","","","","","","","",""
"pit-trial","74","693724","0.0-2.0-14.2-4.2","battery-v0.2","","""event"",""trial"",""time""
""fullscreenenter"",""1"",""29900""
","
","
","""event"",""trial"",""time""
""fullscreenenter"",""1"",""29900""
","
","","","-1","","","22","7262","3897","&#9826;","elianto","#f73b6a7A","-1","-1","1","0","[]","0","0","3","","","","","","","",""
"pit-trial","75","698582","0.0-2.0-14.3-0.3","battery-v0.2","","""event"",""trial"",""time""
""fullscreenenter"",""1"",""29900""
","
","
","""event"",""trial"",""time""
""fullscreenenter"",""1"",""29900""
","
","","","-1","","","22","7262","3897","&#9826;","elianto","#f73b6a7A","-1","-1","1","0","[]","0","0","3","","","","","","","",""
"pit-trial","76","703438","0.0-2.0-14.3-1.3","battery-v0.2","","""event"",""trial"",""time""
""fullscreenenter"",""1"",""29900""
","
","
","""event"",""trial"",""time""
""fullscreenenter"",""1"",""29900""
","
","","","-1","","","22","7262","3897","&#9826;","elianto","#f73b6a7A","-1","-1","1","0","[]","0","0","3","","","","","","","",""
"pit-trial","77","708305","0.0-2.0-14.3-2.3","battery-v0.2","","""event"",""trial"",""time""
""fullscreenenter"",""1"",""29900""
","
","
","""event"",""trial"",""time""
""fullscreenenter"",""1"",""29900""
","
","","","-1","","","22","7262","3897","&#9826;","elianto","#f73b6a7A","-1","-1","1","0","[]","0","0","3","","","","","","","",""
"pit-trial","78","713162","0.0-2.0-14.3-3.3","battery-v0.2","","""event"",""trial"",""time""
""fullscreenenter"",""1"",""29900""
","
","
","""event"",""trial"",""time""
""fullscreenenter"",""1"",""29900""
","
","","","-1","","","22","7262","3897","&#9826;","elianto","#f73b6a7A","-1","-1","1","-10","[]","0","0","3","","","","","","","",""
"pit-trial","79","718019","0.0-2.0-14.3-4.3","battery-v0.2","","""event"",""trial"",""time""
""fullscreenenter"",""1"",""29900""
","
","
","""event"",""trial"",""time""
""fullscreenenter"",""1"",""29900""
","
","","","-1","","","22","7262","3897","&#9826;","elianto","#f73b6a7A","-1","-1","1","0","[]","0","0","3","","","","","","","",""
"call-function","80","718023","0.0-2.0-15.0","battery-v0.2","","""event"",""trial"",""time""
""fullscreenenter"",""1"",""29900""
","
","
","""event"",""trial"",""time""
""fullscreenenter"",""1"",""29900""
","
","","","","","","","","","","","","","","","","","","","","","","","","","","",""
"pit-instructions","81","753910","0.0-2.0-16.0","battery-v0.2","","""event"",""trial"",""time""
""fullscreenenter"",""1"",""29900""
","
","
","""event"",""trial"",""time""
""fullscreenenter"",""1"",""29900""
","
","","[{""page_index"":0,""viewing_time"":11776.800000011921},{""page_index"":1,""viewing_time"":10323.699999988079},{""page_index"":2,""viewing_time"":6251.5},{""page_index"":3,""viewing_time"":7534.5999999940395}]","35887.40000000596","","","","","","","","","","","","","","","","","","","","","","","",""
"pit-trial","82","758789","0.0-2.0-17.0-0.0","battery-v0.2","","""event"",""trial"",""time""
""fullscreenenter"",""1"",""29900""
","
","
","""event"",""trial"",""time""
""fullscreenenter"",""1"",""29900""
","
","","","-1","","","22","7262","3897","&#9789;","elianto","#f73b6a7A"," ","-1","0","-10","[]","0","0","4","","","","","","","",""
"pit-trial","83","761741","0.0-2.0-17.0-1.0","battery-v0.2","","""event"",""trial"",""time""
""fullscreenenter"",""1"",""29900""
","
","
","""event"",""trial"",""time""
""fullscreenenter"",""1"",""29900""
","
","","","89.7000000178814","","","22","7262","3897","&#9789;","elianto","#f73b6a7A"," "," ","1","0","[941.3000000119209,1190.2000000178814,1637.5]","3","0","4","","","","","","","",""
"pit-trial","84","764764","0.0-2.0-17.0-2.0","battery-v0.2","","""event"",""trial"",""time""
""fullscreenenter"",""1"",""29900""
","
","
","""event"",""trial"",""time""
""fullscreenenter"",""1"",""29900""
","
","","","162.19999998807907","","","22","7262","3897","&#9789;","elianto","#f73b6a7A"," "," ","1","0","[1016.7999999821186,1207.699999988079,1612.5999999940395]","3","0","4","","","","","","","",""
"pit-trial","85","767849","0.0-2.0-17.0-3.0","battery-v0.2","","""event"",""trial"",""time""
""fullscreenenter"",""1"",""29900""
","
","
","""event"",""trial"",""time""
""fullscreenenter"",""1"",""29900""
","
","","","226.2000000178814","","","22","7262","3897","&#9789;","elianto","#f73b6a7A"," "," ","1","-10","[840.3000000119209,1080.1000000238419,1253.300000011921,2574.300000011921]","4","0","4","","","","","","","",""
"pit-trial","86","770966","0.0-2.0-17.0-4.0","battery-v0.2","","""event"",""trial"",""time""
""fullscreenenter"",""1"",""29900""
","
","
","""event"",""trial"",""time""
""fullscreenenter"",""1"",""29900""
","
","","","260","","","22","7262","3897","&#9789;","elianto","#f73b6a7A"," "," ","1","0","[1111.7999999821186,1558.5]","2","0","4","","","","","","","",""
"pit-trial","87","775846","0.0-2.0-17.1-0.1","battery-v0.2","","""event"",""trial"",""time""
""fullscreenenter"",""1"",""29900""
","
","
","""event"",""trial"",""time""
""fullscreenenter"",""1"",""29900""
","
","","","-1","","","22","7262","3897","&#9789;","elianto","#f73b6a7A"," ","-1","0","-10","[4002.199999988079,4218.0999999940395,4411,4595.4000000059605]","4","0","4","","","","","","","",""
"pit-trial","88","778748","0.0-2.0-17.1-1.1","battery-v0.2","","""event"",""trial"",""time""
""fullscreenenter"",""1"",""29900""
","
","
","""event"",""trial"",""time""
""fullscreenenter"",""1"",""29900""
","
","","","36.30000001192093","","","22","7262","3897","&#9789;","elianto","#f73b6a7A"," "," ","1","0","[22.400000005960464,353.5,549.9000000059605,720.0999999940395,886.8000000119209,1059.5999999940395,1431.4000000059605,1626,1839.9000000059605,2035,2215.199999988079]","11","0","4","","","","","","","",""
"pit-trial","89","781711","0.0-2.0-17.1-2.1","battery-v0.2","","""event"",""trial"",""time""
""fullscreenenter"",""1"",""29900""
","
","
","""event"",""trial"",""time""
""fullscreenenter"",""1"",""29900""
","
","","","107.09999999403954","","","22","7262","3897","&#9789;","elianto","#f73b6a7A"," "," ","1","0","[350.19999998807907,957.4000000059605,1156.800000011921,1538.9000000059605,1774.300000011921,2426.9000000059605,2705.9000000059605]","7","0","4","","","","","","","",""
"pit-trial","90","784721","0.0-2.0-17.1-3.1","battery-v0.2","","""event"",""trial"",""time""
""fullscreenenter"",""1"",""29900""
","
","
","""event"",""trial"",""time""
""fullscreenenter"",""1"",""29900""
","
","","","153","","","22","7262","3897","&#9789;","elianto","#f73b6a7A"," "," ","1","-10","[20.099999994039536,466.19999998807907,707.8999999761581,1003.0999999940395,1335.3999999761581,1818.8999999761581,2131.0999999940395,2459.199999988079,2788.5]","9","0","4","","","","","","","",""
"pit-trial","91","787756","0.0-2.0-17.1-4.1","battery-v0.2","","""event"",""trial"",""time""
""fullscreenenter"",""1"",""29900""
","
","
","""event"",""trial"",""time""
""fullscreenenter"",""1"",""29900""
","
","","","178.40000000596046","","","22","7262","3897","&#9789;","elianto","#f73b6a7A"," "," ","1","0","[181.10000002384186,490.5,1029.6000000238419,1283.300000011921,1558.4000000059605,1856.9000000059605,2168.300000011921,2485.5,2837.5]","9","0","4","","","","","","","",""
"pit-trial","92","790882","0.0-2.0-17.2-0.2","battery-v0.2","","""event"",""trial"",""time""
""fullscreenenter"",""1"",""29900""
","
","
","""event"",""trial"",""time""
""fullscreenenter"",""1"",""29900""
","
","","","270.69999998807907","","","22","7262","3897","&#9789;","elianto","#f73b6a7A"," "," ","1","0","[90.5,420.60000002384186,726.9000000059605,1121.2000000178814,1489.4000000059605,2004,2298.800000011921,2602.5,2902]","9","0","4","","","","","","","",""
"pit-trial","93","793931","0.0-2.0-17.2-1.2","battery-v0.2","","""event"",""trial"",""time""
""fullscreenenter"",""1"",""29900""
","
","
","""event"",""trial"",""time""
""fullscreenenter"",""1"",""29900""
","
","","","194.90000000596046","","","22","7262","3897","&#9789;","elianto","#f73b6a7A"," "," ","1","0","[61.5,619.5,836.1999999880791,1045.699999988079,1286.4000000059605,1414.2999999821186,1865.4000000059605,2305.699999988079,2475.0999999940395,2753.5999999940395,3046.5]","11","0","4","","","","","","","",""
"pit-trial","94","796832","0.0-2.0-17.2-2.2","battery-v0.2","","""event"",""trial"",""time""
""fullscreenenter"",""1"",""29900""
","
","
","""event"",""trial"",""time""
""fullscreenenter"",""1"",""29900""
","
","","","45.79999998211861","","","22","7262","3897","&#9789;","elianto","#f73b6a7A"," "," ","1","0","[397.5,585.7999999821186,728,896.2999999821186,1063.3999999761581,1226.3999999761581,1406.5,1614.5,1823.0999999940395,2024.699999988079,2229.5999999940395,2408.899999976158,2576.2999999821186,2755.199999988079]","14","0","4","","","","","","","",""
"pit-trial","95","799814","0.0-2.0-17.2-3.2","battery-v0.2","","""event"",""trial"",""time""
""fullscreenenter"",""1"",""29900""
","
","
","""event"",""trial"",""time""
""fullscreenenter"",""1"",""29900""
","
","","","126.90000000596046","","","22","7262","3897","&#9789;","elianto","#f73b6a7A"," "," ","1","-10","[59.29999998211861,451.2999999821186,658.9000000059605,977.1999999880791,1256.699999988079,1432.9000000059605,1611.0999999940395,1804.9000000059605,2012.699999988079,2527.5999999940395,2704.0999999940395,2901.199999988079]","12","0","4","","","","","","","",""
"pit-trial","96","802781","0.0-2.0-17.2-4.2","battery-v0.2","","""event"",""trial"",""time""
""fullscreenenter"",""1"",""29900""
","
","
","""event"",""trial"",""time""
""fullscreenenter"",""1"",""29900""
","
","","","110.40000000596046","","","22","7262","3897","&#9789;","elianto","#f73b6a7A"," "," ","1","0","[104.09999999403954,269.69999998807907,453,631.5,961,1119.199999988079,1284.7999999821186,1462.699999988079,1638.199999988079,2479.899999976158,2645.199999988079,2813.899999976158]","12","0","4","","","","","","","",""
"pit-trial","97","805797","0.0-2.0-17.3-0.3","battery-v0.2","","""event"",""trial"",""time""
""fullscreenenter"",""1"",""29900""
","
","
","""event"",""trial"",""time""
""fullscreenenter"",""1"",""29900""
","
","","","159.59999999403954","","","22","7262","3897","&#9789;","elianto","#f73b6a7A"," "," ","1","0","[536.7000000178814,717.5,1009.9000000059605,1386,1790.4000000059605,2020.5,2201.5999999940395,2590.2000000178814,2782.7000000178814]","9","0","4","","","","","","","",""
"pit-trial","98","808726","0.0-2.0-17.3-1.3","battery-v0.2","","""event"",""trial"",""time""
""fullscreenenter"",""1"",""29900""
","
","
","""event"",""trial"",""time""
""fullscreenenter"",""1"",""29900""
","
","","","72.40000000596046","","","22","7262","3897","&#9789;","elianto","#f73b6a7A"," "," ","1","0","[16.700000017881393,565.5999999940395,922.7000000178814,1436.5,1626.5,1806.2000000178814,1933.2000000178814,2219.4000000059605,2424.9000000059605,2630.0999999940395]","10","0","4","","","","","","","",""
"pit-trial","99","812178","0.0-2.0-17.3-2.3","battery-v0.2","","""event"",""trial"",""time""
""fullscreenenter"",""1"",""29900""
","
","
","""event"",""trial"",""time""
""fullscreenenter"",""1"",""29900""
","
","","","596.5999999940395","","","22","7262","3897","&#9789;","elianto","#f73b6a7A"," "," ","1","0","[32.29999998211861,185.2999999821186,350.19999998807907,543.2999999821186,1447.3999999761581,1614.2999999821186,2208.199999988079]","7","0","4","","","","","","","",""
"pit-trial","100","815160","0.0-2.0-17.3-3.3","battery-v0.2","","""event"",""trial"",""time""
""fullscreenenter"",""1"",""29900""
","
","
","""event"",""trial"",""time""
""fullscreenenter"",""1"",""29900""
","
","","","127","","","22","7262","3897","&#9789;","elianto","#f73b6a7A"," "," ","1","-10","[91.69999998807907,775.5,977.0999999940395,1682.800000011921,1860.0999999940395,2237.300000011921,2421.4000000059605,2674.4000000059605,2834.199999988079]","9","0","4","","","","","","","",""
"pit-trial","101","818139","0.0-2.0-17.3-4.3","battery-v0.2","","""event"",""trial"",""time""
""fullscreenenter"",""1"",""29900""
","
","
","""event"",""trial"",""time""
""fullscreenenter"",""1"",""29900""
","
","","","123.5","","","22","7262","3897","&#9789;","elianto","#f73b6a7A"," "," ","1","0","[343.69999998807907,561.6999999880791,974.1999999880791,1997,2794.2999999821186]","5","0","4","","","","","","","",""
"call-function","102","818142","0.0-2.0-18.0","battery-v0.2","","""event"",""trial"",""time""
""fullscreenenter"",""1"",""29900""
","
","
","""event"",""trial"",""time""
""fullscreenenter"",""1"",""29900""
","
","","","","","","","","","","","","","","","","","","","","","","","","","","",""
"pit-instructions","103","902315","0.0-2.0-19.0","battery-v0.2","","""event"",""trial"",""time""
""fullscreenenter"",""1"",""29900""
","
","
","""event"",""trial"",""time""
""fullscreenenter"",""1"",""29900""
","
","","[{""page_index"":0,""viewing_time"":22229.09999999404},{""page_index"":1,""viewing_time"":5826.5},{""page_index"":2,""viewing_time"":10865.5},{""page_index"":3,""viewing_time"":6679},{""page_index"":4,""viewing_time"":8679.59999999404},{""page_index"":5,""viewing_time"":8427},{""page_index"":6,""viewing_time"":8340.800000011921},{""page_index"":7,""viewing_time"":8284.09999999404},{""page_index"":8,""viewing_time"":4840.700000017881}]","84173.30000001192","","","","","","","","","","","","","","","","","","","","","","","",""
"pit-comprehension","104","909445","0.0-2.0-20.0-0.0","battery-v0.2","","""event"",""trial"",""time""
""fullscreenenter"",""1"",""29900""
","
","
","""event"",""trial"",""time""
""fullscreenenter"",""1"",""29900""
","
","","","7119.0999999940395","[""SPACE""]","0","22","7262","3897","","","","","","","","","","","","","","","","","","",""
"pit-instructions","105","914775","0.0-2.0-20.0-1.0","battery-v0.2","","""event"",""trial"",""time""
""fullscreenenter"",""1"",""29900""
","
","
","""event"",""trial"",""time""
""fullscreenenter"",""1"",""29900""
","
","","[{""page_index"":0,""viewing_time"":5247.299999982119}]","5248.4000000059605","","","","","","","","","","","","","","","","","","","","","","","",""
"pit-comprehension","106","921172","0.0-2.0-21.0-0.0","battery-v0.2","","""event"",""trial"",""time""
""fullscreenenter"",""1"",""29900""
","
","
","""event"",""trial"",""time""
""fullscreenenter"",""1"",""29900""
","
","","","6387.199999988079","[""10""]","0","22","7262","3897","","","","","","","","","","","","","","","","","","",""
"pit-instructions","107","924222","0.0-2.0-21.0-1.0","battery-v0.2","","""event"",""trial"",""time""
""fullscreenenter"",""1"",""29900""
","
","
","""event"",""trial"",""time""
""fullscreenenter"",""1"",""29900""
","
","","[{""page_index"":0,""viewing_time"":2992.5}]","2993.5","","","","","","","","","","","","","","","","","","","","","","","",""
"pit-comprehension","108","931628","0.0-2.0-22.0-0.0","battery-v0.2","","""event"",""trial"",""time""
""fullscreenenter"",""1"",""29900""
","
","
","""event"",""trial"",""time""
""fullscreenenter"",""1"",""29900""
","
","","","7395.199999988079","[""-10""]","1","22","7262","3897","","","","","","","","","","","","","","","","","","",""
"pit-instructions","109","945930","0.0-2.0-22.0-1.0","battery-v0.2","","""event"",""trial"",""time""
""fullscreenenter"",""1"",""29900""
","
","
","""event"",""trial"",""time""
""fullscreenenter"",""1"",""29900""
","
","","[{""page_index"":0,""viewing_time"":14243.199999988079}]","14244.09999999404","","","","","","","","","","","","","","","","","","","","","","","",""
"pit-instructions","110","948705","0.0-2.0-22.0-2.0-0.0","battery-v0.2","","""event"",""trial"",""time""
""fullscreenenter"",""1"",""29900""
","
","
","""event"",""trial"",""time""
""fullscreenenter"",""1"",""29900""
","
","","[{""page_index"":0,""viewing_time"":2766.9000000059605}]","2768.199999988079","","","","","","","","","","","","","","","","","","","","","","","",""
"pit-comprehension","111","955610","0.0-2.0-22.1-0.1","battery-v0.2","","""event"",""trial"",""time""
""fullscreenenter"",""1"",""29900""
","
","
","""event"",""trial"",""time""
""fullscreenenter"",""1"",""29900""
","
","","","6896","[""0""]","0","22","7262","3897","","","","","","","","","","","","","","","","","","",""
"pit-instructions","112","958001","0.0-2.0-22.1-1.1","battery-v0.2","","""event"",""trial"",""time""
""fullscreenenter"",""1"",""29900""
","
","
","""event"",""trial"",""time""
""fullscreenenter"",""1"",""29900""
","
","","[{""page_index"":0,""viewing_time"":2341.9000000059605}]","2343.199999988079","","","","","","","","","","","","","","","","","","","","","","","",""
"pit-comprehension","113","967637","0.0-2.0-23.0-0.0","battery-v0.2","","""event"",""trial"",""time""
""fullscreenenter"",""1"",""29900""
","
","
","""event"",""trial"",""time""
""fullscreenenter"",""1"",""29900""
","
","","","9626.300000011921","[""False""]","1","22","7262","3897","","","","","","","","","","","","","","","","","","",""
"pit-instructions","114","971624","0.0-2.0-23.0-1.0","battery-v0.2","","""event"",""trial"",""time""
""fullscreenenter"",""1"",""29900""
","
","
","""event"",""trial"",""time""
""fullscreenenter"",""1"",""29900""
","
","","[{""page_index"":0,""viewing_time"":3918.699999988079}]","3919.7999999821186","","","","","","","","","","","","","","","","","","","","","","","",""
"pit-instructions","115","973157","0.0-2.0-23.0-2.0-0.0","battery-v0.2","","""event"",""trial"",""time""
""fullscreenenter"",""1"",""29900""
","
","
","""event"",""trial"",""time""
""fullscreenenter"",""1"",""29900""
","
","","[{""page_index"":0,""viewing_time"":1526.699999988079}]","1527.4000000059605","","","","","","","","","","","","","","","","","","","","","","","",""
"pit-comprehension","116","983048","0.0-2.0-23.1-0.1","battery-v0.2","","""event"",""trial"",""time""
""fullscreenenter"",""1"",""29900""
","
","
","""event"",""trial"",""time""
""fullscreenenter"",""1"",""29900""
","
","","","9885.199999988079","[""True""]","0","22","7262","3897","","","","","","","","","","","","","","","","","","",""
"pit-instructions","117","986784","0.0-2.0-23.1-1.1","battery-v0.2","","""event"",""trial"",""time""
""fullscreenenter"",""1"",""29900""
","
","
","""event"",""trial"",""time""
""fullscreenenter"",""1"",""29900""
","
","","[{""page_index"":0,""viewing_time"":3667.2000000178814}]","3668.300000011921","","","","","","","","","","","","","","","","","","","","","","","",""
"pit-comprehension","118","994374","0.0-2.0-24.0-0.0","battery-v0.2","","""event"",""trial"",""time""
""fullscreenenter"",""1"",""29900""
","
","
","""event"",""trial"",""time""
""fullscreenenter"",""1"",""29900""
","
","","","7582.699999988079","[""True""]","0","22","7262","3897","","","","","","","","","","","","","","","","","","",""
"pit-instructions","119","996416","0.0-2.0-24.0-1.0","battery-v0.2","","""event"",""trial"",""time""
""fullscreenenter"",""1"",""29900""
","
","
","""event"",""trial"",""time""
""fullscreenenter"",""1"",""29900""
","
","","[{""page_index"":0,""viewing_time"":1978.9000000059605}]","1979.800000011921","","","","","","","","","","","","","","","","","","","","","","","",""
"pit-comprehension","120","1003490","0.0-2.0-25.0-0.0","battery-v0.2","","""event"",""trial"",""time""
""fullscreenenter"",""1"",""29900""
","
","
","""event"",""trial"",""time""
""fullscreenenter"",""1"",""29900""
","
","","","7065.9000000059605","[""True""]","0","22","7262","3897","","","","","","","","","","","","","","","","","","",""
"pit-instructions","121","1005734","0.0-2.0-25.0-1.0","battery-v0.2","","""event"",""trial"",""time""
""fullscreenenter"",""1"",""29900""
","
","
","""event"",""trial"",""time""
""fullscreenenter"",""1"",""29900""
","
","","[{""page_index"":0,""viewing_time"":2191.4000000059605}]","2191.9000000059605","","","","","","","","","","","","","","","","","","","","","","","",""
"pit-comprehension","122","1012278","0.0-2.0-26.0-0.0","battery-v0.2","","""event"",""trial"",""time""
""fullscreenenter"",""1"",""29900""
","
","
","""event"",""trial"",""time""
""fullscreenenter"",""1"",""29900""
","
","","","6539.199999988079","[""True""]","1","22","7262","3897","","","","","","","","","","","","","","","","","","",""
"pit-instructions","123","1014327","0.0-2.0-26.0-1.0","battery-v0.2","","""event"",""trial"",""time""
""fullscreenenter"",""1"",""29900""
","
","
","""event"",""trial"",""time""
""fullscreenenter"",""1"",""29900""
","
","","[{""page_index"":0,""viewing_time"":2002.5}]","2003.7999999821186","","","","","","","","","","","","","","","","","","","","","","","",""
"pit-instructions","124","1016684","0.0-2.0-26.0-2.0-0.0","battery-v0.2","","""event"",""trial"",""time""
""fullscreenenter"",""1"",""29900""
","
","
","""event"",""trial"",""time""
""fullscreenenter"",""1"",""29900""
","
","","[{""page_index"":0,""viewing_time"":2348.7999999821186}]","2350.0999999940395","","","","","","","","","","","","","","","","","","","","","","","",""
"pit-comprehension","125","1023149","0.0-2.0-26.1-0.1","battery-v0.2","","""event"",""trial"",""time""
""fullscreenenter"",""1"",""29900""
","
","
","""event"",""trial"",""time""
""fullscreenenter"",""1"",""29900""
","
","","","6457","[""False""]","0","22","7262","3897","","","","","","","","","","","","","","","","","","",""
"pit-instructions","126","1025132","0.0-2.0-26.1-1.1","battery-v0.2","","""event"",""trial"",""time""
""fullscreenenter"",""1"",""29900""
","
","
","""event"",""trial"",""time""
""fullscreenenter"",""1"",""29900""
","
","","[{""page_index"":0,""viewing_time"":1907.800000011921}]","1908.9000000059605","","","","","","","","","","","","","","","","","","","","","","","",""
"pit-instructions","127","1042693","0.0-3.0","battery-v0.2","","""event"",""trial"",""time""
""fullscreenenter"",""1"",""29900""
","
","
","""event"",""trial"",""time""
""fullscreenenter"",""1"",""29900""
","
","","[{""page_index"":0,""viewing_time"":5224.4000000059605},{""page_index"":1,""viewing_time"":6296.300000011921},{""page_index"":2,""viewing_time"":6034.799999982119}]","17555.90000000596","","","","","","","","","","","","","","","","","","","","","","","",""
"pit-trial","128","1046492","0.0-4.0","battery-v0.2","","""event"",""trial"",""time""
""fullscreenenter"",""1"",""29900""
","
","
","""event"",""trial"",""time""
""fullscreenenter"",""1"",""29900""
","
","","","934.8999999761581","","","22","7262","3897","&#9733;","elianto","#3366ff99","-1"," ","0","0","[1785.8999999761581]","1","1","","","7262","1","2","2","win","no-go","0"
"pit-trial","129","1051369","0.0-5.0","battery-v0.2","","""event"",""trial"",""time""
""fullscreenenter"",""1"",""29900""
","
","
","""event"",""trial"",""time""
""fullscreenenter"",""1"",""29900""
","
","","","-1","","","22","7262","3897","&#9728;","elianto","#f73b6a7A","-1","-1","1","0","[]","0","1","","","7262","2","0","4","lose","no-go","0"
"pit-trial","130","1055045","0.0-6.0","battery-v0.2","","""event"",""trial"",""time""
""fullscreenenter"",""1"",""29900""
","
","
","""event"",""trial"",""time""
""fullscreenenter"",""1"",""29900""
","
","","","811.5","","","22","7262","3897","&#9730;","elianto","#3366ff99"," "," ","1","+10","[1661.5]","1","1","","","7262","3","1","1","win","go","0"
"pit-trial","131","1059906","0.0-7.0","battery-v0.2","","""event"",""trial"",""time""
""fullscreenenter"",""1"",""29900""
","
","
","""event"",""trial"",""time""
""fullscreenenter"",""1"",""29900""
","
","","","-1","","","22","7262","3897","&#9752;","elianto","#f73b6a7A"," ","-1","0","0","[]","0","1","","","7262","4","3","3","lose","go","1"
"pit-trial","132","1063337","0.0-8.0","battery-v0.2","","""event"",""trial"",""time""
""fullscreenenter"",""1"",""29900""
","
","
","""event"",""trial"",""time""
""fullscreenenter"",""1"",""29900""
","
","","","563.2000000178814","","","22","7262","3897","&#9730;","elianto","#3366ff99"," "," ","1","+10","[1420.300000011921]","1","1","","","7262","5","1","1","win","go","0"
"pit-trial","133","1066996","0.0-9.0","battery-v0.2","","""event"",""trial"",""time""
""fullscreenenter"",""1"",""29900""
","
","
","""event"",""trial"",""time""
""fullscreenenter"",""1"",""29900""
","
","","","791.2000000178814","","","22","7262","3897","&#9733;","elianto","#3366ff99","-1"," ","0","0","[1649.800000011921]","1","1","","","7262","6","2","2","win","no-go","0"
"pit-trial","134","1071852","0.0-10.0","battery-v0.2","","""event"",""trial"",""time""
""fullscreenenter"",""1"",""29900""
","
","
","""event"",""trial"",""time""
""fullscreenenter"",""1"",""29900""
","
","","","-1","","","22","7262","3897","&#9728;","elianto","#f73b6a7A","-1","-1","1","0","[]","0","1","","","7262","7","0","4","lose","no-go","0"
"pit-trial","135","1076707","0.0-11.0","battery-v0.2","","""event"",""trial"",""time""
""fullscreenenter"",""1"",""29900""
","
","
","""event"",""trial"",""time""
""fullscreenenter"",""1"",""29900""
","
","","","-1","","","22","7262","3897","&#9752;","elianto","#f73b6a7A"," ","-1","0","-10","[]","0","1","","","7262","8","3","3","lose","go","0"
"pit-trial","136","1080223","0.0-12.0","battery-v0.2","","""event"",""trial"",""time""
""fullscreenenter"",""1"",""29900""
","
","
","""event"",""trial"",""time""
""fullscreenenter"",""1"",""29900""
","
","","","659.6999999880791","","","22","7262","3897","&#9730;","elianto","#3366ff99"," "," ","1","+10","[1510.4000000059605]","1","1","","","7262","9","1","1","win","go","0"
"pit-trial","137","1085080","0.0-13.0","battery-v0.2","","""event"",""trial"",""time""
""fullscreenenter"",""1"",""29900""
","
","
","""event"",""trial"",""time""
""fullscreenenter"",""1"",""29900""
","
","","","-1","","","22","7262","3897","&#9728;","elianto","#f73b6a7A","-1","-1","1","0","[]","0","1","","","7262","10","0","4","lose","no-go","0"
"pit-trial","138","1089941","0.0-14.0","battery-v0.2","","""event"",""trial"",""time""
""fullscreenenter"",""1"",""29900""
","
","
","""event"",""trial"",""time""
""fullscreenenter"",""1"",""29900""
","
","","","-1","","","22","7262","3897","&#9752;","elianto","#f73b6a7A"," ","-1","0","0","[]","0","1","","","7262","11","3","3","lose","go","1"
"pit-trial","139","1093401","0.0-15.0","battery-v0.2","","""event"",""trial"",""time""
""fullscreenenter"",""1"",""29900""
","
","
","""event"",""trial"",""time""
""fullscreenenter"",""1"",""29900""
","
","","","607","","","22","7262","3897","&#9733;","elianto","#3366ff99","-1"," ","0","0","[1457]","1","1","","","7262","12","2","2","win","no-go","0"
"pit-trial","140","1098259","0.0-16.0","battery-v0.2","","""event"",""trial"",""time""
""fullscreenenter"",""1"",""29900""
","
","
","""event"",""trial"",""time""
""fullscreenenter"",""1"",""29900""
","
","","","-1","","","22","7262","3897","&#9728;","elianto","#f73b6a7A","-1","-1","1","0","[]","0","1","","","7262","13","0","4","lose","no-go","0"
"pit-trial","141","1101987","0.0-17.0","battery-v0.2","","""event"",""trial"",""time""
""fullscreenenter"",""1"",""29900""
","
","
","""event"",""trial"",""time""
""fullscreenenter"",""1"",""29900""
","
","","","871.6999999880791","","","22","7262","3897","&#9730;","elianto","#3366ff99"," "," ","1","+10","[1722.3999999761581]","1","1","","","7262","14","1","1","win","go","0"
"pit-trial","142","1106844","0.0-18.0","battery-v0.2","","""event"",""trial"",""time""
""fullscreenenter"",""1"",""29900""
","
","
","""event"",""trial"",""time""
""fullscreenenter"",""1"",""29900""
","
","","","-1","","","22","7262","3897","&#9752;","elianto","#f73b6a7A"," ","-1","0","-10","[]","0","1","","","7262","15","3","3","lose","go","0"
"pit-trial","143","1110874","0.0-19.0","battery-v0.2","","""event"",""trial"",""time""
""fullscreenenter"",""1"",""29900""
","
","
","""event"",""trial"",""time""
""fullscreenenter"",""1"",""29900""
","
","","","1173.7000000178814","","","22","7262","3897","&#9733;","elianto","#3366ff99","-1"," ","0","+10","[2024.1000000238419]","1","1","","","7262","16","2","2","win","no-go","1"
"pit-trial","144","1114782","0.0-20.0","battery-v0.2","","""event"",""trial"",""time""
""fullscreenenter"",""1"",""29900""
","
","
","""event"",""trial"",""time""
""fullscreenenter"",""1"",""29900""
","
","","","1053.4000000059605","","","22","7262","3897","&#9752;","elianto","#f73b6a7A"," "," ","1","0","[1904.300000011921]","1","1","","","7262","17","3","3","lose","go","0"
"pit-trial","145","1119638","0.0-21.0","battery-v0.2","","""event"",""trial"",""time""
""fullscreenenter"",""1"",""29900""
","
","
","""event"",""trial"",""time""
""fullscreenenter"",""1"",""29900""
","
","","","-1","","","22","7262","3897","&#9728;","elianto","#f73b6a7A","-1","-1","1","-10","[]","0","1","","","7262","18","0","4","lose","no-go","1"
"pit-trial","146","1123186","0.0-22.0","battery-v0.2","","""event"",""trial"",""time""
""fullscreenenter"",""1"",""29900""
","
","
","""event"",""trial"",""time""
""fullscreenenter"",""1"",""29900""
","
","","","692.0999999940395","","","22","7262","3897","&#9733;","elianto","#3366ff99","-1"," ","0","0","[1542.4000000059605]","1","1","","","7262","19","2","2","win","no-go","0"
"pit-trial","147","1126789","0.0-23.0","battery-v0.2","","""event"",""trial"",""time""
""fullscreenenter"",""1"",""29900""
","
","
","""event"",""trial"",""time""
""fullscreenenter"",""1"",""29900""
","
","","","747.8000000119209","","","22","7262","3897","&#9730;","elianto","#3366ff99"," "," ","1","+10","[1598.2000000178814]","1","1","","","7262","20","1","1","win","go","0"
"pit-instructions","148","1139150","0.0-24.0","battery-v0.2","","""event"",""trial"",""time""
""fullscreenenter"",""1"",""29900""
","
","
","""event"",""trial"",""time""
""fullscreenenter"",""1"",""29900""
","
","","[{""page_index"":0,""viewing_time"":5842.199999988079},{""page_index"":1,""viewing_time"":6513.300000011921}]","12356.399999976158","","","","","","","","","","","","","","","","","","","","","","","",""
"pit-trial","149","1144034","0.0-25.0","battery-v0.2","","""event"",""trial"",""time""
""fullscreenenter"",""1"",""29900""
","
","
","""event"",""trial"",""time""
""fullscreenenter"",""1"",""29900""
","
","","","-1","","","22","7262","3897","m","elianto","#f73b6a7A","-1","-1","1","0","[]","0","2","","","7262","21","0","4","lose","no-go","0"
"pit-trial","150","1147982","0.0-26.0","battery-v0.2","","""event"",""trial"",""time""
""fullscreenenter"",""1"",""29900""
","
","
","""event"",""trial"",""time""
""fullscreenenter"",""1"",""29900""
","
","","","1086.7000000178814","","","22","7262","3897","r","elianto","#3366ff99"," "," ","1","0","[1936.6000000238419]","1","2","","","7262","22","1","1","win","go","1"
"pit-trial","151","1151959","0.0-27.0","battery-v0.2","","""event"",""trial"",""time""
""fullscreenenter"",""1"",""29900""
","
","
","""event"",""trial"",""time""
""fullscreenenter"",""1"",""29900""
","
","","","1116","","","22","7262","3897","h","elianto","#f73b6a7A"," "," ","1","-10","[1967.7999999821186]","1","2","","","7262","23","3","3","lose","go","1"
"pit-trial","152","1156808","0.0-28.0","battery-v0.2","","""event"",""trial"",""time""
""fullscreenenter"",""1"",""29900""
","
","
","""event"",""trial"",""time""
""fullscreenenter"",""1"",""29900""
","
","","","1976.5","","","22","7262","3897","y","elianto","#f73b6a7A","-1"," ","0","-10","[2828.5]","1","2","","","7262","24","2","4","lose","no-go","0"
"pit-trial","153","1161678","0.0-29.0","battery-v0.2","","""event"",""trial"",""time""
""fullscreenenter"",""1"",""29900""
","
","
","""event"",""trial"",""time""
""fullscreenenter"",""1"",""29900""
","
","","","-1","","","22","7262","3897","m","elianto","#f73b6a7A","-1","-1","1","0","[]","0","2","","","7262","25","0","4","lose","no-go","0"
"pit-trial","154","1166550","0.0-30.0","battery-v0.2","","""event"",""trial"",""time""
""fullscreenenter"",""1"",""29900""
","
","
","""event"",""trial"",""time""
""fullscreenenter"",""1"",""29900""
","
","","","-1","","","22","7262","3897","r","elianto","#3366ff99"," ","-1","0","+10","[]","0","2","","","7262","26","1","1","win","go","1"
"pit-trial","155","1171411","0.0-31.0","battery-v0.2","","""event"",""trial"",""time""
""fullscreenenter"",""1"",""29900""
","
","
","""event"",""trial"",""time""
""fullscreenenter"",""1"",""29900""
","
","","","-1","","","22","7262","3897","h","elianto","#f73b6a7A"," ","-1","0","-10","[]","0","2","","","7262","27","3","3","lose","go","0"
"pit-trial","156","1175185","0.0-32.0","battery-v0.2","","""event"",""trial"",""time""
""fullscreenenter"",""1"",""29900""
","
","
","""event"",""trial"",""time""
""fullscreenenter"",""1"",""29900""
","
","","","916.3999999761581","","","22","7262","3897","y","elianto","#f73b6a7A","-1"," ","0","0","[1767.699999988079]","1","2","","","7262","28","2","4","lose","no-go","1"
"pit-trial","157","1179465","0.0-33.0","battery-v0.2","","""event"",""trial"",""time""
""fullscreenenter"",""1"",""29900""
","
","
","""event"",""trial"",""time""
""fullscreenenter"",""1"",""29900""
","
","","","1424.5","","","22","7262","3897","h","elianto","#f73b6a7A"," "," ","1","0","[2275.2000000178814]","1","2","","","7262","29","3","3","lose","go","0"
"pit-trial","158","1184322","0.0-34.0","battery-v0.2","","""event"",""trial"",""time""
""fullscreenenter"",""1"",""29900""
","
","
","""event"",""trial"",""time""
""fullscreenenter"",""1"",""29900""
","
","","","-1","","","22","7262","3897","y","elianto","#f73b6a7A","-1","-1","1","0","[]","0","2","","","7262","30","2","4","lose","no-go","0"
"pit-trial","159","1189126","0.0-35.0","battery-v0.2","","""event"",""trial"",""time""
""fullscreenenter"",""1"",""29900""
","
","
","""event"",""trial"",""time""
""fullscreenenter"",""1"",""29900""
","
","","","1944.5","","","22","7262","3897","m","elianto","#f73b6a7A","-1"," ","0","-10","[2798.199999988079]","1","2","","","7262","31","0","4","lose","no-go","0"
"pit-trial","160","1193390","0.0-36.0","battery-v0.2","","""event"",""trial"",""time""
""fullscreenenter"",""1"",""29900""
","
","
","""event"",""trial"",""time""
""fullscreenenter"",""1"",""29900""
","
","","","1407.300000011921","","","22","7262","3897","r","elianto","#3366ff99"," "," ","1","+10","[2257.7000000178814]","1","2","","","7262","32","1","1","win","go","0"
"pit-trial","161","1198248","0.0-37.0","battery-v0.2","","""event"",""trial"",""time""
""fullscreenenter"",""1"",""29900""
","
","
","""event"",""trial"",""time""
""fullscreenenter"",""1"",""29900""
","
","","","-1","","","22","7262","3897","r","elianto","#3366ff99"," ","-1","0","0","[]","0","2","","","7262","33","1","1","win","go","0"
"pit-trial","162","1201633","0.0-38.0","battery-v0.2","","""event"",""trial"",""time""
""fullscreenenter"",""1"",""29900""
","
","
","""event"",""trial"",""time""
""fullscreenenter"",""1"",""29900""
","
","","","529.5999999940395","","","22","7262","3897","y","elianto","#f73b6a7A","-1"," ","0","-10","[1380.199999988079]","1","2","","","7262","34","2","4","lose","no-go","0"
"pit-trial","163","1206491","0.0-39.0","battery-v0.2","","""event"",""trial"",""time""
""fullscreenenter"",""1"",""29900""
","
","
","""event"",""trial"",""time""
""fullscreenenter"",""1"",""29900""
","
","","","-1","","","22","7262","3897","h","elianto","#f73b6a7A"," ","-1","0","-10","[]","0","2","","","7262","35","3","3","lose","go","0"
"pit-trial","164","1211347","0.0-40.0","battery-v0.2","","""event"",""trial"",""time""
""fullscreenenter"",""1"",""29900""
","
","
","""event"",""trial"",""time""
""fullscreenenter"",""1"",""29900""
","
","","","-1","","","22","7262","3897","m","elianto","#f73b6a7A","-1","-1","1","-10","[4480.4000000059605]","1","2","","","7262","36","0","4","lose","no-go","1"
"pit-trial","165","1215136","0.0-41.0","battery-v0.2","","""event"",""trial"",""time""
""fullscreenenter"",""1"",""29900""
","
","
","""event"",""trial"",""time""
""fullscreenenter"",""1"",""29900""
","
","","","927.5999999940395","","","22","7262","3897","y","elianto","#f73b6a7A","-1"," ","0","-10","[242.80000001192093,1783.300000011921]","2","2","","","7262","37","2","4","lose","no-go","0"
"pit-trial","166","1219447","0.0-42.0","battery-v0.2","","""event"",""trial"",""time""
""fullscreenenter"",""1"",""29900""
","
","
","""event"",""trial"",""time""
""fullscreenenter"",""1"",""29900""
","
","","","1456.0999999940395","","","22","7262","3897","h","elianto","#f73b6a7A"," "," ","1","0","[2306.2999999821186]","1","2","","","7262","38","3","3","lose","go","0"
"pit-trial","167","1224271","0.0-43.0","battery-v0.2","","""event"",""trial"",""time""
""fullscreenenter"",""1"",""29900""
","
","
","""event"",""trial"",""time""
""fullscreenenter"",""1"",""29900""
","
","","","1964.800000011921","","","22","7262","3897","m","elianto","#f73b6a7A","-1"," ","0","0","[2817.0999999940395]","1","2","","","7262","39","0","4","lose","no-go","1"
"pit-trial","168","1228073","0.0-44.0","battery-v0.2","","""event"",""trial"",""time""
""fullscreenenter"",""1"",""29900""
","
","
","""event"",""trial"",""time""
""fullscreenenter"",""1"",""29900""
","
","","","940.4000000059605","","","22","7262","3897","r","elianto","#3366ff99"," "," ","1","0","[1797]","1","2","","","7262","40","1","1","win","go","1"
"pit-trial","169","1232928","0.0-45.0","battery-v0.2","","""event"",""trial"",""time""
""fullscreenenter"",""1"",""29900""
","
","
","""event"",""trial"",""time""
""fullscreenenter"",""1"",""29900""
","
","","","-1","","","22","7262","3897","h","elianto","#f73b6a7A"," ","-1","0","-10","[4764.799999982119]","1","2","","","7262","41","3","3","lose","go","0"
"pit-trial","170","1236770","0.0-46.0","battery-v0.2","","""event"",""trial"",""time""
""fullscreenenter"",""1"",""29900""
","
","
","""event"",""trial"",""time""
""fullscreenenter"",""1"",""29900""
","
","","","988.2999999821186","","","22","7262","3897","m","elianto","#f73b6a7A","-1"," ","0","-10","[1838.699999988079]","1","2","","","7262","42","0","4","lose","no-go","0"
"pit-trial","171","1240485","0.0-47.0","battery-v0.2","","""event"",""trial"",""time""
""fullscreenenter"",""1"",""29900""
","
","
","""event"",""trial"",""time""
""fullscreenenter"",""1"",""29900""
","
","","","859","","","22","7262","3897","r","elianto","#3366ff99"," "," ","1","+10","[1709.6000000238419]","1","2","","","7262","43","1","1","win","go","0"
"pit-trial","172","1244609","0.0-48.0","battery-v0.2","","""event"",""trial"",""time""
""fullscreenenter"",""1"",""29900""
","
","
","""event"",""trial"",""time""
""fullscreenenter"",""1"",""29900""
","
","","","1267","","","22","7262","3897","y","elianto","#f73b6a7A","-1"," ","0","-10","[2118.699999988079]","1","2","","","7262","44","2","4","lose","no-go","0"
"pit-trial","173","1249466","0.0-49.0","battery-v0.2","","""event"",""trial"",""time""
""fullscreenenter"",""1"",""29900""
","
","
","""event"",""trial"",""time""
""fullscreenenter"",""1"",""29900""
","
","","","-1","","","22","7262","3897","y","elianto","#f73b6a7A","-1","-1","1","0","[]","0","2","","","7262","45","2","4","lose","no-go","0"
"pit-trial","174","1254324","0.0-50.0","battery-v0.2","","""event"",""trial"",""time""
""fullscreenenter"",""1"",""29900""
","
","
","""event"",""trial"",""time""
""fullscreenenter"",""1"",""29900""
","
","","","-1","","","22","7262","3897","m","elianto","#f73b6a7A","-1","-1","1","0","[]","0","2","","","7262","46","0","4","lose","no-go","0"
"pit-trial","175","1258068","0.0-51.0","battery-v0.2","","""event"",""trial"",""time""
""fullscreenenter"",""1"",""29900""
","
","
","""event"",""trial"",""time""
""fullscreenenter"",""1"",""29900""
","
","","","887.3999999761581","","","22","7262","3897","z","elianto","#3366ff99","-1"," ","0","0","[1737.699999988079]","1","2","","","7262","47","4","2","win","no-go","0"
"pit-trial","176","1262924","0.0-52.0","battery-v0.2","","""event"",""trial"",""time""
""fullscreenenter"",""1"",""29900""
","
","
","""event"",""trial"",""time""
""fullscreenenter"",""1"",""29900""
","
","","","-1","","","22","7262","3897","h","elianto","#f73b6a7A"," ","-1","0","-10","[]","0","2","","","7262","48","3","3","lose","go","0"
"pit-trial","177","1267780","0.0-53.0","battery-v0.2","","""event"",""trial"",""time""
""fullscreenenter"",""1"",""29900""
","
","
","""event"",""trial"",""time""
""fullscreenenter"",""1"",""29900""
","
","","","-1","","","22","7262","3897","m","elianto","#f73b6a7A","-1","-1","1","0","[]","0","2","","","7262","49","0","4","lose","no-go","0"
"pit-trial","178","1271526","0.0-54.0","battery-v0.2","","""event"",""trial"",""time""
""fullscreenenter"",""1"",""29900""
","
","
","""event"",""trial"",""time""
""fullscreenenter"",""1"",""29900""
","
","","","886.5999999940395","","","22","7262","3897","r","elianto","#3366ff99"," "," ","1","+10","[1740.0999999940395]","1","2","","","7262","50","1","1","win","go","0"
"pit-trial","179","1276032","0.0-55.0","battery-v0.2","","""event"",""trial"",""time""
""fullscreenenter"",""1"",""29900""
","
","
","""event"",""trial"",""time""
""fullscreenenter"",""1"",""29900""
","
","","","1645.800000011921","","","22","7262","3897","h","elianto","#f73b6a7A"," "," ","1","0","[2499.0999999940395]","1","2","","","7262","51","3","3","lose","go","0"
"pit-trial","180","1280437","0.0-56.0","battery-v0.2","","""event"",""trial"",""time""
""fullscreenenter"",""1"",""29900""
","
","
","""event"",""trial"",""time""
""fullscreenenter"",""1"",""29900""
","
","","","1548.2999999821186","","","22","7262","3897","z","elianto","#3366ff99","-1"," ","0","0","[2399.4000000059605]","1","2","","","7262","52","4","2","win","no-go","0"
"pit-trial","181","1285291","0.0-57.0","battery-v0.2","","""event"",""trial"",""time""
""fullscreenenter"",""1"",""29900""
","
","
","""event"",""trial"",""time""
""fullscreenenter"",""1"",""29900""
","
","","","-1","","","22","7262","3897","m","elianto","#f73b6a7A","-1","-1","1","0","[]","0","2","","","7262","53","0","4","lose","no-go","0"
"pit-trial","182","1289150","0.0-58.0","battery-v0.2","","""event"",""trial"",""time""
""fullscreenenter"",""1"",""29900""
","
","
","""event"",""trial"",""time""
""fullscreenenter"",""1"",""29900""
","
","","","1001.4000000059605","","","22","7262","3897","y","elianto","#f73b6a7A","-1"," ","0","-10","[1853.1000000238419]","1","2","","","7262","54","2","4","lose","no-go","0"
"pit-trial","183","1294006","0.0-59.0","battery-v0.2","","""event"",""trial"",""time""
""fullscreenenter"",""1"",""29900""
","
","
","""event"",""trial"",""time""
""fullscreenenter"",""1"",""29900""
","
","","","-1","","","22","7262","3897","z","elianto","#3366ff99","-1","-1","1","0","[]","0","2","","","7262","55","4","2","win","no-go","1"
"pit-trial","184","1297975","0.0-60.0","battery-v0.2","","""event"",""trial"",""time""
""fullscreenenter"",""1"",""29900""
","
","
","""event"",""trial"",""time""
""fullscreenenter"",""1"",""29900""
","
","","","1111.699999988079","","","22","7262","3897","r","elianto","#3366ff99"," "," ","1","+10","[1962.699999988079]","1","2","","","7262","56","1","1","win","go","0"
"pit-trial","185","1302833","0.0-61.0","battery-v0.2","","""event"",""trial"",""time""
""fullscreenenter"",""1"",""29900""
","
","
","""event"",""trial"",""time""
""fullscreenenter"",""1"",""29900""
","
","","","-1","","","22","7262","3897","z","elianto","#3366ff99","-1","-1","1","+10","[]","0","2","","","7262","57","4","2","win","no-go","0"
"pit-trial","186","1307690","0.0-62.0","battery-v0.2","","""event"",""trial"",""time""
""fullscreenenter"",""1"",""29900""
","
","
","""event"",""trial"",""time""
""fullscreenenter"",""1"",""29900""
","
","","","-1","","","22","7262","3897","m","elianto","#f73b6a7A","-1","-1","1","0","[]","0","2","","","7262","58","0","4","lose","no-go","0"
"pit-trial","187","1312547","0.0-63.0","battery-v0.2","","""event"",""trial"",""time""
""fullscreenenter"",""1"",""29900""
","
","
","""event"",""trial"",""time""
""fullscreenenter"",""1"",""29900""
","
","","","-1","","","22","7262","3897","h","elianto","#f73b6a7A"," ","-1","0","-10","[2949.800000011921]","1","2","","","7262","59","3","3","lose","go","0"
"pit-trial","188","1317402","0.0-64.0","battery-v0.2","","""event"",""trial"",""time""
""fullscreenenter"",""1"",""29900""
","
","
","""event"",""trial"",""time""
""fullscreenenter"",""1"",""29900""
","
","","","-1","","","22","7262","3897","r","elianto","#3366ff99"," ","-1","0","+10","[]","0","2","","","7262","60","1","1","win","go","1"
"pit-trial","189","1322257","0.0-65.0","battery-v0.2","","""event"",""trial"",""time""
""fullscreenenter"",""1"",""29900""
","
","
","""event"",""trial"",""time""
""fullscreenenter"",""1"",""29900""
","
","","","-1","","","22","7262","3897","z","elianto","#3366ff99","-1","-1","1","+10","[]","0","2","","","7262","61","4","2","win","no-go","0"
"pit-trial","190","1326875","0.0-66.0","battery-v0.2","","""event"",""trial"",""time""
""fullscreenenter"",""1"",""29900""
","
","
","""event"",""trial"",""time""
""fullscreenenter"",""1"",""29900""
","
","","","1762","","","22","7262","3897","y","elianto","#f73b6a7A","-1"," ","0","-10","[2612.9000000059605]","1","2","","","7262","62","2","4","lose","no-go","0"
"pit-trial","191","1331733","0.0-67.0","battery-v0.2","","""event"",""trial"",""time""
""fullscreenenter"",""1"",""29900""
","
","
","""event"",""trial"",""time""
""fullscreenenter"",""1"",""29900""
","
","","","-1","","","22","7262","3897","r","elianto","#3366ff99"," ","-1","0","+10","[]","0","2","","","7262","63","1","1","win","go","1"
"pit-trial","192","1336589","0.0-68.0","battery-v0.2","","""event"",""trial"",""time""
""fullscreenenter"",""1"",""29900""
","
","
","""event"",""trial"",""time""
""fullscreenenter"",""1"",""29900""
","
","","","-1","","","22","7262","3897","h","elianto","#f73b6a7A"," ","-1","0","-10","[]","0","2","","","7262","64","3","3","lose","go","0"
"pit-trial","193","1340357","0.0-69.0","battery-v0.2","","""event"",""trial"",""time""
""fullscreenenter"",""1"",""29900""
","
","
","""event"",""trial"",""time""
""fullscreenenter"",""1"",""29900""
","
","","","911.5","","","22","7262","3897","r","elianto","#3366ff99"," "," ","1","0","[1762]","1","2","","","7262","65","1","1","win","go","1"
"pit-trial","194","1344973","0.0-70.0","battery-v0.2","","""event"",""trial"",""time""
""fullscreenenter"",""1"",""29900""
","
","
","""event"",""trial"",""time""
""fullscreenenter"",""1"",""29900""
","
","","","1762.5","","","22","7262","3897","z","elianto","#3366ff99","-1"," ","0","0","[2613]","1","2","","","7262","66","4","2","win","no-go","0"
"pit-trial","195","1349827","0.0-71.0","battery-v0.2","","""event"",""trial"",""time""
""fullscreenenter"",""1"",""29900""
","
","
","""event"",""trial"",""time""
""fullscreenenter"",""1"",""29900""
","
","","","-1","","","22","7262","3897","y","elianto","#f73b6a7A","-1","-1","1","0","[]","0","2","","","7262","67","2","4","lose","no-go","0"
"pit-trial","196","1354683","0.0-72.0","battery-v0.2","","""event"",""trial"",""time""
""fullscreenenter"",""1"",""29900""
","
","
","""event"",""trial"",""time""
""fullscreenenter"",""1"",""29900""
","
","","","-1","","","22","7262","3897","h","elianto","#f73b6a7A"," ","-1","0","0","[]","0","2","","","7262","68","3","3","lose","go","1"
"pit-trial","197","1359541","0.0-73.0","battery-v0.2","","""event"",""trial"",""time""
""fullscreenenter"",""1"",""29900""
","
","
","""event"",""trial"",""time""
""fullscreenenter"",""1"",""29900""
","
","","","-1","","","22","7262","3897","h","elianto","#f73b6a7A"," ","-1","0","-10","[]","0","2","","","7262","69","3","3","lose","go","0"
"pit-trial","198","1363531","0.0-74.0","battery-v0.2","","""event"",""trial"",""time""
""fullscreenenter"",""1"",""29900""
","
","
","""event"",""trial"",""time""
""fullscreenenter"",""1"",""29900""
","
","","","1134.2999999821186","","","22","7262","3897","c","elianto","#3366ff99"," "," ","1","0","[1984.4000000059605]","1","2","","","7262","70","5","1","win","go","1"
"pit-trial","199","1367308","0.0-75.0","battery-v0.2","","""event"",""trial"",""time""
""fullscreenenter"",""1"",""29900""
","
","
","""event"",""trial"",""time""
""fullscreenenter"",""1"",""29900""
","
","","","921.8000000119209","","","22","7262","3897","r","elianto","#3366ff99"," "," ","1","0","[1772.300000011921]","1","2","","","7262","71","1","1","win","go","1"
"pit-trial","200","1371419","0.0-76.0","battery-v0.2","","""event"",""trial"",""time""
""fullscreenenter"",""1"",""29900""
","
","
","""event"",""trial"",""time""
""fullscreenenter"",""1"",""29900""
","
","","","1256.5","","","22","7262","3897","z","elianto","#3366ff99","-1"," ","0","0","[2107.199999988079]","1","2","","","7262","72","4","2","win","no-go","0"
"pit-trial","201","1376273","0.0-77.0","battery-v0.2","","""event"",""trial"",""time""
""fullscreenenter"",""1"",""29900""
","
","
","""event"",""trial"",""time""
""fullscreenenter"",""1"",""29900""
","
","","","-1","","","22","7262","3897","c","elianto","#3366ff99"," ","-1","0","0","[]","0","2","","","7262","73","5","1","win","go","0"
"pit-trial","202","1379853","0.0-78.0","battery-v0.2","","""event"",""trial"",""time""
""fullscreenenter"",""1"",""29900""
","
","
","""event"",""trial"",""time""
""fullscreenenter"",""1"",""29900""
","
","","","726.5","","","22","7262","3897","h","elianto","#f73b6a7A"," "," ","1","-10","[1577.2000000178814]","1","2","","","7262","74","3","3","lose","go","1"
"pit-trial","203","1383654","0.0-79.0","battery-v0.2","","""event"",""trial"",""time""
""fullscreenenter"",""1"",""29900""
","
","
","""event"",""trial"",""time""
""fullscreenenter"",""1"",""29900""
","
","","","946.4000000059605","","","22","7262","3897","z","elianto","#3366ff99","-1"," ","0","0","[1797.7000000178814]","1","2","","","7262","75","4","2","win","no-go","0"
"pit-trial","204","1387396","0.0-80.0","battery-v0.2","","""event"",""trial"",""time""
""fullscreenenter"",""1"",""29900""
","
","
","""event"",""trial"",""time""
""fullscreenenter"",""1"",""29900""
","
","","","887.5","","","22","7262","3897","r","elianto","#3366ff99"," "," ","1","+10","[1737.7999999821186]","1","2","","","7262","76","1","1","win","go","0"
"pit-trial","205","1392251","0.0-81.0","battery-v0.2","","""event"",""trial"",""time""
""fullscreenenter"",""1"",""29900""
","
","
","""event"",""trial"",""time""
""fullscreenenter"",""1"",""29900""
","
","","","-1","","","22","7262","3897","z","elianto","#3366ff99","-1","-1","1","0","[]","0","2","","","7262","77","4","2","win","no-go","1"
"pit-trial","206","1396059","0.0-82.0","battery-v0.2","","""event"",""trial"",""time""
""fullscreenenter"",""1"",""29900""
","
","
","""event"",""trial"",""time""
""fullscreenenter"",""1"",""29900""
","
","","","954.3000000119209","","","22","7262","3897","b","elianto","#f73b6a7A","-1"," ","0","0","[1804.300000011921]","1","2","","","7262","78","6","4","lose","no-go","1"
"pit-trial","207","1399955","0.0-83.0","battery-v0.2","","""event"",""trial"",""time""
""fullscreenenter"",""1"",""29900""
","
","
","""event"",""trial"",""time""
""fullscreenenter"",""1"",""29900""
","
","","","1041.7000000178814","","","22","7262","3897","h","elianto","#f73b6a7A"," "," ","1","-10","[1892.9000000059605]","1","2","","","7262","79","3","3","lose","go","1"
"pit-trial","208","1404811","0.0-84.0","battery-v0.2","","""event"",""trial"",""time""
""fullscreenenter"",""1"",""29900""
","
","
","""event"",""trial"",""time""
""fullscreenenter"",""1"",""29900""
","
","","","-1","","","22","7262","3897","c","elianto","#3366ff99"," ","-1","0","0","[]","0","2","","","7262","80","5","1","win","go","0"
"pit-trial","209","1408406","0.0-85.0","battery-v0.2","","""event"",""trial"",""time""
""fullscreenenter"",""1"",""29900""
","
","
","""event"",""trial"",""time""
""fullscreenenter"",""1"",""29900""
","
","","","738.5999999940395","","","22","7262","3897","z","elianto","#3366ff99","-1"," ","0","+10","[1588.800000011921]","1","2","","","7262","81","4","2","win","no-go","1"
"pit-trial","210","1412529","0.0-86.0","battery-v0.2","","""event"",""trial"",""time""
""fullscreenenter"",""1"",""29900""
","
","
","""event"",""trial"",""time""
""fullscreenenter"",""1"",""29900""
","
","","","1266.9000000059605","","","22","7262","3897","t","elianto","#f73b6a7A"," "," ","1","0","[2117.9000000059605]","1","2","","","7262","82","7","3","lose","go","0"
"pit-trial","211","1417384","0.0-87.0","battery-v0.2","","""event"",""trial"",""time""
""fullscreenenter"",""1"",""29900""
","
","
","""event"",""trial"",""time""
""fullscreenenter"",""1"",""29900""
","
","","","-1","","","22","7262","3897","b","elianto","#f73b6a7A","-1","-1","1","0","[3674.0999999940395]","1","2","","","7262","83","6","4","lose","no-go","0"
"pit-trial","212","1420984","0.0-88.0","battery-v0.2","","""event"",""trial"",""time""
""fullscreenenter"",""1"",""29900""
","
","
","""event"",""trial"",""time""
""fullscreenenter"",""1"",""29900""
","
","","","744.0999999940395","","","22","7262","3897","c","elianto","#3366ff99"," "," ","1","+10","[1594.800000011921]","1","2","","","7262","84","5","1","win","go","0"
"pit-trial","213","1425766","0.0-89.0","battery-v0.2","","""event"",""trial"",""time""
""fullscreenenter"",""1"",""29900""
","
","
","""event"",""trial"",""time""
""fullscreenenter"",""1"",""29900""
","
","","","1926.800000011921","","","22","7262","3897","c","elianto","#3366ff99"," "," ","1","+10","[2776.9000000059605]","1","2","","","7262","85","5","1","win","go","0"
"pit-trial","214","1430623","0.0-90.0","battery-v0.2","","""event"",""trial"",""time""
""fullscreenenter"",""1"",""29900""
","
","
","""event"",""trial"",""time""
""fullscreenenter"",""1"",""29900""
","
","","","-1","","","22","7262","3897","b","elianto","#f73b6a7A","-1","-1","1","-10","[]","0","2","","","7262","86","6","4","lose","no-go","1"
"pit-trial","215","1433883","0.0-91.0","battery-v0.2","","""event"",""trial"",""time""
""fullscreenenter"",""1"",""29900""
","
","
","""event"",""trial"",""time""
""fullscreenenter"",""1"",""29900""
","
","","","405.19999998807907","","","22","7262","3897","z","elianto","#3366ff99","-1"," ","0","+10","[1255.5]","1","2","","","7262","87","4","2","win","no-go","1"
"pit-trial","216","1438327","0.0-92.0","battery-v0.2","","""event"",""trial"",""time""
""fullscreenenter"",""1"",""29900""
","
","
","""event"",""trial"",""time""
""fullscreenenter"",""1"",""29900""
","
","","","1573.5","","","22","7262","3897","t","elianto","#f73b6a7A"," "," ","1","-10","[2424.699999988079]","1","2","","","7262","88","7","3","lose","go","1"
"pit-trial","217","1443192","0.0-93.0","battery-v0.2","","""event"",""trial"",""time""
""fullscreenenter"",""1"",""29900""
","
","
","""event"",""trial"",""time""
""fullscreenenter"",""1"",""29900""
","
","","","-1","","","22","7262","3897","c","elianto","#3366ff99"," ","-1","0","0","[]","0","2","","","7262","89","5","1","win","go","0"
"pit-trial","218","1448048","0.0-94.0","battery-v0.2","","""event"",""trial"",""time""
""fullscreenenter"",""1"",""29900""
","
","
","""event"",""trial"",""time""
""fullscreenenter"",""1"",""29900""
","
","","","-1","","","22","7262","3897","b","elianto","#f73b6a7A","-1","-1","1","0","[3130]","1","2","","","7262","90","6","4","lose","no-go","0"
"pit-trial","219","1452904","0.0-95.0","battery-v0.2","","""event"",""trial"",""time""
""fullscreenenter"",""1"",""29900""
","
","
","""event"",""trial"",""time""
""fullscreenenter"",""1"",""29900""
","
","","","-1","","","22","7262","3897","z","elianto","#3366ff99","-1","-1","1","0","[]","0","2","","","7262","91","4","2","win","no-go","1"
"pit-trial","220","1457760","0.0-96.0","battery-v0.2","","""event"",""trial"",""time""
""fullscreenenter"",""1"",""29900""
","
","
","""event"",""trial"",""time""
""fullscreenenter"",""1"",""29900""
","
","","","-1","","","22","7262","3897","t","elianto","#f73b6a7A"," ","-1","0","-10","[]","0","2","","","7262","92","7","3","lose","go","0"
"pit-trial","221","1460879","0.0-97.0","battery-v0.2","","""event"",""trial"",""time""
""fullscreenenter"",""1"",""29900""
","
","
","""event"",""trial"",""time""
""fullscreenenter"",""1"",""29900""
","
","","","263.90000000596046","","","22","7262","3897","t","elianto","#f73b6a7A"," "," ","1","0","[1114.5]","1","2","","","7262","93","7","3","lose","go","0"
"pit-trial","222","1464906","0.0-98.0","battery-v0.2","","""event"",""trial"",""time""
""fullscreenenter"",""1"",""29900""
","
","
","""event"",""trial"",""time""
""fullscreenenter"",""1"",""29900""
","
","","","1169.300000011921","","","22","7262","3897","b","elianto","#f73b6a7A","-1"," ","0","-10","[2021.199999988079]","1","2","","","7262","94","6","4","lose","no-go","0"
"pit-trial","223","1468410","0.0-99.0","battery-v0.2","","""event"",""trial"",""time""
""fullscreenenter"",""1"",""29900""
","
","
","""event"",""trial"",""time""
""fullscreenenter"",""1"",""29900""
","
","","","648.1000000238419","","","22","7262","3897","f","elianto","#3366ff99","-1"," ","0","+10","[1499]","1","2","","","7262","95","8","2","win","no-go","1"
"pit-trial","224","1473266","0.0-100.0","battery-v0.2","","""event"",""trial"",""time""
""fullscreenenter"",""1"",""29900""
","
","
","""event"",""trial"",""time""
""fullscreenenter"",""1"",""29900""
","
","","","-1","","","22","7262","3897","c","elianto","#3366ff99"," ","-1","0","0","[]","0","2","","","7262","96","5","1","win","go","0"
"pit-trial","225","1476413","0.0-101.0","battery-v0.2","","""event"",""trial"",""time""
""fullscreenenter"",""1"",""29900""
","
","
","""event"",""trial"",""time""
""fullscreenenter"",""1"",""29900""
","
","","","292.69999998807907","","","22","7262","3897","c","elianto","#3366ff99"," "," ","1","+10","[56.79999998211861,1143.7999999821186]","2","2","","","7262","97","5","1","win","go","0"
"pit-trial","226","1481127","0.0-102.0","battery-v0.2","","""event"",""trial"",""time""
""fullscreenenter"",""1"",""29900""
","
","
","""event"",""trial"",""time""
""fullscreenenter"",""1"",""29900""
","
","","","1860.5999999940395","","","22","7262","3897","b","elianto","#f73b6a7A","-1"," ","0","-10","[2711]","1","2","","","7262","98","6","4","lose","no-go","0"
"pit-trial","227","1485984","0.0-103.0","battery-v0.2","","""event"",""trial"",""time""
""fullscreenenter"",""1"",""29900""
","
","
","""event"",""trial"",""time""
""fullscreenenter"",""1"",""29900""
","
","","","-1","","","22","7262","3897","t","elianto","#f73b6a7A"," ","-1","0","-10","[3225.199999988079]","1","2","","","7262","99","7","3","lose","go","0"
"pit-trial","228","1490001","0.0-104.0","battery-v0.2","","""event"",""trial"",""time""
""fullscreenenter"",""1"",""29900""
","
","
","""event"",""trial"",""time""
""fullscreenenter"",""1"",""29900""
","
","","","1161.2999999821186","","","22","7262","3897","f","elianto","#3366ff99","-1"," ","0","0","[2012]","1","2","","","7262","100","8","2","win","no-go","0"
"pit-trial","229","1494855","0.0-105.0","battery-v0.2","","""event"",""trial"",""time""
""fullscreenenter"",""1"",""29900""
","
","
","""event"",""trial"",""time""
""fullscreenenter"",""1"",""29900""
","
","","","-1","","","22","7262","3897","n","elianto","#3366ff99","-1","-1","1","+10","[]","0","2","","","7262","101","9","2","win","no-go","0"
"pit-trial","230","1499710","0.0-106.0","battery-v0.2","","""event"",""trial"",""time""
""fullscreenenter"",""1"",""29900""
","
","
","""event"",""trial"",""time""
""fullscreenenter"",""1"",""29900""
","
","","","-1","","","22","7262","3897","f","elianto","#3366ff99","-1","-1","1","+10","[]","0","2","","","7262","102","8","2","win","no-go","0"
"pit-trial","231","1503692","0.0-107.0","battery-v0.2","","""event"",""trial"",""time""
""fullscreenenter"",""1"",""29900""
","
","
","""event"",""trial"",""time""
""fullscreenenter"",""1"",""29900""
","
","","","1127","","","22","7262","3897","c","elianto","#3366ff99"," "," ","1","+10","[1977.5999999940395]","1","2","","","7262","103","5","1","win","go","0"
"pit-trial","232","1508546","0.0-108.0","battery-v0.2","","""event"",""trial"",""time""
""fullscreenenter"",""1"",""29900""
","
","
","""event"",""trial"",""time""
""fullscreenenter"",""1"",""29900""
","
","","","-1","","","22","7262","3897","b","elianto","#f73b6a7A","-1","-1","1","0","[]","0","2","","","7262","104","6","4","lose","no-go","0"
"pit-trial","233","1512417","0.0-109.0","battery-v0.2","","""event"",""trial"",""time""
""fullscreenenter"",""1"",""29900""
","
","
","""event"",""trial"",""time""
""fullscreenenter"",""1"",""29900""
","
","","","1009.2000000178814","","","22","7262","3897","b","elianto","#f73b6a7A","-1"," ","0","-10","[1863.5999999940395]","1","2","","","7262","105","6","4","lose","no-go","0"
"pit-trial","234","1517274","0.0-110.0","battery-v0.2","","""event"",""trial"",""time""
""fullscreenenter"",""1"",""29900""
","
","
","""event"",""trial"",""time""
""fullscreenenter"",""1"",""29900""
","
","","","-1","","","22","7262","3897","n","elianto","#3366ff99","-1","-1","1","0","[]","0","2","","","7262","106","9","2","win","no-go","1"
"pit-trial","235","1522130","0.0-111.0","battery-v0.2","","""event"",""trial"",""time""
""fullscreenenter"",""1"",""29900""
","
","
","""event"",""trial"",""time""
""fullscreenenter"",""1"",""29900""
","
","","","-1","","","22","7262","3897","f","elianto","#3366ff99","-1","-1","1","0","[]","0","2","","","7262","107","8","2","win","no-go","1"
"pit-trial","236","1525779","0.0-112.0","battery-v0.2","","""event"",""trial"",""time""
""fullscreenenter"",""1"",""29900""
","
","
","""event"",""trial"",""time""
""fullscreenenter"",""1"",""29900""
","
","","","793.4000000059605","","","22","7262","3897","c","elianto","#3366ff99"," "," ","1","0","[1644]","1","2","","","7262","108","5","1","win","go","1"
"pit-trial","237","1530635","0.0-113.0","battery-v0.2","","""event"",""trial"",""time""
""fullscreenenter"",""1"",""29900""
","
","
","""event"",""trial"",""time""
""fullscreenenter"",""1"",""29900""
","
","","","-1","","","22","7262","3897","c","elianto","#3366ff99"," ","-1","0","0","[]","0","2","","","7262","109","5","1","win","go","0"
"pit-trial","238","1533646","0.0-114.0","battery-v0.2","","""event"",""trial"",""time""
""fullscreenenter"",""1"",""29900""
","
","
","""event"",""trial"",""time""
""fullscreenenter"",""1"",""29900""
","
","","","156.40000000596046","","","22","7262","3897","f","elianto","#3366ff99","-1"," ","0","0","[1007.6999999880791]","1","2","","","7262","110","8","2","win","no-go","0"
"pit-trial","239","1538503","0.0-115.0","battery-v0.2","","""event"",""trial"",""time""
""fullscreenenter"",""1"",""29900""
","
","
","""event"",""trial"",""time""
""fullscreenenter"",""1"",""29900""
","
","","","-1","","","22","7262","3897","b","elianto","#f73b6a7A","-1","-1","1","0","[]","0","2","","","7262","111","6","4","lose","no-go","0"
"pit-trial","240","1543361","0.0-116.0","battery-v0.2","","""event"",""trial"",""time""
""fullscreenenter"",""1"",""29900""
","
","
","""event"",""trial"",""time""
""fullscreenenter"",""1"",""29900""
","
","","","-1","","","22","7262","3897","n","elianto","#3366ff99","-1","-1","1","+10","[]","0","2","","","7262","112","9","2","win","no-go","0"
"pit-trial","241","1546414","0.0-117.0","battery-v0.2","","""event"",""trial"",""time""
""fullscreenenter"",""1"",""29900""
","
","
","""event"",""trial"",""time""
""fullscreenenter"",""1"",""29900""
","
","","","197.19999998807907","","","22","7262","3897","f","elianto","#3366ff99","-1"," ","0","0","[1047.5999999940395]","1","2","","","7262","113","8","2","win","no-go","0"
"pit-trial","242","1551271","0.0-118.0","battery-v0.2","","""event"",""trial"",""time""
""fullscreenenter"",""1"",""29900""
","
","
","""event"",""trial"",""time""
""fullscreenenter"",""1"",""29900""
","
","","","-1","","","22","7262","3897","t","elianto","#f73b6a7A"," ","-1","0","-10","[]","0","2","","","7262","114","7","3","lose","go","0"
"pit-trial","243","1556137","0.0-119.0","battery-v0.2","","""event"",""trial"",""time""
""fullscreenenter"",""1"",""29900""
","
","
","""event"",""trial"",""time""
""fullscreenenter"",""1"",""29900""
","
","","","-1","","","22","7262","3897","c","elianto","#3366ff99"," ","-1","0","+10","[]","0","2","","","7262","115","5","1","win","go","1"
"pit-trial","244","1560994","0.0-120.0","battery-v0.2","","""event"",""trial"",""time""
""fullscreenenter"",""1"",""29900""
","
","
","""event"",""trial"",""time""
""fullscreenenter"",""1"",""29900""
","
","","","-1","","","22","7262","3897","n","elianto","#3366ff99","-1","-1","1","+10","[]","0","2","","","7262","116","9","2","win","no-go","0"
"pit-trial","245","1565851","0.0-121.0","battery-v0.2","","""event"",""trial"",""time""
""fullscreenenter"",""1"",""29900""
","
","
","""event"",""trial"",""time""
""fullscreenenter"",""1"",""29900""
","
","","","-1","","","22","7262","3897","c","elianto","#3366ff99"," ","-1","0","0","[]","0","2","","","7262","117","5","1","win","go","0"
"pit-trial","246","1569570","0.0-122.0","battery-v0.2","","""event"",""trial"",""time""
""fullscreenenter"",""1"",""29900""
","
","
","""event"",""trial"",""time""
""fullscreenenter"",""1"",""29900""
","
","","","862.5999999940395","","","22","7262","3897","f","elianto","#3366ff99","-1"," ","0","0","[1712.9000000059605]","1","2","","","7262","118","8","2","win","no-go","0"
"pit-trial","247","1574428","0.0-123.0","battery-v0.2","","""event"",""trial"",""time""
""fullscreenenter"",""1"",""29900""
","
","
","""event"",""trial"",""time""
""fullscreenenter"",""1"",""29900""
","
","","","-1","","","22","7262","3897","b","elianto","#f73b6a7A","-1","-1","1","-10","[]","0","2","","","7262","119","6","4","lose","no-go","1"
"pit-trial","248","1579283","0.0-124.0","battery-v0.2","","""event"",""trial"",""time""
""fullscreenenter"",""1"",""29900""
","
","
","""event"",""trial"",""time""
""fullscreenenter"",""1"",""29900""
","
","","","-1","","","22","7262","3897","n","elianto","#3366ff99","-1","-1","1","+10","[4117.899999976158]","1","2","","","7262","120","9","2","win","no-go","0"
"pit-trial","249","1584139","0.0-125.0","battery-v0.2","","""event"",""trial"",""time""
""fullscreenenter"",""1"",""29900""
","
","
","""event"",""trial"",""time""
""fullscreenenter"",""1"",""29900""
","
","","","-1","","","22","7262","3897","t","elianto","#f73b6a7A"," ","-1","0","-10","[]","0","2","","","7262","121","7","3","lose","go","0"
"pit-trial","250","1588996","0.0-126.0","battery-v0.2","","""event"",""trial"",""time""
""fullscreenenter"",""1"",""29900""
","
","
","""event"",""trial"",""time""
""fullscreenenter"",""1"",""29900""
","
","","","-1","","","22","7262","3897","n","elianto","#3366ff99","-1","-1","1","+10","[]","0","2","","","7262","122","9","2","win","no-go","0"
"pit-trial","251","1592476","0.0-127.0","battery-v0.2","","""event"",""trial"",""time""
""fullscreenenter"",""1"",""29900""
","
","
","""event"",""trial"",""time""
""fullscreenenter"",""1"",""29900""
","
","","","621.4000000059605","","","22","7262","3897","f","elianto","#3366ff99","-1"," ","0","+10","[1472.7999999821186]","1","2","","","7262","123","8","2","win","no-go","1"
"pit-trial","252","1597333","0.0-128.0","battery-v0.2","","""event"",""trial"",""time""
""fullscreenenter"",""1"",""29900""
","
","
","""event"",""trial"",""time""
""fullscreenenter"",""1"",""29900""
","
","","","-1","","","22","7262","3897","c","elianto","#3366ff99"," ","-1","0","0","[]","0","2","","","7262","124","5","1","win","go","0"
"pit-trial","253","1602190","0.0-129.0","battery-v0.2","","""event"",""trial"",""time""
""fullscreenenter"",""1"",""29900""
","
","
","""event"",""trial"",""time""
""fullscreenenter"",""1"",""29900""
","
","","","-1","","","22","7262","3897","t","elianto","#f73b6a7A"," ","-1","0","-10","[4503.699999988079]","1","2","","","7262","125","7","3","lose","go","0"
"pit-trial","254","1607047","0.0-130.0","battery-v0.2","","""event"",""trial"",""time""
""fullscreenenter"",""1"",""29900""
","
","
","""event"",""trial"",""time""
""fullscreenenter"",""1"",""29900""
","
","","","-1","","","22","7262","3897","b","elianto","#f73b6a7A","-1","-1","1","0","[]","0","2","","","7262","126","6","4","lose","no-go","0"
"pit-trial","255","1610733","0.0-131.0","battery-v0.2","","""event"",""trial"",""time""
""fullscreenenter"",""1"",""29900""
","
","
","""event"",""trial"",""time""
""fullscreenenter"",""1"",""29900""
","
","","","825.5999999940395","","","22","7262","3897","n","elianto","#3366ff99","-1"," ","0","0","[1678.4000000059605]","1","2","","","7262","127","9","2","win","no-go","0"
"pit-trial","256","1615580","0.0-132.0","battery-v0.2","","""event"",""trial"",""time""
""fullscreenenter"",""1"",""29900""
","
","
","""event"",""trial"",""time""
""fullscreenenter"",""1"",""29900""
","
","","","1992.5","","","22","7262","3897","f","elianto","#3366ff99","-1"," ","0","0","[2843.0999999940395]","1","2","","","7262","128","8","2","win","no-go","0"
"pit-trial","257","1618659","0.0-133.0","battery-v0.2","","""event"",""trial"",""time""
""fullscreenenter"",""1"",""29900""
","
","
","""event"",""trial"",""time""
""fullscreenenter"",""1"",""29900""
","
","","","224.7999999821186","","","22","7262","3897","f","elianto","#3366ff99","-1"," ","0","0","[1075.5]","1","2","","","7262","129","8","2","win","no-go","0"
"pit-trial","258","1623516","0.0-134.0","battery-v0.2","","""event"",""trial"",""time""
""fullscreenenter"",""1"",""29900""
","
","
","""event"",""trial"",""time""
""fullscreenenter"",""1"",""29900""
","
","","","-1","","","22","7262","3897","n","elianto","#3366ff99","-1","-1","1","+10","[]","0","2","","","7262","130","9","2","win","no-go","0"
