"trial_type","trial_index","time_elapsed","internal_node_id","task_version","subject_id","interactions","blur_events","focus_events","fullscreenenter_events","fullscreenexit_events","success","view_history","rt","responses","num_errors","age","subject","participantId","rune","rune_set","hex","correct","choice","accuracy","outcome","keys","total_keys","block","practice","value","sub","trial","stimulus","robot","valence","action","sham"
"pavlovia","0","21","0.0-0.0","battery-v0.2","","""event"",""trial"",""time""
""fullscreenenter"",""1"",""2639""
","
","
","""event"",""trial"",""time""
""fullscreenenter"",""1"",""2639""
","
","","","","","","","","","","","","","","","","","","","","","","","","","","",""
"fullscreen","1","3627","0.0-1.0","battery-v0.2","","""event"",""trial"",""time""
""fullscreenenter"",""1"",""2639""
","
","
","""event"",""trial"",""time""
""fullscreenenter"",""1"",""2639""
","
","true","","","","","","","","","","","","","","","","","","","","","","","","","",""
"pit-instructions","2","7272","0.0-2.0-0.0","battery-v0.2","","""event"",""trial"",""time""
""fullscreenenter"",""1"",""2639""
","
","
","""event"",""trial"",""time""
""fullscreenenter"",""1"",""2639""
","
","","[{""page_index"":0,""viewing_time"":3627.399999999907}]","3628.5","","","","","","","","","","","","","","","","","","","","","","","",""
"pit-comprehension","3","11276","0.0-2.0-1.0-0.0","battery-v0.2","","""event"",""trial"",""time""
""fullscreenenter"",""1"",""2639""
","
","
","""event"",""trial"",""time""
""fullscreenenter"",""1"",""2639""
","
","","","3993.899999999907","[""shark""]","0","11","7725","1471","","","","","","","","","","","","","","","","","","",""
"pit-instructions","4","14358","0.0-2.0-1.0-1.0","battery-v0.2","","""event"",""trial"",""time""
""fullscreenenter"",""1"",""2639""
","
","
","""event"",""trial"",""time""
""fullscreenenter"",""1"",""2639""
","
","","[{""page_index"":0,""viewing_time"":3046.1999999999534}]","3048.1999999999534","","","","","","","","","","","","","","","","","","","","","","","",""
"pit-comprehension","5","18411","0.0-2.0-2.0-0.0","battery-v0.2","","""event"",""trial"",""time""
""fullscreenenter"",""1"",""2639""
","
","
","""event"",""trial"",""time""
""fullscreenenter"",""1"",""2639""
","
","","","4039.6999999999534","[""tiger""]","0","11","7725","1471","","","","","","","","","","","","","","","","","","",""
"pit-instructions","6","20027","0.0-2.0-2.0-1.0","battery-v0.2","","""event"",""trial"",""time""
""fullscreenenter"",""1"",""2639""
","
","
","""event"",""trial"",""time""
""fullscreenenter"",""1"",""2639""
","
","","[{""page_index"":0,""viewing_time"":1608.1999999999534}]","1609.6999999999534","","","","","","","","","","","","","","","","","","","","","","","",""
"pit-instructions","7","117484","0.0-2.0-3.0","battery-v0.2","","""event"",""trial"",""time""
""fullscreenenter"",""1"",""2639""
","
","
","""event"",""trial"",""time""
""fullscreenenter"",""1"",""2639""
","
","","[{""page_index"":0,""viewing_time"":10312.800000000047},{""page_index"":1,""viewing_time"":6365.399999999907},{""page_index"":2,""viewing_time"":7092.699999999953},{""page_index"":3,""viewing_time"":6156.600000000093},{""page_index"":4,""viewing_time"":5768.399999999907},{""page_index"":5,""viewing_time"":5988.300000000047},{""page_index"":6,""viewing_time"":7292.800000000047},{""page_index"":7,""viewing_time"":7342.699999999953},{""page_index"":8,""viewing_time"":7311.100000000093},{""page_index"":9,""viewing_time"":9221.5},{""page_index"":10,""viewing_time"":7196.399999999907},{""page_index"":11,""viewing_time"":6978.100000000093},{""page_index"":12,""viewing_time"":6004.799999999814},{""page_index"":13,""viewing_time"":4415.800000000047}]","97448.8999999999","","","","","","","","","","","","","","","","","","","","","","","",""
"pit-trial","8","120931","0.0-2.0-4.0-0.0","battery-v0.2","","""event"",""trial"",""time""
""fullscreenenter"",""1"",""2639""
","
","
","""event"",""trial"",""time""
""fullscreenenter"",""1"",""2639""
","
","","","573.8999999999069","","","11","7725","1471","&#9784;","elianto","#FFFFF080"," "," ","1","&#10004","[1433.0999999998603]","1","0","0","","","","","","","",""
"pit-trial","9","124355","0.0-2.0-4.1-0.1","battery-v0.2","","""event"",""trial"",""time""
""fullscreenenter"",""1"",""2639""
","
","
","""event"",""trial"",""time""
""fullscreenenter"",""1"",""2639""
","
","","","556.3000000000466","","","11","7725","1471","&#9784;","elianto","#FFFFF080"," "," ","1","&#10004","[1410.8000000000466]","1","0","0","","","","","","","",""
"pit-trial","10","127739","0.0-2.0-4.2-0.2","battery-v0.2","","""event"",""trial"",""time""
""fullscreenenter"",""1"",""2639""
","
","
","""event"",""trial"",""time""
""fullscreenenter"",""1"",""2639""
","
","","","523.5","","","11","7725","1471","&#9784;","elianto","#FFFFF080"," "," ","1","&#10004","[1374.1000000000931]","1","0","0","","","","","","","",""
"pit-trial","11","131227","0.0-2.0-4.3-0.3","battery-v0.2","","""event"",""trial"",""time""
""fullscreenenter"",""1"",""2639""
","
","
","""event"",""trial"",""time""
""fullscreenenter"",""1"",""2639""
","
","","","621.8999999999069","","","11","7725","1471","&#9784;","elianto","#FFFFF080"," "," ","1","&#10004","[1478.5999999998603]","1","0","0","","","","","","","",""
"pit-trial","12","134572","0.0-2.0-4.4-0.4","battery-v0.2","","""event"",""trial"",""time""
""fullscreenenter"",""1"",""2639""
","
","
","""event"",""trial"",""time""
""fullscreenenter"",""1"",""2639""
","
","","","476.69999999995343","","","11","7725","1471","&#9784;","elianto","#FFFFF080"," "," ","1","&#10004","[1327.3000000000466]","1","0","0","","","","","","","",""
"pit-instructions","13","157022","0.0-2.0-5.0","battery-v0.2","","""event"",""trial"",""time""
""fullscreenenter"",""1"",""2639""
","
","
","""event"",""trial"",""time""
""fullscreenenter"",""1"",""2639""
","
","","[{""page_index"":0,""viewing_time"":5013.300000000047},{""page_index"":1,""viewing_time"":5890.5},{""page_index"":2,""viewing_time"":4739.100000000093},{""page_index"":3,""viewing_time"":6799.399999999907}]","22443.5","","","","","","","","","","","","","","","","","","","","","","","",""
"pit-trial","14","161891","0.0-2.0-6.0-0.0","battery-v0.2","","""event"",""trial"",""time""
""fullscreenenter"",""1"",""2639""
","
","
","""event"",""trial"",""time""
""fullscreenenter"",""1"",""2639""
","
","","","-1","","","11","7725","1471","&#9854;","elianto","#FFFFF080","-1","-1","1","&#10004","[]","0","0","1","","","","","","","",""
"pit-trial","15","166756","0.0-2.0-6.1-0.1","battery-v0.2","","""event"",""trial"",""time""
""fullscreenenter"",""1"",""2639""
","
","
","""event"",""trial"",""time""
""fullscreenenter"",""1"",""2639""
","
","","","-1","","","11","7725","1471","&#9854;","elianto","#FFFFF080","-1","-1","1","&#10004","[]","0","0","1","","","","","","","",""
"pit-trial","16","171628","0.0-2.0-6.2-0.2","battery-v0.2","","""event"",""trial"",""time""
""fullscreenenter"",""1"",""2639""
","
","
","""event"",""trial"",""time""
""fullscreenenter"",""1"",""2639""
","
","","","-1","","","11","7725","1471","&#9854;","elianto","#FFFFF080","-1","-1","1","&#10004","[]","0","0","1","","","","","","","",""
"pit-trial","17","176491","0.0-2.0-6.3-0.3","battery-v0.2","","""event"",""trial"",""time""
""fullscreenenter"",""1"",""2639""
","
","
","""event"",""trial"",""time""
""fullscreenenter"",""1"",""2639""
","
","","","-1","","","11","7725","1471","&#9854;","elianto","#FFFFF080","-1","-1","1","&#10004","[]","0","0","1","","","","","","","",""
"pit-trial","18","181355","0.0-2.0-6.4-0.4","battery-v0.2","","""event"",""trial"",""time""
""fullscreenenter"",""1"",""2639""
","
","
","""event"",""trial"",""time""
""fullscreenenter"",""1"",""2639""
","
","","","-1","","","11","7725","1471","&#9854;","elianto","#FFFFF080","-1","-1","1","&#10004","[]","0","0","1","","","","","","","",""
"pit-instructions","19","320183","0.0-2.0-7.0","battery-v0.2","","""event"",""trial"",""time""
""fullscreenenter"",""1"",""2639""
","
","
","""event"",""trial"",""time""
""fullscreenenter"",""1"",""2639""
","
","","[{""page_index"":0,""viewing_time"":5527.5},{""page_index"":1,""viewing_time"":6617.399999999907},{""page_index"":2,""viewing_time"":12014.600000000093},{""page_index"":3,""viewing_time"":12073.399999999907},{""page_index"":4,""viewing_time"":7038.899999999907},{""page_index"":5,""viewing_time"":5670.300000000047},{""page_index"":6,""viewing_time"":5593},{""page_index"":7,""viewing_time"":11765.100000000093},{""page_index"":8,""viewing_time"":10469},{""page_index"":9,""viewing_time"":7456.199999999953},{""page_index"":10,""viewing_time"":7438.100000000093},{""page_index"":11,""viewing_time"":4720.5},{""page_index"":12,""viewing_time"":6761.199999999953},{""page_index"":13,""viewing_time"":6756},{""page_index"":14,""viewing_time"":6780.899999999907},{""page_index"":15,""viewing_time"":8925.699999999953},{""page_index"":16,""viewing_time"":6086.600000000093},{""page_index"":17,""viewing_time"":7125.300000000047}]","138821.2999999998","","","","","","","","","","","","","","","","","","","","","","","",""
"pit-trial","20","323795","0.0-2.0-8.0-0.0","battery-v0.2","","""event"",""trial"",""time""
""fullscreenenter"",""1"",""2639""
","
","
","""event"",""trial"",""time""
""fullscreenenter"",""1"",""2639""
","
","","","746.4000000001397","","","11","7725","1471","&#9776;","elianto","#3366ff99"," "," ","1","+10","[1600.1000000000931]","1","0","1","","","","","","","",""
"pit-trial","21","327084","0.0-2.0-8.0-1.0","battery-v0.2","","""event"",""trial"",""time""
""fullscreenenter"",""1"",""2639""
","
","
","""event"",""trial"",""time""
""fullscreenenter"",""1"",""2639""
","
","","","428.5","","","11","7725","1471","&#9776;","elianto","#3366ff99"," "," ","1","+10","[1279.3999999999069]","1","0","1","","","","","","","",""
"pit-trial","22","330355","0.0-2.0-8.0-2.0","battery-v0.2","","""event"",""trial"",""time""
""fullscreenenter"",""1"",""2639""
","
","
","""event"",""trial"",""time""
""fullscreenenter"",""1"",""2639""
","
","","","411.69999999995343","","","11","7725","1471","&#9776;","elianto","#3366ff99"," "," ","1","+10","[1263.3999999999069]","1","0","1","","","","","","","",""
"pit-trial","23","333627","0.0-2.0-8.0-3.0","battery-v0.2","","""event"",""trial"",""time""
""fullscreenenter"",""1"",""2639""
","
","
","""event"",""trial"",""time""
""fullscreenenter"",""1"",""2639""
","
","","","412.19999999995343","","","11","7725","1471","&#9776;","elianto","#3366ff99"," "," ","1","0","[1263.6000000000931]","1","0","1","","","","","","","",""
"pit-trial","24","336907","0.0-2.0-8.0-4.0","battery-v0.2","","""event"",""trial"",""time""
""fullscreenenter"",""1"",""2639""
","
","
","""event"",""trial"",""time""
""fullscreenenter"",""1"",""2639""
","
","","","422.9000000001397","","","11","7725","1471","&#9776;","elianto","#3366ff99"," "," ","1","+10","[1273.4000000001397]","1","0","1","","","","","","","",""
"pit-trial","25","340139","0.0-2.0-8.1-0.1","battery-v0.2","","""event"",""trial"",""time""
""fullscreenenter"",""1"",""2639""
","
","
","""event"",""trial"",""time""
""fullscreenenter"",""1"",""2639""
","
","","","360.60000000009313","","","11","7725","1471","&#9776;","elianto","#3366ff99"," "," ","1","+10","[1221.6000000000931]","1","0","1","","","","","","","",""
"pit-trial","26","343787","0.0-2.0-8.1-1.1","battery-v0.2","","""event"",""trial"",""time""
""fullscreenenter"",""1"",""2639""
","
","
","""event"",""trial"",""time""
""fullscreenenter"",""1"",""2639""
","
","","","784.6999999999534","","","11","7725","1471","&#9776;","elianto","#3366ff99"," "," ","1","+10","[1638.1999999999534]","1","0","1","","","","","","","",""
"pit-trial","27","347155","0.0-2.0-8.1-2.1","battery-v0.2","","""event"",""trial"",""time""
""fullscreenenter"",""1"",""2639""
","
","
","""event"",""trial"",""time""
""fullscreenenter"",""1"",""2639""
","
","","","509.5","","","11","7725","1471","&#9776;","elianto","#3366ff99"," "," ","1","+10","[1361.8000000000466]","1","0","1","","","","","","","",""
"pit-trial","28","350523","0.0-2.0-8.1-3.1","battery-v0.2","","""event"",""trial"",""time""
""fullscreenenter"",""1"",""2639""
","
","
","""event"",""trial"",""time""
""fullscreenenter"",""1"",""2639""
","
","","","506.69999999995343","","","11","7725","1471","&#9776;","elianto","#3366ff99"," "," ","1","0","[1357.8000000000466]","1","0","1","","","","","","","",""
"pit-trial","29","353907","0.0-2.0-8.1-4.1","battery-v0.2","","""event"",""trial"",""time""
""fullscreenenter"",""1"",""2639""
","
","
","""event"",""trial"",""time""
""fullscreenenter"",""1"",""2639""
","
","","","521.8000000000466","","","11","7725","1471","&#9776;","elianto","#3366ff99"," "," ","1","+10","[1373.3000000000466]","1","0","1","","","","","","","",""
"pit-trial","30","357188","0.0-2.0-8.2-0.2","battery-v0.2","","""event"",""trial"",""time""
""fullscreenenter"",""1"",""2639""
","
","
","""event"",""trial"",""time""
""fullscreenenter"",""1"",""2639""
","
","","","420.80000000004657","","","11","7725","1471","&#9776;","elianto","#3366ff99"," "," ","1","+10","[1271.8000000000466]","1","0","1","","","","","","","",""
"pit-trial","31","360572","0.0-2.0-8.2-1.2","battery-v0.2","","""event"",""trial"",""time""
""fullscreenenter"",""1"",""2639""
","
","
","""event"",""trial"",""time""
""fullscreenenter"",""1"",""2639""
","
","","","505.60000000009313","","","11","7725","1471","&#9776;","elianto","#3366ff99"," "," ","1","+10","[1370.4000000001397]","1","0","1","","","","","","","",""
"pit-trial","32","363923","0.0-2.0-8.2-2.2","battery-v0.2","","""event"",""trial"",""time""
""fullscreenenter"",""1"",""2639""
","
","
","""event"",""trial"",""time""
""fullscreenenter"",""1"",""2639""
","
","","","485.5","","","11","7725","1471","&#9776;","elianto","#3366ff99"," "," ","1","+10","[1337.4000000001397]","1","0","1","","","","","","","",""
"pit-trial","33","367332","0.0-2.0-8.2-3.2","battery-v0.2","","""event"",""trial"",""time""
""fullscreenenter"",""1"",""2639""
","
","
","""event"",""trial"",""time""
""fullscreenenter"",""1"",""2639""
","
","","","544.6999999999534","","","11","7725","1471","&#9776;","elianto","#3366ff99"," "," ","1","0","[1395.5999999998603]","1","0","1","","","","","","","",""
"pit-trial","34","370667","0.0-2.0-8.2-4.2","battery-v0.2","","""event"",""trial"",""time""
""fullscreenenter"",""1"",""2639""
","
","
","""event"",""trial"",""time""
""fullscreenenter"",""1"",""2639""
","
","","","465.5999999998603","","","11","7725","1471","&#9776;","elianto","#3366ff99"," "," ","1","+10","[1323.3999999999069]","1","0","1","","","","","","","",""
"call-function","35","370673","0.0-2.0-9.0","battery-v0.2","","""event"",""trial"",""time""
""fullscreenenter"",""1"",""2639""
","
","
","""event"",""trial"",""time""
""fullscreenenter"",""1"",""2639""
","
","","","","","","","","","","","","","","","","","","","","","","","","","","",""
"pit-instructions","36","409097","0.0-2.0-10.0","battery-v0.2","","""event"",""trial"",""time""
""fullscreenenter"",""1"",""2639""
","
","
","""event"",""trial"",""time""
""fullscreenenter"",""1"",""2639""
","
","","[{""page_index"":0,""viewing_time"":5606.800000000047},{""page_index"":1,""viewing_time"":6966.699999999953},{""page_index"":2,""viewing_time"":9850.59999999986},{""page_index"":3,""viewing_time"":8885.40000000014},{""page_index"":4,""viewing_time"":7110.5}]","38420.80000000005","","","","","","","","","","","","","","","","","","","","","","","",""
"pit-trial","37","413964","0.0-2.0-11.0-0.0","battery-v0.2","","""event"",""trial"",""time""
""fullscreenenter"",""1"",""2639""
","
","
","""event"",""trial"",""time""
""fullscreenenter"",""1"",""2639""
","
","","","-1","","","11","7725","1471","&#9761;","elianto","#3366ff99","-1","-1","1","+10","[]","0","0","2","","","","","","","",""
"pit-trial","38","418835","0.0-2.0-11.0-1.0","battery-v0.2","","""event"",""trial"",""time""
""fullscreenenter"",""1"",""2639""
","
","
","""event"",""trial"",""time""
""fullscreenenter"",""1"",""2639""
","
","","","-1","","","11","7725","1471","&#9761;","elianto","#3366ff99","-1","-1","1","+10","[]","0","0","2","","","","","","","",""
"pit-trial","39","423708","0.0-2.0-11.0-2.0","battery-v0.2","","""event"",""trial"",""time""
""fullscreenenter"",""1"",""2639""
","
","
","""event"",""trial"",""time""
""fullscreenenter"",""1"",""2639""
","
","","","-1","","","11","7725","1471","&#9761;","elianto","#3366ff99","-1","-1","1","+10","[]","0","0","2","","","","","","","",""
"pit-trial","40","428580","0.0-2.0-11.0-3.0","battery-v0.2","","""event"",""trial"",""time""
""fullscreenenter"",""1"",""2639""
","
","
","""event"",""trial"",""time""
""fullscreenenter"",""1"",""2639""
","
","","","-1","","","11","7725","1471","&#9761;","elianto","#3366ff99","-1","-1","1","0","[]","0","0","2","","","","","","","",""
"pit-trial","41","433443","0.0-2.0-11.0-4.0","battery-v0.2","","""event"",""trial"",""time""
""fullscreenenter"",""1"",""2639""
","
","
","""event"",""trial"",""time""
""fullscreenenter"",""1"",""2639""
","
","","","-1","","","11","7725","1471","&#9761;","elianto","#3366ff99","-1","-1","1","+10","[]","0","0","2","","","","","","","",""
"pit-trial","42","438308","0.0-2.0-11.1-0.1","battery-v0.2","","""event"",""trial"",""time""
""fullscreenenter"",""1"",""2639""
","
","
","""event"",""trial"",""time""
""fullscreenenter"",""1"",""2639""
","
","","","-1","","","11","7725","1471","&#9761;","elianto","#3366ff99","-1","-1","1","+10","[]","0","0","2","","","","","","","",""
"pit-trial","43","443171","0.0-2.0-11.1-1.1","battery-v0.2","","""event"",""trial"",""time""
""fullscreenenter"",""1"",""2639""
","
","
","""event"",""trial"",""time""
""fullscreenenter"",""1"",""2639""
","
","","","-1","","","11","7725","1471","&#9761;","elianto","#3366ff99","-1","-1","1","+10","[]","0","0","2","","","","","","","",""
"pit-trial","44","448043","0.0-2.0-11.1-2.1","battery-v0.2","","""event"",""trial"",""time""
""fullscreenenter"",""1"",""2639""
","
","
","""event"",""trial"",""time""
""fullscreenenter"",""1"",""2639""
","
","","","-1","","","11","7725","1471","&#9761;","elianto","#3366ff99","-1","-1","1","+10","[]","0","0","2","","","","","","","",""
"pit-trial","45","452907","0.0-2.0-11.1-3.1","battery-v0.2","","""event"",""trial"",""time""
""fullscreenenter"",""1"",""2639""
","
","
","""event"",""trial"",""time""
""fullscreenenter"",""1"",""2639""
","
","","","-1","","","11","7725","1471","&#9761;","elianto","#3366ff99","-1","-1","1","0","[]","0","0","2","","","","","","","",""
"pit-trial","46","457779","0.0-2.0-11.1-4.1","battery-v0.2","","""event"",""trial"",""time""
""fullscreenenter"",""1"",""2639""
","
","
","""event"",""trial"",""time""
""fullscreenenter"",""1"",""2639""
","
","","","-1","","","11","7725","1471","&#9761;","elianto","#3366ff99","-1","-1","1","+10","[]","0","0","2","","","","","","","",""
"pit-trial","47","462652","0.0-2.0-11.2-0.2","battery-v0.2","","""event"",""trial"",""time""
""fullscreenenter"",""1"",""2639""
","
","
","""event"",""trial"",""time""
""fullscreenenter"",""1"",""2639""
","
","","","-1","","","11","7725","1471","&#9761;","elianto","#3366ff99","-1","-1","1","+10","[]","0","0","2","","","","","","","",""
"pit-trial","48","467524","0.0-2.0-11.2-1.2","battery-v0.2","","""event"",""trial"",""time""
""fullscreenenter"",""1"",""2639""
","
","
","""event"",""trial"",""time""
""fullscreenenter"",""1"",""2639""
","
","","","-1","","","11","7725","1471","&#9761;","elianto","#3366ff99","-1","-1","1","+10","[]","0","0","2","","","","","","","",""
"pit-trial","49","472395","0.0-2.0-11.2-2.2","battery-v0.2","","""event"",""trial"",""time""
""fullscreenenter"",""1"",""2639""
","
","
","""event"",""trial"",""time""
""fullscreenenter"",""1"",""2639""
","
","","","-1","","","11","7725","1471","&#9761;","elianto","#3366ff99","-1","-1","1","+10","[]","0","0","2","","","","","","","",""
"pit-trial","50","477260","0.0-2.0-11.2-3.2","battery-v0.2","","""event"",""trial"",""time""
""fullscreenenter"",""1"",""2639""
","
","
","""event"",""trial"",""time""
""fullscreenenter"",""1"",""2639""
","
","","","-1","","","11","7725","1471","&#9761;","elianto","#3366ff99","-1","-1","1","0","[]","0","0","2","","","","","","","",""
"pit-trial","51","482132","0.0-2.0-11.2-4.2","battery-v0.2","","""event"",""trial"",""time""
""fullscreenenter"",""1"",""2639""
","
","
","""event"",""trial"",""time""
""fullscreenenter"",""1"",""2639""
","
","","","-1","","","11","7725","1471","&#9761;","elianto","#3366ff99","-1","-1","1","+10","[]","0","0","2","","","","","","","",""
"pit-trial","52","487004","0.0-2.0-11.3-0.3","battery-v0.2","","""event"",""trial"",""time""
""fullscreenenter"",""1"",""2639""
","
","
","""event"",""trial"",""time""
""fullscreenenter"",""1"",""2639""
","
","","","-1","","","11","7725","1471","&#9761;","elianto","#3366ff99","-1","-1","1","+10","[]","0","0","2","","","","","","","",""
"pit-trial","53","491876","0.0-2.0-11.3-1.3","battery-v0.2","","""event"",""trial"",""time""
""fullscreenenter"",""1"",""2639""
","
","
","""event"",""trial"",""time""
""fullscreenenter"",""1"",""2639""
","
","","","-1","","","11","7725","1471","&#9761;","elianto","#3366ff99","-1","-1","1","+10","[]","0","0","2","","","","","","","",""
"pit-trial","54","496747","0.0-2.0-11.3-2.3","battery-v0.2","","""event"",""trial"",""time""
""fullscreenenter"",""1"",""2639""
","
","
","""event"",""trial"",""time""
""fullscreenenter"",""1"",""2639""
","
","","","-1","","","11","7725","1471","&#9761;","elianto","#3366ff99","-1","-1","1","+10","[]","0","0","2","","","","","","","",""
"pit-trial","55","501613","0.0-2.0-11.3-3.3","battery-v0.2","","""event"",""trial"",""time""
""fullscreenenter"",""1"",""2639""
","
","
","""event"",""trial"",""time""
""fullscreenenter"",""1"",""2639""
","
","","","-1","","","11","7725","1471","&#9761;","elianto","#3366ff99","-1","-1","1","0","[]","0","0","2","","","","","","","",""
"pit-trial","56","506483","0.0-2.0-11.3-4.3","battery-v0.2","","""event"",""trial"",""time""
""fullscreenenter"",""1"",""2639""
","
","
","""event"",""trial"",""time""
""fullscreenenter"",""1"",""2639""
","
","","","-1","","","11","7725","1471","&#9761;","elianto","#3366ff99","-1","-1","1","+10","[]","0","0","2","","","","","","","",""
"call-function","57","506489","0.0-2.0-12.0","battery-v0.2","","""event"",""trial"",""time""
""fullscreenenter"",""1"",""2639""
","
","
","""event"",""trial"",""time""
""fullscreenenter"",""1"",""2639""
","
","","","","","","","","","","","","","","","","","","","","","","","","","","",""
"pit-instructions","58","536855","0.0-2.0-13.0","battery-v0.2","","""event"",""trial"",""time""
""fullscreenenter"",""1"",""2639""
","
","
","""event"",""trial"",""time""
""fullscreenenter"",""1"",""2639""
","
","","[{""page_index"":0,""viewing_time"":4986.300000000047},{""page_index"":1,""viewing_time"":7012.59999999986},{""page_index"":2,""viewing_time"":3250.7000000001863},{""page_index"":3,""viewing_time"":10554.59999999986},{""page_index"":4,""viewing_time"":4557.699999999953}]","30364","","","","","","","","","","","","","","","","","","","","","","","",""
"pit-trial","59","540307","0.0-2.0-14.0-0.0","battery-v0.2","","""event"",""trial"",""time""
""fullscreenenter"",""1"",""2639""
","
","
","""event"",""trial"",""time""
""fullscreenenter"",""1"",""2639""
","
","","","589.6000000000931","","","11","7725","1471","&#9826;","elianto","#f73b6a7A","-1"," ","0","-10","[1443.1999999999534]","1","0","3","","","","","","","",""
"pit-trial","60","545170","0.0-2.0-14.0-1.0","battery-v0.2","","""event"",""trial"",""time""
""fullscreenenter"",""1"",""2639""
","
","
","""event"",""trial"",""time""
""fullscreenenter"",""1"",""2639""
","
","","","-1","","","11","7725","1471","&#9826;","elianto","#f73b6a7A","-1","-1","1","0","[]","0","0","3","","","","","","","",""
"pit-trial","61","550035","0.0-2.0-14.0-2.0","battery-v0.2","","""event"",""trial"",""time""
""fullscreenenter"",""1"",""2639""
","
","
","""event"",""trial"",""time""
""fullscreenenter"",""1"",""2639""
","
","","","-1","","","11","7725","1471","&#9826;","elianto","#f73b6a7A","-1","-1","1","0","[]","0","0","3","","","","","","","",""
"pit-trial","62","554899","0.0-2.0-14.0-3.0","battery-v0.2","","""event"",""trial"",""time""
""fullscreenenter"",""1"",""2639""
","
","
","""event"",""trial"",""time""
""fullscreenenter"",""1"",""2639""
","
","","","-1","","","11","7725","1471","&#9826;","elianto","#f73b6a7A","-1","-1","1","-10","[]","0","0","3","","","","","","","",""
"pit-trial","63","559762","0.0-2.0-14.0-4.0","battery-v0.2","","""event"",""trial"",""time""
""fullscreenenter"",""1"",""2639""
","
","
","""event"",""trial"",""time""
""fullscreenenter"",""1"",""2639""
","
","","","-1","","","11","7725","1471","&#9826;","elianto","#f73b6a7A","-1","-1","1","0","[]","0","0","3","","","","","","","",""
"pit-trial","64","564627","0.0-2.0-14.1-0.1","battery-v0.2","","""event"",""trial"",""time""
""fullscreenenter"",""1"",""2639""
","
","
","""event"",""trial"",""time""
""fullscreenenter"",""1"",""2639""
","
","","","-1","","","11","7725","1471","&#9826;","elianto","#f73b6a7A","-1","-1","1","0","[]","0","0","3","","","","","","","",""
"pit-trial","65","569491","0.0-2.0-14.1-1.1","battery-v0.2","","""event"",""trial"",""time""
""fullscreenenter"",""1"",""2639""
","
","
","""event"",""trial"",""time""
""fullscreenenter"",""1"",""2639""
","
","","","-1","","","11","7725","1471","&#9826;","elianto","#f73b6a7A","-1","-1","1","0","[]","0","0","3","","","","","","","",""
"pit-trial","66","574363","0.0-2.0-14.1-2.1","battery-v0.2","","""event"",""trial"",""time""
""fullscreenenter"",""1"",""2639""
","
","
","""event"",""trial"",""time""
""fullscreenenter"",""1"",""2639""
","
","","","-1","","","11","7725","1471","&#9826;","elianto","#f73b6a7A","-1","-1","1","0","[]","0","0","3","","","","","","","",""
"pit-trial","67","579227","0.0-2.0-14.1-3.1","battery-v0.2","","""event"",""trial"",""time""
""fullscreenenter"",""1"",""2639""
","
","
","""event"",""trial"",""time""
""fullscreenenter"",""1"",""2639""
","
","","","-1","","","11","7725","1471","&#9826;","elianto","#f73b6a7A","-1","-1","1","-10","[]","0","0","3","","","","","","","",""
"pit-trial","68","584092","0.0-2.0-14.1-4.1","battery-v0.2","","""event"",""trial"",""time""
""fullscreenenter"",""1"",""2639""
","
","
","""event"",""trial"",""time""
""fullscreenenter"",""1"",""2639""
","
","","","-1","","","11","7725","1471","&#9826;","elianto","#f73b6a7A","-1","-1","1","0","[]","0","0","3","","","","","","","",""
"pit-trial","69","588963","0.0-2.0-14.2-0.2","battery-v0.2","","""event"",""trial"",""time""
""fullscreenenter"",""1"",""2639""
","
","
","""event"",""trial"",""time""
""fullscreenenter"",""1"",""2639""
","
","","","-1","","","11","7725","1471","&#9826;","elianto","#f73b6a7A","-1","-1","1","0","[]","0","0","3","","","","","","","",""
"pit-trial","70","593827","0.0-2.0-14.2-1.2","battery-v0.2","","""event"",""trial"",""time""
""fullscreenenter"",""1"",""2639""
","
","
","""event"",""trial"",""time""
""fullscreenenter"",""1"",""2639""
","
","","","-1","","","11","7725","1471","&#9826;","elianto","#f73b6a7A","-1","-1","1","0","[]","0","0","3","","","","","","","",""
"pit-trial","71","598691","0.0-2.0-14.2-2.2","battery-v0.2","","""event"",""trial"",""time""
""fullscreenenter"",""1"",""2639""
","
","
","""event"",""trial"",""time""
""fullscreenenter"",""1"",""2639""
","
","","","-1","","","11","7725","1471","&#9826;","elianto","#f73b6a7A","-1","-1","1","0","[]","0","0","3","","","","","","","",""
"pit-trial","72","603556","0.0-2.0-14.2-3.2","battery-v0.2","","""event"",""trial"",""time""
""fullscreenenter"",""1"",""2639""
","
","
","""event"",""trial"",""time""
""fullscreenenter"",""1"",""2639""
","
","","","-1","","","11","7725","1471","&#9826;","elianto","#f73b6a7A","-1","-1","1","-10","[]","0","0","3","","","","","","","",""
"pit-trial","73","608427","0.0-2.0-14.2-4.2","battery-v0.2","","""event"",""trial"",""time""
""fullscreenenter"",""1"",""2639""
","
","
","""event"",""trial"",""time""
""fullscreenenter"",""1"",""2639""
","
","","","-1","","","11","7725","1471","&#9826;","elianto","#f73b6a7A","-1","-1","1","0","[]","0","0","3","","","","","","","",""
"pit-trial","74","613299","0.0-2.0-14.3-0.3","battery-v0.2","","""event"",""trial"",""time""
""fullscreenenter"",""1"",""2639""
","
","
","""event"",""trial"",""time""
""fullscreenenter"",""1"",""2639""
","
","","","-1","","","11","7725","1471","&#9826;","elianto","#f73b6a7A","-1","-1","1","0","[]","0","0","3","","","","","","","",""
"pit-trial","75","618163","0.0-2.0-14.3-1.3","battery-v0.2","","""event"",""trial"",""time""
""fullscreenenter"",""1"",""2639""
","
","
","""event"",""trial"",""time""
""fullscreenenter"",""1"",""2639""
","
","","","-1","","","11","7725","1471","&#9826;","elianto","#f73b6a7A","-1","-1","1","0","[]","0","0","3","","","","","","","",""
"pit-trial","76","623027","0.0-2.0-14.3-2.3","battery-v0.2","","""event"",""trial"",""time""
""fullscreenenter"",""1"",""2639""
","
","
","""event"",""trial"",""time""
""fullscreenenter"",""1"",""2639""
","
","","","-1","","","11","7725","1471","&#9826;","elianto","#f73b6a7A","-1","-1","1","0","[]","0","0","3","","","","","","","",""
"pit-trial","77","627891","0.0-2.0-14.3-3.3","battery-v0.2","","""event"",""trial"",""time""
""fullscreenenter"",""1"",""2639""
","
","
","""event"",""trial"",""time""
""fullscreenenter"",""1"",""2639""
","
","","","-1","","","11","7725","1471","&#9826;","elianto","#f73b6a7A","-1","-1","1","-10","[]","0","0","3","","","","","","","",""
"pit-trial","78","632756","0.0-2.0-14.3-4.3","battery-v0.2","","""event"",""trial"",""time""
""fullscreenenter"",""1"",""2639""
","
","
","""event"",""trial"",""time""
""fullscreenenter"",""1"",""2639""
","
","","","-1","","","11","7725","1471","&#9826;","elianto","#f73b6a7A","-1","-1","1","0","[]","0","0","3","","","","","","","",""
"call-function","79","632761","0.0-2.0-15.0","battery-v0.2","","""event"",""trial"",""time""
""fullscreenenter"",""1"",""2639""
","
","
","""event"",""trial"",""time""
""fullscreenenter"",""1"",""2639""
","
","","","","","","","","","","","","","","","","","","","","","","","","","","",""
"pit-instructions","80","659888","0.0-2.0-16.0","battery-v0.2","","""event"",""trial"",""time""
""fullscreenenter"",""1"",""2639""
","
","
","""event"",""trial"",""time""
""fullscreenenter"",""1"",""2639""
","
","","[{""page_index"":0,""viewing_time"":7761.300000000047},{""page_index"":1,""viewing_time"":8396.899999999907},{""page_index"":2,""viewing_time"":6238},{""page_index"":3,""viewing_time"":4726.699999999953}]","27124.899999999907","","","","","","","","","","","","","","","","","","","","","","","",""
"pit-trial","81","663315","0.0-2.0-17.0-0.0","battery-v0.2","","""event"",""trial"",""time""
""fullscreenenter"",""1"",""2639""
","
","
","""event"",""trial"",""time""
""fullscreenenter"",""1"",""2639""
","
","","","564.3000000000466","","","11","7725","1471","&#9789;","elianto","#f73b6a7A"," "," ","1","0","[1419.5]","1","0","4","","","","","","","",""
"pit-trial","82","666499","0.0-2.0-17.0-1.0","battery-v0.2","","""event"",""trial"",""time""
""fullscreenenter"",""1"",""2639""
","
","
","""event"",""trial"",""time""
""fullscreenenter"",""1"",""2639""
","
","","","324.80000000004657","","","11","7725","1471","&#9789;","elianto","#f73b6a7A"," "," ","1","0","[1177.1999999999534]","1","0","4","","","","","","","",""
"pit-trial","83","669891","0.0-2.0-17.0-2.0","battery-v0.2","","""event"",""trial"",""time""
""fullscreenenter"",""1"",""2639""
","
","
","""event"",""trial"",""time""
""fullscreenenter"",""1"",""2639""
","
","","","532.5","","","11","7725","1471","&#9789;","elianto","#f73b6a7A"," "," ","1","0","[1384.6000000000931]","1","0","4","","","","","","","",""
"pit-trial","84","673195","0.0-2.0-17.0-3.0","battery-v0.2","","""event"",""trial"",""time""
""fullscreenenter"",""1"",""2639""
","
","
","""event"",""trial"",""time""
""fullscreenenter"",""1"",""2639""
","
","","","431.69999999995343","","","11","7725","1471","&#9789;","elianto","#f73b6a7A"," "," ","1","-10","[1289.6000000000931]","1","0","4","","","","","","","",""
"pit-trial","85","676556","0.0-2.0-17.0-4.0","battery-v0.2","","""event"",""trial"",""time""
""fullscreenenter"",""1"",""2639""
","
","
","""event"",""trial"",""time""
""fullscreenenter"",""1"",""2639""
","
","","","500.19999999995343","","","11","7725","1471","&#9789;","elianto","#f73b6a7A"," "," ","1","0","[1353.5]","1","0","4","","","","","","","",""
"pit-trial","86","679835","0.0-2.0-17.1-0.1","battery-v0.2","","""event"",""trial"",""time""
""fullscreenenter"",""1"",""2639""
","
","
","""event"",""trial"",""time""
""fullscreenenter"",""1"",""2639""
","
","","","410.5","","","11","7725","1471","&#9789;","elianto","#f73b6a7A"," "," ","1","0","[1265.6999999999534]","1","0","4","","","","","","","",""
"pit-trial","87","683099","0.0-2.0-17.1-1.1","battery-v0.2","","""event"",""trial"",""time""
""fullscreenenter"",""1"",""2639""
","
","
","""event"",""trial"",""time""
""fullscreenenter"",""1"",""2639""
","
","","","400.89999999990687","","","11","7725","1471","&#9789;","elianto","#f73b6a7A"," "," ","1","0","[1254.1000000000931]","1","0","4","","","","","","","",""
"pit-trial","88","686323","0.0-2.0-17.1-2.1","battery-v0.2","","""event"",""trial"",""time""
""fullscreenenter"",""1"",""2639""
","
","
","""event"",""trial"",""time""
""fullscreenenter"",""1"",""2639""
","
","","","361","","","11","7725","1471","&#9789;","elianto","#f73b6a7A"," "," ","1","0","[724.9000000003725,1212.9000000003725]","2","0","4","","","","","","","",""
"pit-trial","89","689411","0.0-2.0-17.1-3.1","battery-v0.2","","""event"",""trial"",""time""
""fullscreenenter"",""1"",""2639""
","
","
","""event"",""trial"",""time""
""fullscreenenter"",""1"",""2639""
","
","","","229.79999999981374","","","11","7725","1471","&#9789;","elianto","#f73b6a7A"," "," ","1","-10","[1083.2000000001863]","1","0","4","","","","","","","",""
"pit-trial","90","692650","0.0-2.0-17.1-4.1","battery-v0.2","","""event"",""trial"",""time""
""fullscreenenter"",""1"",""2639""
","
","
","""event"",""trial"",""time""
""fullscreenenter"",""1"",""2639""
","
","","","383.1999999997206","","","11","7725","1471","&#9789;","elianto","#f73b6a7A"," "," ","1","0","[1235.8999999999069]","1","0","4","","","","","","","",""
"pit-trial","91","695931","0.0-2.0-17.2-0.2","battery-v0.2","","""event"",""trial"",""time""
""fullscreenenter"",""1"",""2639""
","
","
","""event"",""trial"",""time""
""fullscreenenter"",""1"",""2639""
","
","","","419.5","","","11","7725","1471","&#9789;","elianto","#f73b6a7A"," "," ","1","0","[1271.1000000000931]","1","0","4","","","","","","","",""
"pit-trial","92","699347","0.0-2.0-17.2-1.2","battery-v0.2","","""event"",""trial"",""time""
""fullscreenenter"",""1"",""2639""
","
","
","""event"",""trial"",""time""
""fullscreenenter"",""1"",""2639""
","
","","","552.1000000000931","","","11","7725","1471","&#9789;","elianto","#f73b6a7A"," "," ","1","0","[1404.8000000002794]","1","0","4","","","","","","","",""
"pit-trial","93","702699","0.0-2.0-17.2-2.2","battery-v0.2","","""event"",""trial"",""time""
""fullscreenenter"",""1"",""2639""
","
","
","""event"",""trial"",""time""
""fullscreenenter"",""1"",""2639""
","
","","","492.8000000002794","","","11","7725","1471","&#9789;","elianto","#f73b6a7A"," "," ","1","0","[1345.1000000000931]","1","0","4","","","","","","","",""
"pit-trial","94","705860","0.0-2.0-17.2-3.2","battery-v0.2","","""event"",""trial"",""time""
""fullscreenenter"",""1"",""2639""
","
","
","""event"",""trial"",""time""
""fullscreenenter"",""1"",""2639""
","
","","","303.59999999962747","","","11","7725","1471","&#9789;","elianto","#f73b6a7A"," "," ","1","-10","[1154.9000000003725]","1","0","4","","","","","","","",""
"pit-trial","95","708834","0.0-2.0-17.2-4.2","battery-v0.2","","""event"",""trial"",""time""
""fullscreenenter"",""1"",""2639""
","
","
","""event"",""trial"",""time""
""fullscreenenter"",""1"",""2639""
","
","","","109.89999999990687","","","11","7725","1471","&#9789;","elianto","#f73b6a7A"," "," ","1","0","[964.6000000000931]","1","0","4","","","","","","","",""
"pit-trial","96","712059","0.0-2.0-17.3-0.3","battery-v0.2","","""event"",""trial"",""time""
""fullscreenenter"",""1"",""2639""
","
","
","""event"",""trial"",""time""
""fullscreenenter"",""1"",""2639""
","
","","","363.20000000018626","","","11","7725","1471","&#9789;","elianto","#f73b6a7A"," "," ","1","0","[1214]","1","0","4","","","","","","","",""
"pit-trial","97","715370","0.0-2.0-17.3-1.3","battery-v0.2","","""event"",""trial"",""time""
""fullscreenenter"",""1"",""2639""
","
","
","""event"",""trial"",""time""
""fullscreenenter"",""1"",""2639""
","
","","","455.09999999962747","","","11","7725","1471","&#9789;","elianto","#f73b6a7A"," "," ","1","0","[1307.3999999999069]","1","0","4","","","","","","","",""
"pit-trial","98","718786","0.0-2.0-17.3-2.3","battery-v0.2","","""event"",""trial"",""time""
""fullscreenenter"",""1"",""2639""
","
","
","""event"",""trial"",""time""
""fullscreenenter"",""1"",""2639""
","
","","","558.1999999997206","","","11","7725","1471","&#9789;","elianto","#f73b6a7A"," "," ","1","0","[1409.5999999996275]","1","0","4","","","","","","","",""
"pit-trial","99","722267","0.0-2.0-17.3-3.3","battery-v0.2","","""event"",""trial"",""time""
""fullscreenenter"",""1"",""2639""
","
","
","""event"",""trial"",""time""
""fullscreenenter"",""1"",""2639""
","
","","","619.6000000000931","","","11","7725","1471","&#9789;","elianto","#f73b6a7A"," "," ","1","-10","[1472.7999999998137]","1","0","4","","","","","","","",""
"pit-trial","100","725755","0.0-2.0-17.3-4.3","battery-v0.2","","""event"",""trial"",""time""
""fullscreenenter"",""1"",""2639""
","
","
","""event"",""trial"",""time""
""fullscreenenter"",""1"",""2639""
","
","","","629.8999999999069","","","11","7725","1471","&#9789;","elianto","#f73b6a7A"," "," ","1","0","[1482.2999999998137]","1","0","4","","","","","","","",""
"call-function","101","725760","0.0-2.0-18.0","battery-v0.2","","""event"",""trial"",""time""
""fullscreenenter"",""1"",""2639""
","
","
","""event"",""trial"",""time""
""fullscreenenter"",""1"",""2639""
","
","","","","","","","","","","","","","","","","","","","","","","","","","","",""
"pit-instructions","102","810896","0.0-2.0-19.0","battery-v0.2","","""event"",""trial"",""time""
""fullscreenenter"",""1"",""2639""
","
","
","""event"",""trial"",""time""
""fullscreenenter"",""1"",""2639""
","
","","[{""page_index"":0,""viewing_time"":9618.899999999907},{""page_index"":1,""viewing_time"":6654.200000000186},{""page_index"":2,""viewing_time"":19824.69999999972},{""page_index"":3,""viewing_time"":10249.600000000093},{""page_index"":4,""viewing_time"":9521.100000000093},{""page_index"":5,""viewing_time"":8670.399999999907},{""page_index"":6,""viewing_time"":8057},{""page_index"":7,""viewing_time"":7976},{""page_index"":8,""viewing_time"":4560.5}]","85134.6000000001","","","","","","","","","","","","","","","","","","","","","","","",""
"pit-comprehension","103","819144","0.0-2.0-20.0-0.0","battery-v0.2","","""event"",""trial"",""time""
""fullscreenenter"",""1"",""2639""
","
","
","""event"",""trial"",""time""
""fullscreenenter"",""1"",""2639""
","
","","","8237.900000000373","[""SPACE""]","0","11","7725","1471","","","","","","","","","","","","","","","","","","",""
"pit-instructions","104","824156","0.0-2.0-20.0-1.0","battery-v0.2","","""event"",""trial"",""time""
""fullscreenenter"",""1"",""2639""
","
","
","""event"",""trial"",""time""
""fullscreenenter"",""1"",""2639""
","
","","[{""page_index"":0,""viewing_time"":4952.800000000279}]","4954.100000000093","","","","","","","","","","","","","","","","","","","","","","","",""
"pit-comprehension","105","831293","0.0-2.0-21.0-0.0","battery-v0.2","","""event"",""trial"",""time""
""fullscreenenter"",""1"",""2639""
","
","
","""event"",""trial"",""time""
""fullscreenenter"",""1"",""2639""
","
","","","7127.899999999907","[""10""]","0","11","7725","1471","","","","","","","","","","","","","","","","","","",""
"pit-instructions","106","832472","0.0-2.0-21.0-1.0","battery-v0.2","","""event"",""trial"",""time""
""fullscreenenter"",""1"",""2639""
","
","
","""event"",""trial"",""time""
""fullscreenenter"",""1"",""2639""
","
","","[{""page_index"":0,""viewing_time"":1118.1999999997206}]","1119.5","","","","","","","","","","","","","","","","","","","","","","","",""
"pit-comprehension","107","839927","0.0-2.0-22.0-0.0","battery-v0.2","","""event"",""trial"",""time""
""fullscreenenter"",""1"",""2639""
","
","
","""event"",""trial"",""time""
""fullscreenenter"",""1"",""2639""
","
","","","7445.5","[""0""]","0","11","7725","1471","","","","","","","","","","","","","","","","","","",""
"pit-instructions","108","844175","0.0-2.0-22.0-1.0","battery-v0.2","","""event"",""trial"",""time""
""fullscreenenter"",""1"",""2639""
","
","
","""event"",""trial"",""time""
""fullscreenenter"",""1"",""2639""
","
","","[{""page_index"":0,""viewing_time"":4183.699999999721}]","4185.399999999907","","","","","","","","","","","","","","","","","","","","","","","",""
"pit-comprehension","109","857317","0.0-2.0-23.0-0.0","battery-v0.2","","""event"",""trial"",""time""
""fullscreenenter"",""1"",""2639""
","
","
","""event"",""trial"",""time""
""fullscreenenter"",""1"",""2639""
","
","","","13130.19999999972","[""True""]","0","11","7725","1471","","","","","","","","","","","","","","","","","","",""
"pit-instructions","110","860048","0.0-2.0-23.0-1.0","battery-v0.2","","""event"",""trial"",""time""
""fullscreenenter"",""1"",""2639""
","
","
","""event"",""trial"",""time""
""fullscreenenter"",""1"",""2639""
","
","","[{""page_index"":0,""viewing_time"":2664}]","2665.600000000093","","","","","","","","","","","","","","","","","","","","","","","",""
"pit-comprehension","111","867862","0.0-2.0-24.0-0.0","battery-v0.2","","""event"",""trial"",""time""
""fullscreenenter"",""1"",""2639""
","
","
","""event"",""trial"",""time""
""fullscreenenter"",""1"",""2639""
","
","","","7804.100000000093","[""True""]","0","11","7725","1471","","","","","","","","","","","","","","","","","","",""
"pit-instructions","112","870129","0.0-2.0-24.0-1.0","battery-v0.2","","""event"",""trial"",""time""
""fullscreenenter"",""1"",""2639""
","
","
","""event"",""trial"",""time""
""fullscreenenter"",""1"",""2639""
","
","","[{""page_index"":0,""viewing_time"":2202.100000000093}]","2203.3000000002794","","","","","","","","","","","","","","","","","","","","","","","",""
"pit-comprehension","113","877535","0.0-2.0-25.0-0.0","battery-v0.2","","""event"",""trial"",""time""
""fullscreenenter"",""1"",""2639""
","
","
","""event"",""trial"",""time""
""fullscreenenter"",""1"",""2639""
","
","","","7399","[""True""]","0","11","7725","1471","","","","","","","","","","","","","","","","","","",""
"pit-instructions","114","879773","0.0-2.0-25.0-1.0","battery-v0.2","","""event"",""trial"",""time""
""fullscreenenter"",""1"",""2639""
","
","
","""event"",""trial"",""time""
""fullscreenenter"",""1"",""2639""
","
","","[{""page_index"":0,""viewing_time"":2178.5}]","2179.1999999997206","","","","","","","","","","","","","","","","","","","","","","","",""
"pit-comprehension","115","885318","0.0-2.0-26.0-0.0","battery-v0.2","","""event"",""trial"",""time""
""fullscreenenter"",""1"",""2639""
","
","
","""event"",""trial"",""time""
""fullscreenenter"",""1"",""2639""
","
","","","5538","[""False""]","0","11","7725","1471","","","","","","","","","","","","","","","","","","",""
"pit-instructions","116","888030","0.0-2.0-26.0-1.0","battery-v0.2","","""event"",""trial"",""time""
""fullscreenenter"",""1"",""2639""
","
","
","""event"",""trial"",""time""
""fullscreenenter"",""1"",""2639""
","
","","[{""page_index"":0,""viewing_time"":2637.7000000001863}]","2638.3000000002794","","","","","","","","","","","","","","","","","","","","","","","",""
"pit-instructions","117","907032","0.0-3.0","battery-v0.2","","""event"",""trial"",""time""
""fullscreenenter"",""1"",""2639""
","
","
","""event"",""trial"",""time""
""fullscreenenter"",""1"",""2639""
","
","","[{""page_index"":0,""viewing_time"":4501.5},{""page_index"":1,""viewing_time"":6659.100000000093},{""page_index"":2,""viewing_time"":7836.300000000279}]","18997.5","","","","","","","","","","","","","","","","","","","","","","","",""
"pit-trial","118","910443","0.0-4.0","battery-v0.2","","""event"",""trial"",""time""
""fullscreenenter"",""1"",""2639""
","
","
","""event"",""trial"",""time""
""fullscreenenter"",""1"",""2639""
","
","","","542.5","","","11","7725","1471","&#9730;","elianto","#3366ff99"," "," ","1","+10","[1400]","1","1","","","7725","1","1","1","win","go","0"
"pit-trial","119","914371","0.0-5.0","battery-v0.2","","""event"",""trial"",""time""
""fullscreenenter"",""1"",""2639""
","
","
","""event"",""trial"",""time""
""fullscreenenter"",""1"",""2639""
","
","","","1060.5","","","11","7725","1471","&#9728;","elianto","#f73b6a7A","-1"," ","0","-10","[1918.1000000000931]","1","1","","","7725","2","0","4","lose","no-go","0"
"pit-trial","120","917827","0.0-6.0","battery-v0.2","","""event"",""trial"",""time""
""fullscreenenter"",""1"",""2639""
","
","
","""event"",""trial"",""time""
""fullscreenenter"",""1"",""2639""
","
","","","594.6000000000931","","","11","7725","1471","&#9733;","elianto","#3366ff99","-1"," ","0","+10","[1444.8999999999069]","1","1","","","7725","3","2","2","win","no-go","1"
"pit-trial","121","922691","0.0-7.0","battery-v0.2","","""event"",""trial"",""time""
""fullscreenenter"",""1"",""2639""
","
","
","""event"",""trial"",""time""
""fullscreenenter"",""1"",""2639""
","
","","","-1","","","11","7725","1471","&#9752;","elianto","#f73b6a7A"," ","-1","0","-10","[]","0","1","","","7725","4","3","3","lose","go","0"
"pit-trial","122","926372","0.0-8.0","battery-v0.2","","""event"",""trial"",""time""
""fullscreenenter"",""1"",""2639""
","
","
","""event"",""trial"",""time""
""fullscreenenter"",""1"",""2639""
","
","","","822.3999999999069","","","11","7725","1471","&#9752;","elianto","#f73b6a7A"," "," ","1","0","[1672.8999999999069]","1","1","","","7725","5","3","3","lose","go","0"
"pit-trial","123","931244","0.0-9.0","battery-v0.2","","""event"",""trial"",""time""
""fullscreenenter"",""1"",""2639""
","
","
","""event"",""trial"",""time""
""fullscreenenter"",""1"",""2639""
","
","","","-1","","","11","7725","1471","&#9728;","elianto","#f73b6a7A","-1","-1","1","0","[]","0","1","","","7725","6","0","4","lose","no-go","0"
"pit-trial","124","934723","0.0-10.0","battery-v0.2","","""event"",""trial"",""time""
""fullscreenenter"",""1"",""2639""
","
","
","""event"",""trial"",""time""
""fullscreenenter"",""1"",""2639""
","
","","","608.5","","","11","7725","1471","&#9733;","elianto","#3366ff99","-1"," ","0","0","[1464.5]","1","1","","","7725","7","2","2","win","no-go","0"
"pit-trial","125","938067","0.0-11.0","battery-v0.2","","""event"",""trial"",""time""
""fullscreenenter"",""1"",""2639""
","
","
","""event"",""trial"",""time""
""fullscreenenter"",""1"",""2639""
","
","","","474.39999999990687","","","11","7725","1471","&#9730;","elianto","#3366ff99"," "," ","1","0","[1329.4000000003725]","1","1","","","7725","8","1","1","win","go","1"
"pit-trial","126","942939","0.0-12.0","battery-v0.2","","""event"",""trial"",""time""
""fullscreenenter"",""1"",""2639""
","
","
","""event"",""trial"",""time""
""fullscreenenter"",""1"",""2639""
","
","","","-1","","","11","7725","1471","&#9752;","elianto","#f73b6a7A"," ","-1","0","-10","[]","0","1","","","7725","9","3","3","lose","go","0"
"pit-trial","127","946403","0.0-13.0","battery-v0.2","","""event"",""trial"",""time""
""fullscreenenter"",""1"",""2639""
","
","
","""event"",""trial"",""time""
""fullscreenenter"",""1"",""2639""
","
","","","600","","","11","7725","1471","&#9728;","elianto","#f73b6a7A","-1"," ","0","-10","[1450.1000000000931]","1","1","","","7725","10","0","4","lose","no-go","0"
"pit-trial","128","949915","0.0-14.0","battery-v0.2","","""event"",""trial"",""time""
""fullscreenenter"",""1"",""2639""
","
","
","""event"",""trial"",""time""
""fullscreenenter"",""1"",""2639""
","
","","","650.3999999999069","","","11","7725","1471","&#9730;","elianto","#3366ff99"," "," ","1","+10","[1504.1000000000931]","1","1","","","7725","11","1","1","win","go","0"
"pit-trial","129","953459","0.0-15.0","battery-v0.2","","""event"",""trial"",""time""
""fullscreenenter"",""1"",""2639""
","
","
","""event"",""trial"",""time""
""fullscreenenter"",""1"",""2639""
","
","","","680.1000000000931","","","11","7725","1471","&#9733;","elianto","#3366ff99","-1"," ","0","0","[1530.5]","1","1","","","7725","12","2","2","win","no-go","0"
"pit-trial","130","957139","0.0-16.0","battery-v0.2","","""event"",""trial"",""time""
""fullscreenenter"",""1"",""2639""
","
","
","""event"",""trial"",""time""
""fullscreenenter"",""1"",""2639""
","
","","","818.6000000000931","","","11","7725","1471","&#9733;","elianto","#3366ff99","-1"," ","0","0","[1670.5]","1","1","","","7725","13","2","2","win","no-go","0"
"pit-trial","131","962011","0.0-17.0","battery-v0.2","","""event"",""trial"",""time""
""fullscreenenter"",""1"",""2639""
","
","
","""event"",""trial"",""time""
""fullscreenenter"",""1"",""2639""
","
","","","-1","","","11","7725","1471","&#9752;","elianto","#f73b6a7A"," ","-1","0","-10","[]","0","1","","","7725","14","3","3","lose","go","0"
"pit-trial","132","965547","0.0-18.0","battery-v0.2","","""event"",""trial"",""time""
""fullscreenenter"",""1"",""2639""
","
","
","""event"",""trial"",""time""
""fullscreenenter"",""1"",""2639""
","
","","","671.9000000003725","","","11","7725","1471","&#9730;","elianto","#3366ff99"," "," ","1","+10","[1522.6000000000931]","1","1","","","7725","15","1","1","win","go","0"
"pit-trial","133","969819","0.0-19.0","battery-v0.2","","""event"",""trial"",""time""
""fullscreenenter"",""1"",""2639""
","
","
","""event"",""trial"",""time""
""fullscreenenter"",""1"",""2639""
","
","","","1414.7000000001863","","","11","7725","1471","&#9728;","elianto","#f73b6a7A","-1"," ","0","-10","[2265.3000000002794]","1","1","","","7725","16","0","4","lose","no-go","0"
"pit-trial","134","974196","0.0-20.0","battery-v0.2","","""event"",""trial"",""time""
""fullscreenenter"",""1"",""2639""
","
","
","""event"",""trial"",""time""
""fullscreenenter"",""1"",""2639""
","
","","","1507.5","","","11","7725","1471","&#9752;","elianto","#f73b6a7A"," "," ","1","0","[2365.399999999907]","1","1","","","7725","17","3","3","lose","go","0"
"pit-trial","135","979067","0.0-21.0","battery-v0.2","","""event"",""trial"",""time""
""fullscreenenter"",""1"",""2639""
","
","
","""event"",""trial"",""time""
""fullscreenenter"",""1"",""2639""
","
","","","-1","","","11","7725","1471","&#9728;","elianto","#f73b6a7A","-1","-1","1","0","[]","0","1","","","7725","18","0","4","lose","no-go","0"
"pit-trial","136","982707","0.0-22.0","battery-v0.2","","""event"",""trial"",""time""
""fullscreenenter"",""1"",""2639""
","
","
","""event"",""trial"",""time""
""fullscreenenter"",""1"",""2639""
","
","","","779.3000000002794","","","11","7725","1471","&#9733;","elianto","#3366ff99","-1"," ","0","0","[1630]","1","1","","","7725","19","2","2","win","no-go","0"
"pit-trial","137","986187","0.0-23.0","battery-v0.2","","""event"",""trial"",""time""
""fullscreenenter"",""1"",""2639""
","
","
","""event"",""trial"",""time""
""fullscreenenter"",""1"",""2639""
","
","","","617.3999999999069","","","11","7725","1471","&#9730;","elianto","#3366ff99"," "," ","1","0","[1470.7999999998137]","1","1","","","7725","20","1","1","win","go","1"
"pit-instructions","138","1006864","0.0-24.0","battery-v0.2","","""event"",""trial"",""time""
""fullscreenenter"",""1"",""2639""
","
","
","""event"",""trial"",""time""
""fullscreenenter"",""1"",""2639""
","
","","[{""page_index"":0,""viewing_time"":8382.19999999972},{""page_index"":1,""viewing_time"":12288.399999999907}]","20672.099999999627","","","","","","","","","","","","","","","","","","","","","","","",""
"pit-trial","139","1010659","0.0-25.0","battery-v0.2","","""event"",""trial"",""time""
""fullscreenenter"",""1"",""2639""
","
","
","""event"",""trial"",""time""
""fullscreenenter"",""1"",""2639""
","
","","","933.9000000003725","","","11","7725","1471","b","elianto","#f73b6a7A"," "," ","1","0","[1784.7000000001863]","1","2","","","7725","21","3","3","lose","go","0"
"pit-trial","140","1014132","0.0-26.0","battery-v0.2","","""event"",""trial"",""time""
""fullscreenenter"",""1"",""2639""
","
","
","""event"",""trial"",""time""
""fullscreenenter"",""1"",""2639""
","
","","","601.5","","","11","7725","1471","f","elianto","#3366ff99"," "," ","1","0","[1459.5]","1","2","","","7725","22","1","1","win","go","1"
"pit-trial","141","1018091","0.0-27.0","battery-v0.2","","""event"",""trial"",""time""
""fullscreenenter"",""1"",""2639""
","
","
","""event"",""trial"",""time""
""fullscreenenter"",""1"",""2639""
","
","","","1094","","","11","7725","1471","n","elianto","#f73b6a7A","-1"," ","0","-10","[1946.7000000001863]","1","2","","","7725","23","0","4","lose","no-go","0"
"pit-trial","142","1021899","0.0-28.0","battery-v0.2","","""event"",""trial"",""time""
""fullscreenenter"",""1"",""2639""
","
","
","""event"",""trial"",""time""
""fullscreenenter"",""1"",""2639""
","
","","","949.2000000001863","","","11","7725","1471","t","elianto","#f73b6a7A","-1"," ","0","-10","[1801.1999999997206]","1","2","","","7725","24","2","4","lose","no-go","0"
"pit-trial","143","1026762","0.0-29.0","battery-v0.2","","""event"",""trial"",""time""
""fullscreenenter"",""1"",""2639""
","
","
","""event"",""trial"",""time""
""fullscreenenter"",""1"",""2639""
","
","","","-1","","","11","7725","1471","t","elianto","#f73b6a7A","-1","-1","1","0","[]","0","2","","","7725","25","2","4","lose","no-go","0"
"pit-trial","144","1030356","0.0-30.0","battery-v0.2","","""event"",""trial"",""time""
""fullscreenenter"",""1"",""2639""
","
","
","""event"",""trial"",""time""
""fullscreenenter"",""1"",""2639""
","
","","","730.3999999999069","","","11","7725","1471","b","elianto","#f73b6a7A"," "," ","1","0","[1585.7999999998137]","1","2","","","7725","26","3","3","lose","go","0"
"pit-trial","145","1035219","0.0-31.0","battery-v0.2","","""event"",""trial"",""time""
""fullscreenenter"",""1"",""2639""
","
","
","""event"",""trial"",""time""
""fullscreenenter"",""1"",""2639""
","
","","","-1","","","11","7725","1471","n","elianto","#f73b6a7A","-1","-1","1","0","[]","0","2","","","7725","27","0","4","lose","no-go","0"
"pit-trial","146","1040092","0.0-32.0","battery-v0.2","","""event"",""trial"",""time""
""fullscreenenter"",""1"",""2639""
","
","
","""event"",""trial"",""time""
""fullscreenenter"",""1"",""2639""
","
","","","-1","","","11","7725","1471","f","elianto","#3366ff99"," ","-1","0","0","[]","0","2","","","7725","28","1","1","win","go","0"
"pit-trial","147","1044963","0.0-33.0","battery-v0.2","","""event"",""trial"",""time""
""fullscreenenter"",""1"",""2639""
","
","
","""event"",""trial"",""time""
""fullscreenenter"",""1"",""2639""
","
","","","-1","","","11","7725","1471","n","elianto","#f73b6a7A","-1","-1","1","0","[]","0","2","","","7725","29","0","4","lose","no-go","0"
"pit-trial","148","1049828","0.0-34.0","battery-v0.2","","""event"",""trial"",""time""
""fullscreenenter"",""1"",""2639""
","
","
","""event"",""trial"",""time""
""fullscreenenter"",""1"",""2639""
","
","","","-1","","","11","7725","1471","b","elianto","#f73b6a7A"," ","-1","0","-10","[]","0","2","","","7725","30","3","3","lose","go","0"
"pit-trial","149","1054699","0.0-35.0","battery-v0.2","","""event"",""trial"",""time""
""fullscreenenter"",""1"",""2639""
","
","
","""event"",""trial"",""time""
""fullscreenenter"",""1"",""2639""
","
","","","-1","","","11","7725","1471","t","elianto","#f73b6a7A","-1","-1","1","-10","[]","0","2","","","7725","31","2","4","lose","no-go","1"
"pit-trial","150","1058579","0.0-36.0","battery-v0.2","","""event"",""trial"",""time""
""fullscreenenter"",""1"",""2639""
","
","
","""event"",""trial"",""time""
""fullscreenenter"",""1"",""2639""
","
","","","1007.2999999998137","","","11","7725","1471","f","elianto","#3366ff99"," "," ","1","+10","[1865.2999999998137]","1","2","","","7725","32","1","1","win","go","0"
"pit-trial","151","1063451","0.0-37.0","battery-v0.2","","""event"",""trial"",""time""
""fullscreenenter"",""1"",""2639""
","
","
","""event"",""trial"",""time""
""fullscreenenter"",""1"",""2639""
","
","","","-1","","","11","7725","1471","t","elianto","#f73b6a7A","-1","-1","1","0","[]","0","2","","","7725","33","2","4","lose","no-go","0"
"pit-trial","152","1067060","0.0-38.0","battery-v0.2","","""event"",""trial"",""time""
""fullscreenenter"",""1"",""2639""
","
","
","""event"",""trial"",""time""
""fullscreenenter"",""1"",""2639""
","
","","","739.7999999998137","","","11","7725","1471","f","elianto","#3366ff99"," "," ","1","+10","[1596.6999999997206]","1","2","","","7725","34","1","1","win","go","0"
"pit-trial","153","1070523","0.0-39.0","battery-v0.2","","""event"",""trial"",""time""
""fullscreenenter"",""1"",""2639""
","
","
","""event"",""trial"",""time""
""fullscreenenter"",""1"",""2639""
","
","","","601.7000000001863","","","11","7725","1471","b","elianto","#f73b6a7A"," "," ","1","-10","[1454]","1","2","","","7725","35","3","3","lose","go","1"
"pit-trial","154","1075395","0.0-40.0","battery-v0.2","","""event"",""trial"",""time""
""fullscreenenter"",""1"",""2639""
","
","
","""event"",""trial"",""time""
""fullscreenenter"",""1"",""2639""
","
","","","-1","","","11","7725","1471","n","elianto","#f73b6a7A","-1","-1","1","0","[]","0","2","","","7725","36","0","4","lose","no-go","0"
"pit-trial","155","1080267","0.0-41.0","battery-v0.2","","""event"",""trial"",""time""
""fullscreenenter"",""1"",""2639""
","
","
","""event"",""trial"",""time""
""fullscreenenter"",""1"",""2639""
","
","","","-1","","","11","7725","1471","n","elianto","#f73b6a7A","-1","-1","1","-10","[]","0","2","","","7725","37","0","4","lose","no-go","1"
"pit-trial","156","1085139","0.0-42.0","battery-v0.2","","""event"",""trial"",""time""
""fullscreenenter"",""1"",""2639""
","
","
","""event"",""trial"",""time""
""fullscreenenter"",""1"",""2639""
","
","","","-1","","","11","7725","1471","t","elianto","#f73b6a7A","-1","-1","1","0","[]","0","2","","","7725","38","2","4","lose","no-go","0"
"pit-trial","157","1088611","0.0-43.0","battery-v0.2","","""event"",""trial"",""time""
""fullscreenenter"",""1"",""2639""
","
","
","""event"",""trial"",""time""
""fullscreenenter"",""1"",""2639""
","
","","","605.7000000001863","","","11","7725","1471","f","elianto","#3366ff99"," "," ","1","+10","[1463.8999999999069]","1","2","","","7725","39","1","1","win","go","0"
"pit-trial","158","1092299","0.0-44.0","battery-v0.2","","""event"",""trial"",""time""
""fullscreenenter"",""1"",""2639""
","
","
","""event"",""trial"",""time""
""fullscreenenter"",""1"",""2639""
","
","","","820.8999999999069","","","11","7725","1471","b","elianto","#f73b6a7A"," "," ","1","-10","[1674.1999999997206]","1","2","","","7725","40","3","3","lose","go","1"
"pit-trial","159","1097172","0.0-45.0","battery-v0.2","","""event"",""trial"",""time""
""fullscreenenter"",""1"",""2639""
","
","
","""event"",""trial"",""time""
""fullscreenenter"",""1"",""2639""
","
","","","-1","","","11","7725","1471","n","elianto","#f73b6a7A","-1","-1","1","0","[4866.299999999814]","1","2","","","7725","41","0","4","lose","no-go","0"
"pit-trial","160","1102043","0.0-46.0","battery-v0.2","","""event"",""trial"",""time""
""fullscreenenter"",""1"",""2639""
","
","
","""event"",""trial"",""time""
""fullscreenenter"",""1"",""2639""
","
","","","-1","","","11","7725","1471","t","elianto","#f73b6a7A","-1","-1","1","0","[]","0","2","","","7725","42","2","4","lose","no-go","0"
"pit-trial","161","1105579","0.0-47.0","battery-v0.2","","""event"",""trial"",""time""
""fullscreenenter"",""1"",""2639""
","
","
","""event"",""trial"",""time""
""fullscreenenter"",""1"",""2639""
","
","","","672.2999999998137","","","11","7725","1471","f","elianto","#3366ff99"," "," ","1","+10","[1524.5999999996275]","1","2","","","7725","43","1","1","win","go","0"
"pit-trial","162","1109244","0.0-48.0","battery-v0.2","","""event"",""trial"",""time""
""fullscreenenter"",""1"",""2639""
","
","
","""event"",""trial"",""time""
""fullscreenenter"",""1"",""2639""
","
","","","807.0999999996275","","","11","7725","1471","b","elianto","#f73b6a7A"," "," ","1","0","[1659.2999999998137]","1","2","","","7725","44","3","3","lose","go","0"
"pit-trial","163","1113459","0.0-49.0","battery-v0.2","","""event"",""trial"",""time""
""fullscreenenter"",""1"",""2639""
","
","
","""event"",""trial"",""time""
""fullscreenenter"",""1"",""2639""
","
","","","1346.6000000000931","","","11","7725","1471","t","elianto","#f73b6a7A","-1"," ","0","-10","[2204]","1","2","","","7725","45","2","4","lose","no-go","0"
"pit-trial","164","1116979","0.0-50.0","battery-v0.2","","""event"",""trial"",""time""
""fullscreenenter"",""1"",""2639""
","
","
","""event"",""trial"",""time""
""fullscreenenter"",""1"",""2639""
","
","","","655.1999999997206","","","11","7725","1471","b","elianto","#f73b6a7A"," "," ","1","0","[1506.2999999998137]","1","2","","","7725","46","3","3","lose","go","0"
"pit-trial","165","1121828","0.0-51.0","battery-v0.2","","""event"",""trial"",""time""
""fullscreenenter"",""1"",""2639""
","
","
","""event"",""trial"",""time""
""fullscreenenter"",""1"",""2639""
","
","","","1977.8000000002794","","","11","7725","1471","c","elianto","#3366ff99","-1"," ","0","0","[2835.5]","1","2","","","7725","47","4","2","win","no-go","0"
"pit-trial","166","1126692","0.0-52.0","battery-v0.2","","""event"",""trial"",""time""
""fullscreenenter"",""1"",""2639""
","
","
","""event"",""trial"",""time""
""fullscreenenter"",""1"",""2639""
","
","","","-1","","","11","7725","1471","n","elianto","#f73b6a7A","-1","-1","1","0","[]","0","2","","","7725","48","0","4","lose","no-go","0"
"pit-trial","167","1130571","0.0-53.0","battery-v0.2","","""event"",""trial"",""time""
""fullscreenenter"",""1"",""2639""
","
","
","""event"",""trial"",""time""
""fullscreenenter"",""1"",""2639""
","
","","","1012.8000000002794","","","11","7725","1471","c","elianto","#3366ff99","-1"," ","0","0","[1872.1000000000931]","1","2","","","7725","49","4","2","win","no-go","0"
"pit-trial","168","1135187","0.0-54.0","battery-v0.2","","""event"",""trial"",""time""
""fullscreenenter"",""1"",""2639""
","
","
","""event"",""trial"",""time""
""fullscreenenter"",""1"",""2639""
","
","","","1757.8999999999069","","","11","7725","1471","b","elianto","#f73b6a7A"," "," ","1","-10","[2607.899999999907]","1","2","","","7725","50","3","3","lose","go","1"
"pit-trial","169","1139043","0.0-55.0","battery-v0.2","","""event"",""trial"",""time""
""fullscreenenter"",""1"",""2639""
","
","
","""event"",""trial"",""time""
""fullscreenenter"",""1"",""2639""
","
","","","996.7000000001863","","","11","7725","1471","f","elianto","#3366ff99"," "," ","1","+10","[1847.1999999997206]","1","2","","","7725","51","1","1","win","go","0"
"pit-trial","170","1143916","0.0-56.0","battery-v0.2","","""event"",""trial"",""time""
""fullscreenenter"",""1"",""2639""
","
","
","""event"",""trial"",""time""
""fullscreenenter"",""1"",""2639""
","
","","","-1","","","11","7725","1471","n","elianto","#f73b6a7A","-1","-1","1","0","[]","0","2","","","7725","52","0","4","lose","no-go","0"
"pit-trial","171","1148788","0.0-57.0","battery-v0.2","","""event"",""trial"",""time""
""fullscreenenter"",""1"",""2639""
","
","
","""event"",""trial"",""time""
""fullscreenenter"",""1"",""2639""
","
","","","-1","","","11","7725","1471","c","elianto","#3366ff99","-1","-1","1","+10","[]","0","2","","","7725","53","4","2","win","no-go","0"
"pit-trial","172","1153651","0.0-58.0","battery-v0.2","","""event"",""trial"",""time""
""fullscreenenter"",""1"",""2639""
","
","
","""event"",""trial"",""time""
""fullscreenenter"",""1"",""2639""
","
","","","-1","","","11","7725","1471","t","elianto","#f73b6a7A","-1","-1","1","0","[]","0","2","","","7725","54","2","4","lose","no-go","0"
"pit-trial","173","1158515","0.0-59.0","battery-v0.2","","""event"",""trial"",""time""
""fullscreenenter"",""1"",""2639""
","
","
","""event"",""trial"",""time""
""fullscreenenter"",""1"",""2639""
","
","","","-1","","","11","7725","1471","n","elianto","#f73b6a7A","-1","-1","1","-10","[]","0","2","","","7725","55","0","4","lose","no-go","1"
"pit-trial","174","1162315","0.0-60.0","battery-v0.2","","""event"",""trial"",""time""
""fullscreenenter"",""1"",""2639""
","
","
","""event"",""trial"",""time""
""fullscreenenter"",""1"",""2639""
","
","","","935.3000000002794","","","11","7725","1471","f","elianto","#3366ff99"," "," ","1","+10","[1788.3999999999069]","1","2","","","7725","56","1","1","win","go","0"
"pit-trial","175","1165987","0.0-61.0","battery-v0.2","","""event"",""trial"",""time""
""fullscreenenter"",""1"",""2639""
","
","
","""event"",""trial"",""time""
""fullscreenenter"",""1"",""2639""
","
","","","805.5","","","11","7725","1471","f","elianto","#3366ff99"," "," ","1","+10","[1662.3000000002794]","1","2","","","7725","57","1","1","win","go","0"
"pit-trial","176","1169996","0.0-62.0","battery-v0.2","","""event"",""trial"",""time""
""fullscreenenter"",""1"",""2639""
","
","
","""event"",""trial"",""time""
""fullscreenenter"",""1"",""2639""
","
","","","1143","","","11","7725","1471","b","elianto","#f73b6a7A"," "," ","1","0","[1998.6000000000931]","1","2","","","7725","58","3","3","lose","go","0"
"pit-trial","177","1173819","0.0-63.0","battery-v0.2","","""event"",""trial"",""time""
""fullscreenenter"",""1"",""2639""
","
","
","""event"",""trial"",""time""
""fullscreenenter"",""1"",""2639""
","
","","","954.5","","","11","7725","1471","c","elianto","#3366ff99","-1"," ","0","0","[1809.4000000003725]","1","2","","","7725","59","4","2","win","no-go","0"
"pit-trial","178","1178691","0.0-64.0","battery-v0.2","","""event"",""trial"",""time""
""fullscreenenter"",""1"",""2639""
","
","
","""event"",""trial"",""time""
""fullscreenenter"",""1"",""2639""
","
","","","-1","","","11","7725","1471","n","elianto","#f73b6a7A","-1","-1","1","-10","[]","0","2","","","7725","60","0","4","lose","no-go","1"
"pit-trial","179","1182420","0.0-65.0","battery-v0.2","","""event"",""trial"",""time""
""fullscreenenter"",""1"",""2639""
","
","
","""event"",""trial"",""time""
""fullscreenenter"",""1"",""2639""
","
","","","861.6000000000931","","","11","7725","1471","c","elianto","#3366ff99","-1"," ","0","0","[1719.8000000002794]","1","2","","","7725","61","4","2","win","no-go","0"
"pit-trial","180","1187292","0.0-66.0","battery-v0.2","","""event"",""trial"",""time""
""fullscreenenter"",""1"",""2639""
","
","
","""event"",""trial"",""time""
""fullscreenenter"",""1"",""2639""
","
","","","-1","","","11","7725","1471","t","elianto","#f73b6a7A","-1","-1","1","0","[]","0","2","","","7725","62","2","4","lose","no-go","0"
"pit-trial","181","1191284","0.0-67.0","battery-v0.2","","""event"",""trial"",""time""
""fullscreenenter"",""1"",""2639""
","
","
","""event"",""trial"",""time""
""fullscreenenter"",""1"",""2639""
","
","","","1127.7999999998137","","","11","7725","1471","b","elianto","#f73b6a7A"," "," ","1","-10","[1983.3999999999069]","1","2","","","7725","63","3","3","lose","go","1"
"pit-trial","182","1195635","0.0-68.0","battery-v0.2","","""event"",""trial"",""time""
""fullscreenenter"",""1"",""2639""
","
","
","""event"",""trial"",""time""
""fullscreenenter"",""1"",""2639""
","
","","","1487.1999999997206","","","11","7725","1471","f","elianto","#3366ff99"," "," ","1","+10","[2344.2000000001863]","1","2","","","7725","64","1","1","win","go","0"
"pit-trial","183","1200508","0.0-69.0","battery-v0.2","","""event"",""trial"",""time""
""fullscreenenter"",""1"",""2639""
","
","
","""event"",""trial"",""time""
""fullscreenenter"",""1"",""2639""
","
","","","-1","","","11","7725","1471","t","elianto","#f73b6a7A","-1","-1","1","0","[]","0","2","","","7725","65","2","4","lose","no-go","0"
"pit-trial","184","1204251","0.0-70.0","battery-v0.2","","""event"",""trial"",""time""
""fullscreenenter"",""1"",""2639""
","
","
","""event"",""trial"",""time""
""fullscreenenter"",""1"",""2639""
","
","","","871.8999999999069","","","11","7725","1471","c","elianto","#3366ff99","-1"," ","0","+10","[1729.3999999999069]","1","2","","","7725","66","4","2","win","no-go","1"
"pit-trial","185","1209107","0.0-71.0","battery-v0.2","","""event"",""trial"",""time""
""fullscreenenter"",""1"",""2639""
","
","
","""event"",""trial"",""time""
""fullscreenenter"",""1"",""2639""
","
","","","1998.9000000003725","","","11","7725","1471","f","elianto","#3366ff99"," "," ","1","+10","[2851.2000000001863]","1","2","","","7725","67","1","1","win","go","0"
"pit-trial","186","1213980","0.0-72.0","battery-v0.2","","""event"",""trial"",""time""
""fullscreenenter"",""1"",""2639""
","
","
","""event"",""trial"",""time""
""fullscreenenter"",""1"",""2639""
","
","","","-1","","","11","7725","1471","b","elianto","#f73b6a7A"," ","-1","0","-10","[]","0","2","","","7725","68","3","3","lose","go","0"
"pit-trial","187","1218851","0.0-73.0","battery-v0.2","","""event"",""trial"",""time""
""fullscreenenter"",""1"",""2639""
","
","
","""event"",""trial"",""time""
""fullscreenenter"",""1"",""2639""
","
","","","-1","","","11","7725","1471","z","elianto","#3366ff99"," ","-1","0","0","[]","0","2","","","7725","69","5","1","win","go","0"
"pit-trial","188","1222691","0.0-74.0","battery-v0.2","","""event"",""trial"",""time""
""fullscreenenter"",""1"",""2639""
","
","
","""event"",""trial"",""time""
""fullscreenenter"",""1"",""2639""
","
","","","974.6000000000931","","","11","7725","1471","f","elianto","#3366ff99"," "," ","1","+10","[1826.6000000000931]","1","2","","","7725","70","1","1","win","go","0"
"pit-trial","189","1226508","0.0-75.0","battery-v0.2","","""event"",""trial"",""time""
""fullscreenenter"",""1"",""2639""
","
","
","""event"",""trial"",""time""
""fullscreenenter"",""1"",""2639""
","
","","","948.7000000001863","","","11","7725","1471","b","elianto","#f73b6a7A"," "," ","1","0","[1804.6000000000931]","1","2","","","7725","71","3","3","lose","go","0"
"pit-trial","190","1230155","0.0-76.0","battery-v0.2","","""event"",""trial"",""time""
""fullscreenenter"",""1"",""2639""
","
","
","""event"",""trial"",""time""
""fullscreenenter"",""1"",""2639""
","
","","","778.5","","","11","7725","1471","c","elianto","#3366ff99","-1"," ","0","0","[1634.8000000002794]","1","2","","","7725","72","4","2","win","no-go","0"
"pit-trial","191","1233764","0.0-77.0","battery-v0.2","","""event"",""trial"",""time""
""fullscreenenter"",""1"",""2639""
","
","
","""event"",""trial"",""time""
""fullscreenenter"",""1"",""2639""
","
","","","749.1999999997206","","","11","7725","1471","z","elianto","#3366ff99"," "," ","1","+10","[1601]","1","2","","","7725","73","5","1","win","go","0"
"pit-trial","192","1237675","0.0-78.0","battery-v0.2","","""event"",""trial"",""time""
""fullscreenenter"",""1"",""2639""
","
","
","""event"",""trial"",""time""
""fullscreenenter"",""1"",""2639""
","
","","","1042.7000000001863","","","11","7725","1471","b","elianto","#f73b6a7A"," "," ","1","0","[1899.8999999999069]","1","2","","","7725","74","3","3","lose","go","0"
"pit-trial","193","1241363","0.0-79.0","battery-v0.2","","""event"",""trial"",""time""
""fullscreenenter"",""1"",""2639""
","
","
","""event"",""trial"",""time""
""fullscreenenter"",""1"",""2639""
","
","","","817.6999999997206","","","11","7725","1471","f","elianto","#3366ff99"," "," ","1","0","[1679.7999999998137]","1","2","","","7725","75","1","1","win","go","1"
"pit-trial","194","1246236","0.0-80.0","battery-v0.2","","""event"",""trial"",""time""
""fullscreenenter"",""1"",""2639""
","
","
","""event"",""trial"",""time""
""fullscreenenter"",""1"",""2639""
","
","","","-1","","","11","7725","1471","c","elianto","#3366ff99","-1","-1","1","+10","[]","0","2","","","7725","76","4","2","win","no-go","0"
"pit-trial","195","1251107","0.0-81.0","battery-v0.2","","""event"",""trial"",""time""
""fullscreenenter"",""1"",""2639""
","
","
","""event"",""trial"",""time""
""fullscreenenter"",""1"",""2639""
","
","","","-1","","","11","7725","1471","h","elianto","#f73b6a7A","-1","-1","1","0","[]","0","2","","","7725","77","6","4","lose","no-go","0"
"pit-trial","196","1255363","0.0-82.0","battery-v0.2","","""event"",""trial"",""time""
""fullscreenenter"",""1"",""2639""
","
","
","""event"",""trial"",""time""
""fullscreenenter"",""1"",""2639""
","
","","","1387.9000000003725","","","11","7725","1471","c","elianto","#3366ff99","-1"," ","0","0","[2247.5]","1","2","","","7725","78","4","2","win","no-go","0"
"pit-trial","197","1258964","0.0-83.0","battery-v0.2","","""event"",""trial"",""time""
""fullscreenenter"",""1"",""2639""
","
","
","""event"",""trial"",""time""
""fullscreenenter"",""1"",""2639""
","
","","","733.5999999996275","","","11","7725","1471","z","elianto","#3366ff99"," "," ","1","+10","[1587.7000000001863]","1","2","","","7725","79","5","1","win","go","0"
"pit-trial","198","1263188","0.0-84.0","battery-v0.2","","""event"",""trial"",""time""
""fullscreenenter"",""1"",""2639""
","
","
","""event"",""trial"",""time""
""fullscreenenter"",""1"",""2639""
","
","","","1356.8999999999069","","","11","7725","1471","b","elianto","#f73b6a7A"," "," ","1","0","[2208.5]","1","2","","","7725","80","3","3","lose","go","0"
"pit-trial","199","1268060","0.0-85.0","battery-v0.2","","""event"",""trial"",""time""
""fullscreenenter"",""1"",""2639""
","
","
","""event"",""trial"",""time""
""fullscreenenter"",""1"",""2639""
","
","","","-1","","","11","7725","1471","h","elianto","#f73b6a7A","-1","-1","1","0","[]","0","2","","","7725","81","6","4","lose","no-go","0"
"pit-trial","200","1271628","0.0-86.0","battery-v0.2","","""event"",""trial"",""time""
""fullscreenenter"",""1"",""2639""
","
","
","""event"",""trial"",""time""
""fullscreenenter"",""1"",""2639""
","
","","","700.1999999997206","","","11","7725","1471","z","elianto","#3366ff99"," "," ","1","+10","[1557.6999999997206]","1","2","","","7725","82","5","1","win","go","0"
"pit-trial","201","1276500","0.0-87.0","battery-v0.2","","""event"",""trial"",""time""
""fullscreenenter"",""1"",""2639""
","
","
","""event"",""trial"",""time""
""fullscreenenter"",""1"",""2639""
","
","","","-1","","","11","7725","1471","c","elianto","#3366ff99","-1","-1","1","+10","[]","0","2","","","7725","83","4","2","win","no-go","0"
"pit-trial","202","1281371","0.0-88.0","battery-v0.2","","""event"",""trial"",""time""
""fullscreenenter"",""1"",""2639""
","
","
","""event"",""trial"",""time""
""fullscreenenter"",""1"",""2639""
","
","","","-1","","","11","7725","1471","y","elianto","#f73b6a7A"," ","-1","0","-10","[]","0","2","","","7725","84","7","3","lose","go","0"
"pit-trial","203","1285099","0.0-89.0","battery-v0.2","","""event"",""trial"",""time""
""fullscreenenter"",""1"",""2639""
","
","
","""event"",""trial"",""time""
""fullscreenenter"",""1"",""2639""
","
","","","858.9000000003725","","","11","7725","1471","y","elianto","#f73b6a7A"," "," ","1","-10","[1719.6000000000931]","1","2","","","7725","85","7","3","lose","go","1"
"pit-trial","204","1289971","0.0-90.0","battery-v0.2","","""event"",""trial"",""time""
""fullscreenenter"",""1"",""2639""
","
","
","""event"",""trial"",""time""
""fullscreenenter"",""1"",""2639""
","
","","","-1","","","11","7725","1471","h","elianto","#f73b6a7A","-1","-1","1","0","[]","0","2","","","7725","86","6","4","lose","no-go","0"
"pit-trial","205","1294843","0.0-91.0","battery-v0.2","","""event"",""trial"",""time""
""fullscreenenter"",""1"",""2639""
","
","
","""event"",""trial"",""time""
""fullscreenenter"",""1"",""2639""
","
","","","-1","","","11","7725","1471","c","elianto","#3366ff99","-1","-1","1","+10","[]","0","2","","","7725","87","4","2","win","no-go","0"
"pit-trial","206","1298331","0.0-92.0","battery-v0.2","","""event"",""trial"",""time""
""fullscreenenter"",""1"",""2639""
","
","
","""event"",""trial"",""time""
""fullscreenenter"",""1"",""2639""
","
","","","620.7999999998137","","","11","7725","1471","z","elianto","#3366ff99"," "," ","1","+10","[1477.2000000001863]","1","2","","","7725","88","5","1","win","go","0"
"pit-trial","207","1303204","0.0-93.0","battery-v0.2","","""event"",""trial"",""time""
""fullscreenenter"",""1"",""2639""
","
","
","""event"",""trial"",""time""
""fullscreenenter"",""1"",""2639""
","
","","","-1","","","11","7725","1471","h","elianto","#f73b6a7A","-1","-1","1","0","[]","0","2","","","7725","89","6","4","lose","no-go","0"
"pit-trial","208","1307036","0.0-94.0","battery-v0.2","","""event"",""trial"",""time""
""fullscreenenter"",""1"",""2639""
","
","
","""event"",""trial"",""time""
""fullscreenenter"",""1"",""2639""
","
","","","967.6000000000931","","","11","7725","1471","z","elianto","#3366ff99"," "," ","1","+10","[1822]","1","2","","","7725","90","5","1","win","go","0"
"pit-trial","209","1310763","0.0-95.0","battery-v0.2","","""event"",""trial"",""time""
""fullscreenenter"",""1"",""2639""
","
","
","""event"",""trial"",""time""
""fullscreenenter"",""1"",""2639""
","
","","","861.6999999997206","","","11","7725","1471","y","elianto","#f73b6a7A"," "," ","1","-10","[1716.1999999997206]","1","2","","","7725","91","7","3","lose","go","1"
"pit-trial","210","1315635","0.0-96.0","battery-v0.2","","""event"",""trial"",""time""
""fullscreenenter"",""1"",""2639""
","
","
","""event"",""trial"",""time""
""fullscreenenter"",""1"",""2639""
","
","","","-1","","","11","7725","1471","c","elianto","#3366ff99","-1","-1","1","0","[]","0","2","","","7725","92","4","2","win","no-go","1"
"pit-trial","211","1320507","0.0-97.0","battery-v0.2","","""event"",""trial"",""time""
""fullscreenenter"",""1"",""2639""
","
","
","""event"",""trial"",""time""
""fullscreenenter"",""1"",""2639""
","
","","","-1","","","11","7725","1471","r","elianto","#3366ff99","-1","-1","1","+10","[]","0","2","","","7725","93","8","2","win","no-go","0"
"pit-trial","212","1325379","0.0-98.0","battery-v0.2","","""event"",""trial"",""time""
""fullscreenenter"",""1"",""2639""
","
","
","""event"",""trial"",""time""
""fullscreenenter"",""1"",""2639""
","
","","","-1","","","11","7725","1471","h","elianto","#f73b6a7A","-1","-1","1","-10","[]","0","2","","","7725","94","6","4","lose","no-go","1"
"pit-trial","213","1329275","0.0-99.0","battery-v0.2","","""event"",""trial"",""time""
""fullscreenenter"",""1"",""2639""
","
","
","""event"",""trial"",""time""
""fullscreenenter"",""1"",""2639""
","
","","","1024.0999999996275","","","11","7725","1471","z","elianto","#3366ff99"," "," ","1","+10","[1882.4000000003725]","1","2","","","7725","95","5","1","win","go","0"
"pit-trial","214","1334147","0.0-100.0","battery-v0.2","","""event"",""trial"",""time""
""fullscreenenter"",""1"",""2639""
","
","
","""event"",""trial"",""time""
""fullscreenenter"",""1"",""2639""
","
","","","-1","","","11","7725","1471","y","elianto","#f73b6a7A"," ","-1","0","-10","[]","0","2","","","7725","96","7","3","lose","go","0"
"pit-trial","215","1339020","0.0-101.0","battery-v0.2","","""event"",""trial"",""time""
""fullscreenenter"",""1"",""2639""
","
","
","""event"",""trial"",""time""
""fullscreenenter"",""1"",""2639""
","
","","","-1","","","11","7725","1471","r","elianto","#3366ff99","-1","-1","1","+10","[]","0","2","","","7725","97","8","2","win","no-go","0"
"pit-trial","216","1343890","0.0-102.0","battery-v0.2","","""event"",""trial"",""time""
""fullscreenenter"",""1"",""2639""
","
","
","""event"",""trial"",""time""
""fullscreenenter"",""1"",""2639""
","
","","","-1","","","11","7725","1471","h","elianto","#f73b6a7A","-1","-1","1","0","[]","0","2","","","7725","98","6","4","lose","no-go","0"
"pit-trial","217","1348755","0.0-103.0","battery-v0.2","","""event"",""trial"",""time""
""fullscreenenter"",""1"",""2639""
","
","
","""event"",""trial"",""time""
""fullscreenenter"",""1"",""2639""
","
","","","-1","","","11","7725","1471","y","elianto","#f73b6a7A"," ","-1","0","-10","[]","0","2","","","7725","99","7","3","lose","go","0"
"pit-trial","218","1352315","0.0-104.0","battery-v0.2","","""event"",""trial"",""time""
""fullscreenenter"",""1"",""2639""
","
","
","""event"",""trial"",""time""
""fullscreenenter"",""1"",""2639""
","
","","","695.5999999996275","","","11","7725","1471","z","elianto","#3366ff99"," "," ","1","+10","[1547.9000000003725]","1","2","","","7725","100","5","1","win","go","0"
"pit-trial","219","1356267","0.0-105.0","battery-v0.2","","""event"",""trial"",""time""
""fullscreenenter"",""1"",""2639""
","
","
","""event"",""trial"",""time""
""fullscreenenter"",""1"",""2639""
","
","","","1091.0999999996275","","","11","7725","1471","z","elianto","#3366ff99"," "," ","1","+10","[1942.5999999996275]","1","2","","","7725","101","5","1","win","go","0"
"pit-trial","220","1361140","0.0-106.0","battery-v0.2","","""event"",""trial"",""time""
""fullscreenenter"",""1"",""2639""
","
","
","""event"",""trial"",""time""
""fullscreenenter"",""1"",""2639""
","
","","","-1","","","11","7725","1471","h","elianto","#f73b6a7A","-1","-1","1","0","[]","0","2","","","7725","102","6","4","lose","no-go","0"
"pit-trial","221","1366004","0.0-107.0","battery-v0.2","","""event"",""trial"",""time""
""fullscreenenter"",""1"",""2639""
","
","
","""event"",""trial"",""time""
""fullscreenenter"",""1"",""2639""
","
","","","-1","","","11","7725","1471","r","elianto","#3366ff99","-1","-1","1","+10","[]","0","2","","","7725","103","8","2","win","no-go","0"
"pit-trial","222","1370875","0.0-108.0","battery-v0.2","","""event"",""trial"",""time""
""fullscreenenter"",""1"",""2639""
","
","
","""event"",""trial"",""time""
""fullscreenenter"",""1"",""2639""
","
","","","-1","","","11","7725","1471","m","elianto","#3366ff99","-1","-1","1","+10","[]","0","2","","","7725","104","9","2","win","no-go","0"
"pit-trial","223","1375739","0.0-109.0","battery-v0.2","","""event"",""trial"",""time""
""fullscreenenter"",""1"",""2639""
","
","
","""event"",""trial"",""time""
""fullscreenenter"",""1"",""2639""
","
","","","-1","","","11","7725","1471","r","elianto","#3366ff99","-1","-1","1","+10","[]","0","2","","","7725","105","8","2","win","no-go","0"
"pit-trial","224","1380611","0.0-110.0","battery-v0.2","","""event"",""trial"",""time""
""fullscreenenter"",""1"",""2639""
","
","
","""event"",""trial"",""time""
""fullscreenenter"",""1"",""2639""
","
","","","-1","","","11","7725","1471","h","elianto","#f73b6a7A","-1","-1","1","0","[]","0","2","","","7725","106","6","4","lose","no-go","0"
"pit-trial","225","1385475","0.0-111.0","battery-v0.2","","""event"",""trial"",""time""
""fullscreenenter"",""1"",""2639""
","
","
","""event"",""trial"",""time""
""fullscreenenter"",""1"",""2639""
","
","","","-1","","","11","7725","1471","m","elianto","#3366ff99","-1","-1","1","+10","[]","0","2","","","7725","107","9","2","win","no-go","0"
"pit-trial","226","1389788","0.0-112.0","battery-v0.2","","""event"",""trial"",""time""
""fullscreenenter"",""1"",""2639""
","
","
","""event"",""trial"",""time""
""fullscreenenter"",""1"",""2639""
","
","","","1456.5","","","11","7725","1471","z","elianto","#3366ff99"," "," ","1","+10","[2306.5]","1","2","","","7725","108","5","1","win","go","0"
"pit-trial","227","1394659","0.0-113.0","battery-v0.2","","""event"",""trial"",""time""
""fullscreenenter"",""1"",""2639""
","
","
","""event"",""trial"",""time""
""fullscreenenter"",""1"",""2639""
","
","","","-1","","","11","7725","1471","r","elianto","#3366ff99","-1","-1","1","+10","[]","0","2","","","7725","109","8","2","win","no-go","0"
"pit-trial","228","1399526","0.0-114.0","battery-v0.2","","""event"",""trial"",""time""
""fullscreenenter"",""1"",""2639""
","
","
","""event"",""trial"",""time""
""fullscreenenter"",""1"",""2639""
","
","","","-1","","","11","7725","1471","m","elianto","#3366ff99","-1","-1","1","+10","[]","0","2","","","7725","110","9","2","win","no-go","0"
"pit-trial","229","1404395","0.0-115.0","battery-v0.2","","""event"",""trial"",""time""
""fullscreenenter"",""1"",""2639""
","
","
","""event"",""trial"",""time""
""fullscreenenter"",""1"",""2639""
","
","","","-1","","","11","7725","1471","h","elianto","#f73b6a7A","-1","-1","1","0","[]","0","2","","","7725","111","6","4","lose","no-go","0"
"pit-trial","230","1408500","0.0-116.0","battery-v0.2","","""event"",""trial"",""time""
""fullscreenenter"",""1"",""2639""
","
","
","""event"",""trial"",""time""
""fullscreenenter"",""1"",""2639""
","
","","","1245.3000000002794","","","11","7725","1471","z","elianto","#3366ff99"," "," ","1","+10","[2096.3000000002794]","1","2","","","7725","112","5","1","win","go","0"
"pit-trial","231","1413371","0.0-117.0","battery-v0.2","","""event"",""trial"",""time""
""fullscreenenter"",""1"",""2639""
","
","
","""event"",""trial"",""time""
""fullscreenenter"",""1"",""2639""
","
","","","-1","","","11","7725","1471","m","elianto","#3366ff99","-1","-1","1","+10","[]","0","2","","","7725","113","9","2","win","no-go","0"
"pit-trial","232","1418242","0.0-118.0","battery-v0.2","","""event"",""trial"",""time""
""fullscreenenter"",""1"",""2639""
","
","
","""event"",""trial"",""time""
""fullscreenenter"",""1"",""2639""
","
","","","-1","","","11","7725","1471","r","elianto","#3366ff99","-1","-1","1","+10","[]","0","2","","","7725","114","8","2","win","no-go","0"
"pit-trial","233","1423108","0.0-119.0","battery-v0.2","","""event"",""trial"",""time""
""fullscreenenter"",""1"",""2639""
","
","
","""event"",""trial"",""time""
""fullscreenenter"",""1"",""2639""
","
","","","-1","","","11","7725","1471","y","elianto","#f73b6a7A"," ","-1","0","0","[]","0","2","","","7725","115","7","3","lose","go","1"
"pit-trial","234","1426867","0.0-120.0","battery-v0.2","","""event"",""trial"",""time""
""fullscreenenter"",""1"",""2639""
","
","
","""event"",""trial"",""time""
""fullscreenenter"",""1"",""2639""
","
","","","897","","","11","7725","1471","z","elianto","#3366ff99"," "," ","1","+10","[1747]","1","2","","","7725","116","5","1","win","go","0"
"pit-trial","235","1431732","0.0-121.0","battery-v0.2","","""event"",""trial"",""time""
""fullscreenenter"",""1"",""2639""
","
","
","""event"",""trial"",""time""
""fullscreenenter"",""1"",""2639""
","
","","","-1","","","11","7725","1471","r","elianto","#3366ff99","-1","-1","1","+10","[]","0","2","","","7725","117","8","2","win","no-go","0"
"pit-trial","236","1436595","0.0-122.0","battery-v0.2","","""event"",""trial"",""time""
""fullscreenenter"",""1"",""2639""
","
","
","""event"",""trial"",""time""
""fullscreenenter"",""1"",""2639""
","
","","","-1","","","11","7725","1471","h","elianto","#f73b6a7A","-1","-1","1","0","[]","0","2","","","7725","118","6","4","lose","no-go","0"
"pit-trial","237","1440188","0.0-123.0","battery-v0.2","","""event"",""trial"",""time""
""fullscreenenter"",""1"",""2639""
","
","
","""event"",""trial"",""time""
""fullscreenenter"",""1"",""2639""
","
","","","723.3999999999069","","","11","7725","1471","z","elianto","#3366ff99"," "," ","1","+10","[1581.7000000001863]","1","2","","","7725","119","5","1","win","go","0"
"pit-trial","238","1445059","0.0-124.0","battery-v0.2","","""event"",""trial"",""time""
""fullscreenenter"",""1"",""2639""
","
","
","""event"",""trial"",""time""
""fullscreenenter"",""1"",""2639""
","
","","","-1","","","11","7725","1471","m","elianto","#3366ff99","-1","-1","1","+10","[]","0","2","","","7725","120","9","2","win","no-go","0"
"pit-trial","239","1449932","0.0-125.0","battery-v0.2","","""event"",""trial"",""time""
""fullscreenenter"",""1"",""2639""
","
","
","""event"",""trial"",""time""
""fullscreenenter"",""1"",""2639""
","
","","","-1","","","11","7725","1471","r","elianto","#3366ff99","-1","-1","1","+10","[]","0","2","","","7725","121","8","2","win","no-go","0"
"pit-trial","240","1454791","0.0-126.0","battery-v0.2","","""event"",""trial"",""time""
""fullscreenenter"",""1"",""2639""
","
","
","""event"",""trial"",""time""
""fullscreenenter"",""1"",""2639""
","
","","","-1","","","11","7725","1471","y","elianto","#f73b6a7A"," ","-1","0","0","[]","0","2","","","7725","122","7","3","lose","go","1"
"pit-trial","241","1458348","0.0-127.0","battery-v0.2","","""event"",""trial"",""time""
""fullscreenenter"",""1"",""2639""
","
","
","""event"",""trial"",""time""
""fullscreenenter"",""1"",""2639""
","
","","","695","","","11","7725","1471","z","elianto","#3366ff99"," "," ","1","+10","[1549.4000000003725]","1","2","","","7725","123","5","1","win","go","0"
"pit-trial","242","1463219","0.0-128.0","battery-v0.2","","""event"",""trial"",""time""
""fullscreenenter"",""1"",""2639""
","
","
","""event"",""trial"",""time""
""fullscreenenter"",""1"",""2639""
","
","","","-1","","","11","7725","1471","m","elianto","#3366ff99","-1","-1","1","+10","[]","0","2","","","7725","124","9","2","win","no-go","0"
"pit-trial","243","1468092","0.0-129.0","battery-v0.2","","""event"",""trial"",""time""
""fullscreenenter"",""1"",""2639""
","
","
","""event"",""trial"",""time""
""fullscreenenter"",""1"",""2639""
","
","","","-1","","","11","7725","1471","r","elianto","#3366ff99","-1","-1","1","+10","[]","0","2","","","7725","125","8","2","win","no-go","0"
"pit-trial","244","1472963","0.0-130.0","battery-v0.2","","""event"",""trial"",""time""
""fullscreenenter"",""1"",""2639""
","
","
","""event"",""trial"",""time""
""fullscreenenter"",""1"",""2639""
","
","","","-1","","","11","7725","1471","h","elianto","#f73b6a7A","-1","-1","1","0","[]","0","2","","","7725","126","6","4","lose","no-go","0"
"pit-trial","245","1477828","0.0-131.0","battery-v0.2","","""event"",""trial"",""time""
""fullscreenenter"",""1"",""2639""
","
","
","""event"",""trial"",""time""
""fullscreenenter"",""1"",""2639""
","
","","","-1","","","11","7725","1471","y","elianto","#f73b6a7A"," ","-1","0","0","[]","0","2","","","7725","127","7","3","lose","go","1"
"pit-trial","246","1482699","0.0-132.0","battery-v0.2","","""event"",""trial"",""time""
""fullscreenenter"",""1"",""2639""
","
","
","""event"",""trial"",""time""
""fullscreenenter"",""1"",""2639""
","
","","","-1","","","11","7725","1471","m","elianto","#3366ff99","-1","-1","1","+10","[]","0","2","","","7725","128","9","2","win","no-go","0"
"pit-trial","247","1487572","0.0-133.0","battery-v0.2","","""event"",""trial"",""time""
""fullscreenenter"",""1"",""2639""
","
","
","""event"",""trial"",""time""
""fullscreenenter"",""1"",""2639""
","
","","","-1","","","11","7725","1471","r","elianto","#3366ff99","-1","-1","1","+10","[]","0","2","","","7725","129","8","2","win","no-go","0"
"pit-trial","248","1492443","0.0-134.0","battery-v0.2","","""event"",""trial"",""time""
""fullscreenenter"",""1"",""2639""
","
","
","""event"",""trial"",""time""
""fullscreenenter"",""1"",""2639""
","
","","","-1","","","11","7725","1471","h","elianto","#f73b6a7A","-1","-1","1","0","[]","0","2","","","7725","130","6","4","lose","no-go","0"
"pit-trial","249","1497315","0.0-135.0","battery-v0.2","","""event"",""trial"",""time""
""fullscreenenter"",""1"",""2639""
","
","
","""event"",""trial"",""time""
""fullscreenenter"",""1"",""2639""
","
","","","-1","","","11","7725","1471","y","elianto","#f73b6a7A"," ","-1","0","-10","[]","0","2","","","7725","131","7","3","lose","go","0"
"pit-trial","250","1502188","0.0-136.0","battery-v0.2","","""event"",""trial"",""time""
""fullscreenenter"",""1"",""2639""
","
","
","""event"",""trial"",""time""
""fullscreenenter"",""1"",""2639""
","
","","","-1","","","11","7725","1471","m","elianto","#3366ff99","-1","-1","1","0","[]","0","2","","","7725","132","9","2","win","no-go","1"
"pit-trial","251","1507059","0.0-137.0","battery-v0.2","","""event"",""trial"",""time""
""fullscreenenter"",""1"",""2639""
","
","
","""event"",""trial"",""time""
""fullscreenenter"",""1"",""2639""
","
","","","-1","","","11","7725","1471","m","elianto","#3366ff99","-1","-1","1","0","[]","0","2","","","7725","133","9","2","win","no-go","1"
"pit-trial","252","1511930","0.0-138.0","battery-v0.2","","""event"",""trial"",""time""
""fullscreenenter"",""1"",""2639""
","
","
","""event"",""trial"",""time""
""fullscreenenter"",""1"",""2639""
","
","","","-1","","","11","7725","1471","h","elianto","#f73b6a7A","-1","-1","1","0","[]","0","2","","","7725","134","6","4","lose","no-go","0"
"pit-trial","253","1516796","0.0-139.0","battery-v0.2","","""event"",""trial"",""time""
""fullscreenenter"",""1"",""2639""
","
","
","""event"",""trial"",""time""
""fullscreenenter"",""1"",""2639""
","
","","","-1","","","11","7725","1471","y","elianto","#f73b6a7A"," ","-1","0","-10","[]","0","2","","","7725","135","7","3","lose","go","0"
"pit-trial","254","1521668","0.0-140.0","battery-v0.2","","""event"",""trial"",""time""
""fullscreenenter"",""1"",""2639""
","
","
","""event"",""trial"",""time""
""fullscreenenter"",""1"",""2639""
","
","","","-1","","","11","7725","1471","r","elianto","#3366ff99","-1","-1","1","+10","[]","0","2","","","7725","136","8","2","win","no-go","0"
"pit-trial","255","1526539","0.0-141.0","battery-v0.2","","""event"",""trial"",""time""
""fullscreenenter"",""1"",""2639""
","
","
","""event"",""trial"",""time""
""fullscreenenter"",""1"",""2639""
","
","","","-1","","","11","7725","1471","h","elianto","#f73b6a7A","-1","-1","1","0","[]","0","2","","","7725","137","6","4","lose","no-go","0"
"pit-trial","256","1531411","0.0-142.0","battery-v0.2","","""event"",""trial"",""time""
""fullscreenenter"",""1"",""2639""
","
","
","""event"",""trial"",""time""
""fullscreenenter"",""1"",""2639""
","
","","","-1","","","11","7725","1471","y","elianto","#f73b6a7A"," ","-1","0","0","[]","0","2","","","7725","138","7","3","lose","go","1"
"pit-trial","257","1536284","0.0-143.0","battery-v0.2","","""event"",""trial"",""time""
""fullscreenenter"",""1"",""2639""
","
","
","""event"",""trial"",""time""
""fullscreenenter"",""1"",""2639""
","
","","","-1","","","11","7725","1471","m","elianto","#3366ff99","-1","-1","1","0","[]","0","2","","","7725","139","9","2","win","no-go","1"
"pit-trial","258","1541155","0.0-144.0","battery-v0.2","","""event"",""trial"",""time""
""fullscreenenter"",""1"",""2639""
","
","
","""event"",""trial"",""time""
""fullscreenenter"",""1"",""2639""
","
","","","-1","","","11","7725","1471","r","elianto","#3366ff99","-1","-1","1","+10","[]","0","2","","","7725","140","8","2","win","no-go","0"
"pit-instructions","259","1871794","0.0-145.0","battery-v0.2","","""event"",""trial"",""time""
""fullscreenenter"",""1"",""2639""
","
","
","""event"",""trial"",""time""
""fullscreenenter"",""1"",""2639""
","
","","[{""page_index"":0,""viewing_time"":321025.2999999998},{""page_index"":1,""viewing_time"":9606}]","330632.5999999996","","","","","","","","","","","","","","","","","","","","","","","",""
"pit-trial","260","1875475","0.0-146.0","battery-v0.2","","""event"",""trial"",""time""
""fullscreenenter"",""1"",""2639""
","
","
","""event"",""trial"",""time""
""fullscreenenter"",""1"",""2639""
","
","","","808.1999999997206","","","11","7725","1471","w","elianto","#f73b6a7A","-1"," ","0","0","[1662.3999999999069]","1","3","","","7725","141","3","4","lose","no-go","1"
"pit-trial","261","1880339","0.0-147.0","battery-v0.2","","""event"",""trial"",""time""
""fullscreenenter"",""1"",""2639""
","
","
","""event"",""trial"",""time""
""fullscreenenter"",""1"",""2639""
","
","","","-1","","","11","7725","1471","j","elianto","#f73b6a7A"," ","-1","0","-10","[]","0","3","","","7725","142","0","3","lose","go","0"
"pit-trial","262","1883932","0.0-148.0","battery-v0.2","","""event"",""trial"",""time""
""fullscreenenter"",""1"",""2639""
","
","
","""event"",""trial"",""time""
""fullscreenenter"",""1"",""2639""
","
","","","729.2999999998137","","","11","7725","1471","e","elianto","#f73b6a7A"," "," ","1","0","[1582.0999999996275]","1","3","","","7725","143","2","3","lose","go","0"
"pit-trial","263","1887899","0.0-149.0","battery-v0.2","","""event"",""trial"",""time""
""fullscreenenter"",""1"",""2639""
","
","
","""event"",""trial"",""time""
""fullscreenenter"",""1"",""2639""
","
","","","1105.7000000001863","","","11","7725","1471","d","elianto","#3366ff99","-1"," ","0","+10","[1960.1000000000931]","1","3","","","7725","144","1","2","win","no-go","1"
"pit-trial","264","1891547","0.0-150.0","battery-v0.2","","""event"",""trial"",""time""
""fullscreenenter"",""1"",""2639""
","
","
","""event"",""trial"",""time""
""fullscreenenter"",""1"",""2639""
","
","","","782.2000000001863","","","11","7725","1471","d","elianto","#3366ff99","-1"," ","0","0","[1637]","1","3","","","7725","145","1","2","win","no-go","0"
"pit-trial","265","1895307","0.0-151.0","battery-v0.2","","""event"",""trial"",""time""
""fullscreenenter"",""1"",""2639""
","
","
","""event"",""trial"",""time""
""fullscreenenter"",""1"",""2639""
","
","","","900.5","","","11","7725","1471","e","elianto","#f73b6a7A"," "," ","1","0","[1753.1999999997206]","1","3","","","7725","146","2","3","lose","go","0"
"pit-trial","266","1898652","0.0-152.0","battery-v0.2","","""event"",""trial"",""time""
""fullscreenenter"",""1"",""2639""
","
","
","""event"",""trial"",""time""
""fullscreenenter"",""1"",""2639""
","
","","","477.20000000018626","","","11","7725","1471","w","elianto","#f73b6a7A","-1"," ","0","-10","[1335]","1","3","","","7725","147","3","4","lose","no-go","0"
"pit-trial","267","1902995","0.0-153.0","battery-v0.2","","""event"",""trial"",""time""
""fullscreenenter"",""1"",""2639""
","
","
","""event"",""trial"",""time""
""fullscreenenter"",""1"",""2639""
","
","","","1479.5","","","11","7725","1471","j","elianto","#f73b6a7A"," "," ","1","0","[2330.399999999907]","1","3","","","7725","148","0","3","lose","go","0"
"pit-trial","268","1906620","0.0-154.0","battery-v0.2","","""event"",""trial"",""time""
""fullscreenenter"",""1"",""2639""
","
","
","""event"",""trial"",""time""
""fullscreenenter"",""1"",""2639""
","
