"trial_type","trial_index","time_elapsed","internal_node_id","task_version","subject_id","interactions","blur_events","focus_events","fullscreenenter_events","fullscreenexit_events","success","view_history","rt","responses","num_errors","age","subject","participantId","rune","rune_set","hex","correct","choice","accuracy","outcome","keys","total_keys","block","practice","value","sub","trial","stimulus","robot","valence","action","sham"
"pavlovia","0","36","0.0-0.0","battery-v0.2","","""event"",""trial"",""time""
""fullscreenenter"",""1"",""1391""
","
","
","""event"",""trial"",""time""
""fullscreenenter"",""1"",""1391""
","
","","","","","","","","","","","","","","","","","","","","","","","","","","",""
"fullscreen","1","2364","0.0-1.0","battery-v0.2","","""event"",""trial"",""time""
""fullscreenenter"",""1"",""1391""
","
","
","""event"",""trial"",""time""
""fullscreenenter"",""1"",""1391""
","
","true","","","","","","","","","","","","","","","","","","","","","","","","","",""
"pit-instructions","2","7246","0.0-2.0-0.0","battery-v0.2","","""event"",""trial"",""time""
""fullscreenenter"",""1"",""1391""
","
","
","""event"",""trial"",""time""
""fullscreenenter"",""1"",""1391""
","
","","[{""page_index"":0,""viewing_time"":4876.4000000003725}]","4877","","","","","","","","","","","","","","","","","","","","","","","",""
"pit-comprehension","3","9814","0.0-2.0-1.0-0.0","battery-v0.2","","""event"",""trial"",""time""
""fullscreenenter"",""1"",""1391""
","
","
","""event"",""trial"",""time""
""fullscreenenter"",""1"",""1391""
","
","","","2561","[""shark""]","0","22","14922","6142","","","","","","","","","","","","","","","","","","",""
"pit-instructions","4","13776","0.0-2.0-1.0-1.0","battery-v0.2","","""event"",""trial"",""time""
""fullscreenenter"",""1"",""1391""
","
","
","""event"",""trial"",""time""
""fullscreenenter"",""1"",""1391""
","
","","[{""page_index"":0,""viewing_time"":3948}]","3948.39999999851","","","","","","","","","","","","","","","","","","","","","","","",""
"pit-comprehension","5","15970","0.0-2.0-2.0-0.0","battery-v0.2","","""event"",""trial"",""time""
""fullscreenenter"",""1"",""1391""
","
","
","""event"",""trial"",""time""
""fullscreenenter"",""1"",""1391""
","
","","","2186.699999999255","[""tiger""]","0","22","14922","6142","","","","","","","","","","","","","","","","","","",""
"pit-instructions","6","16643","0.0-2.0-2.0-1.0","battery-v0.2","","""event"",""trial"",""time""
""fullscreenenter"",""1"",""1391""
""blur"",""7"",""51677""
""focus"",""7"",""52860""
","""event"",""trial"",""time""
""blur"",""7"",""51677""
","""event"",""trial"",""time""
""focus"",""7"",""52860""
","""event"",""trial"",""time""
""fullscreenenter"",""1"",""1391""
","
","","[{""page_index"":0,""viewing_time"":669.5}]","670","","","","","","","","","","","","","","","","","","","","","","","",""
"pit-instructions","7","116661","0.0-2.0-3.0","battery-v0.2","","""event"",""trial"",""time""
""fullscreenenter"",""1"",""1391""
""blur"",""7"",""51677""
""focus"",""7"",""52860""
","""event"",""trial"",""time""
""blur"",""7"",""51677""
","""event"",""trial"",""time""
""focus"",""7"",""52860""
","""event"",""trial"",""time""
""fullscreenenter"",""1"",""1391""
","
","","[{""page_index"":0,""viewing_time"":10712.199999999255},{""page_index"":1,""viewing_time"":6837.199999999255},{""page_index"":2,""viewing_time"":6414.5},{""page_index"":3,""viewing_time"":5179.5},{""page_index"":4,""viewing_time"":7825.4000000003725},{""page_index"":5,""viewing_time"":5017.5999999996275},{""page_index"":6,""viewing_time"":6176.60000000149},{""page_index"":7,""viewing_time"":7220.89999999851},{""page_index"":8,""viewing_time"":6242.300000000745},{""page_index"":9,""viewing_time"":10295.900000000373},{""page_index"":10,""viewing_time"":8147},{""page_index"":11,""viewing_time"":7452.4000000003725},{""page_index"":12,""viewing_time"":7197},{""page_index"":13,""viewing_time"":5290.89999999851}]","100010","","","","","","","","","","","","","","","","","","","","","","","",""
"pit-trial","8","120183","0.0-2.0-4.0-0.0","battery-v0.2","","""event"",""trial"",""time""
""fullscreenenter"",""1"",""1391""
""blur"",""7"",""51677""
""focus"",""7"",""52860""
","""event"",""trial"",""time""
""blur"",""7"",""51677""
","""event"",""trial"",""time""
""focus"",""7"",""52860""
","""event"",""trial"",""time""
""fullscreenenter"",""1"",""1391""
","
","","","665.4000000003725","","","22","14922","6142","&#9784;","elianto","#FFFFF080"," "," ","1","&#10004","[1516.800000000745]","1","0","0","","","","","","","",""
"pit-trial","9","123610","0.0-2.0-4.1-0.1","battery-v0.2","","""event"",""trial"",""time""
""fullscreenenter"",""1"",""1391""
""blur"",""7"",""51677""
""focus"",""7"",""52860""
","""event"",""trial"",""time""
""blur"",""7"",""51677""
","""event"",""trial"",""time""
""focus"",""7"",""52860""
","""event"",""trial"",""time""
""fullscreenenter"",""1"",""1391""
","
","","","571.1000000014901","","","22","14922","6142","&#9784;","elianto","#FFFFF080"," "," ","1","&#10004","[1421.5]","1","0","0","","","","","","","",""
"pit-trial","10","126924","0.0-2.0-4.2-0.2","battery-v0.2","","""event"",""trial"",""time""
""fullscreenenter"",""1"",""1391""
""blur"",""7"",""51677""
""focus"",""7"",""52860""
","""event"",""trial"",""time""
""blur"",""7"",""51677""
","""event"",""trial"",""time""
""focus"",""7"",""52860""
","""event"",""trial"",""time""
""fullscreenenter"",""1"",""1391""
","
","","","456.7000000011176","","","22","14922","6142","&#9784;","elianto","#FFFFF080"," "," ","1","&#10004","[1308]","1","0","0","","","","","","","",""
"pit-trial","11","130278","0.0-2.0-4.3-0.3","battery-v0.2","","""event"",""trial"",""time""
""fullscreenenter"",""1"",""1391""
""blur"",""7"",""51677""
""focus"",""7"",""52860""
","""event"",""trial"",""time""
""blur"",""7"",""51677""
","""event"",""trial"",""time""
""focus"",""7"",""52860""
","""event"",""trial"",""time""
""fullscreenenter"",""1"",""1391""
","
","","","497.1000000014901","","","22","14922","6142","&#9784;","elianto","#FFFFF080"," "," ","1","&#10004","[1348.5]","1","0","0","","","","","","","",""
"pit-trial","12","133584","0.0-2.0-4.4-0.4","battery-v0.2","","""event"",""trial"",""time""
""fullscreenenter"",""1"",""1391""
""blur"",""7"",""51677""
""focus"",""7"",""52860""
","""event"",""trial"",""time""
""blur"",""7"",""51677""
","""event"",""trial"",""time""
""focus"",""7"",""52860""
","""event"",""trial"",""time""
""fullscreenenter"",""1"",""1391""
","
","","","450.6000000014901","","","22","14922","6142","&#9784;","elianto","#FFFFF080"," "," ","1","&#10004","[1301.800000000745]","1","0","0","","","","","","","",""
"pit-instructions","13","158366","0.0-2.0-5.0","battery-v0.2","","""event"",""trial"",""time""
""fullscreenenter"",""1"",""1391""
""blur"",""7"",""51677""
""focus"",""7"",""52860""
","""event"",""trial"",""time""
""blur"",""7"",""51677""
","""event"",""trial"",""time""
""focus"",""7"",""52860""
","""event"",""trial"",""time""
""fullscreenenter"",""1"",""1391""
","
","","[{""page_index"":0,""viewing_time"":4851.699999999255},{""page_index"":1,""viewing_time"":6805.800000000745},{""page_index"":2,""viewing_time"":6287.199999999255},{""page_index"":3,""viewing_time"":6831.4000000003725}]","24776.400000000373","","","","","","","","","","","","","","","","","","","","","","","",""
"pit-trial","14","163221","0.0-2.0-6.0-0.0","battery-v0.2","","""event"",""trial"",""time""
""fullscreenenter"",""1"",""1391""
""blur"",""7"",""51677""
""focus"",""7"",""52860""
","""event"",""trial"",""time""
""blur"",""7"",""51677""
","""event"",""trial"",""time""
""focus"",""7"",""52860""
","""event"",""trial"",""time""
""fullscreenenter"",""1"",""1391""
","
","","","-1","","","22","14922","6142","&#9854;","elianto","#FFFFF080","-1","-1","1","&#10004","[]","0","0","1","","","","","","","",""
"pit-trial","15","168078","0.0-2.0-6.1-0.1","battery-v0.2","","""event"",""trial"",""time""
""fullscreenenter"",""1"",""1391""
""blur"",""7"",""51677""
""focus"",""7"",""52860""
","""event"",""trial"",""time""
""blur"",""7"",""51677""
","""event"",""trial"",""time""
""focus"",""7"",""52860""
","""event"",""trial"",""time""
""fullscreenenter"",""1"",""1391""
","
","","","-1","","","22","14922","6142","&#9854;","elianto","#FFFFF080","-1","-1","1","&#10004","[]","0","0","1","","","","","","","",""
"pit-trial","16","172934","0.0-2.0-6.2-0.2","battery-v0.2","","""event"",""trial"",""time""
""fullscreenenter"",""1"",""1391""
""blur"",""7"",""51677""
""focus"",""7"",""52860""
","""event"",""trial"",""time""
""blur"",""7"",""51677""
","""event"",""trial"",""time""
""focus"",""7"",""52860""
","""event"",""trial"",""time""
""fullscreenenter"",""1"",""1391""
","
","","","-1","","","22","14922","6142","&#9854;","elianto","#FFFFF080","-1","-1","1","&#10004","[]","0","0","1","","","","","","","",""
"pit-trial","17","177791","0.0-2.0-6.3-0.3","battery-v0.2","","""event"",""trial"",""time""
""fullscreenenter"",""1"",""1391""
""blur"",""7"",""51677""
""focus"",""7"",""52860""
","""event"",""trial"",""time""
""blur"",""7"",""51677""
","""event"",""trial"",""time""
""focus"",""7"",""52860""
","""event"",""trial"",""time""
""fullscreenenter"",""1"",""1391""
","
","","","-1","","","22","14922","6142","&#9854;","elianto","#FFFFF080","-1","-1","1","&#10004","[]","0","0","1","","","","","","","",""
"pit-trial","18","182648","0.0-2.0-6.4-0.4","battery-v0.2","","""event"",""trial"",""time""
""fullscreenenter"",""1"",""1391""
""blur"",""7"",""51677""
""focus"",""7"",""52860""
","""event"",""trial"",""time""
""blur"",""7"",""51677""
","""event"",""trial"",""time""
""focus"",""7"",""52860""
","""event"",""trial"",""time""
""fullscreenenter"",""1"",""1391""
","
","","","-1","","","22","14922","6142","&#9854;","elianto","#FFFFF080","-1","-1","1","&#10004","[]","0","0","1","","","","","","","",""
"pit-instructions","19","311912","0.0-2.0-7.0","battery-v0.2","","""event"",""trial"",""time""
""fullscreenenter"",""1"",""1391""
""blur"",""7"",""51677""
""focus"",""7"",""52860""
","""event"",""trial"",""time""
""blur"",""7"",""51677""
","""event"",""trial"",""time""
""focus"",""7"",""52860""
","""event"",""trial"",""time""
""fullscreenenter"",""1"",""1391""
","
","","[{""page_index"":0,""viewing_time"":6813.0999999996275},{""page_index"":1,""viewing_time"":9878.099999999627},{""page_index"":2,""viewing_time"":6758.300000000745},{""page_index"":3,""viewing_time"":9577.099999999627},{""page_index"":4,""viewing_time"":8341.400000000373},{""page_index"":5,""viewing_time"":6750.5},{""page_index"":6,""viewing_time"":5802.699999999255},{""page_index"":7,""viewing_time"":8728.300000000745},{""page_index"":8,""viewing_time"":9079},{""page_index"":9,""viewing_time"":6623.9000000003725},{""page_index"":10,""viewing_time"":6134.39999999851},{""page_index"":11,""viewing_time"":4301.5},{""page_index"":12,""viewing_time"":6844.60000000149},{""page_index"":13,""viewing_time"":7166.299999998882},{""page_index"":14,""viewing_time"":6382.9000000003725},{""page_index"":15,""viewing_time"":6871.699999999255},{""page_index"":16,""viewing_time"":6662},{""page_index"":17,""viewing_time"":6539.60000000149}]","129255.90000000037","","","","","","","","","","","","","","","","","","","","","","","",""
"pit-trial","20","315397","0.0-2.0-8.0-0.0","battery-v0.2","","""event"",""trial"",""time""
""fullscreenenter"",""1"",""1391""
""blur"",""7"",""51677""
""focus"",""7"",""52860""
","""event"",""trial"",""time""
""blur"",""7"",""51677""
","""event"",""trial"",""time""
""focus"",""7"",""52860""
","""event"",""trial"",""time""
""fullscreenenter"",""1"",""1391""
","
","","","630.4000000003725","","","22","14922","6142","&#9776;","elianto","#3366ff99"," "," ","1","+10","[1481.2000000011176]","1","0","1","","","","","","","",""
"pit-trial","21","318805","0.0-2.0-8.0-1.0","battery-v0.2","","""event"",""trial"",""time""
""fullscreenenter"",""1"",""1391""
""blur"",""7"",""51677""
""focus"",""7"",""52860""
","""event"",""trial"",""time""
""blur"",""7"",""51677""
","""event"",""trial"",""time""
""focus"",""7"",""52860""
","""event"",""trial"",""time""
""fullscreenenter"",""1"",""1391""
","
","","","551.8000000007451","","","22","14922","6142","&#9776;","elianto","#3366ff99"," "," ","1","+10","[1403.5]","1","0","1","","","","","","","",""
"pit-trial","22","322208","0.0-2.0-8.0-2.0","battery-v0.2","","""event"",""trial"",""time""
""fullscreenenter"",""1"",""1391""
""blur"",""7"",""51677""
""focus"",""7"",""52860""
","""event"",""trial"",""time""
""blur"",""7"",""51677""
","""event"",""trial"",""time""
""focus"",""7"",""52860""
","""event"",""trial"",""time""
""fullscreenenter"",""1"",""1391""
","
","","","546.6000000014901","","","22","14922","6142","&#9776;","elianto","#3366ff99"," "," ","1","+10","[1398]","1","0","1","","","","","","","",""
"pit-trial","23","325662","0.0-2.0-8.0-3.0","battery-v0.2","","""event"",""trial"",""time""
""fullscreenenter"",""1"",""1391""
""blur"",""7"",""51677""
""focus"",""7"",""52860""
","""event"",""trial"",""time""
""blur"",""7"",""51677""
","""event"",""trial"",""time""
""focus"",""7"",""52860""
","""event"",""trial"",""time""
""fullscreenenter"",""1"",""1391""
","
","","","598.8000000007451","","","22","14922","6142","&#9776;","elianto","#3366ff99"," "," ","1","0","[1450]","1","0","1","","","","","","","",""
"pit-trial","24","329025","0.0-2.0-8.0-4.0","battery-v0.2","","""event"",""trial"",""time""
""fullscreenenter"",""1"",""1391""
""blur"",""7"",""51677""
""focus"",""7"",""52860""
","""event"",""trial"",""time""
""blur"",""7"",""51677""
","""event"",""trial"",""time""
""focus"",""7"",""52860""
","""event"",""trial"",""time""
""fullscreenenter"",""1"",""1391""
","
","","","508.30000000074506","","","22","14922","6142","&#9776;","elianto","#3366ff99"," "," ","1","+10","[1359.5]","1","0","1","","","","","","","",""
"pit-trial","25","332460","0.0-2.0-8.1-0.1","battery-v0.2","","""event"",""trial"",""time""
""fullscreenenter"",""1"",""1391""
""blur"",""7"",""51677""
""focus"",""7"",""52860""
","""event"",""trial"",""time""
""blur"",""7"",""51677""
","""event"",""trial"",""time""
""focus"",""7"",""52860""
","""event"",""trial"",""time""
""fullscreenenter"",""1"",""1391""
","
","","","580.0999999996275","","","22","14922","6142","&#9776;","elianto","#3366ff99"," "," ","1","+10","[1430.300000000745]","1","0","1","","","","","","","",""
"pit-trial","26","335725","0.0-2.0-8.1-1.1","battery-v0.2","","""event"",""trial"",""time""
""fullscreenenter"",""1"",""1391""
""blur"",""7"",""51677""
""focus"",""7"",""52860""
","""event"",""trial"",""time""
""blur"",""7"",""51677""
","""event"",""trial"",""time""
""focus"",""7"",""52860""
","""event"",""trial"",""time""
""fullscreenenter"",""1"",""1391""
","
","","","409.5","","","22","14922","6142","&#9776;","elianto","#3366ff99"," "," ","1","+10","[1260.4000000003725]","1","0","1","","","","","","","",""
"pit-trial","27","338979","0.0-2.0-8.1-2.1","battery-v0.2","","""event"",""trial"",""time""
""fullscreenenter"",""1"",""1391""
""blur"",""7"",""51677""
""focus"",""7"",""52860""
","""event"",""trial"",""time""
""blur"",""7"",""51677""
","""event"",""trial"",""time""
""focus"",""7"",""52860""
","""event"",""trial"",""time""
""fullscreenenter"",""1"",""1391""
","
","","","398.59999999962747","","","22","14922","6142","&#9776;","elianto","#3366ff99"," "," ","1","+10","[1250]","1","0","1","","","","","","","",""
"pit-trial","28","342323","0.0-2.0-8.1-3.1","battery-v0.2","","""event"",""trial"",""time""
""fullscreenenter"",""1"",""1391""
""blur"",""7"",""51677""
""focus"",""7"",""52860""
","""event"",""trial"",""time""
""blur"",""7"",""51677""
","""event"",""trial"",""time""
""focus"",""7"",""52860""
","""event"",""trial"",""time""
""fullscreenenter"",""1"",""1391""
","
","","","489.80000000074506","","","22","14922","6142","&#9776;","elianto","#3366ff99"," "," ","1","0","[1340.5]","1","0","1","","","","","","","",""
"pit-trial","29","345612","0.0-2.0-8.1-4.1","battery-v0.2","","""event"",""trial"",""time""
""fullscreenenter"",""1"",""1391""
""blur"",""7"",""51677""
""focus"",""7"",""52860""
","""event"",""trial"",""time""
""blur"",""7"",""51677""
","""event"",""trial"",""time""
""focus"",""7"",""52860""
","""event"",""trial"",""time""
""fullscreenenter"",""1"",""1391""
","
","","","433.69999999925494","","","22","14922","6142","&#9776;","elianto","#3366ff99"," "," ","1","+10","[1284.5]","1","0","1","","","","","","","",""
"pit-trial","30","348945","0.0-2.0-8.2-0.2","battery-v0.2","","""event"",""trial"",""time""
""fullscreenenter"",""1"",""1391""
""blur"",""7"",""51677""
""focus"",""7"",""52860""
","""event"",""trial"",""time""
""blur"",""7"",""51677""
","""event"",""trial"",""time""
""focus"",""7"",""52860""
","""event"",""trial"",""time""
""fullscreenenter"",""1"",""1391""
","
","","","470.8999999985099","","","22","14922","6142","&#9776;","elianto","#3366ff99"," "," ","1","+10","[1328.5999999996275]","1","0","1","","","","","","","",""
"pit-trial","31","351807","0.0-2.0-8.2-1.2","battery-v0.2","","""event"",""trial"",""time""
""fullscreenenter"",""1"",""1391""
""blur"",""7"",""51677""
""focus"",""7"",""52860""
","""event"",""trial"",""time""
""blur"",""7"",""51677""
","""event"",""trial"",""time""
""focus"",""7"",""52860""
","""event"",""trial"",""time""
""fullscreenenter"",""1"",""1391""
","
","","","6.399999998509884","","","22","14922","6142","&#9776;","elianto","#3366ff99"," "," ","1","+10","[856.6999999992549]","1","0","1","","","","","","","",""
"pit-trial","32","355862","0.0-2.0-8.2-2.2","battery-v0.2","","""event"",""trial"",""time""
""fullscreenenter"",""1"",""1391""
""blur"",""7"",""51677""
""focus"",""7"",""52860""
","""event"",""trial"",""time""
""blur"",""7"",""51677""
","""event"",""trial"",""time""
""focus"",""7"",""52860""
","""event"",""trial"",""time""
""fullscreenenter"",""1"",""1391""
","
","","","1202.199999999255","","","22","14922","6142","&#9776;","elianto","#3366ff99"," "," ","1","+10","[818.1999999992549,2052.0999999996275]","2","0","1","","","","","","","",""
"pit-trial","33","359466","0.0-2.0-8.2-3.2","battery-v0.2","","""event"",""trial"",""time""
""fullscreenenter"",""1"",""1391""
""blur"",""7"",""51677""
""focus"",""7"",""52860""
","""event"",""trial"",""time""
""blur"",""7"",""51677""
","""event"",""trial"",""time""
""focus"",""7"",""52860""
","""event"",""trial"",""time""
""fullscreenenter"",""1"",""1391""
","
","","","748.9000000003725","","","22","14922","6142","&#9776;","elianto","#3366ff99"," "," ","1","0","[1600.3999999985099]","1","0","1","","","","","","","",""
"pit-trial","34","362604","0.0-2.0-8.2-4.2","battery-v0.2","","""event"",""trial"",""time""
""fullscreenenter"",""1"",""1391""
""blur"",""7"",""51677""
""focus"",""7"",""52860""
","""event"",""trial"",""time""
""blur"",""7"",""51677""
","""event"",""trial"",""time""
""focus"",""7"",""52860""
","""event"",""trial"",""time""
""fullscreenenter"",""1"",""1391""
","
","","","282.3999999985099","","","22","14922","6142","&#9776;","elianto","#3366ff99"," "," ","1","+10","[1133.5999999996275]","1","0","1","","","","","","","",""
"call-function","35","362607","0.0-2.0-9.0","battery-v0.2","","""event"",""trial"",""time""
""fullscreenenter"",""1"",""1391""
""blur"",""7"",""51677""
""focus"",""7"",""52860""
","""event"",""trial"",""time""
""blur"",""7"",""51677""
","""event"",""trial"",""time""
""focus"",""7"",""52860""
","""event"",""trial"",""time""
""fullscreenenter"",""1"",""1391""
","
","","","","","","","","","","","","","","","","","","","","","","","","","","",""
"pit-instructions","36","402132","0.0-2.0-10.0","battery-v0.2","","""event"",""trial"",""time""
""fullscreenenter"",""1"",""1391""
""blur"",""7"",""51677""
""focus"",""7"",""52860""
","""event"",""trial"",""time""
""blur"",""7"",""51677""
","""event"",""trial"",""time""
""focus"",""7"",""52860""
","""event"",""trial"",""time""
""fullscreenenter"",""1"",""1391""
","
","","[{""page_index"":0,""viewing_time"":5585.60000000149},{""page_index"":1,""viewing_time"":7008.299999998882},{""page_index"":2,""viewing_time"":9313.800000000745},{""page_index"":3,""viewing_time"":9735.099999999627},{""page_index"":4,""viewing_time"":7879.800000000745}]","39523.20000000112","","","","","","","","","","","","","","","","","","","","","","","",""
"pit-trial","37","405738","0.0-2.0-11.0-0.0","battery-v0.2","","""event"",""trial"",""time""
""fullscreenenter"",""1"",""1391""
""blur"",""7"",""51677""
""focus"",""7"",""52860""
","""event"",""trial"",""time""
""blur"",""7"",""51677""
","""event"",""trial"",""time""
""focus"",""7"",""52860""
","""event"",""trial"",""time""
""fullscreenenter"",""1"",""1391""
","
","","","749.7999999988824","","","22","14922","6142","&#9761;","elianto","#3366ff99","-1"," ","0","0","[1601]","1","0","2","","","","","","","",""
"pit-trial","38","410595","0.0-2.0-11.0-1.0","battery-v0.2","","""event"",""trial"",""time""
""fullscreenenter"",""1"",""1391""
""blur"",""7"",""51677""
""focus"",""7"",""52860""
","""event"",""trial"",""time""
""blur"",""7"",""51677""
","""event"",""trial"",""time""
""focus"",""7"",""52860""
","""event"",""trial"",""time""
""fullscreenenter"",""1"",""1391""
","
","","","-1","","","22","14922","6142","&#9761;","elianto","#3366ff99","-1","-1","1","+10","[]","0","0","2","","","","","","","",""
"pit-trial","39","415452","0.0-2.0-11.0-2.0","battery-v0.2","","""event"",""trial"",""time""
""fullscreenenter"",""1"",""1391""
""blur"",""7"",""51677""
""focus"",""7"",""52860""
","""event"",""trial"",""time""
""blur"",""7"",""51677""
","""event"",""trial"",""time""
""focus"",""7"",""52860""
","""event"",""trial"",""time""
""fullscreenenter"",""1"",""1391""
","
","","","-1","","","22","14922","6142","&#9761;","elianto","#3366ff99","-1","-1","1","+10","[]","0","0","2","","","","","","","",""
"pit-trial","40","420306","0.0-2.0-11.0-3.0","battery-v0.2","","""event"",""trial"",""time""
""fullscreenenter"",""1"",""1391""
""blur"",""7"",""51677""
""focus"",""7"",""52860""
","""event"",""trial"",""time""
""blur"",""7"",""51677""
","""event"",""trial"",""time""
""focus"",""7"",""52860""
","""event"",""trial"",""time""
""fullscreenenter"",""1"",""1391""
","
","","","-1","","","22","14922","6142","&#9761;","elianto","#3366ff99","-1","-1","1","0","[]","0","0","2","","","","","","","",""
"pit-trial","41","425162","0.0-2.0-11.0-4.0","battery-v0.2","","""event"",""trial"",""time""
""fullscreenenter"",""1"",""1391""
""blur"",""7"",""51677""
""focus"",""7"",""52860""
","""event"",""trial"",""time""
""blur"",""7"",""51677""
","""event"",""trial"",""time""
""focus"",""7"",""52860""
","""event"",""trial"",""time""
""fullscreenenter"",""1"",""1391""
","
","","","-1","","","22","14922","6142","&#9761;","elianto","#3366ff99","-1","-1","1","+10","[]","0","0","2","","","","","","","",""
"pit-trial","42","430018","0.0-2.0-11.1-0.1","battery-v0.2","","""event"",""trial"",""time""
""fullscreenenter"",""1"",""1391""
""blur"",""7"",""51677""
""focus"",""7"",""52860""
","""event"",""trial"",""time""
""blur"",""7"",""51677""
","""event"",""trial"",""time""
""focus"",""7"",""52860""
","""event"",""trial"",""time""
""fullscreenenter"",""1"",""1391""
","
","","","-1","","","22","14922","6142","&#9761;","elianto","#3366ff99","-1","-1","1","+10","[]","0","0","2","","","","","","","",""
"pit-trial","43","434874","0.0-2.0-11.1-1.1","battery-v0.2","","""event"",""trial"",""time""
""fullscreenenter"",""1"",""1391""
""blur"",""7"",""51677""
""focus"",""7"",""52860""
","""event"",""trial"",""time""
""blur"",""7"",""51677""
","""event"",""trial"",""time""
""focus"",""7"",""52860""
","""event"",""trial"",""time""
""fullscreenenter"",""1"",""1391""
","
","","","-1","","","22","14922","6142","&#9761;","elianto","#3366ff99","-1","-1","1","+10","[]","0","0","2","","","","","","","",""
"pit-trial","44","439730","0.0-2.0-11.1-2.1","battery-v0.2","","""event"",""trial"",""time""
""fullscreenenter"",""1"",""1391""
""blur"",""7"",""51677""
""focus"",""7"",""52860""
","""event"",""trial"",""time""
""blur"",""7"",""51677""
","""event"",""trial"",""time""
""focus"",""7"",""52860""
","""event"",""trial"",""time""
""fullscreenenter"",""1"",""1391""
","
","","","-1","","","22","14922","6142","&#9761;","elianto","#3366ff99","-1","-1","1","+10","[]","0","0","2","","","","","","","",""
"pit-trial","45","444585","0.0-2.0-11.1-3.1","battery-v0.2","","""event"",""trial"",""time""
""fullscreenenter"",""1"",""1391""
""blur"",""7"",""51677""
""focus"",""7"",""52860""
","""event"",""trial"",""time""
""blur"",""7"",""51677""
","""event"",""trial"",""time""
""focus"",""7"",""52860""
","""event"",""trial"",""time""
""fullscreenenter"",""1"",""1391""
","
","","","-1","","","22","14922","6142","&#9761;","elianto","#3366ff99","-1","-1","1","0","[]","0","0","2","","","","","","","",""
"pit-trial","46","449441","0.0-2.0-11.1-4.1","battery-v0.2","","""event"",""trial"",""time""
""fullscreenenter"",""1"",""1391""
""blur"",""7"",""51677""
""focus"",""7"",""52860""
","""event"",""trial"",""time""
""blur"",""7"",""51677""
","""event"",""trial"",""time""
""focus"",""7"",""52860""
","""event"",""trial"",""time""
""fullscreenenter"",""1"",""1391""
","
","","","-1","","","22","14922","6142","&#9761;","elianto","#3366ff99","-1","-1","1","+10","[]","0","0","2","","","","","","","",""
"pit-trial","47","454297","0.0-2.0-11.2-0.2","battery-v0.2","","""event"",""trial"",""time""
""fullscreenenter"",""1"",""1391""
""blur"",""7"",""51677""
""focus"",""7"",""52860""
","""event"",""trial"",""time""
""blur"",""7"",""51677""
","""event"",""trial"",""time""
""focus"",""7"",""52860""
","""event"",""trial"",""time""
""fullscreenenter"",""1"",""1391""
","
","","","-1","","","22","14922","6142","&#9761;","elianto","#3366ff99","-1","-1","1","+10","[]","0","0","2","","","","","","","",""
"pit-trial","48","459151","0.0-2.0-11.2-1.2","battery-v0.2","","""event"",""trial"",""time""
""fullscreenenter"",""1"",""1391""
""blur"",""7"",""51677""
""focus"",""7"",""52860""
","""event"",""trial"",""time""
""blur"",""7"",""51677""
","""event"",""trial"",""time""
""focus"",""7"",""52860""
","""event"",""trial"",""time""
""fullscreenenter"",""1"",""1391""
","
","","","-1","","","22","14922","6142","&#9761;","elianto","#3366ff99","-1","-1","1","+10","[]","0","0","2","","","","","","","",""
"pit-trial","49","464007","0.0-2.0-11.2-2.2","battery-v0.2","","""event"",""trial"",""time""
""fullscreenenter"",""1"",""1391""
""blur"",""7"",""51677""
""focus"",""7"",""52860""
","""event"",""trial"",""time""
""blur"",""7"",""51677""
","""event"",""trial"",""time""
""focus"",""7"",""52860""
","""event"",""trial"",""time""
""fullscreenenter"",""1"",""1391""
","
","","","-1","","","22","14922","6142","&#9761;","elianto","#3366ff99","-1","-1","1","+10","[]","0","0","2","","","","","","","",""
"pit-trial","50","468860","0.0-2.0-11.2-3.2","battery-v0.2","","""event"",""trial"",""time""
""fullscreenenter"",""1"",""1391""
""blur"",""7"",""51677""
""focus"",""7"",""52860""
","""event"",""trial"",""time""
""blur"",""7"",""51677""
","""event"",""trial"",""time""
""focus"",""7"",""52860""
","""event"",""trial"",""time""
""fullscreenenter"",""1"",""1391""
","
","","","-1","","","22","14922","6142","&#9761;","elianto","#3366ff99","-1","-1","1","0","[]","0","0","2","","","","","","","",""
"pit-trial","51","473713","0.0-2.0-11.2-4.2","battery-v0.2","","""event"",""trial"",""time""
""fullscreenenter"",""1"",""1391""
""blur"",""7"",""51677""
""focus"",""7"",""52860""
","""event"",""trial"",""time""
""blur"",""7"",""51677""
","""event"",""trial"",""time""
""focus"",""7"",""52860""
","""event"",""trial"",""time""
""fullscreenenter"",""1"",""1391""
","
","","","-1","","","22","14922","6142","&#9761;","elianto","#3366ff99","-1","-1","1","+10","[]","0","0","2","","","","","","","",""
"pit-trial","52","478568","0.0-2.0-11.3-0.3","battery-v0.2","","""event"",""trial"",""time""
""fullscreenenter"",""1"",""1391""
""blur"",""7"",""51677""
""focus"",""7"",""52860""
","""event"",""trial"",""time""
""blur"",""7"",""51677""
","""event"",""trial"",""time""
""focus"",""7"",""52860""
","""event"",""trial"",""time""
""fullscreenenter"",""1"",""1391""
","
","","","-1","","","22","14922","6142","&#9761;","elianto","#3366ff99","-1","-1","1","+10","[]","0","0","2","","","","","","","",""
"pit-trial","53","483425","0.0-2.0-11.3-1.3","battery-v0.2","","""event"",""trial"",""time""
""fullscreenenter"",""1"",""1391""
""blur"",""7"",""51677""
""focus"",""7"",""52860""
","""event"",""trial"",""time""
""blur"",""7"",""51677""
","""event"",""trial"",""time""
""focus"",""7"",""52860""
","""event"",""trial"",""time""
""fullscreenenter"",""1"",""1391""
","
","","","-1","","","22","14922","6142","&#9761;","elianto","#3366ff99","-1","-1","1","+10","[]","0","0","2","","","","","","","",""
"pit-trial","54","488281","0.0-2.0-11.3-2.3","battery-v0.2","","""event"",""trial"",""time""
""fullscreenenter"",""1"",""1391""
""blur"",""7"",""51677""
""focus"",""7"",""52860""
","""event"",""trial"",""time""
""blur"",""7"",""51677""
","""event"",""trial"",""time""
""focus"",""7"",""52860""
","""event"",""trial"",""time""
""fullscreenenter"",""1"",""1391""
","
","","","-1","","","22","14922","6142","&#9761;","elianto","#3366ff99","-1","-1","1","+10","[]","0","0","2","","","","","","","",""
"pit-trial","55","493137","0.0-2.0-11.3-3.3","battery-v0.2","","""event"",""trial"",""time""
""fullscreenenter"",""1"",""1391""
""blur"",""7"",""51677""
""focus"",""7"",""52860""
","""event"",""trial"",""time""
""blur"",""7"",""51677""
","""event"",""trial"",""time""
""focus"",""7"",""52860""
","""event"",""trial"",""time""
""fullscreenenter"",""1"",""1391""
","
","","","-1","","","22","14922","6142","&#9761;","elianto","#3366ff99","-1","-1","1","0","[]","0","0","2","","","","","","","",""
"pit-trial","56","497992","0.0-2.0-11.3-4.3","battery-v0.2","","""event"",""trial"",""time""
""fullscreenenter"",""1"",""1391""
""blur"",""7"",""51677""
""focus"",""7"",""52860""
","""event"",""trial"",""time""
""blur"",""7"",""51677""
","""event"",""trial"",""time""
""focus"",""7"",""52860""
","""event"",""trial"",""time""
""fullscreenenter"",""1"",""1391""
","
","","","-1","","","22","14922","6142","&#9761;","elianto","#3366ff99","-1","-1","1","+10","[]","0","0","2","","","","","","","",""
"call-function","57","497995","0.0-2.0-12.0","battery-v0.2","","""event"",""trial"",""time""
""fullscreenenter"",""1"",""1391""
""blur"",""7"",""51677""
""focus"",""7"",""52860""
","""event"",""trial"",""time""
""blur"",""7"",""51677""
","""event"",""trial"",""time""
""focus"",""7"",""52860""
","""event"",""trial"",""time""
""fullscreenenter"",""1"",""1391""
","
","","","","","","","","","","","","","","","","","","","","","","","","","","",""
"pit-instructions","58","538991","0.0-2.0-13.0","battery-v0.2","","""event"",""trial"",""time""
""fullscreenenter"",""1"",""1391""
""blur"",""7"",""51677""
""focus"",""7"",""52860""
","""event"",""trial"",""time""
""blur"",""7"",""51677""
","""event"",""trial"",""time""
""focus"",""7"",""52860""
","""event"",""trial"",""time""
""fullscreenenter"",""1"",""1391""
","
","","[{""page_index"":0,""viewing_time"":5923},{""page_index"":1,""viewing_time"":9883.700000001118},{""page_index"":2,""viewing_time"":5765.0999999996275},{""page_index"":3,""viewing_time"":10862.5},{""page_index"":4,""viewing_time"":8560}]","40994.70000000112","","","","","","","","","","","","","","","","","","","","","","","",""
"pit-trial","59","543848","0.0-2.0-14.0-0.0","battery-v0.2","","""event"",""trial"",""time""
""fullscreenenter"",""1"",""1391""
""blur"",""7"",""51677""
""focus"",""7"",""52860""
","""event"",""trial"",""time""
""blur"",""7"",""51677""
","""event"",""trial"",""time""
""focus"",""7"",""52860""
","""event"",""trial"",""time""
""fullscreenenter"",""1"",""1391""
","
","","","-1","","","22","14922","6142","&#9826;","elianto","#f73b6a7A","-1","-1","1","0","[]","0","0","3","","","","","","","",""
"pit-trial","60","548704","0.0-2.0-14.0-1.0","battery-v0.2","","""event"",""trial"",""time""
""fullscreenenter"",""1"",""1391""
""blur"",""7"",""51677""
""focus"",""7"",""52860""
","""event"",""trial"",""time""
""blur"",""7"",""51677""
","""event"",""trial"",""time""
""focus"",""7"",""52860""
","""event"",""trial"",""time""
""fullscreenenter"",""1"",""1391""
","
","","","-1","","","22","14922","6142","&#9826;","elianto","#f73b6a7A","-1","-1","1","0","[2925.89999999851]","1","0","3","","","","","","","",""
"pit-trial","61","552232","0.0-2.0-14.0-2.0","battery-v0.2","","""event"",""trial"",""time""
""fullscreenenter"",""1"",""1391""
""blur"",""7"",""51677""
""focus"",""7"",""52860""
","""event"",""trial"",""time""
""blur"",""7"",""51677""
","""event"",""trial"",""time""
""focus"",""7"",""52860""
","""event"",""trial"",""time""
""fullscreenenter"",""1"",""1391""
","
","","","672.1999999992549","","","22","14922","6142","&#9826;","elianto","#f73b6a7A","-1"," ","0","-10","[1522.9000000003725]","1","0","3","","","","","","","",""
"pit-trial","62","557087","0.0-2.0-14.0-3.0","battery-v0.2","","""event"",""trial"",""time""
""fullscreenenter"",""1"",""1391""
""blur"",""7"",""51677""
""focus"",""7"",""52860""
","""event"",""trial"",""time""
""blur"",""7"",""51677""
","""event"",""trial"",""time""
""focus"",""7"",""52860""
","""event"",""trial"",""time""
""fullscreenenter"",""1"",""1391""
","
","","","-1","","","22","14922","6142","&#9826;","elianto","#f73b6a7A","-1","-1","1","-10","[]","0","0","3","","","","","","","",""
"pit-trial","63","561942","0.0-2.0-14.0-4.0","battery-v0.2","","""event"",""trial"",""time""
""fullscreenenter"",""1"",""1391""
""blur"",""7"",""51677""
""focus"",""7"",""52860""
","""event"",""trial"",""time""
""blur"",""7"",""51677""
","""event"",""trial"",""time""
""focus"",""7"",""52860""
","""event"",""trial"",""time""
""fullscreenenter"",""1"",""1391""
","
","","","-1","","","22","14922","6142","&#9826;","elianto","#f73b6a7A","-1","-1","1","0","[]","0","0","3","","","","","","","",""
"pit-trial","64","566798","0.0-2.0-14.1-0.1","battery-v0.2","","""event"",""trial"",""time""
""fullscreenenter"",""1"",""1391""
""blur"",""7"",""51677""
""focus"",""7"",""52860""
","""event"",""trial"",""time""
""blur"",""7"",""51677""
","""event"",""trial"",""time""
""focus"",""7"",""52860""
","""event"",""trial"",""time""
""fullscreenenter"",""1"",""1391""
","
","","","-1","","","22","14922","6142","&#9826;","elianto","#f73b6a7A","-1","-1","1","0","[]","0","0","3","","","","","","","",""
"pit-trial","65","571654","0.0-2.0-14.1-1.1","battery-v0.2","","""event"",""trial"",""time""
""fullscreenenter"",""1"",""1391""
""blur"",""7"",""51677""
""focus"",""7"",""52860""
","""event"",""trial"",""time""
""blur"",""7"",""51677""
","""event"",""trial"",""time""
""focus"",""7"",""52860""
","""event"",""trial"",""time""
""fullscreenenter"",""1"",""1391""
","
","","","-1","","","22","14922","6142","&#9826;","elianto","#f73b6a7A","-1","-1","1","0","[]","0","0","3","","","","","","","",""
"pit-trial","66","576510","0.0-2.0-14.1-2.1","battery-v0.2","","""event"",""trial"",""time""
""fullscreenenter"",""1"",""1391""
""blur"",""7"",""51677""
""focus"",""7"",""52860""
","""event"",""trial"",""time""
""blur"",""7"",""51677""
","""event"",""trial"",""time""
""focus"",""7"",""52860""
","""event"",""trial"",""time""
""fullscreenenter"",""1"",""1391""
","
","","","-1","","","22","14922","6142","&#9826;","elianto","#f73b6a7A","-1","-1","1","0","[]","0","0","3","","","","","","","",""
"pit-trial","67","581366","0.0-2.0-14.1-3.1","battery-v0.2","","""event"",""trial"",""time""
""fullscreenenter"",""1"",""1391""
""blur"",""7"",""51677""
""focus"",""7"",""52860""
","""event"",""trial"",""time""
""blur"",""7"",""51677""
","""event"",""trial"",""time""
""focus"",""7"",""52860""
","""event"",""trial"",""time""
""fullscreenenter"",""1"",""1391""
","
","","","-1","","","22","14922","6142","&#9826;","elianto","#f73b6a7A","-1","-1","1","-10","[]","0","0","3","","","","","","","",""
"pit-trial","68","586222","0.0-2.0-14.1-4.1","battery-v0.2","","""event"",""trial"",""time""
""fullscreenenter"",""1"",""1391""
""blur"",""7"",""51677""
""focus"",""7"",""52860""
","""event"",""trial"",""time""
""blur"",""7"",""51677""
","""event"",""trial"",""time""
""focus"",""7"",""52860""
","""event"",""trial"",""time""
""fullscreenenter"",""1"",""1391""
","
","","","-1","","","22","14922","6142","&#9826;","elianto","#f73b6a7A","-1","-1","1","0","[]","0","0","3","","","","","","","",""
"pit-trial","69","591078","0.0-2.0-14.2-0.2","battery-v0.2","","""event"",""trial"",""time""
""fullscreenenter"",""1"",""1391""
""blur"",""7"",""51677""
""focus"",""7"",""52860""
","""event"",""trial"",""time""
""blur"",""7"",""51677""
","""event"",""trial"",""time""
""focus"",""7"",""52860""
","""event"",""trial"",""time""
""fullscreenenter"",""1"",""1391""
","
","","","-1","","","22","14922","6142","&#9826;","elianto","#f73b6a7A","-1","-1","1","0","[]","0","0","3","","","","","","","",""
"pit-trial","70","595933","0.0-2.0-14.2-1.2","battery-v0.2","","""event"",""trial"",""time""
""fullscreenenter"",""1"",""1391""
""blur"",""7"",""51677""
""focus"",""7"",""52860""
","""event"",""trial"",""time""
""blur"",""7"",""51677""
","""event"",""trial"",""time""
""focus"",""7"",""52860""
","""event"",""trial"",""time""
""fullscreenenter"",""1"",""1391""
","
","","","-1","","","22","14922","6142","&#9826;","elianto","#f73b6a7A","-1","-1","1","0","[]","0","0","3","","","","","","","",""
"pit-trial","71","600790","0.0-2.0-14.2-2.2","battery-v0.2","","""event"",""trial"",""time""
""fullscreenenter"",""1"",""1391""
""blur"",""7"",""51677""
""focus"",""7"",""52860""
","""event"",""trial"",""time""
""blur"",""7"",""51677""
","""event"",""trial"",""time""
""focus"",""7"",""52860""
","""event"",""trial"",""time""
""fullscreenenter"",""1"",""1391""
","
","","","-1","","","22","14922","6142","&#9826;","elianto","#f73b6a7A","-1","-1","1","0","[]","0","0","3","","","","","","","",""
"pit-trial","72","605646","0.0-2.0-14.2-3.2","battery-v0.2","","""event"",""trial"",""time""
""fullscreenenter"",""1"",""1391""
""blur"",""7"",""51677""
""focus"",""7"",""52860""
","""event"",""trial"",""time""
""blur"",""7"",""51677""
","""event"",""trial"",""time""
""focus"",""7"",""52860""
","""event"",""trial"",""time""
""fullscreenenter"",""1"",""1391""
","
","","","-1","","","22","14922","6142","&#9826;","elianto","#f73b6a7A","-1","-1","1","-10","[]","0","0","3","","","","","","","",""
"pit-trial","73","610503","0.0-2.0-14.2-4.2","battery-v0.2","","""event"",""trial"",""time""
""fullscreenenter"",""1"",""1391""
""blur"",""7"",""51677""
""focus"",""7"",""52860""
","""event"",""trial"",""time""
""blur"",""7"",""51677""
","""event"",""trial"",""time""
""focus"",""7"",""52860""
","""event"",""trial"",""time""
""fullscreenenter"",""1"",""1391""
","
","","","-1","","","22","14922","6142","&#9826;","elianto","#f73b6a7A","-1","-1","1","0","[]","0","0","3","","","","","","","",""
"pit-trial","74","615359","0.0-2.0-14.3-0.3","battery-v0.2","","""event"",""trial"",""time""
""fullscreenenter"",""1"",""1391""
""blur"",""7"",""51677""
""focus"",""7"",""52860""
","""event"",""trial"",""time""
""blur"",""7"",""51677""
","""event"",""trial"",""time""
""focus"",""7"",""52860""
","""event"",""trial"",""time""
""fullscreenenter"",""1"",""1391""
","
","","","-1","","","22","14922","6142","&#9826;","elianto","#f73b6a7A","-1","-1","1","0","[]","0","0","3","","","","","","","",""
"pit-trial","75","620215","0.0-2.0-14.3-1.3","battery-v0.2","","""event"",""trial"",""time""
""fullscreenenter"",""1"",""1391""
""blur"",""7"",""51677""
""focus"",""7"",""52860""
","""event"",""trial"",""time""
""blur"",""7"",""51677""
","""event"",""trial"",""time""
""focus"",""7"",""52860""
","""event"",""trial"",""time""
""fullscreenenter"",""1"",""1391""
","
","","","-1","","","22","14922","6142","&#9826;","elianto","#f73b6a7A","-1","-1","1","0","[]","0","0","3","","","","","","","",""
"pit-trial","76","625070","0.0-2.0-14.3-2.3","battery-v0.2","","""event"",""trial"",""time""
""fullscreenenter"",""1"",""1391""
""blur"",""7"",""51677""
""focus"",""7"",""52860""
","""event"",""trial"",""time""
""blur"",""7"",""51677""
","""event"",""trial"",""time""
""focus"",""7"",""52860""
","""event"",""trial"",""time""
""fullscreenenter"",""1"",""1391""
","
","","","-1","","","22","14922","6142","&#9826;","elianto","#f73b6a7A","-1","-1","1","0","[]","0","0","3","","","","","","","",""
"pit-trial","77","629925","0.0-2.0-14.3-3.3","battery-v0.2","","""event"",""trial"",""time""
""fullscreenenter"",""1"",""1391""
""blur"",""7"",""51677""
""focus"",""7"",""52860""
","""event"",""trial"",""time""
""blur"",""7"",""51677""
","""event"",""trial"",""time""
""focus"",""7"",""52860""
","""event"",""trial"",""time""
""fullscreenenter"",""1"",""1391""
","
","","","-1","","","22","14922","6142","&#9826;","elianto","#f73b6a7A","-1","-1","1","-10","[]","0","0","3","","","","","","","",""
"pit-trial","78","634781","0.0-2.0-14.3-4.3","battery-v0.2","","""event"",""trial"",""time""
""fullscreenenter"",""1"",""1391""
""blur"",""7"",""51677""
""focus"",""7"",""52860""
","""event"",""trial"",""time""
""blur"",""7"",""51677""
","""event"",""trial"",""time""
""focus"",""7"",""52860""
","""event"",""trial"",""time""
""fullscreenenter"",""1"",""1391""
","
","","","-1","","","22","14922","6142","&#9826;","elianto","#f73b6a7A","-1","-1","1","0","[]","0","0","3","","","","","","","",""
"call-function","79","634783","0.0-2.0-15.0","battery-v0.2","","""event"",""trial"",""time""
""fullscreenenter"",""1"",""1391""
""blur"",""7"",""51677""
""focus"",""7"",""52860""
","""event"",""trial"",""time""
""blur"",""7"",""51677""
","""event"",""trial"",""time""
""focus"",""7"",""52860""
","""event"",""trial"",""time""
""fullscreenenter"",""1"",""1391""
","
","","","","","","","","","","","","","","","","","","","","","","","","","","",""
"pit-instructions","80","668715","0.0-2.0-16.0","battery-v0.2","","""event"",""trial"",""time""
""fullscreenenter"",""1"",""1391""
""blur"",""7"",""51677""
""focus"",""7"",""52860""
","""event"",""trial"",""time""
""blur"",""7"",""51677""
","""event"",""trial"",""time""
""focus"",""7"",""52860""
","""event"",""trial"",""time""
""fullscreenenter"",""1"",""1391""
","
","","[{""page_index"":0,""viewing_time"":6877.60000000149},{""page_index"":1,""viewing_time"":15515},{""page_index"":2,""viewing_time"":4850.0999999996275},{""page_index"":3,""viewing_time"":6686.9000000003725}]","33930.300000000745","","","","","","","","","","","","","","","","","","","","","","","",""
"pit-trial","81","672802","0.0-2.0-17.0-0.0","battery-v0.2","","""event"",""trial"",""time""
""fullscreenenter"",""1"",""1391""
""blur"",""7"",""51677""
""focus"",""7"",""52860""
","""event"",""trial"",""time""
""blur"",""7"",""51677""
","""event"",""trial"",""time""
""focus"",""7"",""52860""
","""event"",""trial"",""time""
""fullscreenenter"",""1"",""1391""
","
","","","1231.5","","","22","14922","6142","&#9789;","elianto","#f73b6a7A"," "," ","1","0","[2082.2999999988824]","1","0","4","","","","","","","",""
"pit-trial","82","676256","0.0-2.0-17.0-1.0","battery-v0.2","","""event"",""trial"",""time""
""fullscreenenter"",""1"",""1391""
""blur"",""7"",""51677""
""focus"",""7"",""52860""
","""event"",""trial"",""time""
""blur"",""7"",""51677""
","""event"",""trial"",""time""
""focus"",""7"",""52860""
","""event"",""trial"",""time""
""fullscreenenter"",""1"",""1391""
","
","","","598.2999999988824","","","22","14922","6142","&#9789;","elianto","#f73b6a7A"," "," ","1","0","[1449.5999999996275]","1","0","4","","","","","","","",""
"pit-trial","83","679423","0.0-2.0-17.0-2.0","battery-v0.2","","""event"",""trial"",""time""
""fullscreenenter"",""1"",""1391""
""blur"",""7"",""51677""
""focus"",""7"",""52860""
","""event"",""trial"",""time""
""blur"",""7"",""51677""
","""event"",""trial"",""time""
""focus"",""7"",""52860""
","""event"",""trial"",""time""
""fullscreenenter"",""1"",""1391""
","
","","","312","","","22","14922","6142","&#9789;","elianto","#f73b6a7A"," "," ","1","0","[1162.8999999985099]","1","0","4","","","","","","","",""
"pit-trial","84","682450","0.0-2.0-17.0-3.0","battery-v0.2","","""event"",""trial"",""time""
""fullscreenenter"",""1"",""1391""
""blur"",""7"",""51677""
""focus"",""7"",""52860""
","""event"",""trial"",""time""
""blur"",""7"",""51677""
","""event"",""trial"",""time""
""focus"",""7"",""52860""
","""event"",""trial"",""time""
""fullscreenenter"",""1"",""1391""
","
","","","172.19999999925494","","","22","14922","6142","&#9789;","elianto","#f73b6a7A"," "," ","1","-10","[1023.1999999992549]","1","0","4","","","","","","","",""
"pit-trial","85","685736","0.0-2.0-17.0-4.0","battery-v0.2","","""event"",""trial"",""time""
""fullscreenenter"",""1"",""1391""
""blur"",""7"",""51677""
""focus"",""7"",""52860""
","""event"",""trial"",""time""
""blur"",""7"",""51677""
","""event"",""trial"",""time""
""focus"",""7"",""52860""
","""event"",""trial"",""time""
""fullscreenenter"",""1"",""1391""
","
","","","431.90000000037253","","","22","14922","6142","&#9789;","elianto","#f73b6a7A"," "," ","1","0","[1282.300000000745]","1","0","4","","","","","","","",""
"pit-trial","86","689388","0.0-2.0-17.1-0.1","battery-v0.2","","""event"",""trial"",""time""
""fullscreenenter"",""1"",""1391""
""blur"",""7"",""51677""
""focus"",""7"",""52860""
","""event"",""trial"",""time""
""blur"",""7"",""51677""
","""event"",""trial"",""time""
""focus"",""7"",""52860""
","""event"",""trial"",""time""
""fullscreenenter"",""1"",""1391""
","
","","","794.1999999992549","","","22","14922","6142","&#9789;","elianto","#f73b6a7A"," "," ","1","0","[1646.2999999988824]","1","0","4","","","","","","","",""
"pit-trial","87","692637","0.0-2.0-17.1-1.1","battery-v0.2","","""event"",""trial"",""time""
""fullscreenenter"",""1"",""1391""
""blur"",""7"",""51677""
""focus"",""7"",""52860""
","""event"",""trial"",""time""
""blur"",""7"",""51677""
","""event"",""trial"",""time""
""focus"",""7"",""52860""
","""event"",""trial"",""time""
""fullscreenenter"",""1"",""1391""
","
","","","394.30000000074506","","","22","14922","6142","&#9789;","elianto","#f73b6a7A"," "," ","1","0","[1244.7000000011176]","1","0","4","","","","","","","",""
"pit-trial","88","695666","0.0-2.0-17.1-2.1","battery-v0.2","","""event"",""trial"",""time""
""fullscreenenter"",""1"",""1391""
""blur"",""7"",""51677""
""focus"",""7"",""52860""
","""event"",""trial"",""time""
""blur"",""7"",""51677""
","""event"",""trial"",""time""
""focus"",""7"",""52860""
","""event"",""trial"",""time""
""fullscreenenter"",""1"",""1391""
","
","","","174.5","","","22","14922","6142","&#9789;","elianto","#f73b6a7A"," "," ","1","0","[1025.4000000003725]","1","0","4","","","","","","","",""
"pit-trial","89","698741","0.0-2.0-17.1-3.1","battery-v0.2","","""event"",""trial"",""time""
""fullscreenenter"",""1"",""1391""
""blur"",""7"",""51677""
""focus"",""7"",""52860""
","""event"",""trial"",""time""
""blur"",""7"",""51677""
","""event"",""trial"",""time""
""focus"",""7"",""52860""
","""event"",""trial"",""time""
""fullscreenenter"",""1"",""1391""
","
","","","221.40000000037253","","","22","14922","6142","&#9789;","elianto","#f73b6a7A"," "," ","1","-10","[1072.0999999996275]","1","0","4","","","","","","","",""
"pit-trial","90","701756","0.0-2.0-17.1-4.1","battery-v0.2","","""event"",""trial"",""time""
""fullscreenenter"",""1"",""1391""
""blur"",""7"",""51677""
""focus"",""7"",""52860""
","""event"",""trial"",""time""
""blur"",""7"",""51677""
","""event"",""trial"",""time""
""focus"",""7"",""52860""
","""event"",""trial"",""time""
""fullscreenenter"",""1"",""1391""
","
","","","160.2999999988824","","","22","14922","6142","&#9789;","elianto","#f73b6a7A"," "," ","1","0","[1010.5999999996275]","1","0","4","","","","","","","",""
"pit-trial","91","705172","0.0-2.0-17.2-0.2","battery-v0.2","","""event"",""trial"",""time""
""fullscreenenter"",""1"",""1391""
""blur"",""7"",""51677""
""focus"",""7"",""52860""
","""event"",""trial"",""time""
""blur"",""7"",""51677""
","""event"",""trial"",""time""
""focus"",""7"",""52860""
","""event"",""trial"",""time""
""fullscreenenter"",""1"",""1391""
","
","","","560.0999999996275","","","22","14922","6142","&#9789;","elianto","#f73b6a7A"," "," ","1","0","[804.7999999988824,1411.0999999996275]","2","0","4","","","","","","","",""
"pit-trial","92","708516","0.0-2.0-17.2-1.2","battery-v0.2","","""event"",""trial"",""time""
""fullscreenenter"",""1"",""1391""
""blur"",""7"",""51677""
""focus"",""7"",""52860""
","""event"",""trial"",""time""
""blur"",""7"",""51677""
","""event"",""trial"",""time""
""focus"",""7"",""52860""
","""event"",""trial"",""time""
""fullscreenenter"",""1"",""1391""
","
","","","489.40000000037253","","","22","14922","6142","&#9789;","elianto","#f73b6a7A"," "," ","1","0","[1340.4000000003725,2865.300000000745]","2","0","4","","","","","","","",""
"pit-trial","93","711907","0.0-2.0-17.2-2.2","battery-v0.2","","""event"",""trial"",""time""
""fullscreenenter"",""1"",""1391""
""blur"",""7"",""51677""
""focus"",""7"",""52860""
","""event"",""trial"",""time""
""blur"",""7"",""51677""
","""event"",""trial"",""time""
""focus"",""7"",""52860""
","""event"",""trial"",""time""
""fullscreenenter"",""1"",""1391""
","
","","","534.6999999992549","","","22","14922","6142","&#9789;","elianto","#f73b6a7A"," "," ","1","0","[1386.199999999255]","1","0","4","","","","","","","",""
"pit-trial","94","715968","0.0-2.0-17.2-3.2","battery-v0.2","","""event"",""trial"",""time""
""fullscreenenter"",""1"",""1391""
""blur"",""7"",""51677""
""focus"",""7"",""52860""
","""event"",""trial"",""time""
""blur"",""7"",""51677""
","""event"",""trial"",""time""
""focus"",""7"",""52860""
","""event"",""trial"",""time""
""fullscreenenter"",""1"",""1391""
","
","","","1206.0999999996275","","","22","14922","6142","&#9789;","elianto","#f73b6a7A"," "," ","1","-10","[2057.699999999255]","1","0","4","","","","","","","",""
"pit-trial","95","719042","0.0-2.0-17.2-4.2","battery-v0.2","","""event"",""trial"",""time""
""fullscreenenter"",""1"",""1391""
""blur"",""7"",""51677""
""focus"",""7"",""52860""
","""event"",""trial"",""time""
""blur"",""7"",""51677""
","""event"",""trial"",""time""
""focus"",""7"",""52860""
","""event"",""trial"",""time""
""fullscreenenter"",""1"",""1391""
","
","","","217.69999999925494","","","22","14922","6142","&#9789;","elianto","#f73b6a7A"," "," ","1","0","[1069.699999999255]","1","0","4","","","","","","","",""
"pit-trial","96","722804","0.0-2.0-17.3-0.3","battery-v0.2","","""event"",""trial"",""time""
""fullscreenenter"",""1"",""1391""
""blur"",""7"",""51677""
""focus"",""7"",""52860""
","""event"",""trial"",""time""
""blur"",""7"",""51677""
","""event"",""trial"",""time""
""focus"",""7"",""52860""
","""event"",""trial"",""time""
""fullscreenenter"",""1"",""1391""
","
","","","904.6999999992549","","","22","14922","6142","&#9789;","elianto","#f73b6a7A"," "," ","1","0","[1756.699999999255]","1","0","4","","","","","","","",""
"pit-trial","97","725797","0.0-2.0-17.3-1.3","battery-v0.2","","""event"",""trial"",""time""
""fullscreenenter"",""1"",""1391""
""blur"",""7"",""51677""
""focus"",""7"",""52860""
","""event"",""trial"",""time""
""blur"",""7"",""51677""
","""event"",""trial"",""time""
""focus"",""7"",""52860""
","""event"",""trial"",""time""
""fullscreenenter"",""1"",""1391""
","
","","","137.90000000037253","","","22","14922","6142","&#9789;","elianto","#f73b6a7A"," "," ","1","0","[180.5,989.1000000014901]","2","0","4","","","","","","","",""
"pit-trial","98","729301","0.0-2.0-17.3-2.3","battery-v0.2","","""event"",""trial"",""time""
""fullscreenenter"",""1"",""1391""
""blur"",""7"",""51677""
""focus"",""7"",""52860""
","""event"",""trial"",""time""
""blur"",""7"",""51677""
","""event"",""trial"",""time""
""focus"",""7"",""52860""
","""event"",""trial"",""time""
""fullscreenenter"",""1"",""1391""
","
","","","649.4000000003725","","","22","14922","6142","&#9789;","elianto","#f73b6a7A"," "," ","1","0","[1500]","1","0","4","","","","","","","",""
"pit-trial","99","732631","0.0-2.0-17.3-3.3","battery-v0.2","","""event"",""trial"",""time""
""fullscreenenter"",""1"",""1391""
""blur"",""7"",""51677""
""focus"",""7"",""52860""
","""event"",""trial"",""time""
""blur"",""7"",""51677""
","""event"",""trial"",""time""
""focus"",""7"",""52860""
","""event"",""trial"",""time""
""fullscreenenter"",""1"",""1391""
","
","","","474.30000000074506","","","22","14922","6142","&#9789;","elianto","#f73b6a7A"," "," ","1","-10","[1325.300000000745]","1","0","4","","","","","","","",""
"pit-trial","100","735766","0.0-2.0-17.3-4.3","battery-v0.2","","""event"",""trial"",""time""
""fullscreenenter"",""1"",""1391""
""blur"",""7"",""51677""
""focus"",""7"",""52860""
","""event"",""trial"",""time""
""blur"",""7"",""51677""
","""event"",""trial"",""time""
""focus"",""7"",""52860""
","""event"",""trial"",""time""
""fullscreenenter"",""1"",""1391""
","
","","","279.8999999985099","","","22","14922","6142","&#9789;","elianto","#f73b6a7A"," "," ","1","0","[1131.3999999985099]","1","0","4","","","","","","","",""
"call-function","101","735769","0.0-2.0-18.0","battery-v0.2","","""event"",""trial"",""time""
""fullscreenenter"",""1"",""1391""
""blur"",""7"",""51677""
""focus"",""7"",""52860""
","""event"",""trial"",""time""
""blur"",""7"",""51677""
","""event"",""trial"",""time""
""focus"",""7"",""52860""
","""event"",""trial"",""time""
""fullscreenenter"",""1"",""1391""
","
","","","","","","","","","","","","","","","","","","","","","","","","","","",""
"pit-instructions","102","809652","0.0-2.0-19.0","battery-v0.2","","""event"",""trial"",""time""
""fullscreenenter"",""1"",""1391""
""blur"",""7"",""51677""
""focus"",""7"",""52860""
","""event"",""trial"",""time""
""blur"",""7"",""51677""
","""event"",""trial"",""time""
""focus"",""7"",""52860""
","""event"",""trial"",""time""
""fullscreenenter"",""1"",""1391""
","
","","[{""page_index"":0,""viewing_time"":8517.299999998882},{""page_index"":1,""viewing_time"":10220.599999999627},{""page_index"":2,""viewing_time"":10419.400000000373},{""page_index"":3,""viewing_time"":7412.800000000745},{""page_index"":4,""viewing_time"":6843},{""page_index"":5,""viewing_time"":8533.699999999255},{""page_index"":6,""viewing_time"":11236.5},{""page_index"":7,""viewing_time"":5914.4000000003725},{""page_index"":8,""viewing_time"":4781.9000000003725}]","73880.19999999925","","","","","","","","","","","","","","","","","","","","","","","",""
"pit-comprehension","103","814158","0.0-2.0-20.0-0.0","battery-v0.2","","""event"",""trial"",""time""
""fullscreenenter"",""1"",""1391""
""blur"",""7"",""51677""
""focus"",""7"",""52860""
","""event"",""trial"",""time""
""blur"",""7"",""51677""
","""event"",""trial"",""time""
""focus"",""7"",""52860""
","""event"",""trial"",""time""
""fullscreenenter"",""1"",""1391""
","
","","","4499","[""SPACE""]","0","22","14922","6142","","","","","","","","","","","","","","","","","","",""
"pit-instructions","104","818165","0.0-2.0-20.0-1.0","battery-v0.2","","""event"",""trial"",""time""
""fullscreenenter"",""1"",""1391""
""blur"",""7"",""51677""
""focus"",""7"",""52860""
","""event"",""trial"",""time""
""blur"",""7"",""51677""
","""event"",""trial"",""time""
""focus"",""7"",""52860""
","""event"",""trial"",""time""
""fullscreenenter"",""1"",""1391""
","
","","[{""page_index"":0,""viewing_time"":3962.199999999255}]","3962.5999999996275","","","","","","","","","","","","","","","","","","","","","","","",""
"pit-comprehension","105","822727","0.0-2.0-21.0-0.0","battery-v0.2","","""event"",""trial"",""time""
""fullscreenenter"",""1"",""1391""
""blur"",""7"",""51677""
""focus"",""7"",""52860""
","""event"",""trial"",""time""
""blur"",""7"",""51677""
","""event"",""trial"",""time""
""focus"",""7"",""52860""
","""event"",""trial"",""time""
""fullscreenenter"",""1"",""1391""
","
","","","4555.199999999255","[""10""]","0","22","14922","6142","","","","","","","","","","","","","","","","","","",""
"pit-instructions","106","824716","0.0-2.0-21.0-1.0","battery-v0.2","","""event"",""trial"",""time""
""fullscreenenter"",""1"",""1391""
""blur"",""7"",""51677""
""focus"",""7"",""52860""
","""event"",""trial"",""time""
""blur"",""7"",""51677""
","""event"",""trial"",""time""
""focus"",""7"",""52860""
","""event"",""trial"",""time""
""fullscreenenter"",""1"",""1391""
","
","","[{""page_index"":0,""viewing_time"":1947.5999999996275}]","1948.199999999255","","","","","","","","","","","","","","","","","","","","","","","",""
"pit-comprehension","107","831119","0.0-2.0-22.0-0.0","battery-v0.2","","""event"",""trial"",""time""
""fullscreenenter"",""1"",""1391""
""blur"",""7"",""51677""
""focus"",""7"",""52860""
","""event"",""trial"",""time""
""blur"",""7"",""51677""
","""event"",""trial"",""time""
""focus"",""7"",""52860""
","""event"",""trial"",""time""
""fullscreenenter"",""1"",""1391""
","
","","","6397.4000000003725","[""0""]","0","22","14922","6142","","","","","","","","","","","","","","","","","","",""
"pit-instructions","108","836535","0.0-2.0-22.0-1.0","battery-v0.2","","""event"",""trial"",""time""
""fullscreenenter"",""1"",""1391""
""blur"",""7"",""51677""
""focus"",""7"",""52860""
","""event"",""trial"",""time""
""blur"",""7"",""51677""
","""event"",""trial"",""time""
""focus"",""7"",""52860""
","""event"",""trial"",""time""
""fullscreenenter"",""1"",""1391""
","
","","[{""page_index"":0,""viewing_time"":5370.300000000745}]","5370.9000000003725","","","","","","","","","","","","","","","","","","","","","","","",""
"pit-comprehension","109","844979","0.0-2.0-23.0-0.0","battery-v0.2","","""event"",""trial"",""time""
""fullscreenenter"",""1"",""1391""
""blur"",""7"",""51677""
""focus"",""7"",""52860""
","""event"",""trial"",""time""
""blur"",""7"",""51677""
","""event"",""trial"",""time""
""focus"",""7"",""52860""
","""event"",""trial"",""time""
""fullscreenenter"",""1"",""1391""
","
","","","8437.599999999627","[""True""]","0","22","14922","6142","","","","","","","","","","","","","","","","","","",""
"pit-instructions","110","847196","0.0-2.0-23.0-1.0","battery-v0.2","","""event"",""trial"",""time""
""fullscreenenter"",""1"",""1391""
""blur"",""7"",""51677""
""focus"",""7"",""52860""
","""event"",""trial"",""time""
""blur"",""7"",""51677""
","""event"",""trial"",""time""
""focus"",""7"",""52860""
","""event"",""trial"",""time""
""fullscreenenter"",""1"",""1391""
","
","","[{""page_index"":0,""viewing_time"":2174.300000000745}]","2174.800000000745","","","","","","","","","","","","","","","","","","","","","","","",""
"pit-comprehension","111","854610","0.0-2.0-24.0-0.0","battery-v0.2","","""event"",""trial"",""time""
""fullscreenenter"",""1"",""1391""
""blur"",""7"",""51677""
""focus"",""7"",""52860""
","""event"",""trial"",""time""
""blur"",""7"",""51677""
","""event"",""trial"",""time""
""focus"",""7"",""52860""
","""event"",""trial"",""time""
""fullscreenenter"",""1"",""1391""
","
","","","7409","[""True""]","0","22","14922","6142","","","","","","","","","","","","","","","","","","",""
"pit-instructions","112","857225","0.0-2.0-24.0-1.0","battery-v0.2","","""event"",""trial"",""time""
""fullscreenenter"",""1"",""1391""
""blur"",""7"",""51677""
""focus"",""7"",""52860""
","""event"",""trial"",""time""
""blur"",""7"",""51677""
","""event"",""trial"",""time""
""focus"",""7"",""52860""
","""event"",""trial"",""time""
""fullscreenenter"",""1"",""1391""
","
","","[{""page_index"":0,""viewing_time"":2565.699999999255}]","2566.199999999255","","","","","","","","","","","","","","","","","","","","","","","",""
"pit-comprehension","113","863266","0.0-2.0-25.0-0.0","battery-v0.2","","""event"",""trial"",""time""
""fullscreenenter"",""1"",""1391""
""blur"",""7"",""51677""
""focus"",""7"",""52860""
","""event"",""trial"",""time""
""blur"",""7"",""51677""
","""event"",""trial"",""time""
""focus"",""7"",""52860""
","""event"",""trial"",""time""
""fullscreenenter"",""1"",""1391""
","
","","","6035.800000000745","[""True""]","0","22","14922","6142","","","","","","","","","","","","","","","","","","",""
"pit-instructions","114","864468","0.0-2.0-25.0-1.0","battery-v0.2","","""event"",""trial"",""time""
""fullscreenenter"",""1"",""1391""
""blur"",""7"",""51677""
""focus"",""7"",""52860""
","""event"",""trial"",""time""
""blur"",""7"",""51677""
","""event"",""trial"",""time""
""focus"",""7"",""52860""
","""event"",""trial"",""time""
""fullscreenenter"",""1"",""1391""
","
","","[{""page_index"":0,""viewing_time"":1156.3999999985099}]","1156.5999999996275","","","","","","","","","","","","","","","","","","","","","","","",""
"pit-comprehension","115","869359","0.0-2.0-26.0-0.0","battery-v0.2","","""event"",""trial"",""time""
""fullscreenenter"",""1"",""1391""
""blur"",""7"",""51677""
""focus"",""7"",""52860""
","""event"",""trial"",""time""
""blur"",""7"",""51677""
","""event"",""trial"",""time""
""focus"",""7"",""52860""
","""event"",""trial"",""time""
""fullscreenenter"",""1"",""1391""
","
","","","4888","[""False""]","0","22","14922","6142","","","","","","","","","","","","","","","","","","",""
"pit-instructions","116","870864","0.0-2.0-26.0-1.0","battery-v0.2","","""event"",""trial"",""time""
""fullscreenenter"",""1"",""1391""
""blur"",""7"",""51677""
""focus"",""7"",""52860""
","""event"",""trial"",""time""
""blur"",""7"",""51677""
","""event"",""trial"",""time""
""focus"",""7"",""52860""
","""event"",""trial"",""time""
""fullscreenenter"",""1"",""1391""
","
","","[{""page_index"":0,""viewing_time"":1461}]","1461.4000000003725","","","","","","","","","","","","","","","","","","","","","","","",""
"pit-instructions","117","886554","0.0-3.0","battery-v0.2","","""event"",""trial"",""time""
""fullscreenenter"",""1"",""1391""
""blur"",""7"",""51677""
""focus"",""7"",""52860""
","""event"",""trial"",""time""
""blur"",""7"",""51677""
","""event"",""trial"",""time""
""focus"",""7"",""52860""
","""event"",""trial"",""time""
""fullscreenenter"",""1"",""1391""
","
","","[{""page_index"":0,""viewing_time"":3628.0999999996275},{""page_index"":1,""viewing_time"":5273.699999999255},{""page_index"":2,""viewing_time"":6783.5}]","15685.699999999255","","","","","","","","","","","","","","","","","","","","","","","",""
"pit-trial","118","890555","0.0-4.0","battery-v0.2","","""event"",""trial"",""time""
""fullscreenenter"",""1"",""1391""
""blur"",""7"",""51677""
""focus"",""7"",""52860""
","""event"",""trial"",""time""
""blur"",""7"",""51677""
","""event"",""trial"",""time""
""focus"",""7"",""52860""
","""event"",""trial"",""time""
""fullscreenenter"",""1"",""1391""
","
","","","1141.199999999255","","","22","14922","6142","&#9733;","elianto","#3366ff99","-1"," ","0","+10","[1992]","1","1","","","14922","1","2","2","win","no-go","1"
"pit-trial","119","894716","0.0-5.0","battery-v0.2","","""event"",""trial"",""time""
""fullscreenenter"",""1"",""1391""
""blur"",""7"",""51677""
""focus"",""7"",""52860""
","""event"",""trial"",""time""
""blur"",""7"",""51677""
","""event"",""trial"",""time""
""focus"",""7"",""52860""
","""event"",""trial"",""time""
""fullscreenenter"",""1"",""1391""
","
","","","1304.2999999988824","","","22","14922","6142","&#9752;","elianto","#f73b6a7A"," "," ","1","0","[2156.199999999255]","1","1","","","14922","2","3","3","lose","go","0"
"pit-trial","120","898491","0.0-6.0","battery-v0.2","","""event"",""trial"",""time""
""fullscreenenter"",""1"",""1391""
""blur"",""7"",""51677""
""focus"",""7"",""52860""
","""event"",""trial"",""time""
""blur"",""7"",""51677""
","""event"",""trial"",""time""
""focus"",""7"",""52860""
","""event"",""trial"",""time""
""fullscreenenter"",""1"",""1391""
","
","","","919.3000000007451","","","22","14922","6142","&#9730;","elianto","#3366ff99"," "," ","1","+10","[1770.5999999996275]","1","1","","","14922","3","1","1","win","go","0"
"pit-trial","121","902073","0.0-7.0","battery-v0.2","","""event"",""trial"",""time""
""fullscreenenter"",""1"",""1391""
""blur"",""7"",""51677""
""focus"",""7"",""52860""
","""event"",""trial"",""time""
""blur"",""7"",""51677""
","""event"",""trial"",""time""
""focus"",""7"",""52860""
","""event"",""trial"",""time""
""fullscreenenter"",""1"",""1391""
","
","","","727","","","22","14922","6142","&#9728;","elianto","#f73b6a7A","-1"," ","0","-10","[1577.7000000011176]","1","1","","","14922","4","0","4","lose","no-go","0"
"pit-trial","122","905836","0.0-8.0","battery-v0.2","","""event"",""trial"",""time""
""fullscreenenter"",""1"",""1391""
""blur"",""7"",""51677""
""focus"",""7"",""52860""
","""event"",""trial"",""time""
""blur"",""7"",""51677""
","""event"",""trial"",""time""
""focus"",""7"",""52860""
","""event"",""trial"",""time""
""fullscreenenter"",""1"",""1391""
","
","","","907.6999999992549","","","22","14922","6142","&#9733;","elianto","#3366ff99","-1"," ","0","0","[1758.0999999996275]","1","1","","","14922","5","2","2","win","no-go","0"
"pit-trial","123","909317","0.0-9.0","battery-v0.2","","""event"",""trial"",""time""
""fullscreenenter"",""1"",""1391""
""blur"",""7"",""51677""
""focus"",""7"",""52860""
","""event"",""trial"",""time""
""blur"",""7"",""51677""
","""event"",""trial"",""time""
""focus"",""7"",""52860""
","""event"",""trial"",""time""
""fullscreenenter"",""1"",""1391""
","
","","","625.9000000003725","","","22","14922","6142","&#9728;","elianto","#f73b6a7A","-1"," ","0","0","[1476.699999999255]","1","1","","","14922","6","0","4","lose","no-go","1"
"pit-trial","124","913258","0.0-10.0","battery-v0.2","","""event"",""trial"",""time""
""fullscreenenter"",""1"",""1391""
""blur"",""7"",""51677""
""focus"",""7"",""52860""
","""event"",""trial"",""time""
""blur"",""7"",""51677""
","""event"",""trial"",""time""
""focus"",""7"",""52860""
","""event"",""trial"",""time""
""fullscreenenter"",""1"",""1391""
","
","","","1083.5999999996275","","","22","14922","6142","&#9752;","elianto","#f73b6a7A"," "," ","1","-10","[1936.7000000011176]","1","1","","","14922","7","3","3","lose","go","1"
"pit-trial","125","918113","0.0-11.0","battery-v0.2","","""event"",""trial"",""time""
""fullscreenenter"",""1"",""1391""
""blur"",""7"",""51677""
""focus"",""7"",""52860""
","""event"",""trial"",""time""
""blur"",""7"",""51677""
","""event"",""trial"",""time""
""focus"",""7"",""52860""
","""event"",""trial"",""time""
""fullscreenenter"",""1"",""1391""
","
","","","-1","","","22","14922","6142","&#9730;","elianto","#3366ff99"," ","-1","0","0","[]","0","1","","","14922","8","1","1","win","go","0"
"pit-trial","126","922175","0.0-12.0","battery-v0.2","","""event"",""trial"",""time""
""fullscreenenter"",""1"",""1391""
""blur"",""7"",""51677""
""focus"",""7"",""52860""
","""event"",""trial"",""time""
""blur"",""7"",""51677""
","""event"",""trial"",""time""
""focus"",""7"",""52860""
","""event"",""trial"",""time""
""fullscreenenter"",""1"",""1391""
","
","","","1208","","","22","14922","6142","&#9752;","elianto","#f73b6a7A"," "," ","1","0","[2059.4000000003725]","1","1","","","14922","9","3","3","lose","go","0"
"pit-trial","127","925633","0.0-13.0","battery-v0.2","","""event"",""trial"",""time""
""fullscreenenter"",""1"",""1391""
""blur"",""7"",""51677""
""focus"",""7"",""52860""
","""event"",""trial"",""time""
""blur"",""7"",""51677""
","""event"",""trial"",""time""
""focus"",""7"",""52860""
","""event"",""trial"",""time""
""fullscreenenter"",""1"",""1391""
","
","","","603.0999999996275","","","22","14922","6142","&#9733;","elianto","#3366ff99","-1"," ","0","0","[1453.9000000003725]","1","1","","","14922","10","2","2","win","no-go","0"
"pit-trial","128","929620","0.0-14.0","battery-v0.2","","""event"",""trial"",""time""
""fullscreenenter"",""1"",""1391""
""blur"",""7"",""51677""
""focus"",""7"",""52860""
","""event"",""trial"",""time""
""blur"",""7"",""51677""
","""event"",""trial"",""time""
""focus"",""7"",""52860""
","""event"",""trial"",""time""
""fullscreenenter"",""1"",""1391""
","
","","","1129.5999999996275","","","22","14922","6142","&#9730;","elianto","#3366ff99"," "," ","1","+10","[1981.4000000003725]","1","1","","","14922","11","1","1","win","go","0"
"pit-trial","129","934475","0.0-15.0","battery-v0.2","","""event"",""trial"",""time""
""fullscreenenter"",""1"",""1391""
""blur"",""7"",""51677""
""focus"",""7"",""52860""
","""event"",""trial"",""time""
""blur"",""7"",""51677""
","""event"",""trial"",""time""
""focus"",""7"",""52860""
","""event"",""trial"",""time""
""fullscreenenter"",""1"",""1391""
","
","","","-1","","","22","14922","6142","&#9728;","elianto","#f73b6a7A","-1","-1","1","0","[]","0","1","","","14922","12","0","4","lose","no-go","0"
"pit-trial","130","938043","0.0-16.0","battery-v0.2","","""event"",""trial"",""time""
""fullscreenenter"",""1"",""1391""
""blur"",""7"",""51677""
""focus"",""7"",""52860""
","""event"",""trial"",""time""
""blur"",""7"",""51677""
","""event"",""trial"",""time""
""focus"",""7"",""52860""
","""event"",""trial"",""time""
""fullscreenenter"",""1"",""1391""
","
","","","711.4000000003725","","","22","14922","6142","&#9730;","elianto","#3366ff99"," "," ","1","+10","[1563.5999999996275]","1","1","","","14922","13","1","1","win","go","0"
"pit-trial","131","942898","0.0-17.0","battery-v0.2","","""event"",""trial"",""time""
""fullscreenenter"",""1"",""1391""
""blur"",""7"",""51677""
""focus"",""7"",""52860""
","""event"",""trial"",""time""
""blur"",""7"",""51677""
","""event"",""trial"",""time""
""focus"",""7"",""52860""
","""event"",""trial"",""time""
""fullscreenenter"",""1"",""1391""
","
","","","-1","","","22","14922","6142","&#9728;","elianto","#f73b6a7A","-1","-1","1","0","[]","0","1","","","14922","14","0","4","lose","no-go","0"
"pit-trial","132","946585","0.0-18.0","battery-v0.2","","""event"",""trial"",""time""
""fullscreenenter"",""1"",""1391""
""blur"",""7"",""51677""
""focus"",""7"",""52860""
","""event"",""trial"",""time""
""blur"",""7"",""51677""
","""event"",""trial"",""time""
""focus"",""7"",""52860""
","""event"",""trial"",""time""
""fullscreenenter"",""1"",""1391""
","
","","","831.5","","","22","14922","6142","&#9733;","elianto","#3366ff99","-1"," ","0","0","[1682.7999999988824]","1","1","","","14922","15","2","2","win","no-go","0"
"pit-trial","133","950316","0.0-19.0","battery-v0.2","","""event"",""trial"",""time""
""fullscreenenter"",""1"",""1391""
""blur"",""7"",""51677""
""focus"",""7"",""52860""
","""event"",""trial"",""time""
""blur"",""7"",""51677""
","""event"",""trial"",""time""
""focus"",""7"",""52860""
","""event"",""trial"",""time""
""fullscreenenter"",""1"",""1391""
","
","","","874.9000000003725","","","22","14922","6142","&#9752;","elianto","#f73b6a7A"," "," ","1","0","[1726.300000000745]","1","1","","","14922","16","3","3","lose","go","0"
"pit-trial","134","953731","0.0-20.0","battery-v0.2","","""event"",""trial"",""time""
""fullscreenenter"",""1"",""1391""
""blur"",""7"",""51677""
""focus"",""7"",""52860""
","""event"",""trial"",""time""
""blur"",""7"",""51677""
","""event"",""trial"",""time""
""focus"",""7"",""52860""
","""event"",""trial"",""time""
""fullscreenenter"",""1"",""1391""
","
","","","560.0999999996275","","","22","14922","6142","&#9728;","elianto","#f73b6a7A","-1"," ","0","-10","[1411.5]","1","1","","","14922","17","0","4","lose","no-go","0"
"pit-trial","135","958588","0.0-21.0","battery-v0.2","","""event"",""trial"",""time""
""fullscreenenter"",""1"",""1391""
""blur"",""7"",""51677""
""focus"",""7"",""52860""
","""event"",""trial"",""time""
""blur"",""7"",""51677""
","""event"",""trial"",""time""
""focus"",""7"",""52860""
","""event"",""trial"",""time""
""fullscreenenter"",""1"",""1391""
","
","","","-1","","","22","14922","6142","&#9733;","elianto","#3366ff99","-1","-1","1","+10","[]","0","1","","","14922","18","2","2","win","no-go","0"
"pit-trial","136","962574","0.0-22.0","battery-v0.2","","""event"",""trial"",""time""
""fullscreenenter"",""1"",""1391""
""blur"",""7"",""51677""
""focus"",""7"",""52860""
","""event"",""trial"",""time""
""blur"",""7"",""51677""
","""event"",""trial"",""time""
""focus"",""7"",""52860""
","""event"",""trial"",""time""
""fullscreenenter"",""1"",""1391""
","
","","","1131","","","22","14922","6142","&#9730;","elianto","#3366ff99"," "," ","1","+10","[1981.800000000745]","1","1","","","14922","19","1","1","win","go","0"
"pit-trial","137","967430","0.0-23.0","battery-v0.2","","""event"",""trial"",""time""
""fullscreenenter"",""1"",""1391""
""blur"",""7"",""51677""
""focus"",""7"",""52860""
","""event"",""trial"",""time""
""blur"",""7"",""51677""
","""event"",""trial"",""time""
""focus"",""7"",""52860""
","""event"",""trial"",""time""
""fullscreenenter"",""1"",""1391""
","
","","","-1","","","22","14922","6142","&#9752;","elianto","#f73b6a7A"," ","-1","0","-10","[]","0","1","","","14922","20","3","3","lose","go","0"
"pit-instructions","138","980561","0.0-24.0","battery-v0.2","","""event"",""trial"",""time""
""fullscreenenter"",""1"",""1391""
""blur"",""7"",""51677""
""focus"",""7"",""52860""
","""event"",""trial"",""time""
""blur"",""7"",""51677""
","""event"",""trial"",""time""
""focus"",""7"",""52860""
","""event"",""trial"",""time""
""fullscreenenter"",""1"",""1391""
","
","","[{""page_index"":0,""viewing_time"":6667.700000001118},{""page_index"":1,""viewing_time"":6460}]","13128.200000001118","","","","","","","","","","","","","","","","","","","","","","","",""
"pit-trial","139","985417","0.0-25.0","battery-v0.2","","""event"",""trial"",""time""
""fullscreenenter"",""1"",""1391""
""blur"",""7"",""51677""
""focus"",""7"",""52860""
","""event"",""trial"",""time""
""blur"",""7"",""51677""
","""event"",""trial"",""time""
""focus"",""7"",""52860""
","""event"",""trial"",""time""
""fullscreenenter"",""1"",""1391""
","
","","","-1","","","22","14922","6142","r","elianto","#3366ff99"," ","-1","0","0","[]","0","2","","","14922","21","1","1","win","go","0"
"pit-trial","140","989123","0.0-26.0","battery-v0.2","","""event"",""trial"",""time""
""fullscreenenter"",""1"",""1391""
""blur"",""7"",""51677""
""focus"",""7"",""52860""
","""event"",""trial"",""time""
""blur"",""7"",""51677""
","""event"",""trial"",""time""
""focus"",""7"",""52860""
","""event"",""trial"",""time""
""fullscreenenter"",""1"",""1391""
","
","","","850.8000000007451","","","22","14922","6142","h","elianto","#f73b6a7A"," "," ","1","0","[1701]","1","2","","","14922","22","3","3","lose","go","0"
"pit-trial","141","992636","0.0-27.0","battery-v0.2","","""event"",""trial"",""time""
""fullscreenenter"",""1"",""1391""
""blur"",""7"",""51677""
""focus"",""7"",""52860""
","""event"",""trial"",""time""
""blur"",""7"",""51677""
","""event"",""trial"",""time""
""focus"",""7"",""52860""
","""event"",""trial"",""time""
""fullscreenenter"",""1"",""1391""
","
","","","658.4000000003725","","","22","14922","6142","m","elianto","#f73b6a7A","-1"," ","0","-10","[1509.5]","1","2","","","14922","23","0","4","lose","no-go","0"
"pit-trial","142","995951","0.0-28.0","battery-v0.2","","""event"",""trial"",""time""
""fullscreenenter"",""1"",""1391""
""blur"",""7"",""51677""
""focus"",""7"",""52860""
","""event"",""trial"",""time""
""blur"",""7"",""51677""
","""event"",""trial"",""time""
""focus"",""7"",""52860""
","""event"",""trial"",""time""
""fullscreenenter"",""1"",""1391""
","
","","","459.59999999962747","","","22","14922","6142","y","elianto","#f73b6a7A","-1"," ","0","-10","[1309.7000000011176]","1","2","","","14922","24","2","4","lose","no-go","0"
"pit-trial","143","999610","0.0-29.0","battery-v0.2","","""event"",""trial"",""time""
""fullscreenenter"",""1"",""1391""
""blur"",""7"",""51677""
""focus"",""7"",""52860""
","""event"",""trial"",""time""
""blur"",""7"",""51677""
","""event"",""trial"",""time""
""focus"",""7"",""52860""
","""event"",""trial"",""time""
""fullscreenenter"",""1"",""1391""
","
","","","803.1999999992549","","","22","14922","6142","y","elianto","#f73b6a7A","-1"," ","0","0","[1655.5]","1","2","","","14922","25","2","4","lose","no-go","1"
"pit-trial","144","1003010","0.0-30.0","battery-v0.2","","""event"",""trial"",""time""
""fullscreenenter"",""1"",""1391""
""blur"",""7"",""51677""
""focus"",""7"",""52860""
","""event"",""trial"",""time""
""blur"",""7"",""51677""
","""event"",""trial"",""time""
""focus"",""7"",""52860""
","""event"",""trial"",""time""
""fullscreenenter"",""1"",""1391""
","
","","","546.1999999992549","","","22","14922","6142","h","elianto","#f73b6a7A"," "," ","1","0","[1397.199999999255]","1","2","","","14922","26","3","3","lose","go","0"
"pit-trial","145","1007865","0.0-31.0","battery-v0.2","","""event"",""trial"",""time""
""fullscreenenter"",""1"",""1391""
""blur"",""7"",""51677""
""focus"",""7"",""52860""
","""event"",""trial"",""time""
""blur"",""7"",""51677""
","""event"",""trial"",""time""
""focus"",""7"",""52860""
","""event"",""trial"",""time""
""fullscreenenter"",""1"",""1391""
","
","","","-1","","","22","14922","6142","r","elianto","#3366ff99"," ","-1","0","0","[]","0","2","","","14922","27","1","1","win","go","0"
"pit-trial","146","1011797","0.0-32.0","battery-v0.2","","""event"",""trial"",""time""
""fullscreenenter"",""1"",""1391""
""blur"",""7"",""51677""
""focus"",""7"",""52860""
","""event"",""trial"",""time""
""blur"",""7"",""51677""
","""event"",""trial"",""time""
""focus"",""7"",""52860""
","""event"",""trial"",""time""
""fullscreenenter"",""1"",""1391""
","
","","","1079.2000000011176","","","22","14922","6142","m","elianto","#f73b6a7A","-1"," ","0","-10","[1929.5]","1","2","","","14922","28","0","4","lose","no-go","0"
"pit-trial","147","1016654","0.0-33.0","battery-v0.2","","""event"",""trial"",""time""
""fullscreenenter"",""1"",""1391""
""blur"",""7"",""51677""
""focus"",""7"",""52860""
","""event"",""trial"",""time""
""blur"",""7"",""51677""
","""event"",""trial"",""time""
""focus"",""7"",""52860""
","""event"",""trial"",""time""
""fullscreenenter"",""1"",""1391""
","
","","","-1","","","22","14922","6142","m","elianto","#f73b6a7A","-1","-1","1","0","[]","0","2","","","14922","29","0","4","lose","no-go","0"
"pit-trial","148","1020520","0.0-34.0","battery-v0.2","","""event"",""trial"",""time""
""fullscreenenter"",""1"",""1391""
""blur"",""7"",""51677""
""focus"",""7"",""52860""
","""event"",""trial"",""time""
""blur"",""7"",""51677""
","""event"",""trial"",""time""
""focus"",""7"",""52860""
","""event"",""trial"",""time""
""fullscreenenter"",""1"",""1391""
","
","","","1010.2999999988824","","","22","14922","6142","h","elianto","#f73b6a7A"," "," ","1","0","[1860.7999999988824]","1","2","","","14922","30","3","3","lose","go","0"
"pit-trial","149","1024313","0.0-35.0","battery-v0.2","","""event"",""trial"",""time""
""fullscreenenter"",""1"",""1391""
""blur"",""7"",""51677""
""focus"",""7"",""52860""
","""event"",""trial"",""time""
""blur"",""7"",""51677""
","""event"",""trial"",""time""
""focus"",""7"",""52860""
","""event"",""trial"",""time""
""fullscreenenter"",""1"",""1391""
","
","","","935.3000000007451","","","22","14922","6142","r","elianto","#3366ff99"," "," ","1","+10","[1786.7000000011176]","1","2","","","14922","31","1","1","win","go","0"
"pit-trial","150","1028542","0.0-36.0","battery-v0.2","","""event"",""trial"",""time""
""fullscreenenter"",""1"",""1391""
""blur"",""7"",""51677""
""focus"",""7"",""52860""
","""event"",""trial"",""time""
""blur"",""7"",""51677""
","""event"",""trial"",""time""
""focus"",""7"",""52860""
","""event"",""trial"",""time""
""fullscreenenter"",""1"",""1391""
","
","","","1373.4000000003725","","","22","14922","6142","y","elianto","#f73b6a7A","-1"," ","0","-10","[2225.2000000011176]","1","2","","","14922","32","2","4","lose","no-go","0"
"pit-trial","151","1033398","0.0-37.0","battery-v0.2","","""event"",""trial"",""time""
""fullscreenenter"",""1"",""1391""
""blur"",""7"",""51677""
""focus"",""7"",""52860""
","""event"",""trial"",""time""
""blur"",""7"",""51677""
","""event"",""trial"",""time""
""focus"",""7"",""52860""
","""event"",""trial"",""time""
""fullscreenenter"",""1"",""1391""
","
","","","-1","","","22","14922","6142","y","elianto","#f73b6a7A","-1","-1","1","0","[]","0","2","","","14922","33","2","4","lose","no-go","0"
"pit-trial","152","1037879","0.0-38.0","battery-v0.2","","""event"",""trial"",""time""
""fullscreenenter"",""1"",""1391""
""blur"",""7"",""51677""
""focus"",""7"",""52860""
","""event"",""trial"",""time""
""blur"",""7"",""51677""
","""event"",""trial"",""time""
""focus"",""7"",""52860""
","""event"",""trial"",""time""
""fullscreenenter"",""1"",""1391""
","
","","","1626.2999999988824","","","22","14922","6142","h","elianto","#f73b6a7A"," "," ","1","0","[2476.4000000003725]","1","2","","","14922","34","3","3","lose","go","0"
"pit-trial","153","1042735","0.0-39.0","battery-v0.2","","""event"",""trial"",""time""
""fullscreenenter"",""1"",""1391""
""blur"",""7"",""51677""
""focus"",""7"",""52860""
","""event"",""trial"",""time""
""blur"",""7"",""51677""
","""event"",""trial"",""time""
""focus"",""7"",""52860""
","""event"",""trial"",""time""
""fullscreenenter"",""1"",""1391""
","
","","","-1","","","22","14922","6142","m","elianto","#f73b6a7A","-1","-1","1","0","[]","0","2","","","14922","35","0","4","lose","no-go","0"
"pit-trial","154","1046949","0.0-40.0","battery-v0.2","","""event"",""trial"",""time""
""fullscreenenter"",""1"",""1391""
""blur"",""7"",""51677""
""focus"",""7"",""52860""
","""event"",""trial"",""time""
""blur"",""7"",""51677""
","""event"",""trial"",""time""
""focus"",""7"",""52860""
","""event"",""trial"",""time""
""fullscreenenter"",""1"",""1391""
","
","","","1358.4000000003725","","","22","14922","6142","r","elianto","#3366ff99"," "," ","1","+10","[2210]","1","2","","","14922","36","1","1","win","go","0"
"pit-trial","155","1051805","0.0-41.0","battery-v0.2","","""event"",""trial"",""time""
""fullscreenenter"",""1"",""1391""
""blur"",""7"",""51677""
""focus"",""7"",""52860""
","""event"",""trial"",""time""
""blur"",""7"",""51677""
","""event"",""trial"",""time""
""focus"",""7"",""52860""
","""event"",""trial"",""time""
""fullscreenenter"",""1"",""1391""
","
","","","-1","","","22","14922","6142","y","elianto","#f73b6a7A","-1","-1","1","-10","[2977.199999999255]","1","2","","","14922","37","2","4","lose","no-go","1"
"pit-trial","156","1056651","0.0-42.0","battery-v0.2","","""event"",""trial"",""time""
""fullscreenenter"",""1"",""1391""
""blur"",""7"",""51677""
""focus"",""7"",""52860""
","""event"",""trial"",""time""
""blur"",""7"",""51677""
","""event"",""trial"",""time""
""focus"",""7"",""52860""
","""event"",""trial"",""time""
""fullscreenenter"",""1"",""1391""
","
","","","1990.5999999996275","","","22","14922","6142","h","elianto","#f73b6a7A"," "," ","1","0","[2841.2000000011176]","1","2","","","14922","38","3","3","lose","go","0"
"pit-trial","157","1061507","0.0-43.0","battery-v0.2","","""event"",""trial"",""time""
""fullscreenenter"",""1"",""1391""
""blur"",""7"",""51677""
""focus"",""7"",""52860""
","""event"",""trial"",""time""
""blur"",""7"",""51677""
","""event"",""trial"",""time""
""focus"",""7"",""52860""
","""event"",""trial"",""time""
""fullscreenenter"",""1"",""1391""
","
","","","-1","","","22","14922","6142","m","elianto","#f73b6a7A","-1","-1","1","0","[]","0","2","","","14922","39","0","4","lose","no-go","0"
"pit-trial","158","1065071","0.0-44.0","battery-v0.2","","""event"",""trial"",""time""
""fullscreenenter"",""1"",""1391""
""blur"",""7"",""51677""
""focus"",""7"",""52860""
","""event"",""trial"",""time""
""blur"",""7"",""51677""
","""event"",""trial"",""time""
""focus"",""7"",""52860""
","""event"",""trial"",""time""
""fullscreenenter"",""1"",""1391""
","
","","","709.2000000011176","","","22","14922","6142","r","elianto","#3366ff99"," "," ","1","0","[1559.9000000003725]","1","2","","","14922","40","1","1","win","go","1"
"pit-trial","159","1069928","0.0-45.0","battery-v0.2","","""event"",""trial"",""time""
""fullscreenenter"",""1"",""1391""
""blur"",""7"",""51677""
""focus"",""7"",""52860""
","""event"",""trial"",""time""
""blur"",""7"",""51677""
","""event"",""trial"",""time""
""focus"",""7"",""52860""
","""event"",""trial"",""time""
""fullscreenenter"",""1"",""1391""
","
","","","-1","","","22","14922","6142","m","elianto","#f73b6a7A","-1","-1","1","0","[]","0","2","","","14922","41","0","4","lose","no-go","0"
"pit-trial","160","1073979","0.0-46.0","battery-v0.2","","""event"",""trial"",""time""
""fullscreenenter"",""1"",""1391""
""blur"",""7"",""51677""
""focus"",""7"",""52860""
","""event"",""trial"",""time""
""blur"",""7"",""51677""
","""event"",""trial"",""time""
""focus"",""7"",""52860""
","""event"",""trial"",""time""
""fullscreenenter"",""1"",""1391""
","
","","","1196","","","22","14922","6142","r","elianto","#3366ff99"," "," ","1","+10","[2046.800000000745]","1","2","","","14922","42","1","1","win","go","0"
"pit-trial","161","1078835","0.0-47.0","battery-v0.2","","""event"",""trial"",""time""
""fullscreenenter"",""1"",""1391""
""blur"",""7"",""51677""
""focus"",""7"",""52860""
","""event"",""trial"",""time""
""blur"",""7"",""51677""
","""event"",""trial"",""time""
""focus"",""7"",""52860""
","""event"",""trial"",""time""
""fullscreenenter"",""1"",""1391""
","
","","","-1","","","22","14922","6142","y","elianto","#f73b6a7A","-1","-1","1","0","[]","0","2","","","14922","43","2","4","lose","no-go","0"
"pit-trial","162","1083347","0.0-48.0","battery-v0.2","","""event"",""trial"",""time""
""fullscreenenter"",""1"",""1391""
""blur"",""7"",""51677""
""focus"",""7"",""52860""
","""event"",""trial"",""time""
""blur"",""7"",""51677""
","""event"",""trial"",""time""
""focus"",""7"",""52860""
","""event"",""trial"",""time""
""fullscreenenter"",""1"",""1391""
","
","","","1657.1000000014901","","","22","14922","6142","h","elianto","#f73b6a7A"," "," ","1","0","[2507.2000000011176]","1","2","","","14922","44","3","3","lose","go","0"
"pit-trial","163","1088205","0.0-49.0","battery-v0.2","","""event"",""trial"",""time""
""fullscreenenter"",""1"",""1391""
""blur"",""7"",""51677""
""focus"",""7"",""52860""
","""event"",""trial"",""time""
""blur"",""7"",""51677""
","""event"",""trial"",""time""
""focus"",""7"",""52860""
","""event"",""trial"",""time""
""fullscreenenter"",""1"",""1391""
","
","","","-1","","","22","14922","6142","m","elianto","#f73b6a7A","-1","-1","1","0","[]","0","2","","","14922","45","0","4","lose","no-go","0"
"pit-trial","164","1093062","0.0-50.0","battery-v0.2","","""event"",""trial"",""time""
""fullscreenenter"",""1"",""1391""
""blur"",""7"",""51677""
""focus"",""7"",""52860""
","""event"",""trial"",""time""
""blur"",""7"",""51677""
","""event"",""trial"",""time""
""focus"",""7"",""52860""
","""event"",""trial"",""time""
""fullscreenenter"",""1"",""1391""
","
","","","-1","","","22","14922","6142","y","elianto","#f73b6a7A","-1","-1","1","0","[]","0","2","","","14922","46","2","4","lose","no-go","0"
"pit-trial","165","1096547","0.0-51.0","battery-v0.2","","""event"",""trial"",""time""
""fullscreenenter"",""1"",""1391""
""blur"",""7"",""51677""
""focus"",""7"",""52860""
","""event"",""trial"",""time""
""blur"",""7"",""51677""
","""event"",""trial"",""time""
""focus"",""7"",""52860""
","""event"",""trial"",""time""
""fullscreenenter"",""1"",""1391""
","
","","","627.4000000003725","","","22","14922","6142","z","elianto","#3366ff99","-1"," ","0","+10","[1479.300000000745]","1","2","","","14922","47","4","2","win","no-go","1"
"pit-trial","166","1100865","0.0-52.0","battery-v0.2","","""event"",""trial"",""time""
""fullscreenenter"",""1"",""1391""
""blur"",""7"",""51677""
""focus"",""7"",""52860""
","""event"",""trial"",""time""
""blur"",""7"",""51677""
","""event"",""trial"",""time""
""focus"",""7"",""52860""
","""event"",""trial"",""time""
""fullscreenenter"",""1"",""1391""
","
","","","1460.7999999988824","","","22","14922","6142","h","elianto","#f73b6a7A"," "," ","1","0","[2311.300000000745,4022.9000000003725]","2","2","","","14922","48","3","3","lose","go","0"
"pit-trial","167","1105721","0.0-53.0","battery-v0.2","","""event"",""trial"",""time""
""fullscreenenter"",""1"",""1391""
""blur"",""7"",""51677""
""focus"",""7"",""52860""
","""event"",""trial"",""time""
""blur"",""7"",""51677""
","""event"",""trial"",""time""
""focus"",""7"",""52860""
","""event"",""trial"",""time""
""fullscreenenter"",""1"",""1391""
","
","","","-1","","","22","14922","6142","m","elianto","#f73b6a7A","-1","-1","1","-10","[]","0","2","","","14922","49","0","4","lose","no-go","1"
"pit-trial","168","1110579","0.0-54.0","battery-v0.2","","""event"",""trial"",""time""
""fullscreenenter"",""1"",""1391""
""blur"",""7"",""51677""
""focus"",""7"",""52860""
","""event"",""trial"",""time""
""blur"",""7"",""51677""
","""event"",""trial"",""time""
""focus"",""7"",""52860""
","""event"",""trial"",""time""
""fullscreenenter"",""1"",""1391""
","
","","","-1","","","22","14922","6142","h","elianto","#f73b6a7A"," ","-1","0","-10","[]","0","2","","","14922","50","3","3","lose","go","0"
"pit-trial","169","1114347","0.0-55.0","battery-v0.2","","""event"",""trial"",""time""
""fullscreenenter"",""1"",""1391""
""blur"",""7"",""51677""
""focus"",""7"",""52860""
","""event"",""trial"",""time""
""blur"",""7"",""51677""
","""event"",""trial"",""time""
""focus"",""7"",""52860""
","""event"",""trial"",""time""
""fullscreenenter"",""1"",""1391""
","
","","","913.5","","","22","14922","6142","r","elianto","#3366ff99"," "," ","1","+10","[1763.6000000014901]","1","2","","","14922","51","1","1","win","go","0"
"pit-trial","170","1119204","0.0-56.0","battery-v0.2","","""event"",""trial"",""time""
""fullscreenenter"",""1"",""1391""
""blur"",""7"",""51677""
""focus"",""7"",""52860""
","""event"",""trial"",""time""
""blur"",""7"",""51677""
","""event"",""trial"",""time""
""focus"",""7"",""52860""
","""event"",""trial"",""time""
""fullscreenenter"",""1"",""1391""
","
","","","-1","","","22","14922","6142","z","elianto","#3366ff99","-1","-1","1","+10","[2864.800000000745]","1","2","","","14922","52","4","2","win","no-go","0"
"pit-trial","171","1124060","0.0-57.0","battery-v0.2","","""event"",""trial"",""time""
""fullscreenenter"",""1"",""1391""
""blur"",""7"",""51677""
""focus"",""7"",""52860""
","""event"",""trial"",""time""
""blur"",""7"",""51677""
","""event"",""trial"",""time""
""focus"",""7"",""52860""
","""event"",""trial"",""time""
""fullscreenenter"",""1"",""1391""
","
","","","-1","","","22","14922","6142","m","elianto","#f73b6a7A","-1","-1","1","0","[]","0","2","","","14922","53","0","4","lose","no-go","0"
"pit-trial","172","1128183","0.0-58.0","battery-v0.2","","""event"",""trial"",""time""
""fullscreenenter"",""1"",""1391""
""blur"",""7"",""51677""
""focus"",""7"",""52860""
","""event"",""trial"",""time""
""blur"",""7"",""51677""
","""event"",""trial"",""time""
""focus"",""7"",""52860""
","""event"",""trial"",""time""
""fullscreenenter"",""1"",""1391""
","
","","","1268.5999999996275","","","22","14922","6142","r","elianto","#3366ff99"," "," ","1","+10","[2119.5999999996275]","1","2","","","14922","54","1","1","win","go","0"
"pit-trial","173","1133038","0.0-59.0","battery-v0.2","","""event"",""trial"",""time""
""fullscreenenter"",""1"",""1391""
""blur"",""7"",""51677""
""focus"",""7"",""52860""
","""event"",""trial"",""time""
""blur"",""7"",""51677""
","""event"",""trial"",""time""
""focus"",""7"",""52860""
","""event"",""trial"",""time""
""fullscreenenter"",""1"",""1391""
","
","","","-1","","","22","14922","6142","z","elianto","#3366ff99","-1","-1","1","+10","[]","0","2","","","14922","55","4","2","win","no-go","0"
"pit-trial","174","1137894","0.0-60.0","battery-v0.2","","""event"",""trial"",""time""
""fullscreenenter"",""1"",""1391""
""blur"",""7"",""51677""
""focus"",""7"",""52860""
","""event"",""trial"",""time""
""blur"",""7"",""51677""
","""event"",""trial"",""time""
""focus"",""7"",""52860""
","""event"",""trial"",""time""
""fullscreenenter"",""1"",""1391""
","
","","","-1","","","22","14922","6142","y","elianto","#f73b6a7A","-1","-1","1","-10","[3881.5999999996275]","1","2","","","14922","56","2","4","lose","no-go","1"
"pit-trial","175","1142305","0.0-61.0","battery-v0.2","","""event"",""trial"",""time""
""fullscreenenter"",""1"",""1391""
""blur"",""7"",""51677""
""focus"",""7"",""52860""
","""event"",""trial"",""time""
""blur"",""7"",""51677""
","""event"",""trial"",""time""
""focus"",""7"",""52860""
","""event"",""trial"",""time""
""fullscreenenter"",""1"",""1391""
","
","","","1554.9000000003725","","","22","14922","6142","h","elianto","#f73b6a7A"," "," ","1","0","[2406.4000000003725]","1","2","","","14922","57","3","3","lose","go","0"
"pit-trial","176","1147162","0.0-62.0","battery-v0.2","","""event"",""trial"",""time""
""fullscreenenter"",""1"",""1391""
""blur"",""7"",""51677""
""focus"",""7"",""52860""
","""event"",""trial"",""time""
""blur"",""7"",""51677""
","""event"",""trial"",""time""
""focus"",""7"",""52860""
","""event"",""trial"",""time""
""fullscreenenter"",""1"",""1391""
","
","","","-1","","","22","14922","6142","z","elianto","#3366ff99","-1","-1","1","+10","[]","0","2","","","14922","58","4","2","win","no-go","0"
"pit-trial","177","1151009","0.0-63.0","battery-v0.2","","""event"",""trial"",""time""
""fullscreenenter"",""1"",""1391""
""blur"",""7"",""51677""
""focus"",""7"",""52860""
","""event"",""trial"",""time""
""blur"",""7"",""51677""
","""event"",""trial"",""time""
""focus"",""7"",""52860""
","""event"",""trial"",""time""
""fullscreenenter"",""1"",""1391""
","
","","","991.1999999992549","","","22","14922","6142","r","elianto","#3366ff99"," "," ","1","+10","[1843]","1","2","","","14922","59","1","1","win","go","0"
"pit-trial","178","1155865","0.0-64.0","battery-v0.2","","""event"",""trial"",""time""
""fullscreenenter"",""1"",""1391""
""blur"",""7"",""51677""
""focus"",""7"",""52860""
","""event"",""trial"",""time""
""blur"",""7"",""51677""
","""event"",""trial"",""time""
""focus"",""7"",""52860""
","""event"",""trial"",""time""
""fullscreenenter"",""1"",""1391""
","
","","","-1","","","22","14922","6142","m","elianto","#f73b6a7A","-1","-1","1","0","[]","0","2","","","14922","60","0","4","lose","no-go","0"
"pit-trial","179","1160719","0.0-65.0","battery-v0.2","","""event"",""trial"",""time""
""fullscreenenter"",""1"",""1391""
""blur"",""7"",""51677""
""focus"",""7"",""52860""
","""event"",""trial"",""time""
""blur"",""7"",""51677""
","""event"",""trial"",""time""
""focus"",""7"",""52860""
","""event"",""trial"",""time""
""fullscreenenter"",""1"",""1391""
","
","","","-1","","","22","14922","6142","y","elianto","#f73b6a7A","-1","-1","1","0","[]","0","2","","","14922","61","2","4","lose","no-go","0"
"pit-trial","180","1165574","0.0-66.0","battery-v0.2","","""event"",""trial"",""time""
""fullscreenenter"",""1"",""1391""
""blur"",""7"",""51677""
""focus"",""7"",""52860""
","""event"",""trial"",""time""
""blur"",""7"",""51677""
","""event"",""trial"",""time""
""focus"",""7"",""52860""
","""event"",""trial"",""time""
""fullscreenenter"",""1"",""1391""
","
","","","-1","","","22","14922","6142","z","elianto","#3366ff99","-1","-1","1","+10","[]","0","2","","","14922","62","4","2","win","no-go","0"
"pit-trial","181","1170201","0.0-67.0","battery-v0.2","","""event"",""trial"",""time""
""fullscreenenter"",""1"",""1391""
""blur"",""7"",""51677""
""focus"",""7"",""52860""
","""event"",""trial"",""time""
""blur"",""7"",""51677""
","""event"",""trial"",""time""
""focus"",""7"",""52860""
","""event"",""trial"",""time""
""fullscreenenter"",""1"",""1391""
","
","","","1769.2000000011176","","","22","14922","6142","r","elianto","#3366ff99"," "," ","1","+10","[2621.4000000003725]","1","2","","","14922","63","1","1","win","go","0"
"pit-trial","182","1174541","0.0-68.0","battery-v0.2","","""event"",""trial"",""time""
""fullscreenenter"",""1"",""1391""
""blur"",""7"",""51677""
""focus"",""7"",""52860""
","""event"",""trial"",""time""
""blur"",""7"",""51677""
","""event"",""trial"",""time""
""focus"",""7"",""52860""
","""event"",""trial"",""time""
""fullscreenenter"",""1"",""1391""
","
","","","1484.5999999996275","","","22","14922","6142","h","elianto","#f73b6a7A"," "," ","1","0","[2335.89999999851]","1","2","","","14922","64","3","3","lose","go","0"
"pit-trial","183","1179396","0.0-69.0","battery-v0.2","","""event"",""trial"",""time""
""fullscreenenter"",""1"",""1391""
""blur"",""7"",""51677""
""focus"",""7"",""52860""
","""event"",""trial"",""time""
""blur"",""7"",""51677""
","""event"",""trial"",""time""
""focus"",""7"",""52860""
","""event"",""trial"",""time""
""fullscreenenter"",""1"",""1391""
","
","","","-1","","","22","14922","6142","y","elianto","#f73b6a7A","-1","-1","1","0","[]","0","2","","","14922","65","2","4","lose","no-go","0"
"pit-trial","184","1183013","0.0-70.0","battery-v0.2","","""event"",""trial"",""time""
""fullscreenenter"",""1"",""1391""
""blur"",""7"",""51677""
""focus"",""7"",""52860""
","""event"",""trial"",""time""
""blur"",""7"",""51677""
","""event"",""trial"",""time""
""focus"",""7"",""52860""
","""event"",""trial"",""time""
""fullscreenenter"",""1"",""1391""
","
","","","761.5999999996275","","","22","14922","6142","r","elianto","#3366ff99"," "," ","1","+10","[1612.0999999996275]","1","2","","","14922","66","1","1","win","go","0"
"pit-trial","185","1187612","0.0-71.0","battery-v0.2","","""event"",""trial"",""time""
""fullscreenenter"",""1"",""1391""
""blur"",""7"",""51677""
""focus"",""7"",""52860""
","""event"",""trial"",""time""
""blur"",""7"",""51677""
","""event"",""trial"",""time""
""focus"",""7"",""52860""
","""event"",""trial"",""time""
""fullscreenenter"",""1"",""1391""
","
","","","1743.5999999996275","","","22","14922","6142","h","elianto","#f73b6a7A"," "," ","1","-10","[2594.7999999988824]","1","2","","","14922","67","3","3","lose","go","1"
"pit-trial","186","1191347","0.0-72.0","battery-v0.2","","""event"",""trial"",""time""
""fullscreenenter"",""1"",""1391""
""blur"",""7"",""51677""
""focus"",""7"",""52860""
","""event"",""trial"",""time""
""blur"",""7"",""51677""
","""event"",""trial"",""time""
""focus"",""7"",""52860""
","""event"",""trial"",""time""
""fullscreenenter"",""1"",""1391""
","
