"trial_type","trial_index","time_elapsed","internal_node_id","task_version","subject_id","interactions","blur_events","focus_events","fullscreenenter_events","fullscreenexit_events","success","view_history","rt","responses","num_errors","age","subject","participantId","rune","rune_set","hex","correct","choice","accuracy","outcome","keys","total_keys","block","practice","value","sub","trial","stimulus","robot","valence","action","sham"
"pavlovia","0","8","0.0-0.0","battery-v0.2","","""event"",""trial"",""time""
""fullscreenenter"",""1"",""3752""
","
","
","""event"",""trial"",""time""
""fullscreenenter"",""1"",""3752""
","
","","","","","","","","","","","","","","","","","","","","","","","","","","",""
"fullscreen","1","4715","0.0-1.0","battery-v0.2","","""event"",""trial"",""time""
""fullscreenenter"",""1"",""3752""
","
","
","""event"",""trial"",""time""
""fullscreenenter"",""1"",""3752""
","
","true","","","","","","","","","","","","","","","","","","","","","","","","","",""
"pit-instructions","2","32246","0.0-2.0-0.0","battery-v0.2","","""event"",""trial"",""time""
""fullscreenenter"",""1"",""3752""
","
","
","""event"",""trial"",""time""
""fullscreenenter"",""1"",""3752""
","
","","[{""page_index"":0,""viewing_time"":27525}]","27526","","","","","","","","","","","","","","","","","","","","","","","",""
"pit-comprehension","3","37451","0.0-2.0-1.0-0.0","battery-v0.2","","""event"",""trial"",""time""
""fullscreenenter"",""1"",""3752""
","
","
","""event"",""trial"",""time""
""fullscreenenter"",""1"",""3752""
","
","","","4805","[""shark""]","0","13","19773","7285","","","","","","","","","","","","","","","","","","",""
"pit-instructions","4","38428","0.0-2.0-1.0-1.0","battery-v0.2","","""event"",""trial"",""time""
""fullscreenenter"",""1"",""3752""
","
","
","""event"",""trial"",""time""
""fullscreenenter"",""1"",""3752""
","
","","[{""page_index"":0,""viewing_time"":969}]","969","","","","","","","","","","","","","","","","","","","","","","","",""
"pit-comprehension","5","41131","0.0-2.0-2.0-0.0","battery-v0.2","","""event"",""trial"",""time""
""fullscreenenter"",""1"",""3752""
","
","
","""event"",""trial"",""time""
""fullscreenenter"",""1"",""3752""
","
","","","2699","[""tiger""]","0","13","19773","7285","","","","","","","","","","","","","","","","","","",""
"pit-instructions","6","42246","0.0-2.0-2.0-1.0","battery-v0.2","","""event"",""trial"",""time""
""fullscreenenter"",""1"",""3752""
","
","
","""event"",""trial"",""time""
""fullscreenenter"",""1"",""3752""
","
","","[{""page_index"":0,""viewing_time"":1110}]","1110","","","","","","","","","","","","","","","","","","","","","","","",""
"pit-instructions","7","163260","0.0-2.0-3.0","battery-v0.2","","""event"",""trial"",""time""
""fullscreenenter"",""1"",""3752""
","
","
","""event"",""trial"",""time""
""fullscreenenter"",""1"",""3752""
","
","","[{""page_index"":0,""viewing_time"":8678},{""page_index"":1,""viewing_time"":7101},{""page_index"":2,""viewing_time"":6698},{""page_index"":3,""viewing_time"":6419},{""page_index"":4,""viewing_time"":6565.000000000015},{""page_index"":5,""viewing_time"":6631.999999999985},{""page_index"":6,""viewing_time"":8718},{""page_index"":7,""viewing_time"":7250},{""page_index"":8,""viewing_time"":6551},{""page_index"":9,""viewing_time"":24717},{""page_index"":10,""viewing_time"":8650},{""page_index"":11,""viewing_time"":7485},{""page_index"":12,""viewing_time"":8366},{""page_index"":13,""viewing_time"":7183.000000000029}]","121014","","","","","","","","","","","","","","","","","","","","","","","",""
"pit-trial","8","167057","0.0-2.0-4.0-0.0","battery-v0.2","","""event"",""trial"",""time""
""fullscreenenter"",""1"",""3752""
","
","
","""event"",""trial"",""time""
""fullscreenenter"",""1"",""3752""
","
","","","938","","","13","19773","7285","&#9784;","elianto","#FFFFF080"," "," ","1","&#10004","[1789]","1","0","0","","","","","","","",""
"pit-trial","9","170585","0.0-2.0-4.1-0.1","battery-v0.2","","""event"",""trial"",""time""
""fullscreenenter"",""1"",""3752""
","
","
","""event"",""trial"",""time""
""fullscreenenter"",""1"",""3752""
","
","","","671","","","13","19773","7285","&#9784;","elianto","#FFFFF080"," "," ","1","&#10004","[1520.999999999971]","1","0","0","","","","","","","",""
"pit-trial","10","173946","0.0-2.0-4.2-0.2","battery-v0.2","","""event"",""trial"",""time""
""fullscreenenter"",""1"",""3752""
","
","
","""event"",""trial"",""time""
""fullscreenenter"",""1"",""3752""
","
","","","503.0000000000291","","","13","19773","7285","&#9784;","elianto","#FFFFF080"," "," ","1","&#10004","[1354.000000000029]","1","0","0","","","","","","","",""
"pit-trial","11","177299","0.0-2.0-4.3-0.3","battery-v0.2","","""event"",""trial"",""time""
""fullscreenenter"",""1"",""3752""
","
","
","""event"",""trial"",""time""
""fullscreenenter"",""1"",""3752""
","
","","","495","","","13","19773","7285","&#9784;","elianto","#FFFFF080"," "," ","1","&#10004","[1346]","1","0","0","","","","","","","",""
"pit-trial","12","180581","0.0-2.0-4.4-0.4","battery-v0.2","","""event"",""trial"",""time""
""fullscreenenter"",""1"",""3752""
","
","
","""event"",""trial"",""time""
""fullscreenenter"",""1"",""3752""
","
","","","425","","","13","19773","7285","&#9784;","elianto","#FFFFF080"," "," ","1","&#10004","[1275]","1","0","0","","","","","","","",""
"pit-instructions","13","202293","0.0-2.0-5.0","battery-v0.2","","""event"",""trial"",""time""
""fullscreenenter"",""1"",""3752""
","
","
","""event"",""trial"",""time""
""fullscreenenter"",""1"",""3752""
","
","","[{""page_index"":0,""viewing_time"":4855},{""page_index"":1,""viewing_time"":5550},{""page_index"":2,""viewing_time"":5534.000000000029},{""page_index"":3,""viewing_time"":5766.999999999971}]","21707.00000000003","","","","","","","","","","","","","","","","","","","","","","","",""
"pit-trial","14","207149","0.0-2.0-6.0-0.0","battery-v0.2","","""event"",""trial"",""time""
""fullscreenenter"",""1"",""3752""
","
","
","""event"",""trial"",""time""
""fullscreenenter"",""1"",""3752""
","
","","","-1","","","13","19773","7285","&#9854;","elianto","#FFFFF080","-1","-1","1","&#10004","[]","0","0","1","","","","","","","",""
"pit-trial","15","212005","0.0-2.0-6.1-0.1","battery-v0.2","","""event"",""trial"",""time""
""fullscreenenter"",""1"",""3752""
","
","
","""event"",""trial"",""time""
""fullscreenenter"",""1"",""3752""
","
","","","-1","","","13","19773","7285","&#9854;","elianto","#FFFFF080","-1","-1","1","&#10004","[]","0","0","1","","","","","","","",""
"pit-trial","16","216861","0.0-2.0-6.2-0.2","battery-v0.2","","""event"",""trial"",""time""
""fullscreenenter"",""1"",""3752""
","
","
","""event"",""trial"",""time""
""fullscreenenter"",""1"",""3752""
","
","","","-1","","","13","19773","7285","&#9854;","elianto","#FFFFF080","-1","-1","1","&#10004","[]","0","0","1","","","","","","","",""
"pit-trial","17","221719","0.0-2.0-6.3-0.3","battery-v0.2","","""event"",""trial"",""time""
""fullscreenenter"",""1"",""3752""
","
","
","""event"",""trial"",""time""
""fullscreenenter"",""1"",""3752""
","
","","","-1","","","13","19773","7285","&#9854;","elianto","#FFFFF080","-1","-1","1","&#10004","[2878]","1","0","1","","","","","","","",""
"pit-trial","18","226579","0.0-2.0-6.4-0.4","battery-v0.2","","""event"",""trial"",""time""
""fullscreenenter"",""1"",""3752""
","
","
","""event"",""trial"",""time""
""fullscreenenter"",""1"",""3752""
","
","","","-1","","","13","19773","7285","&#9854;","elianto","#FFFFF080","-1","-1","1","&#10004","[]","0","0","1","","","","","","","",""
"pit-instructions","19","352943","0.0-2.0-7.0","battery-v0.2","","""event"",""trial"",""time""
""fullscreenenter"",""1"",""3752""
","
","
","""event"",""trial"",""time""
""fullscreenenter"",""1"",""3752""
","
","","[{""page_index"":0,""viewing_time"":5823},{""page_index"":1,""viewing_time"":6686},{""page_index"":2,""viewing_time"":7348},{""page_index"":3,""viewing_time"":6950},{""page_index"":4,""viewing_time"":6201.000000000029},{""page_index"":5,""viewing_time"":6116.999999999971},{""page_index"":6,""viewing_time"":5719},{""page_index"":7,""viewing_time"":8465},{""page_index"":8,""viewing_time"":7568},{""page_index"":9,""viewing_time"":6382},{""page_index"":10,""viewing_time"":7066},{""page_index"":11,""viewing_time"":5484},{""page_index"":12,""viewing_time"":8251},{""page_index"":13,""viewing_time"":7551},{""page_index"":14,""viewing_time"":8034.000000000058},{""page_index"":15,""viewing_time"":7149},{""page_index"":16,""viewing_time"":6615.999999999942},{""page_index"":17,""viewing_time"":8951}]","126362","","","","","","","","","","","","","","","","","","","","","","","",""
"pit-trial","20","356364","0.0-2.0-8.0-0.0","battery-v0.2","","""event"",""trial"",""time""
""fullscreenenter"",""1"",""3752""
","
","
","""event"",""trial"",""time""
""fullscreenenter"",""1"",""3752""
","
","","","563","","","13","19773","7285","&#9776;","elianto","#3366ff99"," "," ","1","+10","[1414]","1","0","1","","","","","","","",""
"pit-trial","21","359988","0.0-2.0-8.0-1.0","battery-v0.2","","""event"",""trial"",""time""
""fullscreenenter"",""1"",""3752""
","
","
","""event"",""trial"",""time""
""fullscreenenter"",""1"",""3752""
","
","","","766","","","13","19773","7285","&#9776;","elianto","#3366ff99"," "," ","1","+10","[1617]","1","0","1","","","","","","","",""
"pit-trial","22","363281","0.0-2.0-8.0-2.0","battery-v0.2","","""event"",""trial"",""time""
""fullscreenenter"",""1"",""3752""
","
","
","""event"",""trial"",""time""
""fullscreenenter"",""1"",""3752""
","
","","","435.0000000000582","","","13","19773","7285","&#9776;","elianto","#3366ff99"," "," ","1","+10","[1286.0000000000582]","1","0","1","","","","","","","",""
"pit-trial","23","366676","0.0-2.0-8.0-3.0","battery-v0.2","","""event"",""trial"",""time""
""fullscreenenter"",""1"",""3752""
","
","
","""event"",""trial"",""time""
""fullscreenenter"",""1"",""3752""
","
","","","536","","","13","19773","7285","&#9776;","elianto","#3366ff99"," "," ","1","0","[1387.9999999999418]","1","0","1","","","","","","","",""
"pit-trial","24","370175","0.0-2.0-8.0-4.0","battery-v0.2","","""event"",""trial"",""time""
""fullscreenenter"",""1"",""3752""
","
","
","""event"",""trial"",""time""
""fullscreenenter"",""1"",""3752""
","
","","","642","","","13","19773","7285","&#9776;","elianto","#3366ff99"," "," ","1","+10","[1492.0000000000582]","1","0","1","","","","","","","",""
"pit-trial","25","373816","0.0-2.0-8.1-0.1","battery-v0.2","","""event"",""trial"",""time""
""fullscreenenter"",""1"",""3752""
","
","
","""event"",""trial"",""time""
""fullscreenenter"",""1"",""3752""
","
","","","782","","","13","19773","7285","&#9776;","elianto","#3366ff99"," "," ","1","+10","[1633]","1","0","1","","","","","","","",""
"pit-trial","26","377134","0.0-2.0-8.1-1.1","battery-v0.2","","""event"",""trial"",""time""
""fullscreenenter"",""1"",""3752""
","
","
","""event"",""trial"",""time""
""fullscreenenter"",""1"",""3752""
","
","","","459.9999999999418","","","13","19773","7285","&#9776;","elianto","#3366ff99"," "," ","1","+10","[1312]","1","0","1","","","","","","","",""
"pit-trial","27","380365","0.0-2.0-8.1-2.1","battery-v0.2","","""event"",""trial"",""time""
""fullscreenenter"",""1"",""3752""
","
","
","""event"",""trial"",""time""
""fullscreenenter"",""1"",""3752""
","
","","","373","","","13","19773","7285","&#9776;","elianto","#3366ff99"," "," ","1","+10","[1224]","1","0","1","","","","","","","",""
"pit-trial","28","383617","0.0-2.0-8.1-3.1","battery-v0.2","","""event"",""trial"",""time""
""fullscreenenter"",""1"",""3752""
","
","
","""event"",""trial"",""time""
""fullscreenenter"",""1"",""3752""
","
","","","395","","","13","19773","7285","&#9776;","elianto","#3366ff99"," "," ","1","0","[1245]","1","0","1","","","","","","","",""
"pit-trial","29","387018","0.0-2.0-8.1-4.1","battery-v0.2","","""event"",""trial"",""time""
""fullscreenenter"",""1"",""3752""
","
","
","""event"",""trial"",""time""
""fullscreenenter"",""1"",""3752""
","
","","","544.0000000000582","","","13","19773","7285","&#9776;","elianto","#3366ff99"," "," ","1","+10","[1395.0000000000582]","1","0","1","","","","","","","",""
"pit-trial","30","390051","0.0-2.0-8.2-0.2","battery-v0.2","","""event"",""trial"",""time""
""fullscreenenter"",""1"",""3752""
","
","
","""event"",""trial"",""time""
""fullscreenenter"",""1"",""3752""
","
","","","174.9999999999418","","","13","19773","7285","&#9776;","elianto","#3366ff99"," "," ","1","+10","[1025.9999999999418]","1","0","1","","","","","","","",""
"pit-trial","31","393084","0.0-2.0-8.2-1.2","battery-v0.2","","""event"",""trial"",""time""
""fullscreenenter"",""1"",""3752""
","
","
","""event"",""trial"",""time""
""fullscreenenter"",""1"",""3752""
","
","","","177","","","13","19773","7285","&#9776;","elianto","#3366ff99"," "," ","1","+10","[1026]","1","0","1","","","","","","","",""
"pit-trial","32","396030","0.0-2.0-8.2-2.2","battery-v0.2","","""event"",""trial"",""time""
""fullscreenenter"",""1"",""3752""
","
","
","""event"",""trial"",""time""
""fullscreenenter"",""1"",""3752""
","
","","","89","","","13","19773","7285","&#9776;","elianto","#3366ff99"," "," ","1","+10","[940]","1","0","1","","","","","","","",""
"pit-trial","33","398944","0.0-2.0-8.2-3.2","battery-v0.2","","""event"",""trial"",""time""
""fullscreenenter"",""1"",""3752""
","
","
","""event"",""trial"",""time""
""fullscreenenter"",""1"",""3752""
","
","","","55.99999999994179","","","13","19773","7285","&#9776;","elianto","#3366ff99"," "," ","1","0","[906.9999999999418]","1","0","1","","","","","","","",""
"pit-trial","34","401981","0.0-2.0-8.2-4.2","battery-v0.2","","""event"",""trial"",""time""
""fullscreenenter"",""1"",""3752""
","
","
","""event"",""trial"",""time""
""fullscreenenter"",""1"",""3752""
","
","","","179","","","13","19773","7285","&#9776;","elianto","#3366ff99"," "," ","1","+10","[1030]","1","0","1","","","","","","","",""
"call-function","35","401986","0.0-2.0-9.0","battery-v0.2","","""event"",""trial"",""time""
""fullscreenenter"",""1"",""3752""
","
","
","""event"",""trial"",""time""
""fullscreenenter"",""1"",""3752""
","
","","","","","","","","","","","","","","","","","","","","","","","","","","",""
"pit-instructions","36","441710","0.0-2.0-10.0","battery-v0.2","","""event"",""trial"",""time""
""fullscreenenter"",""1"",""3752""
","
","
","""event"",""trial"",""time""
""fullscreenenter"",""1"",""3752""
","
","","[{""page_index"":0,""viewing_time"":5622},{""page_index"":1,""viewing_time"":7318},{""page_index"":2,""viewing_time"":10350.000000000058},{""page_index"":3,""viewing_time"":9133.999999999942},{""page_index"":4,""viewing_time"":7300}]","39725.00000000006","","","","","","","","","","","","","","","","","","","","","","","",""
"pit-trial","37","445017","0.0-2.0-11.0-0.0","battery-v0.2","","""event"",""trial"",""time""
""fullscreenenter"",""1"",""3752""
","
","
","""event"",""trial"",""time""
""fullscreenenter"",""1"",""3752""
","
","","","451","","","13","19773","7285","&#9761;","elianto","#3366ff99","-1"," ","0","0","[1301]","1","0","2","","","","","","","",""
"pit-trial","38","448372","0.0-2.0-11.0-1.0","battery-v0.2","","""event"",""trial"",""time""
""fullscreenenter"",""1"",""3752""
","
","
","""event"",""trial"",""time""
""fullscreenenter"",""1"",""3752""
","
","","","498","","","13","19773","7285","&#9761;","elianto","#3366ff99","-1"," ","0","0","[1349]","1","0","2","","","","","","","",""
"pit-trial","39","453230","0.0-2.0-11.0-2.0","battery-v0.2","","""event"",""trial"",""time""
""fullscreenenter"",""1"",""3752""
","
","
","""event"",""trial"",""time""
""fullscreenenter"",""1"",""3752""
","
","","","-1","","","13","19773","7285","&#9761;","elianto","#3366ff99","-1","-1","1","+10","[]","0","0","2","","","","","","","",""
"pit-trial","40","458088","0.0-2.0-11.0-3.0","battery-v0.2","","""event"",""trial"",""time""
""fullscreenenter"",""1"",""3752""
","
","
","""event"",""trial"",""time""
""fullscreenenter"",""1"",""3752""
","
","","","-1","","","13","19773","7285","&#9761;","elianto","#3366ff99","-1","-1","1","0","[]","0","0","2","","","","","","","",""
"pit-trial","41","462946","0.0-2.0-11.0-4.0","battery-v0.2","","""event"",""trial"",""time""
""fullscreenenter"",""1"",""3752""
","
","
","""event"",""trial"",""time""
""fullscreenenter"",""1"",""3752""
","
","","","-1","","","13","19773","7285","&#9761;","elianto","#3366ff99","-1","-1","1","+10","[]","0","0","2","","","","","","","",""
"pit-trial","42","466372","0.0-2.0-11.1-0.1","battery-v0.2","","""event"",""trial"",""time""
""fullscreenenter"",""1"",""3752""
","
","
","""event"",""trial"",""time""
""fullscreenenter"",""1"",""3752""
","
","","","568","","","13","19773","7285","&#9761;","elianto","#3366ff99","-1"," ","0","0","[1418]","1","0","2","","","","","","","",""
"pit-trial","43","469530","0.0-2.0-11.1-1.1","battery-v0.2","","""event"",""trial"",""time""
""fullscreenenter"",""1"",""3752""
","
","
","""event"",""trial"",""time""
""fullscreenenter"",""1"",""3752""
","
","","","302","","","13","19773","7285","&#9761;","elianto","#3366ff99","-1"," ","0","0","[1152]","1","0","2","","","","","","","",""
"pit-trial","44","473633","0.0-2.0-11.1-2.1","battery-v0.2","","""event"",""trial"",""time""
""fullscreenenter"",""1"",""3752""
","
","
","""event"",""trial"",""time""
""fullscreenenter"",""1"",""3752""
","
","","","1245","","","13","19773","7285","&#9761;","elianto","#3366ff99","-1"," ","0","0","[2096]","1","0","2","","","","","","","",""
"pit-trial","45","478490","0.0-2.0-11.1-3.1","battery-v0.2","","""event"",""trial"",""time""
""fullscreenenter"",""1"",""3752""
","
","
","""event"",""trial"",""time""
""fullscreenenter"",""1"",""3752""
","
","","","-1","","","13","19773","7285","&#9761;","elianto","#3366ff99","-1","-1","1","0","[]","0","0","2","","","","","","","",""
"pit-trial","46","482489","0.0-2.0-11.1-4.1","battery-v0.2","","""event"",""trial"",""time""
""fullscreenenter"",""1"",""3752""
","
","
","""event"",""trial"",""time""
""fullscreenenter"",""1"",""3752""
","
","","","1142","","","13","19773","7285","&#9761;","elianto","#3366ff99","-1"," ","0","0","[1993]","1","0","2","","","","","","","",""
"pit-trial","47","487348","0.0-2.0-11.2-0.2","battery-v0.2","","""event"",""trial"",""time""
""fullscreenenter"",""1"",""3752""
","
","
","""event"",""trial"",""time""
""fullscreenenter"",""1"",""3752""
","
","","","-1","","","13","19773","7285","&#9761;","elianto","#3366ff99","-1","-1","1","+10","[]","0","0","2","","","","","","","",""
"pit-trial","48","490760","0.0-2.0-11.2-1.2","battery-v0.2","","""event"",""trial"",""time""
""fullscreenenter"",""1"",""3752""
","
","
","""event"",""trial"",""time""
""fullscreenenter"",""1"",""3752""
","
","","","555.0000000000582","","","13","19773","7285","&#9761;","elianto","#3366ff99","-1"," ","0","0","[1405.0000000000582]","1","0","2","","","","","","","",""
"pit-trial","49","495618","0.0-2.0-11.2-2.2","battery-v0.2","","""event"",""trial"",""time""
""fullscreenenter"",""1"",""3752""
","
","
","""event"",""trial"",""time""
""fullscreenenter"",""1"",""3752""
","
","","","-1","","","13","19773","7285","&#9761;","elianto","#3366ff99","-1","-1","1","+10","[]","0","0","2","","","","","","","",""
"pit-trial","50","500476","0.0-2.0-11.2-3.2","battery-v0.2","","""event"",""trial"",""time""
""fullscreenenter"",""1"",""3752""
","
","
","""event"",""trial"",""time""
""fullscreenenter"",""1"",""3752""
","
","","","-1","","","13","19773","7285","&#9761;","elianto","#3366ff99","-1","-1","1","0","[]","0","0","2","","","","","","","",""
"pit-trial","51","503696","0.0-2.0-11.2-4.2","battery-v0.2","","""event"",""trial"",""time""
""fullscreenenter"",""1"",""3752""
","
","
","""event"",""trial"",""time""
""fullscreenenter"",""1"",""3752""
","
","","","362","","","13","19773","7285","&#9761;","elianto","#3366ff99","-1"," ","0","0","[1213]","1","0","2","","","","","","","",""
"pit-trial","52","508553","0.0-2.0-11.3-0.3","battery-v0.2","","""event"",""trial"",""time""
""fullscreenenter"",""1"",""3752""
","
","
","""event"",""trial"",""time""
""fullscreenenter"",""1"",""3752""
","
","","","-1","","","13","19773","7285","&#9761;","elianto","#3366ff99","-1","-1","1","+10","[]","0","0","2","","","","","","","",""
"pit-trial","53","513411","0.0-2.0-11.3-1.3","battery-v0.2","","""event"",""trial"",""time""
""fullscreenenter"",""1"",""3752""
","
","
","""event"",""trial"",""time""
""fullscreenenter"",""1"",""3752""
","
","","","-1","","","13","19773","7285","&#9761;","elianto","#3366ff99","-1","-1","1","+10","[]","0","0","2","","","","","","","",""
"pit-trial","54","516711","0.0-2.0-11.3-2.3","battery-v0.2","","""event"",""trial"",""time""
""fullscreenenter"",""1"",""3752""
","
","
","""event"",""trial"",""time""
""fullscreenenter"",""1"",""3752""
","
","","","442","","","13","19773","7285","&#9761;","elianto","#3366ff99","-1"," ","0","0","[1293]","1","0","2","","","","","","","",""
"pit-trial","55","519882","0.0-2.0-11.3-3.3","battery-v0.2","","""event"",""trial"",""time""
""fullscreenenter"",""1"",""3752""
","
","
","""event"",""trial"",""time""
""fullscreenenter"",""1"",""3752""
","
","","","314.9999999999418","","","13","19773","7285","&#9761;","elianto","#3366ff99","-1"," ","0","+10","[1164.9999999999418]","1","0","2","","","","","","","",""
"pit-trial","56","523064","0.0-2.0-11.3-4.3","battery-v0.2","","""event"",""trial"",""time""
""fullscreenenter"",""1"",""3752""
","
","
","""event"",""trial"",""time""
""fullscreenenter"",""1"",""3752""
","
","","","323.9999999999418","","","13","19773","7285","&#9761;","elianto","#3366ff99","-1"," ","0","0","[1174.9999999999418]","1","0","2","","","","","","","",""
"call-function","57","523068","0.0-2.0-12.0","battery-v0.2","","""event"",""trial"",""time""
""fullscreenenter"",""1"",""3752""
","
","
","""event"",""trial"",""time""
""fullscreenenter"",""1"",""3752""
","
","","","","","","","","","","","","","","","","","","","","","","","","","","",""
"pit-instructions","58","557209","0.0-2.0-13.0","battery-v0.2","","""event"",""trial"",""time""
""fullscreenenter"",""1"",""3752""
","
","
","""event"",""trial"",""time""
""fullscreenenter"",""1"",""3752""
","
","","[{""page_index"":0,""viewing_time"":5406},{""page_index"":1,""viewing_time"":6816.000000000116},{""page_index"":2,""viewing_time"":5233.999999999884},{""page_index"":3,""viewing_time"":11851},{""page_index"":4,""viewing_time"":4834}]","34142","","","","","","","","","","","","","","","","","","","","","","","",""
"pit-trial","59","562068","0.0-2.0-14.0-0.0","battery-v0.2","","""event"",""trial"",""time""
""fullscreenenter"",""1"",""3752""
","
","
","""event"",""trial"",""time""
""fullscreenenter"",""1"",""3752""
","
","","","-1","","","13","19773","7285","&#9826;","elianto","#f73b6a7A","-1","-1","1","0","[2942]","1","0","3","","","","","","","",""
"pit-trial","60","566925","0.0-2.0-14.0-1.0","battery-v0.2","","""event"",""trial"",""time""
""fullscreenenter"",""1"",""3752""
","
","
","""event"",""trial"",""time""
""fullscreenenter"",""1"",""3752""
","
","","","-1","","","13","19773","7285","&#9826;","elianto","#f73b6a7A","-1","-1","1","0","[]","0","0","3","","","","","","","",""
"pit-trial","61","571783","0.0-2.0-14.0-2.0","battery-v0.2","","""event"",""trial"",""time""
""fullscreenenter"",""1"",""3752""
","
","
","""event"",""trial"",""time""
""fullscreenenter"",""1"",""3752""
","
","","","-1","","","13","19773","7285","&#9826;","elianto","#f73b6a7A","-1","-1","1","0","[]","0","0","3","","","","","","","",""
"pit-trial","62","574918","0.0-2.0-14.0-3.0","battery-v0.2","","""event"",""trial"",""time""
""fullscreenenter"",""1"",""3752""
","
","
","""event"",""trial"",""time""
""fullscreenenter"",""1"",""3752""
","
","","","277","","","13","19773","7285","&#9826;","elianto","#f73b6a7A","-1"," ","0","0","[1127]","1","0","3","","","","","","","",""
"pit-trial","63","579775","0.0-2.0-14.0-4.0","battery-v0.2","","""event"",""trial"",""time""
""fullscreenenter"",""1"",""3752""
","
","
","""event"",""trial"",""time""
""fullscreenenter"",""1"",""3752""
","
","","","-1","","","13","19773","7285","&#9826;","elianto","#f73b6a7A","-1","-1","1","0","[]","0","0","3","","","","","","","",""
"pit-trial","64","584631","0.0-2.0-14.1-0.1","battery-v0.2","","""event"",""trial"",""time""
""fullscreenenter"",""1"",""3752""
","
","
","""event"",""trial"",""time""
""fullscreenenter"",""1"",""3752""
","
","","","-1","","","13","19773","7285","&#9826;","elianto","#f73b6a7A","-1","-1","1","0","[]","0","0","3","","","","","","","",""
"pit-trial","65","589489","0.0-2.0-14.1-1.1","battery-v0.2","","""event"",""trial"",""time""
""fullscreenenter"",""1"",""3752""
","
","
","""event"",""trial"",""time""
""fullscreenenter"",""1"",""3752""
","
","","","-1","","","13","19773","7285","&#9826;","elianto","#f73b6a7A","-1","-1","1","0","[]","0","0","3","","","","","","","",""
"pit-trial","66","594347","0.0-2.0-14.1-2.1","battery-v0.2","","""event"",""trial"",""time""
""fullscreenenter"",""1"",""3752""
","
","
","""event"",""trial"",""time""
""fullscreenenter"",""1"",""3752""
","
","","","-1","","","13","19773","7285","&#9826;","elianto","#f73b6a7A","-1","-1","1","0","[]","0","0","3","","","","","","","",""
"pit-trial","67","599204","0.0-2.0-14.1-3.1","battery-v0.2","","""event"",""trial"",""time""
""fullscreenenter"",""1"",""3752""
","
","
","""event"",""trial"",""time""
""fullscreenenter"",""1"",""3752""
","
","","","-1","","","13","19773","7285","&#9826;","elianto","#f73b6a7A","-1","-1","1","-10","[]","0","0","3","","","","","","","",""
"pit-trial","68","604061","0.0-2.0-14.1-4.1","battery-v0.2","","""event"",""trial"",""time""
""fullscreenenter"",""1"",""3752""
","
","
","""event"",""trial"",""time""
""fullscreenenter"",""1"",""3752""
","
","","","-1","","","13","19773","7285","&#9826;","elianto","#f73b6a7A","-1","-1","1","0","[]","0","0","3","","","","","","","",""
"pit-trial","69","608918","0.0-2.0-14.2-0.2","battery-v0.2","","""event"",""trial"",""time""
""fullscreenenter"",""1"",""3752""
","
","
","""event"",""trial"",""time""
""fullscreenenter"",""1"",""3752""
","
","","","-1","","","13","19773","7285","&#9826;","elianto","#f73b6a7A","-1","-1","1","0","[]","0","0","3","","","","","","","",""
"pit-trial","70","613775","0.0-2.0-14.2-1.2","battery-v0.2","","""event"",""trial"",""time""
""fullscreenenter"",""1"",""3752""
","
","
","""event"",""trial"",""time""
""fullscreenenter"",""1"",""3752""
","
","","","-1","","","13","19773","7285","&#9826;","elianto","#f73b6a7A","-1","-1","1","0","[]","0","0","3","","","","","","","",""
"pit-trial","71","618632","0.0-2.0-14.2-2.2","battery-v0.2","","""event"",""trial"",""time""
""fullscreenenter"",""1"",""3752""
","
","
","""event"",""trial"",""time""
""fullscreenenter"",""1"",""3752""
","
","","","-1","","","13","19773","7285","&#9826;","elianto","#f73b6a7A","-1","-1","1","0","[]","0","0","3","","","","","","","",""
"pit-trial","72","623489","0.0-2.0-14.2-3.2","battery-v0.2","","""event"",""trial"",""time""
""fullscreenenter"",""1"",""3752""
","
","
","""event"",""trial"",""time""
""fullscreenenter"",""1"",""3752""
","
","","","-1","","","13","19773","7285","&#9826;","elianto","#f73b6a7A","-1","-1","1","-10","[]","0","0","3","","","","","","","",""
"pit-trial","73","627544","0.0-2.0-14.2-4.2","battery-v0.2","","""event"",""trial"",""time""
""fullscreenenter"",""1"",""3752""
","
","
","""event"",""trial"",""time""
""fullscreenenter"",""1"",""3752""
","
","","","1197","","","13","19773","7285","&#9826;","elianto","#f73b6a7A","-1"," ","0","-10","[2048]","1","0","3","","","","","","","",""
"pit-trial","74","632401","0.0-2.0-14.3-0.3","battery-v0.2","","""event"",""trial"",""time""
""fullscreenenter"",""1"",""3752""
","
","
","""event"",""trial"",""time""
""fullscreenenter"",""1"",""3752""
","
","","","-1","","","13","19773","7285","&#9826;","elianto","#f73b6a7A","-1","-1","1","0","[]","0","0","3","","","","","","","",""
"pit-trial","75","635926","0.0-2.0-14.3-1.3","battery-v0.2","","""event"",""trial"",""time""
""fullscreenenter"",""1"",""3752""
","
","
","""event"",""trial"",""time""
""fullscreenenter"",""1"",""3752""
","
","","","667","","","13","19773","7285","&#9826;","elianto","#f73b6a7A","-1"," ","0","-10","[1518]","1","0","3","","","","","","","",""
"pit-trial","76","640783","0.0-2.0-14.3-2.3","battery-v0.2","","""event"",""trial"",""time""
""fullscreenenter"",""1"",""3752""
","
","
","""event"",""trial"",""time""
""fullscreenenter"",""1"",""3752""
","
","","","-1","","","13","19773","7285","&#9826;","elianto","#f73b6a7A","-1","-1","1","0","[]","0","0","3","","","","","","","",""
"pit-trial","77","645640","0.0-2.0-14.3-3.3","battery-v0.2","","""event"",""trial"",""time""
""fullscreenenter"",""1"",""3752""
","
","
","""event"",""trial"",""time""
""fullscreenenter"",""1"",""3752""
","
","","","-1","","","13","19773","7285","&#9826;","elianto","#f73b6a7A","-1","-1","1","-10","[]","0","0","3","","","","","","","",""
"pit-trial","78","649189","0.0-2.0-14.3-4.3","battery-v0.2","","""event"",""trial"",""time""
""fullscreenenter"",""1"",""3752""
","
","
","""event"",""trial"",""time""
""fullscreenenter"",""1"",""3752""
","
","","","692","","","13","19773","7285","&#9826;","elianto","#f73b6a7A","-1"," ","0","-10","[1543]","1","0","3","","","","","","","",""
"call-function","79","649193","0.0-2.0-15.0","battery-v0.2","","""event"",""trial"",""time""
""fullscreenenter"",""1"",""3752""
","
","
","""event"",""trial"",""time""
""fullscreenenter"",""1"",""3752""
","
","","","","","","","","","","","","","","","","","","","","","","","","","","",""
"pit-instructions","80","676596","0.0-2.0-16.0","battery-v0.2","","""event"",""trial"",""time""
""fullscreenenter"",""1"",""3752""
","
","
","""event"",""trial"",""time""
""fullscreenenter"",""1"",""3752""
","
","","[{""page_index"":0,""viewing_time"":7230},{""page_index"":1,""viewing_time"":10533},{""page_index"":2,""viewing_time"":4418},{""page_index"":3,""viewing_time"":5222}]","27403","","","","","","","","","","","","","","","","","","","","","","","",""
"pit-trial","81","680032","0.0-2.0-17.0-0.0","battery-v0.2","","""event"",""trial"",""time""
""fullscreenenter"",""1"",""3752""
","
","
","""event"",""trial"",""time""
""fullscreenenter"",""1"",""3752""
","
","","","580.0000000001164","","","13","19773","7285","&#9789;","elianto","#f73b6a7A"," "," ","1","0","[1431.0000000001164]","1","0","4","","","","","","","",""
"pit-trial","82","683050","0.0-2.0-17.0-1.0","battery-v0.2","","""event"",""trial"",""time""
""fullscreenenter"",""1"",""3752""
","
","
","""event"",""trial"",""time""
""fullscreenenter"",""1"",""3752""
","
","","","161","","","13","19773","7285","&#9789;","elianto","#f73b6a7A"," "," ","1","0","[1012]","1","0","4","","","","","","","",""
"pit-trial","83","687908","0.0-2.0-17.0-2.0","battery-v0.2","","""event"",""trial"",""time""
""fullscreenenter"",""1"",""3752""
","
","
","""event"",""trial"",""time""
""fullscreenenter"",""1"",""3752""
","
","","","-1","","","13","19773","7285","&#9789;","elianto","#f73b6a7A"," ","-1","0","-10","[]","0","0","4","","","","","","","",""
"pit-trial","84","692768","0.0-2.0-17.0-3.0","battery-v0.2","","""event"",""trial"",""time""
""fullscreenenter"",""1"",""3752""
","
","
","""event"",""trial"",""time""
""fullscreenenter"",""1"",""3752""
","
","","","-1","","","13","19773","7285","&#9789;","elianto","#f73b6a7A"," ","-1","0","0","[]","0","0","4","","","","","","","",""
"pit-trial","85","697625","0.0-2.0-17.0-4.0","battery-v0.2","","""event"",""trial"",""time""
""fullscreenenter"",""1"",""3752""
","
","
","""event"",""trial"",""time""
""fullscreenenter"",""1"",""3752""
","
","","","-1","","","13","19773","7285","&#9789;","elianto","#f73b6a7A"," ","-1","0","-10","[]","0","0","4","","","","","","","",""
"pit-trial","86","702484","0.0-2.0-17.1-0.1","battery-v0.2","","""event"",""trial"",""time""
""fullscreenenter"",""1"",""3752""
","
","
","""event"",""trial"",""time""
""fullscreenenter"",""1"",""3752""
","
","","","-1","","","13","19773","7285","&#9789;","elianto","#f73b6a7A"," ","-1","0","-10","[]","0","0","4","","","","","","","",""
"pit-trial","87","706068","0.0-2.0-17.1-1.1","battery-v0.2","","""event"",""trial"",""time""
""fullscreenenter"",""1"",""3752""
","
","
","""event"",""trial"",""time""
""fullscreenenter"",""1"",""3752""
","
","","","727","","","13","19773","7285","&#9789;","elianto","#f73b6a7A"," "," ","1","0","[1578]","1","0","4","","","","","","","",""
"pit-trial","88","709221","0.0-2.0-17.1-2.1","battery-v0.2","","""event"",""trial"",""time""
""fullscreenenter"",""1"",""3752""
","
","
","""event"",""trial"",""time""
""fullscreenenter"",""1"",""3752""
","
","","","295","","","13","19773","7285","&#9789;","elianto","#f73b6a7A"," "," ","1","0","[1146]","1","0","4","","","","","","","",""
"pit-trial","89","712133","0.0-2.0-17.1-3.1","battery-v0.2","","""event"",""trial"",""time""
""fullscreenenter"",""1"",""3752""
","
","
","""event"",""trial"",""time""
""fullscreenenter"",""1"",""3752""
","
","","","55","","","13","19773","7285","&#9789;","elianto","#f73b6a7A"," "," ","1","-10","[500,718,906,1116]","4","0","4","","","","","","","",""
"pit-trial","90","715194","0.0-2.0-17.1-4.1","battery-v0.2","","""event"",""trial"",""time""
""fullscreenenter"",""1"",""3752""
","
","
","""event"",""trial"",""time""
""fullscreenenter"",""1"",""3752""
","
","","","203","","","13","19773","7285","&#9789;","elianto","#f73b6a7A"," "," ","1","0","[1054]","1","0","4","","","","","","","",""
"pit-trial","91","718916","0.0-2.0-17.2-0.2","battery-v0.2","","""event"",""trial"",""time""
""fullscreenenter"",""1"",""3752""
","
","
","""event"",""trial"",""time""
""fullscreenenter"",""1"",""3752""
","
","","","865","","","13","19773","7285","&#9789;","elianto","#f73b6a7A"," "," ","1","0","[1716]","1","0","4","","","","","","","",""
"pit-trial","92","722225","0.0-2.0-17.2-1.2","battery-v0.2","","""event"",""trial"",""time""
""fullscreenenter"",""1"",""3752""
","
","
","""event"",""trial"",""time""
""fullscreenenter"",""1"",""3752""
","
","","","450","","","13","19773","7285","&#9789;","elianto","#f73b6a7A"," "," ","1","0","[1301]","1","0","4","","","","","","","",""
"pit-trial","93","727082","0.0-2.0-17.2-2.2","battery-v0.2","","""event"",""trial"",""time""
""fullscreenenter"",""1"",""3752""
","
","
","""event"",""trial"",""time""
""fullscreenenter"",""1"",""3752""
","
","","","-1","","","13","19773","7285","&#9789;","elianto","#f73b6a7A"," ","-1","0","-10","[]","0","0","4","","","","","","","",""
"pit-trial","94","730283","0.0-2.0-17.2-3.2","battery-v0.2","","""event"",""trial"",""time""
""fullscreenenter"",""1"",""3752""
","
","
","""event"",""trial"",""time""
""fullscreenenter"",""1"",""3752""
","
","","","343","","","13","19773","7285","&#9789;","elianto","#f73b6a7A"," "," ","1","-10","[1194]","1","0","4","","","","","","","",""
"pit-trial","95","734809","0.0-2.0-17.2-4.2","battery-v0.2","","""event"",""trial"",""time""
""fullscreenenter"",""1"",""3752""
","
","
","""event"",""trial"",""time""
""fullscreenenter"",""1"",""3752""
","
","","","1669.0000000001164","","","13","19773","7285","&#9789;","elianto","#f73b6a7A"," "," ","1","0","[2519]","1","0","4","","","","","","","",""
"pit-trial","96","739667","0.0-2.0-17.3-0.3","battery-v0.2","","""event"",""trial"",""time""
""fullscreenenter"",""1"",""3752""
","
","
","""event"",""trial"",""time""
""fullscreenenter"",""1"",""3752""
","
","","","-1","","","13","19773","7285","&#9789;","elianto","#f73b6a7A"," ","-1","0","-10","[]","0","0","4","","","","","","","",""
"pit-trial","97","743664","0.0-2.0-17.3-1.3","battery-v0.2","","""event"",""trial"",""time""
""fullscreenenter"",""1"",""3752""
","
","
","""event"",""trial"",""time""
""fullscreenenter"",""1"",""3752""
","
","","","1141","","","13","19773","7285","&#9789;","elianto","#f73b6a7A"," "," ","1","0","[1992]","1","0","4","","","","","","","",""
"pit-trial","98","747120","0.0-2.0-17.3-2.3","battery-v0.2","","""event"",""trial"",""time""
""fullscreenenter"",""1"",""3752""
","
","
","""event"",""trial"",""time""
""fullscreenenter"",""1"",""3752""
","
","","","599.0000000001164","","","13","19773","7285","&#9789;","elianto","#f73b6a7A"," "," ","1","0","[1450.0000000001164]","1","0","4","","","","","","","",""
"pit-trial","99","751978","0.0-2.0-17.3-3.3","battery-v0.2","","""event"",""trial"",""time""
""fullscreenenter"",""1"",""3752""
","
","
","""event"",""trial"",""time""
""fullscreenenter"",""1"",""3752""
","
","","","-1","","","13","19773","7285","&#9789;","elianto","#f73b6a7A"," ","-1","0","0","[]","0","0","4","","","","","","","",""
"pit-trial","100","756836","0.0-2.0-17.3-4.3","battery-v0.2","","""event"",""trial"",""time""
""fullscreenenter"",""1"",""3752""
","
","
","""event"",""trial"",""time""
""fullscreenenter"",""1"",""3752""
","
","","","-1","","","13","19773","7285","&#9789;","elianto","#f73b6a7A"," ","-1","0","-10","[]","0","0","4","","","","","","","",""
"call-function","101","756841","0.0-2.0-18.0","battery-v0.2","","""event"",""trial"",""time""
""fullscreenenter"",""1"",""3752""
""blur"",""102"",""806577""
""focus"",""102"",""809029""
","""event"",""trial"",""time""
""blur"",""102"",""806577""
","""event"",""trial"",""time""
""focus"",""102"",""809029""
","""event"",""trial"",""time""
""fullscreenenter"",""1"",""3752""
","
","","","","","","","","","","","","","","","","","","","","","","","","","","",""
"pit-instructions","102","835508","0.0-2.0-19.0","battery-v0.2","","""event"",""trial"",""time""
""fullscreenenter"",""1"",""3752""
""blur"",""102"",""806577""
""focus"",""102"",""809029""
","""event"",""trial"",""time""
""blur"",""102"",""806577""
","""event"",""trial"",""time""
""focus"",""102"",""809029""
","""event"",""trial"",""time""
""fullscreenenter"",""1"",""3752""
","
","","[{""page_index"":0,""viewing_time"":7432},{""page_index"":1,""viewing_time"":6618.000000000116},{""page_index"":2,""viewing_time"":14417.999999999884},{""page_index"":3,""viewing_time"":9750},{""page_index"":4,""viewing_time"":9367},{""page_index"":5,""viewing_time"":8282},{""page_index"":6,""viewing_time"":10017},{""page_index"":7,""viewing_time"":7568},{""page_index"":8,""viewing_time"":5217}]","78669","","","","","","","","","","","","","","","","","","","","","","","",""
"pit-comprehension","103","840026","0.0-2.0-20.0-0.0","battery-v0.2","","""event"",""trial"",""time""
""fullscreenenter"",""1"",""3752""
""blur"",""102"",""806577""
""focus"",""102"",""809029""
","""event"",""trial"",""time""
""blur"",""102"",""806577""
","""event"",""trial"",""time""
""focus"",""102"",""809029""
","""event"",""trial"",""time""
""fullscreenenter"",""1"",""3752""
","
","","","4513","[""SPACE""]","0","13","19773","7285","","","","","","","","","","","","","","","","","","",""
"pit-instructions","104","843825","0.0-2.0-20.0-1.0","battery-v0.2","","""event"",""trial"",""time""
""fullscreenenter"",""1"",""3752""
""blur"",""102"",""806577""
""focus"",""102"",""809029""
","""event"",""trial"",""time""
""blur"",""102"",""806577""
","""event"",""trial"",""time""
""focus"",""102"",""809029""
","""event"",""trial"",""time""
""fullscreenenter"",""1"",""3752""
","
","","[{""page_index"":0,""viewing_time"":3757.9999999998836}]","3758.9999999998836","","","","","","","","","","","","","","","","","","","","","","","",""
"pit-comprehension","105","850928","0.0-2.0-21.0-0.0","battery-v0.2","","""event"",""trial"",""time""
""fullscreenenter"",""1"",""3752""
""blur"",""102"",""806577""
""focus"",""102"",""809029""
","""event"",""trial"",""time""
""blur"",""102"",""806577""
","""event"",""trial"",""time""
""focus"",""102"",""809029""
","""event"",""trial"",""time""
""fullscreenenter"",""1"",""3752""
","
","","","7098.000000000116","[""10""]","0","13","19773","7285","","","","","","","","","","","","","","","","","","",""
"pit-instructions","106","853806","0.0-2.0-21.0-1.0","battery-v0.2","","""event"",""trial"",""time""
""fullscreenenter"",""1"",""3752""
""blur"",""102"",""806577""
""focus"",""102"",""809029""
","""event"",""trial"",""time""
""blur"",""102"",""806577""
","""event"",""trial"",""time""
""focus"",""102"",""809029""
","""event"",""trial"",""time""
""fullscreenenter"",""1"",""3752""
","
","","[{""page_index"":0,""viewing_time"":2838}]","2839","","","","","","","","","","","","","","","","","","","","","","","",""
"pit-comprehension","107","860793","0.0-2.0-22.0-0.0","battery-v0.2","","""event"",""trial"",""time""
""fullscreenenter"",""1"",""3752""
""blur"",""102"",""806577""
""focus"",""102"",""809029""
","""event"",""trial"",""time""
""blur"",""102"",""806577""
","""event"",""trial"",""time""
""focus"",""102"",""809029""
","""event"",""trial"",""time""
""fullscreenenter"",""1"",""3752""
","
","","","6980.000000000116","[""0""]","0","13","19773","7285","","","","","","","","","","","","","","","","","","",""
"pit-instructions","108","866973","0.0-2.0-22.0-1.0","battery-v0.2","","""event"",""trial"",""time""
""fullscreenenter"",""1"",""3752""
""blur"",""102"",""806577""
""focus"",""102"",""809029""
","""event"",""trial"",""time""
""blur"",""102"",""806577""
","""event"",""trial"",""time""
""focus"",""102"",""809029""
","""event"",""trial"",""time""
""fullscreenenter"",""1"",""3752""
","
","","[{""page_index"":0,""viewing_time"":6142}]","6143","","","","","","","","","","","","","","","","","","","","","","","",""
"pit-comprehension","109","876028","0.0-2.0-23.0-0.0","battery-v0.2","","""event"",""trial"",""time""
""fullscreenenter"",""1"",""3752""
""blur"",""102"",""806577""
""focus"",""102"",""809029""
","""event"",""trial"",""time""
""blur"",""102"",""806577""
","""event"",""trial"",""time""
""focus"",""102"",""809029""
","""event"",""trial"",""time""
""fullscreenenter"",""1"",""3752""
","
","","","9048.000000000116","[""False""]","1","13","19773","7285","","","","","","","","","","","","","","","","","","",""
"pit-instructions","110","879473","0.0-2.0-23.0-1.0","battery-v0.2","","""event"",""trial"",""time""
""fullscreenenter"",""1"",""3752""
""blur"",""102"",""806577""
""focus"",""102"",""809029""
","""event"",""trial"",""time""
""blur"",""102"",""806577""
","""event"",""trial"",""time""
""focus"",""102"",""809029""
","""event"",""trial"",""time""
""fullscreenenter"",""1"",""3752""
","
","","[{""page_index"":0,""viewing_time"":3403}]","3404","","","","","","","","","","","","","","","","","","","","","","","",""
"pit-instructions","111","880840","0.0-2.0-23.0-2.0-0.0","battery-v0.2","","""event"",""trial"",""time""
""fullscreenenter"",""1"",""3752""
""blur"",""102"",""806577""
""focus"",""102"",""809029""
","""event"",""trial"",""time""
""blur"",""102"",""806577""
","""event"",""trial"",""time""
""focus"",""102"",""809029""
","""event"",""trial"",""time""
""fullscreenenter"",""1"",""3752""
","
","","[{""page_index"":0,""viewing_time"":1359.0000000001164}]","1360","","","","","","","","","","","","","","","","","","","","","","","",""
"pit-comprehension","112","889394","0.0-2.0-23.1-0.1","battery-v0.2","","""event"",""trial"",""time""
""fullscreenenter"",""1"",""3752""
""blur"",""102"",""806577""
""focus"",""102"",""809029""
","""event"",""trial"",""time""
""blur"",""102"",""806577""
","""event"",""trial"",""time""
""focus"",""102"",""809029""
","""event"",""trial"",""time""
""fullscreenenter"",""1"",""3752""
","
","","","8546","[""True""]","0","13","19773","7285","","","","","","","","","","","","","","","","","","",""
"pit-instructions","113","891457","0.0-2.0-23.1-1.1","battery-v0.2","","""event"",""trial"",""time""
""fullscreenenter"",""1"",""3752""
""blur"",""102"",""806577""
""focus"",""102"",""809029""
","""event"",""trial"",""time""
""blur"",""102"",""806577""
","""event"",""trial"",""time""
""focus"",""102"",""809029""
","""event"",""trial"",""time""
""fullscreenenter"",""1"",""3752""
","
","","[{""page_index"":0,""viewing_time"":2019}]","2020","","","","","","","","","","","","","","","","","","","","","","","",""
"pit-comprehension","114","899643","0.0-2.0-24.0-0.0","battery-v0.2","","""event"",""trial"",""time""
""fullscreenenter"",""1"",""3752""
""blur"",""102"",""806577""
""focus"",""102"",""809029""
","""event"",""trial"",""time""
""blur"",""102"",""806577""
","""event"",""trial"",""time""
""focus"",""102"",""809029""
","""event"",""trial"",""time""
""fullscreenenter"",""1"",""3752""
","
","","","8180.000000000116","[""True""]","0","13","19773","7285","","","","","","","","","","","","","","","","","","",""
"pit-instructions","115","902641","0.0-2.0-24.0-1.0","battery-v0.2","","""event"",""trial"",""time""
""fullscreenenter"",""1"",""3752""
""blur"",""102"",""806577""
""focus"",""102"",""809029""
","""event"",""trial"",""time""
""blur"",""102"",""806577""
","""event"",""trial"",""time""
""focus"",""102"",""809029""
","""event"",""trial"",""time""
""fullscreenenter"",""1"",""3752""
","
","","[{""page_index"":0,""viewing_time"":2955.9999999998836}]","2957","","","","","","","","","","","","","","","","","","","","","","","",""
"pit-comprehension","116","909311","0.0-2.0-25.0-0.0","battery-v0.2","","""event"",""trial"",""time""
""fullscreenenter"",""1"",""3752""
""blur"",""102"",""806577""
""focus"",""102"",""809029""
","""event"",""trial"",""time""
""blur"",""102"",""806577""
","""event"",""trial"",""time""
""focus"",""102"",""809029""
","""event"",""trial"",""time""
""fullscreenenter"",""1"",""3752""
","
","","","6664.000000000116","[""True""]","0","13","19773","7285","","","","","","","","","","","","","","","","","","",""
"pit-instructions","117","911275","0.0-2.0-25.0-1.0","battery-v0.2","","""event"",""trial"",""time""
""fullscreenenter"",""1"",""3752""
""blur"",""102"",""806577""
""focus"",""102"",""809029""
","""event"",""trial"",""time""
""blur"",""102"",""806577""
","""event"",""trial"",""time""
""focus"",""102"",""809029""
","""event"",""trial"",""time""
""fullscreenenter"",""1"",""3752""
","
","","[{""page_index"":0,""viewing_time"":1920}]","1921","","","","","","","","","","","","","","","","","","","","","","","",""
"pit-comprehension","118","921276","0.0-2.0-26.0-0.0","battery-v0.2","","""event"",""trial"",""time""
""fullscreenenter"",""1"",""3752""
""blur"",""102"",""806577""
""focus"",""102"",""809029""
","""event"",""trial"",""time""
""blur"",""102"",""806577""
","""event"",""trial"",""time""
""focus"",""102"",""809029""
","""event"",""trial"",""time""
""fullscreenenter"",""1"",""3752""
","
","","","9996.000000000116","[""True""]","1","13","19773","7285","","","","","","","","","","","","","","","","","","",""
"pit-instructions","119","923040","0.0-2.0-26.0-1.0","battery-v0.2","","""event"",""trial"",""time""
""fullscreenenter"",""1"",""3752""
""blur"",""102"",""806577""
""focus"",""102"",""809029""
","""event"",""trial"",""time""
""blur"",""102"",""806577""
","""event"",""trial"",""time""
""focus"",""102"",""809029""
","""event"",""trial"",""time""
""fullscreenenter"",""1"",""3752""
","
","","[{""page_index"":0,""viewing_time"":1719.0000000001164}]","1719.0000000001164","","","","","","","","","","","","","","","","","","","","","","","",""
"pit-instructions","120","926139","0.0-2.0-26.0-2.0-0.0","battery-v0.2","","""event"",""trial"",""time""
""fullscreenenter"",""1"",""3752""
""blur"",""102"",""806577""
""focus"",""102"",""809029""
","""event"",""trial"",""time""
""blur"",""102"",""806577""
","""event"",""trial"",""time""
""focus"",""102"",""809029""
","""event"",""trial"",""time""
""fullscreenenter"",""1"",""3752""
","
","","[{""page_index"":0,""viewing_time"":3093}]","3094","","","","","","","","","","","","","","","","","","","","","","","",""
"pit-comprehension","121","930575","0.0-2.0-26.1-0.1","battery-v0.2","","""event"",""trial"",""time""
""fullscreenenter"",""1"",""3752""
""blur"",""102"",""806577""
""focus"",""102"",""809029""
","""event"",""trial"",""time""
""blur"",""102"",""806577""
","""event"",""trial"",""time""
""focus"",""102"",""809029""
","""event"",""trial"",""time""
""fullscreenenter"",""1"",""3752""
","
","","","4428","[""True""]","1","13","19773","7285","","","","","","","","","","","","","","","","","","",""
"pit-instructions","122","932773","0.0-2.0-26.1-1.1","battery-v0.2","","""event"",""trial"",""time""
""fullscreenenter"",""1"",""3752""
""blur"",""102"",""806577""
""focus"",""102"",""809029""
","""event"",""trial"",""time""
""blur"",""102"",""806577""
","""event"",""trial"",""time""
""focus"",""102"",""809029""
","""event"",""trial"",""time""
""fullscreenenter"",""1"",""3752""
","
","","[{""page_index"":0,""viewing_time"":2156}]","2156","","","","","","","","","","","","","","","","","","","","","","","",""
"pit-instructions","123","934091","0.0-2.0-26.1-2.1-0.1","battery-v0.2","","""event"",""trial"",""time""
""fullscreenenter"",""1"",""3752""
""blur"",""102"",""806577""
""focus"",""102"",""809029""
","""event"",""trial"",""time""
""blur"",""102"",""806577""
","""event"",""trial"",""time""
""focus"",""102"",""809029""
","""event"",""trial"",""time""
""fullscreenenter"",""1"",""3752""
","
","","[{""page_index"":0,""viewing_time"":1313}]","1313","","","","","","","","","","","","","","","","","","","","","","","",""
"pit-comprehension","124","938876","0.0-2.0-26.2-0.2","battery-v0.2","","""event"",""trial"",""time""
""fullscreenenter"",""1"",""3752""
""blur"",""102"",""806577""
""focus"",""102"",""809029""
","""event"",""trial"",""time""
""blur"",""102"",""806577""
","""event"",""trial"",""time""
""focus"",""102"",""809029""
","""event"",""trial"",""time""
""fullscreenenter"",""1"",""3752""
","
","","","4780","[""False""]","0","13","19773","7285","","","","","","","","","","","","","","","","","","",""
"pit-instructions","125","942458","0.0-2.0-26.2-1.2","battery-v0.2","","""event"",""trial"",""time""
""fullscreenenter"",""1"",""3752""
""blur"",""102"",""806577""
""focus"",""102"",""809029""
","""event"",""trial"",""time""
""blur"",""102"",""806577""
","""event"",""trial"",""time""
""focus"",""102"",""809029""
","""event"",""trial"",""time""
""fullscreenenter"",""1"",""3752""
","
","","[{""page_index"":0,""viewing_time"":3538}]","3538","","","","","","","","","","","","","","","","","","","","","","","",""
"pit-instructions","126","961074","0.0-3.0","battery-v0.2","","""event"",""trial"",""time""
""fullscreenenter"",""1"",""3752""
""blur"",""102"",""806577""
""focus"",""102"",""809029""
","""event"",""trial"",""time""
""blur"",""102"",""806577""
","""event"",""trial"",""time""
""focus"",""102"",""809029""
","""event"",""trial"",""time""
""fullscreenenter"",""1"",""3752""
","
","","[{""page_index"":0,""viewing_time"":3761},{""page_index"":1,""viewing_time"":6233.000000000116},{""page_index"":2,""viewing_time"":8616.999999999884}]","18612","","","","","","","","","","","","","","","","","","","","","","","",""
"pit-trial","127","965936","0.0-4.0","battery-v0.2","","""event"",""trial"",""time""
""fullscreenenter"",""1"",""3752""
""blur"",""102"",""806577""
""focus"",""102"",""809029""
","""event"",""trial"",""time""
""blur"",""102"",""806577""
","""event"",""trial"",""time""
""focus"",""102"",""809029""
","""event"",""trial"",""time""
""fullscreenenter"",""1"",""3752""
","
","","","-1","","","13","19773","7285","&#9728;","elianto","#f73b6a7A","-1","-1","1","0","[]","0","1","","","19773","1","0","4","lose","no-go","0"
"pit-trial","128","970795","0.0-5.0","battery-v0.2","","""event"",""trial"",""time""
""fullscreenenter"",""1"",""3752""
""blur"",""102"",""806577""
""focus"",""102"",""809029""
","""event"",""trial"",""time""
""blur"",""102"",""806577""
","""event"",""trial"",""time""
""focus"",""102"",""809029""
","""event"",""trial"",""time""
""fullscreenenter"",""1"",""3752""
","
","","","-1","","","13","19773","7285","&#9752;","elianto","#f73b6a7A"," ","-1","0","-10","[]","0","1","","","19773","2","3","3","lose","go","0"
"pit-trial","129","974496","0.0-6.0","battery-v0.2","","""event"",""trial"",""time""
""fullscreenenter"",""1"",""3752""
""blur"",""102"",""806577""
""focus"",""102"",""809029""
","""event"",""trial"",""time""
""blur"",""102"",""806577""
","""event"",""trial"",""time""
""focus"",""102"",""809029""
","""event"",""trial"",""time""
""fullscreenenter"",""1"",""3752""
","
","","","841","","","13","19773","7285","&#9730;","elianto","#3366ff99"," "," ","1","+10","[1692]","1","1","","","19773","3","1","1","win","go","0"
"pit-trial","130","978343","0.0-7.0","battery-v0.2","","""event"",""trial"",""time""
""fullscreenenter"",""1"",""3752""
""blur"",""102"",""806577""
""focus"",""102"",""809029""
","""event"",""trial"",""time""
""blur"",""102"",""806577""
","""event"",""trial"",""time""
""focus"",""102"",""809029""
","""event"",""trial"",""time""
""fullscreenenter"",""1"",""3752""
","
","","","988","","","13","19773","7285","&#9733;","elianto","#3366ff99","-1"," ","0","0","[1838.0000000001164]","1","1","","","19773","4","2","2","win","no-go","0"
"pit-trial","131","981934","0.0-8.0","battery-v0.2","","""event"",""trial"",""time""
""fullscreenenter"",""1"",""3752""
""blur"",""102"",""806577""
""focus"",""102"",""809029""
","""event"",""trial"",""time""
""blur"",""102"",""806577""
","""event"",""trial"",""time""
""focus"",""102"",""809029""
","""event"",""trial"",""time""
""fullscreenenter"",""1"",""3752""
","
","","","731","","","13","19773","7285","&#9730;","elianto","#3366ff99"," "," ","1","+10","[1582]","1","1","","","19773","5","1","1","win","go","0"
"pit-trial","132","985415","0.0-9.0","battery-v0.2","","""event"",""trial"",""time""
""fullscreenenter"",""1"",""3752""
""blur"",""102"",""806577""
""focus"",""102"",""809029""
","""event"",""trial"",""time""
""blur"",""102"",""806577""
","""event"",""trial"",""time""
""focus"",""102"",""809029""
","""event"",""trial"",""time""
""fullscreenenter"",""1"",""3752""
","
","","","621.0000000001164","","","13","19773","7285","&#9733;","elianto","#3366ff99","-1"," ","0","0","[1472.0000000001164]","1","1","","","19773","6","2","2","win","no-go","0"
"pit-trial","133","990274","0.0-10.0","battery-v0.2","","""event"",""trial"",""time""
""fullscreenenter"",""1"",""3752""
""blur"",""102"",""806577""
""focus"",""102"",""809029""
","""event"",""trial"",""time""
""blur"",""102"",""806577""
","""event"",""trial"",""time""
""focus"",""102"",""809029""
","""event"",""trial"",""time""
""fullscreenenter"",""1"",""3752""
","
","","","-1","","","13","19773","7285","&#9728;","elianto","#f73b6a7A","-1","-1","1","-10","[]","0","1","","","19773","7","0","4","lose","no-go","1"
"pit-trial","134","994787","0.0-11.0","battery-v0.2","","""event"",""trial"",""time""
""fullscreenenter"",""1"",""3752""
""blur"",""102"",""806577""
""focus"",""102"",""809029""
","""event"",""trial"",""time""
""blur"",""102"",""806577""
","""event"",""trial"",""time""
""focus"",""102"",""809029""
","""event"",""trial"",""time""
""fullscreenenter"",""1"",""3752""
","
","","","1650.9999999998836","","","13","19773","7285","&#9752;","elianto","#f73b6a7A"," "," ","1","0","[2501]","1","1","","","19773","8","3","3","lose","go","0"
"pit-trial","135","999645","0.0-12.0","battery-v0.2","","""event"",""trial"",""time""
""fullscreenenter"",""1"",""3752""
""blur"",""102"",""806577""
""focus"",""102"",""809029""
","""event"",""trial"",""time""
""blur"",""102"",""806577""
","""event"",""trial"",""time""
""focus"",""102"",""809029""
","""event"",""trial"",""time""
""fullscreenenter"",""1"",""3752""
","
","","","-1","","","13","19773","7285","&#9728;","elianto","#f73b6a7A","-1","-1","1","0","[]","0","1","","","19773","9","0","4","lose","no-go","0"
"pit-trial","136","1003164","0.0-13.0","battery-v0.2","","""event"",""trial"",""time""
""fullscreenenter"",""1"",""3752""
""blur"",""102"",""806577""
""focus"",""102"",""809029""
","""event"",""trial"",""time""
""blur"",""102"",""806577""
","""event"",""trial"",""time""
""focus"",""102"",""809029""
","""event"",""trial"",""time""
""fullscreenenter"",""1"",""3752""
","
","","","659","","","13","19773","7285","&#9733;","elianto","#3366ff99","-1"," ","0","+10","[1511.0000000001164]","1","1","","","19773","10","2","2","win","no-go","1"
"pit-trial","137","1008023","0.0-14.0","battery-v0.2","","""event"",""trial"",""time""
""fullscreenenter"",""1"",""3752""
""blur"",""102"",""806577""
""focus"",""102"",""809029""
","""event"",""trial"",""time""
""blur"",""102"",""806577""
","""event"",""trial"",""time""
""focus"",""102"",""809029""
","""event"",""trial"",""time""
""fullscreenenter"",""1"",""3752""
","
","","","-1","","","13","19773","7285","&#9752;","elianto","#f73b6a7A"," ","-1","0","-10","[]","0","1","","","19773","11","3","3","lose","go","0"
"pit-trial","138","1011439","0.0-15.0","battery-v0.2","","""event"",""trial"",""time""
""fullscreenenter"",""1"",""3752""
""blur"",""102"",""806577""
""focus"",""102"",""809029""
","""event"",""trial"",""time""
""blur"",""102"",""806577""
","""event"",""trial"",""time""
""focus"",""102"",""809029""
","""event"",""trial"",""time""
""fullscreenenter"",""1"",""3752""
","
","","","556","","","13","19773","7285","&#9730;","elianto","#3366ff99"," "," ","1","0","[1407]","1","1","","","19773","12","1","1","win","go","1"
"pit-trial","139","1016299","0.0-16.0","battery-v0.2","","""event"",""trial"",""time""
""fullscreenenter"",""1"",""3752""
""blur"",""102"",""806577""
""focus"",""102"",""809029""
","""event"",""trial"",""time""
""blur"",""102"",""806577""
","""event"",""trial"",""time""
""focus"",""102"",""809029""
","""event"",""trial"",""time""
""fullscreenenter"",""1"",""3752""
","
","","","-1","","","13","19773","7285","&#9752;","elianto","#f73b6a7A"," ","-1","0","-10","[]","0","1","","","19773","13","3","3","lose","go","0"
"pit-trial","140","1021158","0.0-17.0","battery-v0.2","","""event"",""trial"",""time""
""fullscreenenter"",""1"",""3752""
""blur"",""102"",""806577""
""focus"",""102"",""809029""
","""event"",""trial"",""time""
""blur"",""102"",""806577""
","""event"",""trial"",""time""
""focus"",""102"",""809029""
","""event"",""trial"",""time""
""fullscreenenter"",""1"",""3752""
","
","","","-1","","","13","19773","7285","&#9728;","elianto","#f73b6a7A","-1","-1","1","0","[]","0","1","","","19773","14","0","4","lose","no-go","0"
"pit-trial","141","1024558","0.0-18.0","battery-v0.2","","""event"",""trial"",""time""
""fullscreenenter"",""1"",""3752""
""blur"",""102"",""806577""
""focus"",""102"",""809029""
","""event"",""trial"",""time""
""blur"",""102"",""806577""
","""event"",""trial"",""time""
""focus"",""102"",""809029""
","""event"",""trial"",""time""
""fullscreenenter"",""1"",""3752""
","
","","","540","","","13","19773","7285","&#9730;","elianto","#3366ff99"," "," ","1","+10","[1391]","1","1","","","19773","15","1","1","win","go","0"
"pit-trial","142","1027989","0.0-19.0","battery-v0.2","","""event"",""trial"",""time""
""fullscreenenter"",""1"",""3752""
""blur"",""102"",""806577""
""focus"",""102"",""809029""
","""event"",""trial"",""time""
""blur"",""102"",""806577""
","""event"",""trial"",""time""
""focus"",""102"",""809029""
","""event"",""trial"",""time""
""fullscreenenter"",""1"",""3752""
","
","","","571.0000000001164","","","13","19773","7285","&#9733;","elianto","#3366ff99","-1"," ","0","0","[1421.0000000001164]","1","1","","","19773","16","2","2","win","no-go","0"
"pit-trial","143","1032850","0.0-20.0","battery-v0.2","","""event"",""trial"",""time""
""fullscreenenter"",""1"",""3752""
""blur"",""102"",""806577""
""focus"",""102"",""809029""
","""event"",""trial"",""time""
""blur"",""102"",""806577""
","""event"",""trial"",""time""
""focus"",""102"",""809029""
","""event"",""trial"",""time""
""fullscreenenter"",""1"",""3752""
","
","","","-1","","","13","19773","7285","&#9728;","elianto","#f73b6a7A","-1","-1","1","0","[]","0","1","","","19773","17","0","4","lose","no-go","0"
"pit-trial","144","1036366","0.0-21.0","battery-v0.2","","""event"",""trial"",""time""
""fullscreenenter"",""1"",""3752""
""blur"",""102"",""806577""
""focus"",""102"",""809029""
","""event"",""trial"",""time""
""blur"",""102"",""806577""
","""event"",""trial"",""time""
""focus"",""102"",""809029""
","""event"",""trial"",""time""
""fullscreenenter"",""1"",""3752""
","
","","","656.9999999998836","","","13","19773","7285","&#9733;","elianto","#3366ff99","-1"," ","0","0","[1507]","1","1","","","19773","18","2","2","win","no-go","0"
"pit-trial","145","1039968","0.0-22.0","battery-v0.2","","""event"",""trial"",""time""
""fullscreenenter"",""1"",""3752""
""blur"",""102"",""806577""
""focus"",""102"",""809029""
","""event"",""trial"",""time""
""blur"",""102"",""806577""
","""event"",""trial"",""time""
""focus"",""102"",""809029""
","""event"",""trial"",""time""
""fullscreenenter"",""1"",""3752""
","
","","","742.0000000001164","","","13","19773","7285","&#9752;","elianto","#f73b6a7A"," "," ","1","0","[1592.0000000001164]","1","1","","","19773","19","3","3","lose","go","0"
"pit-trial","146","1043397","0.0-23.0","battery-v0.2","","""event"",""trial"",""time""
""fullscreenenter"",""1"",""3752""
""blur"",""102"",""806577""
""focus"",""102"",""809029""
","""event"",""trial"",""time""
""blur"",""102"",""806577""
","""event"",""trial"",""time""
""focus"",""102"",""809029""
","""event"",""trial"",""time""
""fullscreenenter"",""1"",""3752""
","
","","","569","","","13","19773","7285","&#9730;","elianto","#3366ff99"," "," ","1","+10","[1419.9999999998836]","1","1","","","19773","20","1","1","win","go","0"
"pit-instructions","147","1067489","0.0-24.0","battery-v0.2","","""event"",""trial"",""time""
""fullscreenenter"",""1"",""3752""
""blur"",""102"",""806577""
""focus"",""102"",""809029""
","""event"",""trial"",""time""
""blur"",""102"",""806577""
","""event"",""trial"",""time""
""focus"",""102"",""809029""
","""event"",""trial"",""time""
""fullscreenenter"",""1"",""3752""
","
","","[{""page_index"":0,""viewing_time"":16803},{""page_index"":1,""viewing_time"":7282}]","24086","","","","","","","","","","","","","","","","","","","","","","","",""
"pit-trial","148","1070948","0.0-25.0","battery-v0.2","","""event"",""trial"",""time""
""fullscreenenter"",""1"",""3752""
""blur"",""102"",""806577""
""focus"",""102"",""809029""
","""event"",""trial"",""time""
""blur"",""102"",""806577""
","""event"",""trial"",""time""
""focus"",""102"",""809029""
","""event"",""trial"",""time""
""fullscreenenter"",""1"",""3752""
","
","","","598","","","13","19773","7285","r","elianto","#3366ff99"," "," ","1","+10","[1449]","1","2","","","19773","21","1","1","win","go","0"
"pit-trial","149","1075808","0.0-26.0","battery-v0.2","","""event"",""trial"",""time""
""fullscreenenter"",""1"",""3752""
""blur"",""102"",""806577""
""focus"",""102"",""809029""
","""event"",""trial"",""time""
""blur"",""102"",""806577""
","""event"",""trial"",""time""
""focus"",""102"",""809029""
","""event"",""trial"",""time""
""fullscreenenter"",""1"",""3752""
","
","","","-1","","","13","19773","7285","m","elianto","#f73b6a7A","-1","-1","1","-10","[]","0","2","","","19773","22","0","4","lose","no-go","1"
"pit-trial","150","1080668","0.0-27.0","battery-v0.2","","""event"",""trial"",""time""
""fullscreenenter"",""1"",""3752""
""blur"",""102"",""806577""
""focus"",""102"",""809029""
","""event"",""trial"",""time""
""blur"",""102"",""806577""
","""event"",""trial"",""time""
""focus"",""102"",""809029""
","""event"",""trial"",""time""
""fullscreenenter"",""1"",""3752""
","
","","","-1","","","13","19773","7285","y","elianto","#f73b6a7A","-1","-1","1","0","[]","0","2","","","19773","23","2","4","lose","no-go","0"
"pit-trial","151","1085527","0.0-28.0","battery-v0.2","","""event"",""trial"",""time""
""fullscreenenter"",""1"",""3752""
""blur"",""102"",""806577""
""focus"",""102"",""809029""
","""event"",""trial"",""time""
""blur"",""102"",""806577""
","""event"",""trial"",""time""
""focus"",""102"",""809029""
","""event"",""trial"",""time""
""fullscreenenter"",""1"",""3752""
","
","","","-1","","","13","19773","7285","h","elianto","#f73b6a7A"," ","-1","0","-10","[]","0","2","","","19773","24","3","3","lose","go","0"
"pit-trial","152","1089288","0.0-29.0","battery-v0.2","","""event"",""trial"",""time""
""fullscreenenter"",""1"",""3752""
""blur"",""102"",""806577""
""focus"",""102"",""809029""
","""event"",""trial"",""time""
""blur"",""102"",""806577""
","""event"",""trial"",""time""
""focus"",""102"",""809029""
","""event"",""trial"",""time""
""fullscreenenter"",""1"",""3752""
","
","","","900","","","13","19773","7285","h","elianto","#f73b6a7A"," "," ","1","0","[1751]","1","2","","","19773","25","3","3","lose","go","0"
"pit-trial","153","1092704","0.0-30.0","battery-v0.2","","""event"",""trial"",""time""
""fullscreenenter"",""1"",""3752""
""blur"",""102"",""806577""
""focus"",""102"",""809029""
","""event"",""trial"",""time""
""blur"",""102"",""806577""
","""event"",""trial"",""time""
""focus"",""102"",""809029""
","""event"",""trial"",""time""
""fullscreenenter"",""1"",""3752""
","
","","","555.9999999997672","","","13","19773","7285","r","elianto","#3366ff99"," "," ","1","+10","[1408]","1","2","","","19773","26","1","1","win","go","0"
"pit-trial","154","1096082","0.0-31.0","battery-v0.2","","""event"",""trial"",""time""
""fullscreenenter"",""1"",""3752""
""blur"",""102"",""806577""
""focus"",""102"",""809029""
","""event"",""trial"",""time""
""blur"",""102"",""806577""
","""event"",""trial"",""time""
""focus"",""102"",""809029""
","""event"",""trial"",""time""
""fullscreenenter"",""1"",""3752""
","
","","","520","","","13","19773","7285","m","elianto","#f73b6a7A","-1"," ","0","-10","[1371]","1","2","","","19773","27","0","4","lose","no-go","0"
"pit-trial","155","1099882","0.0-32.0","battery-v0.2","","""event"",""trial"",""time""
""fullscreenenter"",""1"",""3752""
""blur"",""102"",""806577""
""focus"",""102"",""809029""
","""event"",""trial"",""time""
""blur"",""102"",""806577""
","""event"",""trial"",""time""
""focus"",""102"",""809029""
","""event"",""trial"",""time""
""fullscreenenter"",""1"",""3752""
","
","","","941","","","13","19773","7285","y","elianto","#f73b6a7A","-1"," ","0","0","[1791.9999999997672]","1","2","","","19773","28","2","4","lose","no-go","1"
"pit-trial","156","1103588","0.0-33.0","battery-v0.2","","""event"",""trial"",""time""
""fullscreenenter"",""1"",""3752""
""blur"",""102"",""806577""
""focus"",""102"",""809029""
","""event"",""trial"",""time""
""blur"",""102"",""806577""
","""event"",""trial"",""time""
""focus"",""102"",""809029""
","""event"",""trial"",""time""
""fullscreenenter"",""1"",""3752""
","
","","","847","","","13","19773","7285","h","elianto","#f73b6a7A"," "," ","1","-10","[1698]","1","2","","","19773","29","3","3","lose","go","1"
"pit-trial","157","1106964","0.0-34.0","battery-v0.2","","""event"",""trial"",""time""
""fullscreenenter"",""1"",""3752""
""blur"",""102"",""806577""
""focus"",""102"",""809029""
","""event"",""trial"",""time""
""blur"",""102"",""806577""
","""event"",""trial"",""time""
""focus"",""102"",""809029""
","""event"",""trial"",""time""
""fullscreenenter"",""1"",""3752""
","
","","","517.9999999997672","","","13","19773","7285","r","elianto","#3366ff99"," "," ","1","0","[1369]","1","2","","","19773","30","1","1","win","go","1"
"pit-trial","158","1111822","0.0-35.0","battery-v0.2","","""event"",""trial"",""time""
""fullscreenenter"",""1"",""3752""
""blur"",""102"",""806577""
""focus"",""102"",""809029""
","""event"",""trial"",""time""
""blur"",""102"",""806577""
","""event"",""trial"",""time""
""focus"",""102"",""809029""
","""event"",""trial"",""time""
""fullscreenenter"",""1"",""3752""
","
","","","-1","","","13","19773","7285","y","elianto","#f73b6a7A","-1","-1","1","0","[]","0","2","","","19773","31","2","4","lose","no-go","0"
"pit-trial","159","1115759","0.0-36.0","battery-v0.2","","""event"",""trial"",""time""
""fullscreenenter"",""1"",""3752""
""blur"",""102"",""806577""
""focus"",""102"",""809029""
","""event"",""trial"",""time""
""blur"",""102"",""806577""
","""event"",""trial"",""time""
""focus"",""102"",""809029""
","""event"",""trial"",""time""
""fullscreenenter"",""1"",""3752""
","
","","","1078","","","13","19773","7285","m","elianto","#f73b6a7A","-1"," ","0","0","[1928.9999999997672]","1","2","","","19773","32","0","4","lose","no-go","1"
"pit-trial","160","1120618","0.0-37.0","battery-v0.2","","""event"",""trial"",""time""
""fullscreenenter"",""1"",""3752""
""blur"",""102"",""806577""
""focus"",""102"",""809029""
","""event"",""trial"",""time""
""blur"",""102"",""806577""
","""event"",""trial"",""time""
""focus"",""102"",""809029""
","""event"",""trial"",""time""
""fullscreenenter"",""1"",""3752""
","
","","","-1","","","13","19773","7285","m","elianto","#f73b6a7A","-1","-1","1","0","[]","0","2","","","19773","33","0","4","lose","no-go","0"
"pit-trial","161","1125478","0.0-38.0","battery-v0.2","","""event"",""trial"",""time""
""fullscreenenter"",""1"",""3752""
""blur"",""102"",""806577""
""focus"",""102"",""809029""
","""event"",""trial"",""time""
""blur"",""102"",""806577""
","""event"",""trial"",""time""
""focus"",""102"",""809029""
","""event"",""trial"",""time""
""fullscreenenter"",""1"",""3752""
","
","","","-1","","","13","19773","7285","h","elianto","#f73b6a7A"," ","-1","0","-10","[]","0","2","","","19773","34","3","3","lose","go","0"
"pit-trial","162","1128747","0.0-39.0","battery-v0.2","","""event"",""trial"",""time""
""fullscreenenter"",""1"",""3752""
""blur"",""102"",""806577""
""focus"",""102"",""809029""
","""event"",""trial"",""time""
""blur"",""102"",""806577""
","""event"",""trial"",""time""
""focus"",""102"",""809029""
","""event"",""trial"",""time""
""fullscreenenter"",""1"",""3752""
","
","","","409","","","13","19773","7285","r","elianto","#3366ff99"," "," ","1","+10","[1259]","1","2","","","19773","35","1","1","win","go","0"
"pit-trial","163","1133606","0.0-40.0","battery-v0.2","","""event"",""trial"",""time""
""fullscreenenter"",""1"",""3752""
""blur"",""102"",""806577""
""focus"",""102"",""809029""
","""event"",""trial"",""time""
""blur"",""102"",""806577""
","""event"",""trial"",""time""
""focus"",""102"",""809029""
","""event"",""trial"",""time""
""fullscreenenter"",""1"",""3752""
","
","","","-1","","","13","19773","7285","y","elianto","#f73b6a7A","-1","-1","1","0","[]","0","2","","","19773","36","2","4","lose","no-go","0"
"pit-trial","164","1138465","0.0-41.0","battery-v0.2","","""event"",""trial"",""time""
""fullscreenenter"",""1"",""3752""
""blur"",""102"",""806577""
""focus"",""102"",""809029""
","""event"",""trial"",""time""
""blur"",""102"",""806577""
","""event"",""trial"",""time""
""focus"",""102"",""809029""
","""event"",""trial"",""time""
""fullscreenenter"",""1"",""3752""
","
","","","-1","","","13","19773","7285","y","elianto","#f73b6a7A","-1","-1","1","0","[]","0","2","","","19773","37","2","4","lose","no-go","0"
"pit-trial","165","1141893","0.0-42.0","battery-v0.2","","""event"",""trial"",""time""
""fullscreenenter"",""1"",""3752""
""blur"",""102"",""806577""
""focus"",""102"",""809029""
","""event"",""trial"",""time""
""blur"",""102"",""806577""
","""event"",""trial"",""time""
""focus"",""102"",""809029""
","""event"",""trial"",""time""
""fullscreenenter"",""1"",""3752""
","
","","","569","","","13","19773","7285","r","elianto","#3366ff99"," "," ","1","+10","[1419.9999999997672]","1","2","","","19773","38","1","1","win","go","0"
"pit-trial","166","1146754","0.0-43.0","battery-v0.2","","""event"",""trial"",""time""
""fullscreenenter"",""1"",""3752""
""blur"",""102"",""806577""
""focus"",""102"",""809029""
","""event"",""trial"",""time""
""blur"",""102"",""806577""
","""event"",""trial"",""time""
""focus"",""102"",""809029""
","""event"",""trial"",""time""
""fullscreenenter"",""1"",""3752""
","
","","","-1","","","13","19773","7285","h","elianto","#f73b6a7A"," ","-1","0","-10","[]","0","2","","","19773","39","3","3","lose","go","0"
"pit-trial","167","1150070","0.0-44.0","battery-v0.2","","""event"",""trial"",""time""
""fullscreenenter"",""1"",""3752""
""blur"",""102"",""806577""
""focus"",""102"",""809029""
","""event"",""trial"",""time""
""blur"",""102"",""806577""
","""event"",""trial"",""time""
""focus"",""102"",""809029""
","""event"",""trial"",""time""
""fullscreenenter"",""1"",""3752""
","
","","","458","","","13","19773","7285","m","elianto","#f73b6a7A","-1"," ","0","-10","[1309]","1","2","","","19773","40","0","4","lose","no-go","0"
"pit-trial","168","1153364","0.0-45.0","battery-v0.2","","""event"",""trial"",""time""
""fullscreenenter"",""1"",""3752""
""blur"",""102"",""806577""
""focus"",""102"",""809029""
","""event"",""trial"",""time""
""blur"",""102"",""806577""
","""event"",""trial"",""time""
""focus"",""102"",""809029""
","""event"",""trial"",""time""
""fullscreenenter"",""1"",""3752""
","
","","","433","","","13","19773","7285","r","elianto","#3366ff99"," "," ","1","+10","[1283.9999999997672]","1","2","","","19773","41","1","1","win","go","0"
"pit-trial","169","1158223","0.0-46.0","battery-v0.2","","""event"",""trial"",""time""
""fullscreenenter"",""1"",""3752""
""blur"",""102"",""806577""
""focus"",""102"",""809029""
","""event"",""trial"",""time""
""blur"",""102"",""806577""
","""event"",""trial"",""time""
""focus"",""102"",""809029""
","""event"",""trial"",""time""
""fullscreenenter"",""1"",""3752""
","
","","","-1","","","13","19773","7285","h","elianto","#f73b6a7A"," ","-1","0","0","[]","0","2","","","19773","42","3","3","lose","go","1"
"pit-trial","170","1162697","0.0-47.0","battery-v0.2","","""event"",""trial"",""time""
""fullscreenenter"",""1"",""3752""
""blur"",""102"",""806577""
""focus"",""102"",""809029""
","""event"",""trial"",""time""
""blur"",""102"",""806577""
","""event"",""trial"",""time""
""focus"",""102"",""809029""
","""event"",""trial"",""time""
""fullscreenenter"",""1"",""3752""
","
","","","1615","","","13","19773","7285","y","elianto","#f73b6a7A","-1"," ","0","-10","[2466]","1","2","","","19773","43","2","4","lose","no-go","0"
"pit-trial","171","1166870","0.0-48.0","battery-v0.2","","""event"",""trial"",""time""
""fullscreenenter"",""1"",""3752""
""blur"",""102"",""806577""
""focus"",""102"",""809029""
","""event"",""trial"",""time""
""blur"",""102"",""806577""
","""event"",""trial"",""time""
""focus"",""102"",""809029""
","""event"",""trial"",""time""
""fullscreenenter"",""1"",""3752""
","
","","","1315","","","13","19773","7285","m","elianto","#f73b6a7A","-1"," ","0","-10","[2166]","1","2","","","19773","44","0","4","lose","no-go","0"
"pit-trial","172","1170201","0.0-49.0","battery-v0.2","","""event"",""trial"",""time""
""fullscreenenter"",""1"",""3752""
""blur"",""102"",""806577""
""focus"",""102"",""809029""
","""event"",""trial"",""time""
""blur"",""102"",""806577""
","""event"",""trial"",""time""
""focus"",""102"",""809029""
","""event"",""trial"",""time""
""fullscreenenter"",""1"",""3752""
","
","","","473","","","13","19773","7285","z","elianto","#3366ff99","-1"," ","0","0","[1323]","1","2","","","19773","45","4","2","win","no-go","0"
"pit-trial","173","1175060","0.0-50.0","battery-v0.2","","""event"",""trial"",""time""
""fullscreenenter"",""1"",""3752""
""blur"",""102"",""806577""
""focus"",""102"",""809029""
","""event"",""trial"",""time""
""blur"",""102"",""806577""
","""event"",""trial"",""time""
""focus"",""102"",""809029""
","""event"",""trial"",""time""
""fullscreenenter"",""1"",""3752""
","
","","","-1","","","13","19773","7285","m","elianto","#f73b6a7A","-1","-1","1","0","[]","0","2","","","19773","46","0","4","lose","no-go","0"
"pit-trial","174","1179920","0.0-51.0","battery-v0.2","","""event"",""trial"",""time""
""fullscreenenter"",""1"",""3752""
""blur"",""102"",""806577""
""focus"",""102"",""809029""
","""event"",""trial"",""time""
""blur"",""102"",""806577""
","""event"",""trial"",""time""
""focus"",""102"",""809029""
","""event"",""trial"",""time""
""fullscreenenter"",""1"",""3752""
","
","","","-1","","","13","19773","7285","y","elianto","#f73b6a7A","-1","-1","1","0","[]","0","2","","","19773","47","2","4","lose","no-go","0"
"pit-trial","175","1184083","0.0-52.0","battery-v0.2","","""event"",""trial"",""time""
""fullscreenenter"",""1"",""3752""
""blur"",""102"",""806577""
""focus"",""102"",""809029""
","""event"",""trial"",""time""
""blur"",""102"",""806577""
","""event"",""trial"",""time""
""focus"",""102"",""809029""
","""event"",""trial"",""time""
""fullscreenenter"",""1"",""3752""
","
","","","1303","","","13","19773","7285","h","elianto","#f73b6a7A"," "," ","1","-10","[2154]","1","2","","","19773","48","3","3","lose","go","1"
"pit-trial","176","1187368","0.0-53.0","battery-v0.2","","""event"",""trial"",""time""
""fullscreenenter"",""1"",""3752""
""blur"",""102"",""806577""
""focus"",""102"",""809029""
","""event"",""trial"",""time""
""blur"",""102"",""806577""
","""event"",""trial"",""time""
""focus"",""102"",""809029""
","""event"",""trial"",""time""
""fullscreenenter"",""1"",""3752""
","
","","","427","","","13","19773","7285","z","elianto","#3366ff99","-1"," ","0","+10","[1277]","1","2","","","19773","49","4","2","win","no-go","1"
"pit-trial","177","1190808","0.0-54.0","battery-v0.2","","""event"",""trial"",""time""
""fullscreenenter"",""1"",""3752""
""blur"",""102"",""806577""
""focus"",""102"",""809029""
","""event"",""trial"",""time""
""blur"",""102"",""806577""
","""event"",""trial"",""time""
""focus"",""102"",""809029""
","""event"",""trial"",""time""
""fullscreenenter"",""1"",""3752""
","
","","","582","","","13","19773","7285","r","elianto","#3366ff99"," "," ","1","+10","[1432.9999999997672]","1","2","","","19773","50","1","1","win","go","0"
"pit-trial","178","1195295","0.0-55.0","battery-v0.2","","""event"",""trial"",""time""
""fullscreenenter"",""1"",""3752""
""blur"",""102"",""806577""
""focus"",""102"",""809029""
","""event"",""trial"",""time""
""blur"",""102"",""806577""
","""event"",""trial"",""time""
""focus"",""102"",""809029""
","""event"",""trial"",""time""
""fullscreenenter"",""1"",""3752""
","
","","","1628","","","13","19773","7285","m","elianto","#f73b6a7A","-1"," ","0","-10","[2479]","1","2","","","19773","51","0","4","lose","no-go","0"
"pit-trial","179","1199759","0.0-56.0","battery-v0.2","","""event"",""trial"",""time""
""fullscreenenter"",""1"",""3752""
""blur"",""102"",""806577""
""focus"",""102"",""809029""
","""event"",""trial"",""time""
""blur"",""102"",""806577""
","""event"",""trial"",""time""
""focus"",""102"",""809029""
","""event"",""trial"",""time""
""fullscreenenter"",""1"",""3752""
","
","","","1606.0000000002328","","","13","19773","7285","h","elianto","#f73b6a7A"," "," ","1","0","[2457.000000000233]","1","2","","","19773","52","3","3","lose","go","0"
"pit-trial","180","1204619","0.0-57.0","battery-v0.2","","""event"",""trial"",""time""
""fullscreenenter"",""1"",""3752""
""blur"",""102"",""806577""
""focus"",""102"",""809029""
","""event"",""trial"",""time""
""blur"",""102"",""806577""
","""event"",""trial"",""time""
""focus"",""102"",""809029""
","""event"",""trial"",""time""
""fullscreenenter"",""1"",""3752""
","
","","","-1","","","13","19773","7285","y","elianto","#f73b6a7A","-1","-1","1","0","[]","0","2","","","19773","53","2","4","lose","no-go","0"
"pit-trial","181","1207972","0.0-58.0","battery-v0.2","","""event"",""trial"",""time""
""fullscreenenter"",""1"",""3752""
""blur"",""102"",""806577""
""focus"",""102"",""809029""
","""event"",""trial"",""time""
""blur"",""102"",""806577""
","""event"",""trial"",""time""
""focus"",""102"",""809029""
","""event"",""trial"",""time""
""fullscreenenter"",""1"",""3752""
","
","","","492.00000000023283","","","13","19773","7285","z","elianto","#3366ff99","-1"," ","0","+10","[1344.0000000002328]","1","2","","","19773","54","4","2","win","no-go","1"
"pit-trial","182","1211376","0.0-59.0","battery-v0.2","","""event"",""trial"",""time""
""fullscreenenter"",""1"",""3752""
""blur"",""102"",""806577""
""focus"",""102"",""809029""
","""event"",""trial"",""time""
""blur"",""102"",""806577""
","""event"",""trial"",""time""
""focus"",""102"",""809029""
","""event"",""trial"",""time""
""fullscreenenter"",""1"",""3752""
","
","","","544","","","13","19773","7285","r","elianto","#3366ff99"," "," ","1","+10","[1395]","1","2","","","19773","55","1","1","win","go","0"
"pit-trial","183","1216236","0.0-60.0","battery-v0.2","","""event"",""trial"",""time""
""fullscreenenter"",""1"",""3752""
""blur"",""102"",""806577""
""focus"",""102"",""809029""
","""event"",""trial"",""time""
""blur"",""102"",""806577""
","""event"",""trial"",""time""
""focus"",""102"",""809029""
","""event"",""trial"",""time""
""fullscreenenter"",""1"",""3752""
","
","","","-1","","","13","19773","7285","m","elianto","#f73b6a7A","-1","-1","1","0","[]","0","2","","","19773","56","0","4","lose","no-go","0"
"pit-trial","184","1219793","0.0-61.0","battery-v0.2","","""event"",""trial"",""time""
""fullscreenenter"",""1"",""3752""
""blur"",""102"",""806577""
""focus"",""102"",""809029""
","""event"",""trial"",""time""
""blur"",""102"",""806577""
","""event"",""trial"",""time""
""focus"",""102"",""809029""
","""event"",""trial"",""time""
""fullscreenenter"",""1"",""3752""
","
","","","698.9999999997672","","","13","19773","7285","z","elianto","#3366ff99","-1"," ","0","0","[1550]","1","2","","","19773","57","4","2","win","no-go","0"
"pit-trial","185","1224652","0.0-62.0","battery-v0.2","","""event"",""trial"",""time""
""fullscreenenter"",""1"",""3752""
""blur"",""102"",""806577""
""focus"",""102"",""809029""
","""event"",""trial"",""time""
""blur"",""102"",""806577""
","""event"",""trial"",""time""
""focus"",""102"",""809029""
","""event"",""trial"",""time""
""fullscreenenter"",""1"",""3752""
","
","","","-1","","","13","19773","7285","h","elianto","#f73b6a7A"," ","-1","0","-10","[]","0","2","","","19773","58","3","3","lose","go","0"
"pit-trial","186","1227978","0.0-63.0","battery-v0.2","","""event"",""trial"",""time""
""fullscreenenter"",""1"",""3752""
""blur"",""102"",""806577""
""focus"",""102"",""809029""
","""event"",""trial"",""time""
""blur"",""102"",""806577""
","""event"",""trial"",""time""
""focus"",""102"",""809029""
","""event"",""trial"",""time""
""fullscreenenter"",""1"",""3752""
","
","","","466","","","13","19773","7285","r","elianto","#3366ff99"," "," ","1","+10","[1317]","1","2","","","19773","59","1","1","win","go","0"
"pit-trial","187","1232838","0.0-64.0","battery-v0.2","","""event"",""trial"",""time""
""fullscreenenter"",""1"",""3752""
""blur"",""102"",""806577""
""focus"",""102"",""809029""
","""event"",""trial"",""time""
""blur"",""102"",""806577""
","""event"",""trial"",""time""
""focus"",""102"",""809029""
","""event"",""trial"",""time""
""fullscreenenter"",""1"",""3752""
","
","","","-1","","","13","19773","7285","m","elianto","#f73b6a7A","-1","-1","1","-10","[]","0","2","","","19773","60","0","4","lose","no-go","1"
"pit-trial","188","1237698","0.0-65.0","battery-v0.2","","""event"",""trial"",""time""
""fullscreenenter"",""1"",""3752""
""blur"",""102"",""806577""
""focus"",""102"",""809029""
","""event"",""trial"",""time""
""blur"",""102"",""806577""
","""event"",""trial"",""time""
""focus"",""102"",""809029""
","""event"",""trial"",""time""
""fullscreenenter"",""1"",""3752""
","
","","","-1","","","13","19773","7285","y","elianto","#f73b6a7A","-1","-1","1","0","[]","0","2","","","19773","61","2","4","lose","no-go","0"
"pit-trial","189","1241598","0.0-66.0","battery-v0.2","","""event"",""trial"",""time""
""fullscreenenter"",""1"",""3752""
""blur"",""102"",""806577""
""focus"",""102"",""809029""
","""event"",""trial"",""time""
""blur"",""102"",""806577""
","""event"",""trial"",""time""
""focus"",""102"",""809029""
","""event"",""trial"",""time""
""fullscreenenter"",""1"",""3752""
","
","","","1114","","","13","19773","7285","h","elianto","#f73b6a7A"," "," ","1","0","[1965]","1","2","","","19773","62","3","3","lose","go","0"
"pit-trial","190","1244912","0.0-67.0","battery-v0.2","","""event"",""trial"",""time""
""fullscreenenter"",""1"",""3752""
""blur"",""102"",""806577""
""focus"",""102"",""809029""
","""event"",""trial"",""time""
""blur"",""102"",""806577""
","""event"",""trial"",""time""
""focus"",""102"",""809029""
","""event"",""trial"",""time""
""fullscreenenter"",""1"",""3752""
","
","","","457","","","13","19773","7285","z","elianto","#3366ff99","-1"," ","0","0","[1308]","1","2","","","19773","63","4","2","win","no-go","0"
"pit-trial","191","1248250","0.0-68.0","battery-v0.2","","""event"",""trial"",""time""
""fullscreenenter"",""1"",""3752""
""blur"",""102"",""806577""
""focus"",""102"",""809029""
","""event"",""trial"",""time""
""blur"",""102"",""806577""
","""event"",""trial"",""time""
""focus"",""102"",""809029""
","""event"",""trial"",""time""
""fullscreenenter"",""1"",""3752""
","
","","","478","","","13","19773","7285","r","elianto","#3366ff99"," "," ","1","+10","[1330]","1","2","","","19773","64","1","1","win","go","0"
"pit-trial","192","1251702","0.0-69.0","battery-v0.2","","""event"",""trial"",""time""
""fullscreenenter"",""1"",""3752""
""blur"",""102"",""806577""
""focus"",""102"",""809029""
","""event"",""trial"",""time""
""blur"",""102"",""806577""
","""event"",""trial"",""time""
""focus"",""102"",""809029""
","""event"",""trial"",""time""
""fullscreenenter"",""1"",""3752""
","
","","","592","","","13","19773","7285","h","elianto","#f73b6a7A"," "," ","1","0","[1443]","1","2","","","19773","65","3","3","lose","go","0"
"pit-trial","193","1255093","0.0-70.0","battery-v0.2","","""event"",""trial"",""time""
""fullscreenenter"",""1"",""3752""
""blur"",""102"",""806577""
""focus"",""102"",""809029""
","""event"",""trial"",""time""
""blur"",""102"",""806577""
","""event"",""trial"",""time""
""focus"",""102"",""809029""
","""event"",""trial"",""time""
""fullscreenenter"",""1"",""3752""
","
","","","534","","","13","19773","7285","z","elianto","#3366ff99","-1"," ","0","0","[1384]","1","2","","","19773","66","4","2","win","no-go","0"
"pit-trial","194","1259952","0.0-71.0","battery-v0.2","","""event"",""trial"",""time""
""fullscreenenter"",""1"",""3752""
""blur"",""102"",""806577""
""focus"",""102"",""809029""
","""event"",""trial"",""time""
""blur"",""102"",""806577""
","""event"",""trial"",""time""
""focus"",""102"",""809029""
","""event"",""trial"",""time""
""fullscreenenter"",""1"",""3752""
","
","","","-1","","","13","19773","7285","y","elianto","#f73b6a7A","-1","-1","1","0","[]","0","2","","","19773","67","2","4","lose","no-go","0"
"pit-trial","195","1263334","0.0-72.0","battery-v0.2","","""event"",""trial"",""time""
""fullscreenenter"",""1"",""3752""
""blur"",""102"",""806577""
""focus"",""102"",""809029""
","""event"",""trial"",""time""
""blur"",""102"",""806577""
","""event"",""trial"",""time""
""focus"",""102"",""809029""
","""event"",""trial"",""time""
""fullscreenenter"",""1"",""3752""
","
","","","522","","","13","19773","7285","r","elianto","#3366ff99"," "," ","1","0","[1372.9999999997672]","1","2","","","19773","68","1","1","win","go","1"
"pit-trial","196","1266685","0.0-73.0","battery-v0.2","","""event"",""trial"",""time""
""fullscreenenter"",""1"",""3752""
""blur"",""102"",""806577""
""focus"",""102"",""809029""
","""event"",""trial"",""time""
""blur"",""102"",""806577""
","""event"",""trial"",""time""
""focus"",""102"",""809029""
","""event"",""trial"",""time""
""fullscreenenter"",""1"",""3752""
","
","","","490","","","13","19773","7285","c","elianto","#3366ff99"," "," ","1","0","[1342]","1","2","","","19773","69","5","1","win","go","1"
"pit-trial","197","1270002","0.0-74.0","battery-v0.2","","""event"",""trial"",""time""
""fullscreenenter"",""1"",""3752""
""blur"",""102"",""806577""
""focus"",""102"",""809029""
","""event"",""trial"",""time""
""blur"",""102"",""806577""
","""event"",""trial"",""time""
""focus"",""102"",""809029""
","""event"",""trial"",""time""
""fullscreenenter"",""1"",""3752""
","
","","","458","","","13","19773","7285","z","elianto","#3366ff99","-1"," ","0","0","[1309]","1","2","","","19773","70","4","2","win","no-go","0"
"pit-trial","198","1274193","0.0-75.0","battery-v0.2","","""event"",""trial"",""time""
""fullscreenenter"",""1"",""3752""
""blur"",""102"",""806577""
""focus"",""102"",""809029""
","""event"",""trial"",""time""
""blur"",""102"",""806577""
","""event"",""trial"",""time""
""focus"",""102"",""809029""
","""event"",""trial"",""time""
""fullscreenenter"",""1"",""3752""
","
","","","1331","","","13","19773","7285","h","elianto","#f73b6a7A"," "," ","1","0","[2182]","1","2","","","19773","71","3","3","lose","go","0"
"pit-trial","199","1277557","0.0-76.0","battery-v0.2","","""event"",""trial"",""time""
""fullscreenenter"",""1"",""3752""
""blur"",""102"",""806577""
""focus"",""102"",""809029""
","""event"",""trial"",""time""
""blur"",""102"",""806577""
","""event"",""trial"",""time""
""focus"",""102"",""809029""
","""event"",""trial"",""time""
""fullscreenenter"",""1"",""3752""
","
","","","504","","","13","19773","7285","r","elianto","#3366ff99"," "," ","1","+10","[1355]","1","2","","","19773","72","1","1","win","go","0"
"pit-trial","200","1281949","0.0-77.0","battery-v0.2","","""event"",""trial"",""time""
""fullscreenenter"",""1"",""3752""
""blur"",""102"",""806577""
""focus"",""102"",""809029""
","""event"",""trial"",""time""
""blur"",""102"",""806577""
","""event"",""trial"",""time""
""focus"",""102"",""809029""
","""event"",""trial"",""time""
""fullscreenenter"",""1"",""3752""
","
","","","1534.0000000002328","","","13","19773","7285","h","elianto","#f73b6a7A"," "," ","1","0","[2385.000000000233]","1","2","","","19773","73","3","3","lose","go","0"
"pit-trial","201","1285369","0.0-78.0","battery-v0.2","","""event"",""trial"",""time""
""fullscreenenter"",""1"",""3752""
""blur"",""102"",""806577""
""focus"",""102"",""809029""
","""event"",""trial"",""time""
""blur"",""102"",""806577""
","""event"",""trial"",""time""
""focus"",""102"",""809029""
","""event"",""trial"",""time""
""fullscreenenter"",""1"",""3752""
","
","","","560","","","13","19773","7285","z","elianto","#3366ff99","-1"," ","0","+10","[1411]","1","2","","","19773","74","4","2","win","no-go","1"
"pit-trial","202","1288702","0.0-79.0","battery-v0.2","","""event"",""trial"",""time""
""fullscreenenter"",""1"",""3752""
""blur"",""102"",""806577""
""focus"",""102"",""809029""
","""event"",""trial"",""time""
""blur"",""102"",""806577""
","""event"",""trial"",""time""
""focus"",""102"",""809029""
","""event"",""trial"",""time""
""fullscreenenter"",""1"",""3752""
","
","","","474","","","13","19773","7285","c","elianto","#3366ff99"," "," ","1","0","[1325]","1","2","","","19773","75","5","1","win","go","1"
"pit-trial","203","1292052","0.0-80.0","battery-v0.2","","""event"",""trial"",""time""
""fullscreenenter"",""1"",""3752""
""blur"",""102"",""806577""
""focus"",""102"",""809029""
","""event"",""trial"",""time""
""blur"",""102"",""806577""
","""event"",""trial"",""time""
""focus"",""102"",""809029""
","""event"",""trial"",""time""
""fullscreenenter"",""1"",""3752""
","
","","","492","","","13","19773","7285","r","elianto","#3366ff99"," "," ","1","+10","[1342]","1","2","","","19773","76","1","1","win","go","0"
"pit-trial","204","1295403","0.0-81.0","battery-v0.2","","""event"",""trial"",""time""
""fullscreenenter"",""1"",""3752""
""blur"",""102"",""806577""
""focus"",""102"",""809029""
","""event"",""trial"",""time""
""blur"",""102"",""806577""
","""event"",""trial"",""time""
""focus"",""102"",""809029""
","""event"",""trial"",""time""
""fullscreenenter"",""1"",""3752""
","
","","","491.99999999976717","","","13","19773","7285","c","elianto","#3366ff99"," "," ","1","+10","[1342]","1","2","","","19773","77","5","1","win","go","0"
"pit-trial","205","1298690","0.0-82.0","battery-v0.2","","""event"",""trial"",""time""
""fullscreenenter"",""1"",""3752""
""blur"",""102"",""806577""
""focus"",""102"",""809029""
","""event"",""trial"",""time""
""blur"",""102"",""806577""
","""event"",""trial"",""time""
""focus"",""102"",""809029""
","""event"",""trial"",""time""
""fullscreenenter"",""1"",""3752""
","
","","","429","","","13","19773","7285","z","elianto","#3366ff99","-1"," ","0","0","[1279.9999999997672]","1","2","","","19773","78","4","2","win","no-go","0"
"pit-trial","206","1302923","0.0-83.0","battery-v0.2","","""event"",""trial"",""time""
""fullscreenenter"",""1"",""3752""
""blur"",""102"",""806577""
""focus"",""102"",""809029""
","""event"",""trial"",""time""
""blur"",""102"",""806577""
","""event"",""trial"",""time""
""focus"",""102"",""809029""
","""event"",""trial"",""time""
""fullscreenenter"",""1"",""3752""
","
","","","1374","","","13","19773","7285","h","elianto","#f73b6a7A"," "," ","1","0","[2224.999999999767]","1","2","","","19773","79","3","3","lose","go","0"
"pit-trial","207","1307784","0.0-84.0","battery-v0.2","","""event"",""trial"",""time""
""fullscreenenter"",""1"",""3752""
""blur"",""102"",""806577""
""focus"",""102"",""809029""
","""event"",""trial"",""time""
""blur"",""102"",""806577""
","""event"",""trial"",""time""
""focus"",""102"",""809029""
","""event"",""trial"",""time""
""fullscreenenter"",""1"",""3752""
","
","","","-1","","","13","19773","7285","b","elianto","#f73b6a7A","-1","-1","1","0","[]","0","2","","","19773","80","6","4","lose","no-go","0"
"pit-trial","208","1311139","0.0-85.0","battery-v0.2","","""event"",""trial"",""time""
""fullscreenenter"",""1"",""3752""
""blur"",""102"",""806577""
""focus"",""102"",""809029""
","""event"",""trial"",""time""
""blur"",""102"",""806577""
","""event"",""trial"",""time""
""focus"",""102"",""809029""
","""event"",""trial"",""time""
""fullscreenenter"",""1"",""3752""
","
","","","496","","","13","19773","7285","c","elianto","#3366ff99"," "," ","1","0","[1347]","1","2","","","19773","81","5","1","win","go","1"
"pit-trial","209","1315999","0.0-86.0","battery-v0.2","","""event"",""trial"",""time""
""fullscreenenter"",""1"",""3752""
""blur"",""102"",""806577""
""focus"",""102"",""809029""
","""event"",""trial"",""time""
""blur"",""102"",""806577""
","""event"",""trial"",""time""
""focus"",""102"",""809029""
","""event"",""trial"",""time""
""fullscreenenter"",""1"",""3752""
","
","","","-1","","","13","19773","7285","t","elianto","#f73b6a7A"," ","-1","0","0","[]","0","2","","","19773","82","7","3","lose","go","1"
"pit-trial","210","1320858","0.0-87.0","battery-v0.2","","""event"",""trial"",""time""
""fullscreenenter"",""1"",""3752""
""blur"",""102"",""806577""
""focus"",""102"",""809029""
","""event"",""trial"",""time""
""blur"",""102"",""806577""
","""event"",""trial"",""time""
""focus"",""102"",""809029""
","""event"",""trial"",""time""
""fullscreenenter"",""1"",""3752""
","
","","","-1","","","13","19773","7285","b","elianto","#f73b6a7A","-1","-1","1","0","[]","0","2","","","19773","83","6","4","lose","no-go","0"
"pit-trial","211","1324245","0.0-88.0","battery-v0.2","","""event"",""trial"",""time""
""fullscreenenter"",""1"",""3752""
""blur"",""102"",""806577""
""focus"",""102"",""809029""
","""event"",""trial"",""time""
""blur"",""102"",""806577""
","""event"",""trial"",""time""
""focus"",""102"",""809029""
","""event"",""trial"",""time""
""fullscreenenter"",""1"",""3752""
","
","","","527","","","13","19773","7285","z","elianto","#3366ff99","-1"," ","0","0","[1378]","1","2","","","19773","84","4","2","win","no-go","0"
"pit-trial","212","1329104","0.0-89.0","battery-v0.2","","""event"",""trial"",""time""
""fullscreenenter"",""1"",""3752""
""blur"",""102"",""806577""
""focus"",""102"",""809029""
","""event"",""trial"",""time""
""blur"",""102"",""806577""
","""event"",""trial"",""time""
""focus"",""102"",""809029""
","""event"",""trial"",""time""
""fullscreenenter"",""1"",""3752""
","
","","","-1","","","13","19773","7285","b","elianto","#f73b6a7A","-1","-1","1","0","[]","0","2","","","19773","85","6","4","lose","no-go","0"
"pit-trial","213","1332495","0.0-90.0","battery-v0.2","","""event"",""trial"",""time""
""fullscreenenter"",""1"",""3752""
""blur"",""102"",""806577""
""focus"",""102"",""809029""
","""event"",""trial"",""time""
""blur"",""102"",""806577""
","""event"",""trial"",""time""
""focus"",""102"",""809029""
","""event"",""trial"",""time""
""fullscreenenter"",""1"",""3752""
","
","","","531","","","13","19773","7285","c","elianto","#3366ff99"," "," ","1","+10","[1382]","1","2","","","19773","86","5","1","win","go","0"
"pit-trial","214","1337355","0.0-91.0","battery-v0.2","","""event"",""trial"",""time""
""fullscreenenter"",""1"",""3752""
""blur"",""102"",""806577""
""focus"",""102"",""809029""
","""event"",""trial"",""time""
""blur"",""102"",""806577""
","""event"",""trial"",""time""
""focus"",""102"",""809029""
","""event"",""trial"",""time""
""fullscreenenter"",""1"",""3752""
","
","","","-1","","","13","19773","7285","t","elianto","#f73b6a7A"," ","-1","0","-10","[]","0","2","","","19773","87","7","3","lose","go","0"
"pit-trial","215","1340779","0.0-92.0","battery-v0.2","","""event"",""trial"",""time""
""fullscreenenter"",""1"",""3752""
""blur"",""102"",""806577""
""focus"",""102"",""809029""
","""event"",""trial"",""time""
""blur"",""102"",""806577""
","""event"",""trial"",""time""
""focus"",""102"",""809029""
","""event"",""trial"",""time""
""fullscreenenter"",""1"",""3752""
","
","","","565","","","13","19773","7285","z","elianto","#3366ff99","-1"," ","0","0","[1415]","1","2","","","19773","88","4","2","win","no-go","0"
"pit-trial","216","1345640","0.0-93.0","battery-v0.2","","""event"",""trial"",""time""
""fullscreenenter"",""1"",""3752""
""blur"",""102"",""806577""
""focus"",""102"",""809029""
","""event"",""trial"",""time""
""blur"",""102"",""806577""
","""event"",""trial"",""time""
""focus"",""102"",""809029""
","""event"",""trial"",""time""
""fullscreenenter"",""1"",""3752""
","
","","","-1","","","13","19773","7285","b","elianto","#f73b6a7A","-1","-1","1","0","[]","0","2","","","19773","89","6","4","lose","no-go","0"
"pit-trial","217","1348949","0.0-94.0","battery-v0.2","","""event"",""trial"",""time""
""fullscreenenter"",""1"",""3752""
""blur"",""102"",""806577""
""focus"",""102"",""809029""
","""event"",""trial"",""time""
""blur"",""102"",""806577""
","""event"",""trial"",""time""
""focus"",""102"",""809029""
","""event"",""trial"",""time""
""fullscreenenter"",""1"",""3752""
","
