"trial_type","trial_index","time_elapsed","internal_node_id","task_version","subject_id","interactions","blur_events","focus_events","fullscreenenter_events","fullscreenexit_events","success","view_history","rt","responses","num_errors","age","subject","participantId","rune","rune_set","hex","correct","choice","accuracy","outcome","keys","total_keys","block","practice","value","sub","trial","stimulus","robot","valence","action","sham"
"pavlovia","0","14","0.0-0.0","battery-v0.2","","""event"",""trial"",""time""
""fullscreenenter"",""1"",""3465""
","
","
","""event"",""trial"",""time""
""fullscreenenter"",""1"",""3465""
","
","","","","","","","","","","","","","","","","","","","","","","","","","","",""
"fullscreen","1","4464","0.0-1.0","battery-v0.2","","""event"",""trial"",""time""
""fullscreenenter"",""1"",""3465""
","
","
","""event"",""trial"",""time""
""fullscreenenter"",""1"",""3465""
","
","true","","","","","","","","","","","","","","","","","","","","","","","","","",""
"pit-instructions","2","11102","0.0-2.0-0.0","battery-v0.2","","""event"",""trial"",""time""
""fullscreenenter"",""1"",""3465""
","
","
","""event"",""trial"",""time""
""fullscreenenter"",""1"",""3465""
","
","","[{""page_index"":0,""viewing_time"":6630.199999988079}]","6631.399999976158","","","","","","","","","","","","","","","","","","","","","","","",""
"pit-comprehension","3","15676","0.0-2.0-1.0-0.0","battery-v0.2","","""event"",""trial"",""time""
""fullscreenenter"",""1"",""3465""
","
","
","""event"",""trial"",""time""
""fullscreenenter"",""1"",""3465""
","
","","","4567.800000011921","[""shark""]","0","18","4443","2675","","","","","","","","","","","","","","","","","","",""
"pit-instructions","4","17013","0.0-2.0-1.0-1.0","battery-v0.2","","""event"",""trial"",""time""
""fullscreenenter"",""1"",""3465""
","
","
","""event"",""trial"",""time""
""fullscreenenter"",""1"",""3465""
","
","","[{""page_index"":0,""viewing_time"":1313.5}]","1314.199999988079","","","","","","","","","","","","","","","","","","","","","","","",""
"pit-comprehension","5","19281","0.0-2.0-2.0-0.0","battery-v0.2","","""event"",""trial"",""time""
""fullscreenenter"",""1"",""3465""
","
","
","""event"",""trial"",""time""
""fullscreenenter"",""1"",""3465""
","
","","","2261.699999988079","[""tiger""]","0","18","4443","2675","","","","","","","","","","","","","","","","","","",""
"pit-instructions","6","20143","0.0-2.0-2.0-1.0","battery-v0.2","","""event"",""trial"",""time""
""fullscreenenter"",""1"",""3465""
","
","
","""event"",""trial"",""time""
""fullscreenenter"",""1"",""3465""
","
","","[{""page_index"":0,""viewing_time"":856.1999999880791}]","856.7999999523163","","","","","","","","","","","","","","","","","","","","","","","",""
"pit-instructions","7","116911","0.0-2.0-3.0","battery-v0.2","","""event"",""trial"",""time""
""fullscreenenter"",""1"",""3465""
","
","
","""event"",""trial"",""time""
""fullscreenenter"",""1"",""3465""
","
","","[{""page_index"":0,""viewing_time"":9344.5},{""page_index"":1,""viewing_time"":7983.399999976158},{""page_index"":2,""viewing_time"":7599.100000023842},{""page_index"":3,""viewing_time"":6277},{""page_index"":4,""viewing_time"":5898.199999988079},{""page_index"":5,""viewing_time"":5775.900000035763},{""page_index"":6,""viewing_time"":6961.199999988079},{""page_index"":7,""viewing_time"":6542.399999976158},{""page_index"":8,""viewing_time"":6074.199999988079},{""page_index"":9,""viewing_time"":8171.900000035763},{""page_index"":10,""viewing_time"":8112.300000011921},{""page_index"":11,""viewing_time"":7071.799999952316},{""page_index"":12,""viewing_time"":6105.100000023842},{""page_index"":13,""viewing_time"":4850.5}]","96768.30000001192","","","","","","","","","","","","","","","","","","","","","","","",""
"pit-trial","8","120399","0.0-2.0-4.0-0.0","battery-v0.2","","""event"",""trial"",""time""
""fullscreenenter"",""1"",""3465""
","
","
","""event"",""trial"",""time""
""fullscreenenter"",""1"",""3465""
","
","","","627.0999999642372","","","18","4443","2675","&#9784;","elianto","#FFFFF080"," "," ","1","&#10004","[1478.6000000238419]","1","0","0","","","","","","","",""
"pit-trial","9","124077","0.0-2.0-4.1-0.1","battery-v0.2","","""event"",""trial"",""time""
""fullscreenenter"",""1"",""3465""
","
","
","""event"",""trial"",""time""
""fullscreenenter"",""1"",""3465""
","
","","","815.2999999523163","","","18","4443","2675","&#9784;","elianto","#FFFFF080"," "," ","1","&#10004","[1666.800000011921]","1","0","0","","","","","","","",""
"pit-trial","10","128936","0.0-2.0-4.2-0.2","battery-v0.2","","""event"",""trial"",""time""
""fullscreenenter"",""1"",""3465""
","
","
","""event"",""trial"",""time""
""fullscreenenter"",""1"",""3465""
","
","","","-1","","","18","4443","2675","&#9784;","elianto","#FFFFF080"," ","-1","0","&#10060","[]","0","0","0","","","","","","","",""
"pit-trial","11","133800","0.0-2.0-4.3-0.3","battery-v0.2","","""event"",""trial"",""time""
""fullscreenenter"",""1"",""3465""
","
","
","""event"",""trial"",""time""
""fullscreenenter"",""1"",""3465""
","
","","","-1","","","18","4443","2675","&#9784;","elianto","#FFFFF080"," ","-1","0","&#10060","[]","0","0","0","","","","","","","",""
"pit-trial","12","137465","0.0-2.0-4.4-0.4","battery-v0.2","","""event"",""trial"",""time""
""fullscreenenter"",""1"",""3465""
","
","
","""event"",""trial"",""time""
""fullscreenenter"",""1"",""3465""
","
","","","805.1000000238419","","","18","4443","2675","&#9784;","elianto","#FFFFF080"," "," ","1","&#10004","[1655.4000000357628]","1","0","0","","","","","","","",""
"pit-trial","13","141295","0.0-2.0-4.5-0.5","battery-v0.2","","""event"",""trial"",""time""
""fullscreenenter"",""1"",""3465""
","
","
","""event"",""trial"",""time""
""fullscreenenter"",""1"",""3465""
","
","","","970.9000000357628","","","18","4443","2675","&#9784;","elianto","#FFFFF080"," "," ","1","&#10004","[1821.7000000476837]","1","0","0","","","","","","","",""
"pit-trial","14","145164","0.0-2.0-4.6-0.6","battery-v0.2","","""event"",""trial"",""time""
""fullscreenenter"",""1"",""3465""
","
","
","""event"",""trial"",""time""
""fullscreenenter"",""1"",""3465""
","
","","","1015.7999999523163","","","18","4443","2675","&#9784;","elianto","#FFFFF080"," "," ","1","&#10004","[1866.5]","1","0","0","","","","","","","",""
"pit-instructions","15","160328","0.0-2.0-4.6-1.6-0.6","battery-v0.2","","""event"",""trial"",""time""
""fullscreenenter"",""1"",""3465""
","
","
","""event"",""trial"",""time""
""fullscreenenter"",""1"",""3465""
","
","","[{""page_index"":0,""viewing_time"":6088.699999988079},{""page_index"":1,""viewing_time"":9071.700000047684}]","15161","","","","","","","","","","","","","","","","","","","","","","","",""
"pit-instructions","16","181675","0.0-2.0-5.0","battery-v0.2","","""event"",""trial"",""time""
""fullscreenenter"",""1"",""3465""
","
","
","""event"",""trial"",""time""
""fullscreenenter"",""1"",""3465""
","
","","[{""page_index"":0,""viewing_time"":5065.300000011921},{""page_index"":1,""viewing_time"":5744.199999988079},{""page_index"":2,""viewing_time"":5469.100000023842},{""page_index"":3,""viewing_time"":5063.5}]","21342.899999976158","","","","","","","","","","","","","","","","","","","","","","","",""
"pit-trial","17","186539","0.0-2.0-6.0-0.0","battery-v0.2","","""event"",""trial"",""time""
""fullscreenenter"",""1"",""3465""
","
","
","""event"",""trial"",""time""
""fullscreenenter"",""1"",""3465""
","
","","","-1","","","18","4443","2675","&#9854;","elianto","#FFFFF080","-1","-1","1","&#10004","[]","0","0","1","","","","","","","",""
"pit-trial","18","191404","0.0-2.0-6.1-0.1","battery-v0.2","","""event"",""trial"",""time""
""fullscreenenter"",""1"",""3465""
","
","
","""event"",""trial"",""time""
""fullscreenenter"",""1"",""3465""
","
","","","-1","","","18","4443","2675","&#9854;","elianto","#FFFFF080","-1","-1","1","&#10004","[]","0","0","1","","","","","","","",""
"pit-trial","19","196268","0.0-2.0-6.2-0.2","battery-v0.2","","""event"",""trial"",""time""
""fullscreenenter"",""1"",""3465""
","
","
","""event"",""trial"",""time""
""fullscreenenter"",""1"",""3465""
","
","","","-1","","","18","4443","2675","&#9854;","elianto","#FFFFF080","-1","-1","1","&#10004","[]","0","0","1","","","","","","","",""
"pit-trial","20","201132","0.0-2.0-6.3-0.3","battery-v0.2","","""event"",""trial"",""time""
""fullscreenenter"",""1"",""3465""
","
","
","""event"",""trial"",""time""
""fullscreenenter"",""1"",""3465""
","
","","","-1","","","18","4443","2675","&#9854;","elianto","#FFFFF080","-1","-1","1","&#10004","[]","0","0","1","","","","","","","",""
"pit-trial","21","205992","0.0-2.0-6.4-0.4","battery-v0.2","","""event"",""trial"",""time""
""fullscreenenter"",""1"",""3465""
","
","
","""event"",""trial"",""time""
""fullscreenenter"",""1"",""3465""
","
","","","-1","","","18","4443","2675","&#9854;","elianto","#FFFFF080","-1","-1","1","&#10004","[]","0","0","1","","","","","","","",""
"pit-instructions","22","319071","0.0-2.0-7.0","battery-v0.2","","""event"",""trial"",""time""
""fullscreenenter"",""1"",""3465""
","
","
","""event"",""trial"",""time""
""fullscreenenter"",""1"",""3465""
","
","","[{""page_index"":0,""viewing_time"":5908.400000035763},{""page_index"":1,""viewing_time"":6348.5},{""page_index"":2,""viewing_time"":6016},{""page_index"":3,""viewing_time"":6290.699999988079},{""page_index"":4,""viewing_time"":5268.300000011921},{""page_index"":5,""viewing_time"":5121.399999976158},{""page_index"":6,""viewing_time"":4485.900000035763},{""page_index"":7,""viewing_time"":8631.799999952316},{""page_index"":8,""viewing_time"":6734.800000011921},{""page_index"":9,""viewing_time"":5969.699999988079},{""page_index"":10,""viewing_time"":6636.900000035763},{""page_index"":11,""viewing_time"":4309.5},{""page_index"":12,""viewing_time"":6751.699999988079},{""page_index"":13,""viewing_time"":6937.100000023842},{""page_index"":14,""viewing_time"":7035},{""page_index"":15,""viewing_time"":6767.699999988079},{""page_index"":16,""viewing_time"":6461},{""page_index"":17,""viewing_time"":7405.199999988079}]","113080","","","","","","","","","","","","","","","","","","","","","","","",""
"pit-trial","23","322571","0.0-2.0-8.0-0.0","battery-v0.2","","""event"",""trial"",""time""
""fullscreenenter"",""1"",""3465""
","
","
","""event"",""trial"",""time""
""fullscreenenter"",""1"",""3465""
","
","","","642.6999999880791","","","18","4443","2675","&#9776;","elianto","#3366ff99"," "," ","1","+10","[1495.6000000238419]","1","0","1","","","","","","","",""
"pit-trial","24","325821","0.0-2.0-8.0-1.0","battery-v0.2","","""event"",""trial"",""time""
""fullscreenenter"",""1"",""3465""
","
","
","""event"",""trial"",""time""
""fullscreenenter"",""1"",""3465""
","
","","","393","","","18","4443","2675","&#9776;","elianto","#3366ff99"," "," ","1","+10","[1244.6000000238419]","1","0","1","","","","","","","",""
"pit-trial","25","329070","0.0-2.0-8.0-2.0","battery-v0.2","","""event"",""trial"",""time""
""fullscreenenter"",""1"",""3465""
","
","
","""event"",""trial"",""time""
""fullscreenenter"",""1"",""3465""
","
","","","393.69999998807907","","","18","4443","2675","&#9776;","elianto","#3366ff99"," "," ","1","+10","[1245.699999988079]","1","0","1","","","","","","","",""
"pit-trial","26","332344","0.0-2.0-8.0-3.0","battery-v0.2","","""event"",""trial"",""time""
""fullscreenenter"",""1"",""3465""
","
","
","""event"",""trial"",""time""
""fullscreenenter"",""1"",""3465""
","
","","","413.0999999642372","","","18","4443","2675","&#9776;","elianto","#3366ff99"," "," ","1","0","[1265.7000000476837]","1","0","1","","","","","","","",""
"pit-trial","27","335533","0.0-2.0-8.0-4.0","battery-v0.2","","""event"",""trial"",""time""
""fullscreenenter"",""1"",""3465""
","
","
","""event"",""trial"",""time""
""fullscreenenter"",""1"",""3465""
","
","","","333.30000001192093","","","18","4443","2675","&#9776;","elianto","#3366ff99"," "," ","1","+10","[1184]","1","0","1","","","","","","","",""
"pit-trial","28","339402","0.0-2.0-8.1-0.1","battery-v0.2","","""event"",""trial"",""time""
""fullscreenenter"",""1"",""3465""
","
","
","""event"",""trial"",""time""
""fullscreenenter"",""1"",""3465""
","
","","","1011","","","18","4443","2675","&#9776;","elianto","#3366ff99"," "," ","1","+10","[1863.4000000357628]","1","0","1","","","","","","","",""
"pit-trial","29","342847","0.0-2.0-8.1-1.1","battery-v0.2","","""event"",""trial"",""time""
""fullscreenenter"",""1"",""3465""
","
","
","""event"",""trial"",""time""
""fullscreenenter"",""1"",""3465""
","
","","","585.6999999880791","","","18","4443","2675","&#9776;","elianto","#3366ff99"," "," ","1","+10","[1438]","1","0","1","","","","","","","",""
"pit-trial","30","346352","0.0-2.0-8.1-2.1","battery-v0.2","","""event"",""trial"",""time""
""fullscreenenter"",""1"",""3465""
","
","
","""event"",""trial"",""time""
""fullscreenenter"",""1"",""3465""
","
","","","645.0999999642372","","","18","4443","2675","&#9776;","elianto","#3366ff99"," "," ","1","+10","[1495.8999999761581]","1","0","1","","","","","","","",""
"pit-trial","31","349995","0.0-2.0-8.1-3.1","battery-v0.2","","""event"",""trial"",""time""
""fullscreenenter"",""1"",""3465""
","
","
","""event"",""trial"",""time""
""fullscreenenter"",""1"",""3465""
","
","","","785.4000000357628","","","18","4443","2675","&#9776;","elianto","#3366ff99"," "," ","1","0","[1637.7000000476837]","1","0","1","","","","","","","",""
"pit-trial","32","353316","0.0-2.0-8.1-4.1","battery-v0.2","","""event"",""trial"",""time""
""fullscreenenter"",""1"",""3465""
","
","
","""event"",""trial"",""time""
""fullscreenenter"",""1"",""3465""
","
","","","463.7000000476837","","","18","4443","2675","&#9776;","elianto","#3366ff99"," "," ","1","+10","[1314.5]","1","0","1","","","","","","","",""
"pit-trial","33","356758","0.0-2.0-8.2-0.2","battery-v0.2","","""event"",""trial"",""time""
""fullscreenenter"",""1"",""3465""
","
","
","""event"",""trial"",""time""
""fullscreenenter"",""1"",""3465""
","
","","","581.1999999880791","","","18","4443","2675","&#9776;","elianto","#3366ff99"," "," ","1","+10","[1433.699999988079]","1","0","1","","","","","","","",""
"pit-trial","34","360084","0.0-2.0-8.2-1.2","battery-v0.2","","""event"",""trial"",""time""
""fullscreenenter"",""1"",""3465""
","
","
","""event"",""trial"",""time""
""fullscreenenter"",""1"",""3465""
","
","","","469.80000001192093","","","18","4443","2675","&#9776;","elianto","#3366ff99"," "," ","1","+10","[1320]","1","0","1","","","","","","","",""
"pit-trial","35","363300","0.0-2.0-8.2-2.2","battery-v0.2","","""event"",""trial"",""time""
""fullscreenenter"",""1"",""3465""
","
","
","""event"",""trial"",""time""
""fullscreenenter"",""1"",""3465""
","
","","","359.80000001192093","","","18","4443","2675","&#9776;","elianto","#3366ff99"," "," ","1","+10","[1211.5]","1","0","1","","","","","","","",""
"pit-trial","36","366608","0.0-2.0-8.2-3.2","battery-v0.2","","""event"",""trial"",""time""
""fullscreenenter"",""1"",""3465""
","
","
","""event"",""trial"",""time""
""fullscreenenter"",""1"",""3465""
","
","","","453.5999999642372","","","18","4443","2675","&#9776;","elianto","#3366ff99"," "," ","1","0","[1303.8999999761581]","1","0","1","","","","","","","",""
"pit-trial","37","369877","0.0-2.0-8.2-4.2","battery-v0.2","","""event"",""trial"",""time""
""fullscreenenter"",""1"",""3465""
","
","
","""event"",""trial"",""time""
""fullscreenenter"",""1"",""3465""
","
","","","411.19999998807907","","","18","4443","2675","&#9776;","elianto","#3366ff99"," "," ","1","+10","[1261.8999999761581]","1","0","1","","","","","","","",""
"call-function","38","369881","0.0-2.0-9.0","battery-v0.2","","""event"",""trial"",""time""
""fullscreenenter"",""1"",""3465""
","
","
","""event"",""trial"",""time""
""fullscreenenter"",""1"",""3465""
","
","","","","","","","","","","","","","","","","","","","","","","","","","","",""
"pit-instructions","39","407392","0.0-2.0-10.0","battery-v0.2","","""event"",""trial"",""time""
""fullscreenenter"",""1"",""3465""
","
","
","""event"",""trial"",""time""
""fullscreenenter"",""1"",""3465""
","
","","[{""page_index"":0,""viewing_time"":5908.899999976158},{""page_index"":1,""viewing_time"":6526.300000011921},{""page_index"":2,""viewing_time"":9343.699999988079},{""page_index"":3,""viewing_time"":8624.100000023842},{""page_index"":4,""viewing_time"":7108.399999976158}]","37512.09999996424","","","","","","","","","","","","","","","","","","","","","","","",""
"pit-trial","40","412248","0.0-2.0-11.0-0.0","battery-v0.2","","""event"",""trial"",""time""
""fullscreenenter"",""1"",""3465""
","
","
","""event"",""trial"",""time""
""fullscreenenter"",""1"",""3465""
","
","","","-1","","","18","4443","2675","&#9761;","elianto","#3366ff99","-1","-1","1","+10","[]","0","0","2","","","","","","","",""
"pit-trial","41","417108","0.0-2.0-11.0-1.0","battery-v0.2","","""event"",""trial"",""time""
""fullscreenenter"",""1"",""3465""
","
","
","""event"",""trial"",""time""
""fullscreenenter"",""1"",""3465""
","
","","","-1","","","18","4443","2675","&#9761;","elianto","#3366ff99","-1","-1","1","+10","[]","0","0","2","","","","","","","",""
"pit-trial","42","421970","0.0-2.0-11.0-2.0","battery-v0.2","","""event"",""trial"",""time""
""fullscreenenter"",""1"",""3465""
","
","
","""event"",""trial"",""time""
""fullscreenenter"",""1"",""3465""
","
","","","-1","","","18","4443","2675","&#9761;","elianto","#3366ff99","-1","-1","1","+10","[]","0","0","2","","","","","","","",""
"pit-trial","43","426831","0.0-2.0-11.0-3.0","battery-v0.2","","""event"",""trial"",""time""
""fullscreenenter"",""1"",""3465""
","
","
","""event"",""trial"",""time""
""fullscreenenter"",""1"",""3465""
","
","","","-1","","","18","4443","2675","&#9761;","elianto","#3366ff99","-1","-1","1","0","[]","0","0","2","","","","","","","",""
"pit-trial","44","431691","0.0-2.0-11.0-4.0","battery-v0.2","","""event"",""trial"",""time""
""fullscreenenter"",""1"",""3465""
","
","
","""event"",""trial"",""time""
""fullscreenenter"",""1"",""3465""
","
","","","-1","","","18","4443","2675","&#9761;","elianto","#3366ff99","-1","-1","1","+10","[]","0","0","2","","","","","","","",""
"pit-trial","45","436551","0.0-2.0-11.1-0.1","battery-v0.2","","""event"",""trial"",""time""
""fullscreenenter"",""1"",""3465""
","
","
","""event"",""trial"",""time""
""fullscreenenter"",""1"",""3465""
","
","","","-1","","","18","4443","2675","&#9761;","elianto","#3366ff99","-1","-1","1","+10","[]","0","0","2","","","","","","","",""
"pit-trial","46","441411","0.0-2.0-11.1-1.1","battery-v0.2","","""event"",""trial"",""time""
""fullscreenenter"",""1"",""3465""
","
","
","""event"",""trial"",""time""
""fullscreenenter"",""1"",""3465""
","
","","","-1","","","18","4443","2675","&#9761;","elianto","#3366ff99","-1","-1","1","+10","[]","0","0","2","","","","","","","",""
"pit-trial","47","446269","0.0-2.0-11.1-2.1","battery-v0.2","","""event"",""trial"",""time""
""fullscreenenter"",""1"",""3465""
","
","
","""event"",""trial"",""time""
""fullscreenenter"",""1"",""3465""
","
","","","-1","","","18","4443","2675","&#9761;","elianto","#3366ff99","-1","-1","1","+10","[]","0","0","2","","","","","","","",""
"pit-trial","48","451128","0.0-2.0-11.1-3.1","battery-v0.2","","""event"",""trial"",""time""
""fullscreenenter"",""1"",""3465""
","
","
","""event"",""trial"",""time""
""fullscreenenter"",""1"",""3465""
","
","","","-1","","","18","4443","2675","&#9761;","elianto","#3366ff99","-1","-1","1","0","[]","0","0","2","","","","","","","",""
"pit-trial","49","455986","0.0-2.0-11.1-4.1","battery-v0.2","","""event"",""trial"",""time""
""fullscreenenter"",""1"",""3465""
","
","
","""event"",""trial"",""time""
""fullscreenenter"",""1"",""3465""
","
","","","-1","","","18","4443","2675","&#9761;","elianto","#3366ff99","-1","-1","1","+10","[]","0","0","2","","","","","","","",""
"pit-trial","50","460845","0.0-2.0-11.2-0.2","battery-v0.2","","""event"",""trial"",""time""
""fullscreenenter"",""1"",""3465""
","
","
","""event"",""trial"",""time""
""fullscreenenter"",""1"",""3465""
","
","","","-1","","","18","4443","2675","&#9761;","elianto","#3366ff99","-1","-1","1","+10","[]","0","0","2","","","","","","","",""
"pit-trial","51","465703","0.0-2.0-11.2-1.2","battery-v0.2","","""event"",""trial"",""time""
""fullscreenenter"",""1"",""3465""
","
","
","""event"",""trial"",""time""
""fullscreenenter"",""1"",""3465""
","
","","","-1","","","18","4443","2675","&#9761;","elianto","#3366ff99","-1","-1","1","+10","[]","0","0","2","","","","","","","",""
"pit-trial","52","470562","0.0-2.0-11.2-2.2","battery-v0.2","","""event"",""trial"",""time""
""fullscreenenter"",""1"",""3465""
","
","
","""event"",""trial"",""time""
""fullscreenenter"",""1"",""3465""
","
","","","-1","","","18","4443","2675","&#9761;","elianto","#3366ff99","-1","-1","1","+10","[]","0","0","2","","","","","","","",""
"pit-trial","53","475421","0.0-2.0-11.2-3.2","battery-v0.2","","""event"",""trial"",""time""
""fullscreenenter"",""1"",""3465""
","
","
","""event"",""trial"",""time""
""fullscreenenter"",""1"",""3465""
","
","","","-1","","","18","4443","2675","&#9761;","elianto","#3366ff99","-1","-1","1","0","[]","0","0","2","","","","","","","",""
"pit-trial","54","480279","0.0-2.0-11.2-4.2","battery-v0.2","","""event"",""trial"",""time""
""fullscreenenter"",""1"",""3465""
","
","
","""event"",""trial"",""time""
""fullscreenenter"",""1"",""3465""
","
","","","-1","","","18","4443","2675","&#9761;","elianto","#3366ff99","-1","-1","1","+10","[]","0","0","2","","","","","","","",""
"pit-trial","55","485138","0.0-2.0-11.3-0.3","battery-v0.2","","""event"",""trial"",""time""
""fullscreenenter"",""1"",""3465""
","
","
","""event"",""trial"",""time""
""fullscreenenter"",""1"",""3465""
","
","","","-1","","","18","4443","2675","&#9761;","elianto","#3366ff99","-1","-1","1","+10","[]","0","0","2","","","","","","","",""
"pit-trial","56","489997","0.0-2.0-11.3-1.3","battery-v0.2","","""event"",""trial"",""time""
""fullscreenenter"",""1"",""3465""
","
","
","""event"",""trial"",""time""
""fullscreenenter"",""1"",""3465""
","
","","","-1","","","18","4443","2675","&#9761;","elianto","#3366ff99","-1","-1","1","+10","[]","0","0","2","","","","","","","",""
"pit-trial","57","494855","0.0-2.0-11.3-2.3","battery-v0.2","","""event"",""trial"",""time""
""fullscreenenter"",""1"",""3465""
","
","
","""event"",""trial"",""time""
""fullscreenenter"",""1"",""3465""
","
","","","-1","","","18","4443","2675","&#9761;","elianto","#3366ff99","-1","-1","1","+10","[]","0","0","2","","","","","","","",""
"pit-trial","58","499714","0.0-2.0-11.3-3.3","battery-v0.2","","""event"",""trial"",""time""
""fullscreenenter"",""1"",""3465""
","
","
","""event"",""trial"",""time""
""fullscreenenter"",""1"",""3465""
","
","","","-1","","","18","4443","2675","&#9761;","elianto","#3366ff99","-1","-1","1","0","[]","0","0","2","","","","","","","",""
"pit-trial","59","504572","0.0-2.0-11.3-4.3","battery-v0.2","","""event"",""trial"",""time""
""fullscreenenter"",""1"",""3465""
","
","
","""event"",""trial"",""time""
""fullscreenenter"",""1"",""3465""
","
","","","-1","","","18","4443","2675","&#9761;","elianto","#3366ff99","-1","-1","1","+10","[]","0","0","2","","","","","","","",""
"call-function","60","504576","0.0-2.0-12.0","battery-v0.2","","""event"",""trial"",""time""
""fullscreenenter"",""1"",""3465""
","
","
","""event"",""trial"",""time""
""fullscreenenter"",""1"",""3465""
","
","","","","","","","","","","","","","","","","","","","","","","","","","","",""
"pit-instructions","61","536373","0.0-2.0-13.0","battery-v0.2","","""event"",""trial"",""time""
""fullscreenenter"",""1"",""3465""
","
","
","""event"",""trial"",""time""
""fullscreenenter"",""1"",""3465""
","
","","[{""page_index"":0,""viewing_time"":5362},{""page_index"":1,""viewing_time"":7093.800000011921},{""page_index"":2,""viewing_time"":3186.399999976158},{""page_index"":3,""viewing_time"":10100.900000035763},{""page_index"":4,""viewing_time"":6053.199999988079}]","31797.399999976158","","","","","","","","","","","","","","","","","","","","","","","",""
"pit-trial","62","539711","0.0-2.0-14.0-0.0","battery-v0.2","","""event"",""trial"",""time""
""fullscreenenter"",""1"",""3465""
","
","
","""event"",""trial"",""time""
""fullscreenenter"",""1"",""3465""
","
","","","479.5","","","18","4443","2675","&#9826;","elianto","#f73b6a7A","-1"," ","0","-10","[1329.699999988079]","1","0","3","","","","","","","",""
"pit-trial","63","542902","0.0-2.0-14.0-1.0","battery-v0.2","","""event"",""trial"",""time""
""fullscreenenter"",""1"",""3465""
","
","
","""event"",""trial"",""time""
""fullscreenenter"",""1"",""3465""
","
","","","330","","","18","4443","2675","&#9826;","elianto","#f73b6a7A","-1"," ","0","-10","[1181.8999999761581]","1","0","3","","","","","","","",""
"pit-trial","64","547761","0.0-2.0-14.0-2.0","battery-v0.2","","""event"",""trial"",""time""
""fullscreenenter"",""1"",""3465""
","
","
","""event"",""trial"",""time""
""fullscreenenter"",""1"",""3465""
","
","","","-1","","","18","4443","2675","&#9826;","elianto","#f73b6a7A","-1","-1","1","0","[]","0","0","3","","","","","","","",""
"pit-trial","65","552621","0.0-2.0-14.0-3.0","battery-v0.2","","""event"",""trial"",""time""
""fullscreenenter"",""1"",""3465""
","
","
","""event"",""trial"",""time""
""fullscreenenter"",""1"",""3465""
","
","","","-1","","","18","4443","2675","&#9826;","elianto","#f73b6a7A","-1","-1","1","-10","[]","0","0","3","","","","","","","",""
"pit-trial","66","557484","0.0-2.0-14.0-4.0","battery-v0.2","","""event"",""trial"",""time""
""fullscreenenter"",""1"",""3465""
","
","
","""event"",""trial"",""time""
""fullscreenenter"",""1"",""3465""
","
","","","-1","","","18","4443","2675","&#9826;","elianto","#f73b6a7A","-1","-1","1","0","[]","0","0","3","","","","","","","",""
"pit-trial","67","562346","0.0-2.0-14.1-0.1","battery-v0.2","","""event"",""trial"",""time""
""fullscreenenter"",""1"",""3465""
","
","
","""event"",""trial"",""time""
""fullscreenenter"",""1"",""3465""
","
","","","-1","","","18","4443","2675","&#9826;","elianto","#f73b6a7A","-1","-1","1","0","[]","0","0","3","","","","","","","",""
"pit-trial","68","567205","0.0-2.0-14.1-1.1","battery-v0.2","","""event"",""trial"",""time""
""fullscreenenter"",""1"",""3465""
","
","
","""event"",""trial"",""time""
""fullscreenenter"",""1"",""3465""
","
","","","-1","","","18","4443","2675","&#9826;","elianto","#f73b6a7A","-1","-1","1","0","[]","0","0","3","","","","","","","",""
"pit-trial","69","572064","0.0-2.0-14.1-2.1","battery-v0.2","","""event"",""trial"",""time""
""fullscreenenter"",""1"",""3465""
","
","
","""event"",""trial"",""time""
""fullscreenenter"",""1"",""3465""
","
","","","-1","","","18","4443","2675","&#9826;","elianto","#f73b6a7A","-1","-1","1","0","[]","0","0","3","","","","","","","",""
"pit-trial","70","576922","0.0-2.0-14.1-3.1","battery-v0.2","","""event"",""trial"",""time""
""fullscreenenter"",""1"",""3465""
","
","
","""event"",""trial"",""time""
""fullscreenenter"",""1"",""3465""
","
","","","-1","","","18","4443","2675","&#9826;","elianto","#f73b6a7A","-1","-1","1","-10","[]","0","0","3","","","","","","","",""
"pit-trial","71","581781","0.0-2.0-14.1-4.1","battery-v0.2","","""event"",""trial"",""time""
""fullscreenenter"",""1"",""3465""
","
","
","""event"",""trial"",""time""
""fullscreenenter"",""1"",""3465""
","
","","","-1","","","18","4443","2675","&#9826;","elianto","#f73b6a7A","-1","-1","1","0","[]","0","0","3","","","","","","","",""
"pit-trial","72","586640","0.0-2.0-14.2-0.2","battery-v0.2","","""event"",""trial"",""time""
""fullscreenenter"",""1"",""3465""
","
","
","""event"",""trial"",""time""
""fullscreenenter"",""1"",""3465""
","
","","","-1","","","18","4443","2675","&#9826;","elianto","#f73b6a7A","-1","-1","1","0","[]","0","0","3","","","","","","","",""
"pit-trial","73","591498","0.0-2.0-14.2-1.2","battery-v0.2","","""event"",""trial"",""time""
""fullscreenenter"",""1"",""3465""
","
","
","""event"",""trial"",""time""
""fullscreenenter"",""1"",""3465""
","
","","","-1","","","18","4443","2675","&#9826;","elianto","#f73b6a7A","-1","-1","1","0","[]","0","0","3","","","","","","","",""
"pit-trial","74","596357","0.0-2.0-14.2-2.2","battery-v0.2","","""event"",""trial"",""time""
""fullscreenenter"",""1"",""3465""
","
","
","""event"",""trial"",""time""
""fullscreenenter"",""1"",""3465""
","
","","","-1","","","18","4443","2675","&#9826;","elianto","#f73b6a7A","-1","-1","1","0","[]","0","0","3","","","","","","","",""
"pit-trial","75","601216","0.0-2.0-14.2-3.2","battery-v0.2","","""event"",""trial"",""time""
""fullscreenenter"",""1"",""3465""
","
","
","""event"",""trial"",""time""
""fullscreenenter"",""1"",""3465""
","
","","","-1","","","18","4443","2675","&#9826;","elianto","#f73b6a7A","-1","-1","1","-10","[]","0","0","3","","","","","","","",""
"pit-trial","76","606074","0.0-2.0-14.2-4.2","battery-v0.2","","""event"",""trial"",""time""
""fullscreenenter"",""1"",""3465""
","
","
","""event"",""trial"",""time""
""fullscreenenter"",""1"",""3465""
","
","","","-1","","","18","4443","2675","&#9826;","elianto","#f73b6a7A","-1","-1","1","0","[]","0","0","3","","","","","","","",""
"pit-trial","77","610932","0.0-2.0-14.3-0.3","battery-v0.2","","""event"",""trial"",""time""
""fullscreenenter"",""1"",""3465""
","
","
","""event"",""trial"",""time""
""fullscreenenter"",""1"",""3465""
","
","","","-1","","","18","4443","2675","&#9826;","elianto","#f73b6a7A","-1","-1","1","0","[]","0","0","3","","","","","","","",""
"pit-trial","78","615791","0.0-2.0-14.3-1.3","battery-v0.2","","""event"",""trial"",""time""
""fullscreenenter"",""1"",""3465""
","
","
","""event"",""trial"",""time""
""fullscreenenter"",""1"",""3465""
","
","","","-1","","","18","4443","2675","&#9826;","elianto","#f73b6a7A","-1","-1","1","0","[]","0","0","3","","","","","","","",""
"pit-trial","79","620650","0.0-2.0-14.3-2.3","battery-v0.2","","""event"",""trial"",""time""
""fullscreenenter"",""1"",""3465""
","
","
","""event"",""trial"",""time""
""fullscreenenter"",""1"",""3465""
","
","","","-1","","","18","4443","2675","&#9826;","elianto","#f73b6a7A","-1","-1","1","0","[]","0","0","3","","","","","","","",""
"pit-trial","80","625509","0.0-2.0-14.3-3.3","battery-v0.2","","""event"",""trial"",""time""
""fullscreenenter"",""1"",""3465""
","
","
","""event"",""trial"",""time""
""fullscreenenter"",""1"",""3465""
","
","","","-1","","","18","4443","2675","&#9826;","elianto","#f73b6a7A","-1","-1","1","-10","[]","0","0","3","","","","","","","",""
"pit-trial","81","630367","0.0-2.0-14.3-4.3","battery-v0.2","","""event"",""trial"",""time""
""fullscreenenter"",""1"",""3465""
","
","
","""event"",""trial"",""time""
""fullscreenenter"",""1"",""3465""
","
","","","-1","","","18","4443","2675","&#9826;","elianto","#f73b6a7A","-1","-1","1","0","[]","0","0","3","","","","","","","",""
"call-function","82","630370","0.0-2.0-15.0","battery-v0.2","","""event"",""trial"",""time""
""fullscreenenter"",""1"",""3465""
","
","
","""event"",""trial"",""time""
""fullscreenenter"",""1"",""3465""
","
","","","","","","","","","","","","","","","","","","","","","","","","","","",""
"pit-instructions","83","655552","0.0-2.0-16.0","battery-v0.2","","""event"",""trial"",""time""
""fullscreenenter"",""1"",""3465""
","
","
","""event"",""trial"",""time""
""fullscreenenter"",""1"",""3465""
","
","","[{""page_index"":0,""viewing_time"":6867},{""page_index"":1,""viewing_time"":8320.300000011921},{""page_index"":2,""viewing_time"":4532.600000023842},{""page_index"":3,""viewing_time"":5460.800000011921}]","25181.600000023842","","","","","","","","","","","","","","","","","","","","","","","",""
"pit-trial","84","658871","0.0-2.0-17.0-0.0","battery-v0.2","","""event"",""trial"",""time""
""fullscreenenter"",""1"",""3465""
","
","
","""event"",""trial"",""time""
""fullscreenenter"",""1"",""3465""
","
","","","462.30000001192093","","","18","4443","2675","&#9789;","elianto","#f73b6a7A"," "," ","1","0","[1314.199999988079]","1","0","4","","","","","","","",""
"pit-trial","85","661922","0.0-2.0-17.0-1.0","battery-v0.2","","""event"",""trial"",""time""
""fullscreenenter"",""1"",""3465""
","
","
","""event"",""trial"",""time""
""fullscreenenter"",""1"",""3465""
","
","","","194.0999999642372","","","18","4443","2675","&#9789;","elianto","#f73b6a7A"," "," ","1","0","[1044.6000000238419]","1","0","4","","","","","","","",""
"pit-trial","86","664961","0.0-2.0-17.0-2.0","battery-v0.2","","""event"",""trial"",""time""
""fullscreenenter"",""1"",""3465""
","
","
","""event"",""trial"",""time""
""fullscreenenter"",""1"",""3465""
","
","","","181.19999998807907","","","18","4443","2675","&#9789;","elianto","#f73b6a7A"," "," ","1","0","[1032.1000000238419]","1","0","4","","","","","","","",""
"pit-trial","87","668121","0.0-2.0-17.0-3.0","battery-v0.2","","""event"",""trial"",""time""
""fullscreenenter"",""1"",""3465""
","
","
","""event"",""trial"",""time""
""fullscreenenter"",""1"",""3465""
","
","","","300.0999999642372","","","18","4443","2675","&#9789;","elianto","#f73b6a7A"," "," ","1","-10","[1151.4000000357628]","1","0","4","","","","","","","",""
"pit-trial","88","671209","0.0-2.0-17.0-4.0","battery-v0.2","","""event"",""trial"",""time""
""fullscreenenter"",""1"",""3465""
","
","
","""event"",""trial"",""time""
""fullscreenenter"",""1"",""3465""
","
","","","229.60000002384186","","","18","4443","2675","&#9789;","elianto","#f73b6a7A"," "," ","1","0","[1079.800000011921]","1","0","4","","","","","","","",""
"pit-trial","89","674368","0.0-2.0-17.1-0.1","battery-v0.2","","""event"",""trial"",""time""
""fullscreenenter"",""1"",""3465""
","
","
","""event"",""trial"",""time""
""fullscreenenter"",""1"",""3465""
","
","","","299.9000000357628","","","18","4443","2675","&#9789;","elianto","#f73b6a7A"," "," ","1","0","[1151.6000000238419]","1","0","4","","","","","","","",""
"pit-trial","90","677527","0.0-2.0-17.1-1.1","battery-v0.2","","""event"",""trial"",""time""
""fullscreenenter"",""1"",""3465""
","
","
","""event"",""trial"",""time""
""fullscreenenter"",""1"",""3465""
","
","","","299.80000001192093","","","18","4443","2675","&#9789;","elianto","#f73b6a7A"," "," ","1","0","[1150.300000011921]","1","0","4","","","","","","","",""
"pit-trial","91","680892","0.0-2.0-17.1-2.1","battery-v0.2","","""event"",""trial"",""time""
""fullscreenenter"",""1"",""3465""
","
","
","""event"",""trial"",""time""
""fullscreenenter"",""1"",""3465""
","
","","","504.19999998807907","","","18","4443","2675","&#9789;","elianto","#f73b6a7A"," "," ","1","0","[1356.3999999761581]","1","0","4","","","","","","","",""
"pit-trial","92","683994","0.0-2.0-17.1-3.1","battery-v0.2","","""event"",""trial"",""time""
""fullscreenenter"",""1"",""3465""
","
","
","""event"",""trial"",""time""
""fullscreenenter"",""1"",""3465""
","
","","","241","","","18","4443","2675","&#9789;","elianto","#f73b6a7A"," "," ","1","-10","[1092.300000011921]","1","0","4","","","","","","","",""
"pit-trial","93","687144","0.0-2.0-17.1-4.1","battery-v0.2","","""event"",""trial"",""time""
""fullscreenenter"",""1"",""3465""
","
","
","""event"",""trial"",""time""
""fullscreenenter"",""1"",""3465""
","
","","","289.60000002384186","","","18","4443","2675","&#9789;","elianto","#f73b6a7A"," "," ","1","0","[1141.4000000357628]","1","0","4","","","","","","","",""
"pit-trial","94","690279","0.0-2.0-17.2-0.2","battery-v0.2","","""event"",""trial"",""time""
""fullscreenenter"",""1"",""3465""
","
","
","""event"",""trial"",""time""
""fullscreenenter"",""1"",""3465""
","
","","","274","","","18","4443","2675","&#9789;","elianto","#f73b6a7A"," "," ","1","0","[1126.800000011921]","1","0","4","","","","","","","",""
"pit-trial","95","693280","0.0-2.0-17.2-1.2","battery-v0.2","","""event"",""trial"",""time""
""fullscreenenter"",""1"",""3465""
","
","
","""event"",""trial"",""time""
""fullscreenenter"",""1"",""3465""
","
","","","144","","","18","4443","2675","&#9789;","elianto","#f73b6a7A"," "," ","1","0","[996.3999999761581]","1","0","4","","","","","","","",""
"pit-trial","96","696490","0.0-2.0-17.2-2.2","battery-v0.2","","""event"",""trial"",""time""
""fullscreenenter"",""1"",""3465""
","
","
","""event"",""trial"",""time""
""fullscreenenter"",""1"",""3465""
","
","","","352.2000000476837","","","18","4443","2675","&#9789;","elianto","#f73b6a7A"," "," ","1","0","[1204.699999988079]","1","0","4","","","","","","","",""
"pit-trial","97","699700","0.0-2.0-17.2-3.2","battery-v0.2","","""event"",""trial"",""time""
""fullscreenenter"",""1"",""3465""
","
","
","""event"",""trial"",""time""
""fullscreenenter"",""1"",""3465""
","
","","","350.5","","","18","4443","2675","&#9789;","elianto","#f73b6a7A"," "," ","1","-10","[1200.5999999642372]","1","0","4","","","","","","","",""
"pit-trial","98","702841","0.0-2.0-17.2-4.2","battery-v0.2","","""event"",""trial"",""time""
""fullscreenenter"",""1"",""3465""
","
","
","""event"",""trial"",""time""
""fullscreenenter"",""1"",""3465""
","
","","","283.30000001192093","","","18","4443","2675","&#9789;","elianto","#f73b6a7A"," "," ","1","0","[1133.5]","1","0","4","","","","","","","",""
"pit-trial","99","705929","0.0-2.0-17.3-0.3","battery-v0.2","","""event"",""trial"",""time""
""fullscreenenter"",""1"",""3465""
","
","
","""event"",""trial"",""time""
""fullscreenenter"",""1"",""3465""
","
","","","226","","","18","4443","2675","&#9789;","elianto","#f73b6a7A"," "," ","1","0","[1077.5999999642372]","1","0","4","","","","","","","",""
"pit-trial","100","708877","0.0-2.0-17.3-1.3","battery-v0.2","","""event"",""trial"",""time""
""fullscreenenter"",""1"",""3465""
","
","
","""event"",""trial"",""time""
""fullscreenenter"",""1"",""3465""
","
","","","89.19999998807907","","","18","4443","2675","&#9789;","elianto","#f73b6a7A"," "," ","1","0","[942.1000000238419]","1","0","4","","","","","","","",""
"pit-trial","101","712001","0.0-2.0-17.3-2.3","battery-v0.2","","""event"",""trial"",""time""
""fullscreenenter"",""1"",""3465""
","
","
","""event"",""trial"",""time""
""fullscreenenter"",""1"",""3465""
","
","","","266.10000002384186","","","18","4443","2675","&#9789;","elianto","#f73b6a7A"," "," ","1","0","[1116.800000011921]","1","0","4","","","","","","","",""
"pit-trial","102","715186","0.0-2.0-17.3-3.3","battery-v0.2","","""event"",""trial"",""time""
""fullscreenenter"",""1"",""3465""
","
","
","""event"",""trial"",""time""
""fullscreenenter"",""1"",""3465""
","
","","","328.80000001192093","","","18","4443","2675","&#9789;","elianto","#f73b6a7A"," "," ","1","-10","[1178.8999999761581]","1","0","4","","","","","","","",""
"pit-trial","103","718310","0.0-2.0-17.3-4.3","battery-v0.2","","""event"",""trial"",""time""
""fullscreenenter"",""1"",""3465""
","
","
","""event"",""trial"",""time""
""fullscreenenter"",""1"",""3465""
","
","","","270.60000002384186","","","18","4443","2675","&#9789;","elianto","#f73b6a7A"," "," ","1","0","[1120.800000011921]","1","0","4","","","","","","","",""
"call-function","104","718313","0.0-2.0-18.0","battery-v0.2","","""event"",""trial"",""time""
""fullscreenenter"",""1"",""3465""
","
","
","""event"",""trial"",""time""
""fullscreenenter"",""1"",""3465""
","
","","","","","","","","","","","","","","","","","","","","","","","","","","",""
"pit-instructions","105","785739","0.0-2.0-19.0","battery-v0.2","","""event"",""trial"",""time""
""fullscreenenter"",""1"",""3465""
","
","
","""event"",""trial"",""time""
""fullscreenenter"",""1"",""3465""
","
","","[{""page_index"":0,""viewing_time"":6005.900000035763},{""page_index"":1,""viewing_time"":5041.699999988079},{""page_index"":2,""viewing_time"":13849.100000023842},{""page_index"":3,""viewing_time"":8017},{""page_index"":4,""viewing_time"":8178.799999952316},{""page_index"":5,""viewing_time"":8090},{""page_index"":6,""viewing_time"":7985.5},{""page_index"":7,""viewing_time"":5983.300000011921},{""page_index"":8,""viewing_time"":4275.600000023842}]","67428","","","","","","","","","","","","","","","","","","","","","","","",""
"pit-comprehension","106","790264","0.0-2.0-20.0-0.0","battery-v0.2","","""event"",""trial"",""time""
""fullscreenenter"",""1"",""3465""
","
","
","""event"",""trial"",""time""
""fullscreenenter"",""1"",""3465""
","
","","","4518.100000023842","[""SPACE""]","0","18","4443","2675","","","","","","","","","","","","","","","","","","",""
"pit-instructions","107","794677","0.0-2.0-20.0-1.0","battery-v0.2","","""event"",""trial"",""time""
""fullscreenenter"",""1"",""3465""
","
","
","""event"",""trial"",""time""
""fullscreenenter"",""1"",""3465""
","
","","[{""page_index"":0,""viewing_time"":4377.399999976158}]","4378.599999964237","","","","","","","","","","","","","","","","","","","","","","","",""
"pit-comprehension","108","799977","0.0-2.0-21.0-0.0","battery-v0.2","","""event"",""trial"",""time""
""fullscreenenter"",""1"",""3465""
","
","
","""event"",""trial"",""time""
""fullscreenenter"",""1"",""3465""
","
","","","5293.599999964237","[""10""]","0","18","4443","2675","","","","","","","","","","","","","","","","","","",""
"pit-instructions","109","802509","0.0-2.0-21.0-1.0","battery-v0.2","","""event"",""trial"",""time""
""fullscreenenter"",""1"",""3465""
","
","
","""event"",""trial"",""time""
""fullscreenenter"",""1"",""3465""
","
","","[{""page_index"":0,""viewing_time"":2500.300000011921}]","2501.5","","","","","","","","","","","","","","","","","","","","","","","",""
"pit-comprehension","110","809180","0.0-2.0-22.0-0.0","battery-v0.2","","""event"",""trial"",""time""
""fullscreenenter"",""1"",""3465""
","
","
","""event"",""trial"",""time""
""fullscreenenter"",""1"",""3465""
","
","","","6665","[""-10""]","1","18","4443","2675","","","","","","","","","","","","","","","","","","",""
"pit-instructions","111","813663","0.0-2.0-22.0-1.0","battery-v0.2","","""event"",""trial"",""time""
""fullscreenenter"",""1"",""3465""
","
","
","""event"",""trial"",""time""
""fullscreenenter"",""1"",""3465""
","
","","[{""page_index"":0,""viewing_time"":4450.5}]","4451.200000047684","","","","","","","","","","","","","","","","","","","","","","","",""
"pit-instructions","112","814792","0.0-2.0-22.0-2.0-0.0","battery-v0.2","","""event"",""trial"",""time""
""fullscreenenter"",""1"",""3465""
","
","
","""event"",""trial"",""time""
""fullscreenenter"",""1"",""3465""
","
","","[{""page_index"":0,""viewing_time"":1125.3999999761581}]","1126","","","","","","","","","","","","","","","","","","","","","","","",""
"pit-comprehension","113","821343","0.0-2.0-22.1-0.1","battery-v0.2","","""event"",""trial"",""time""
""fullscreenenter"",""1"",""3465""
","
","
","""event"",""trial"",""time""
""fullscreenenter"",""1"",""3465""
","
","","","6545.900000035763","[""0""]","0","18","4443","2675","","","","","","","","","","","","","","","","","","",""
"pit-instructions","114","823164","0.0-2.0-22.1-1.1","battery-v0.2","","""event"",""trial"",""time""
""fullscreenenter"",""1"",""3465""
","
","
","""event"",""trial"",""time""
""fullscreenenter"",""1"",""3465""
","
","","[{""page_index"":0,""viewing_time"":1787.199999988079}]","1787.800000011921","","","","","","","","","","","","","","","","","","","","","","","",""
"pit-comprehension","115","837295","0.0-2.0-23.0-0.0","battery-v0.2","","""event"",""trial"",""time""
""fullscreenenter"",""1"",""3465""
","
","
","""event"",""trial"",""time""
""fullscreenenter"",""1"",""3465""
","
","","","14129.100000023842","[""True""]","0","18","4443","2675","","","","","","","","","","","","","","","","","","",""
"pit-instructions","116","839288","0.0-2.0-23.0-1.0","battery-v0.2","","""event"",""trial"",""time""
""fullscreenenter"",""1"",""3465""
","
","
","""event"",""trial"",""time""
""fullscreenenter"",""1"",""3465""
","
","","[{""page_index"":0,""viewing_time"":1963.5999999642372}]","1964.5","","","","","","","","","","","","","","","","","","","","","","","",""
"pit-comprehension","117","846756","0.0-2.0-24.0-0.0","battery-v0.2","","""event"",""trial"",""time""
""fullscreenenter"",""1"",""3465""
","
","
","""event"",""trial"",""time""
""fullscreenenter"",""1"",""3465""
","
","","","7462.699999988079","[""True""]","0","18","4443","2675","","","","","","","","","","","","","","","","","","",""
"pit-instructions","118","848837","0.0-2.0-24.0-1.0","battery-v0.2","","""event"",""trial"",""time""
""fullscreenenter"",""1"",""3465""
","
","
","""event"",""trial"",""time""
""fullscreenenter"",""1"",""3465""
","
","","[{""page_index"":0,""viewing_time"":2050.800000011921}]","2051.199999988079","","","","","","","","","","","","","","","","","","","","","","","",""
"pit-comprehension","119","855520","0.0-2.0-25.0-0.0","battery-v0.2","","""event"",""trial"",""time""
""fullscreenenter"",""1"",""3465""
","
","
","""event"",""trial"",""time""
""fullscreenenter"",""1"",""3465""
","
","","","6678.100000023842","[""True""]","0","18","4443","2675","","","","","","","","","","","","","","","","","","",""
"pit-instructions","120","858566","0.0-2.0-25.0-1.0","battery-v0.2","","""event"",""trial"",""time""
""fullscreenenter"",""1"",""3465""
","
","
","""event"",""trial"",""time""
""fullscreenenter"",""1"",""3465""
","
","","[{""page_index"":0,""viewing_time"":3011.099999964237}]","3011.599999964237","","","","","","","","","","","","","","","","","","","","","","","",""
"pit-comprehension","121","864277","0.0-2.0-26.0-0.0","battery-v0.2","","""event"",""trial"",""time""
""fullscreenenter"",""1"",""3465""
","
","
","""event"",""trial"",""time""
""fullscreenenter"",""1"",""3465""
","
","","","5707.099999964237","[""False""]","0","18","4443","2675","","","","","","","","","","","","","","","","","","",""
"pit-instructions","122","869151","0.0-2.0-26.0-1.0","battery-v0.2","","""event"",""trial"",""time""
""fullscreenenter"",""1"",""3465""
","
","
","""event"",""trial"",""time""
""fullscreenenter"",""1"",""3465""
","
","","[{""page_index"":0,""viewing_time"":4836.800000011921}]","4837.599999964237","","","","","","","","","","","","","","","","","","","","","","","",""
"pit-instructions","123","884866","0.0-3.0","battery-v0.2","","""event"",""trial"",""time""
""fullscreenenter"",""1"",""3465""
","
","
","""event"",""trial"",""time""
""fullscreenenter"",""1"",""3465""
","
","","[{""page_index"":0,""viewing_time"":3800.7000000476837},{""page_index"":1,""viewing_time"":5226.5},{""page_index"":2,""viewing_time"":6685.399999976158}]","15712.800000011921","","","","","","","","","","","","","","","","","","","","","","","",""
"pit-trial","124","888248","0.0-4.0","battery-v0.2","","""event"",""trial"",""time""
""fullscreenenter"",""1"",""3465""
","
","
","""event"",""trial"",""time""
""fullscreenenter"",""1"",""3465""
","
","","","520.8999999761581","","","18","4443","2675","&#9733;","elianto","#3366ff99","-1"," ","0","0","[1371.800000011921]","1","1","","","4443","1","2","2","win","no-go","0"
"pit-trial","125","891845","0.0-5.0","battery-v0.2","","""event"",""trial"",""time""
""fullscreenenter"",""1"",""3465""
","
","
","""event"",""trial"",""time""
""fullscreenenter"",""1"",""3465""
","
","","","737.6000000238419","","","18","4443","2675","&#9730;","elianto","#3366ff99"," "," ","1","+10","[1589.5999999642372]","1","1","","","4443","2","1","1","win","go","0"
"pit-trial","126","895647","0.0-6.0","battery-v0.2","","""event"",""trial"",""time""
""fullscreenenter"",""1"",""3465""
","
","
","""event"",""trial"",""time""
""fullscreenenter"",""1"",""3465""
","
","","","944.3999999761581","","","18","4443","2675","&#9752;","elianto","#f73b6a7A"," "," ","1","0","[1794.800000011921]","1","1","","","4443","3","3","3","lose","go","0"
"pit-trial","127","899645","0.0-7.0","battery-v0.2","","""event"",""trial"",""time""
""fullscreenenter"",""1"",""3465""
","
","
","""event"",""trial"",""time""
""fullscreenenter"",""1"",""3465""
","
","","","1139.4000000357628","","","18","4443","2675","&#9728;","elianto","#f73b6a7A","-1"," ","0","0","[1989.5]","1","1","","","4443","4","0","4","lose","no-go","1"
"pit-trial","128","903459","0.0-8.0","battery-v0.2","","""event"",""trial"",""time""
""fullscreenenter"",""1"",""3465""
","
","
","""event"",""trial"",""time""
""fullscreenenter"",""1"",""3465""
","
","","","955.8999999761581","","","18","4443","2675","&#9728;","elianto","#f73b6a7A","-1"," ","0","-10","[1807.800000011921]","1","1","","","4443","5","0","4","lose","no-go","0"
"pit-trial","129","907286","0.0-9.0","battery-v0.2","","""event"",""trial"",""time""
""fullscreenenter"",""1"",""3465""
","
","
","""event"",""trial"",""time""
""fullscreenenter"",""1"",""3465""
","
","","","968.3000000119209","","","18","4443","2675","&#9730;","elianto","#3366ff99"," "," ","1","+10","[1820.8999999761581]","1","1","","","4443","6","1","1","win","go","0"
"pit-trial","130","911279","0.0-10.0","battery-v0.2","","""event"",""trial"",""time""
""fullscreenenter"",""1"",""3465""
","
","
","""event"",""trial"",""time""
""fullscreenenter"",""1"",""3465""
","
","","","1134.699999988079","","","18","4443","2675","&#9752;","elianto","#f73b6a7A"," "," ","1","0","[1985.2999999523163]","1","1","","","4443","7","3","3","lose","go","0"
"pit-trial","131","914911","0.0-11.0","battery-v0.2","","""event"",""trial"",""time""
""fullscreenenter"",""1"",""3465""
","
","
","""event"",""trial"",""time""
""fullscreenenter"",""1"",""3465""
","
","","","773.3000000119209","","","18","4443","2675","&#9733;","elianto","#3366ff99","-1"," ","0","0","[1623.5999999642372]","1","1","","","4443","8","2","2","win","no-go","0"
"pit-trial","132","918973","0.0-12.0","battery-v0.2","","""event"",""trial"",""time""
""fullscreenenter"",""1"",""3465""
","
","
","""event"",""trial"",""time""
""fullscreenenter"",""1"",""3465""
","
","","","1205.0999999642372","","","18","4443","2675","&#9752;","elianto","#f73b6a7A"," "," ","1","0","[2056.800000011921]","1","1","","","4443","9","3","3","lose","go","0"
"pit-trial","133","922938","0.0-13.0","battery-v0.2","","""event"",""trial"",""time""
""fullscreenenter"",""1"",""3465""
","
","
","""event"",""trial"",""time""
""fullscreenenter"",""1"",""3465""
","
","","","1109.8999999761581","","","18","4443","2675","&#9733;","elianto","#3366ff99","-1"," ","0","0","[1959.8999999761581]","1","1","","","4443","10","2","2","win","no-go","0"
"pit-trial","134","926926","0.0-14.0","battery-v0.2","","""event"",""trial"",""time""
""fullscreenenter"",""1"",""3465""
","
","
","""event"",""trial"",""time""
""fullscreenenter"",""1"",""3465""
","
","","","1128","","","18","4443","2675","&#9728;","elianto","#f73b6a7A","-1"," ","0","-10","[1979.800000011921]","1","1","","","4443","11","0","4","lose","no-go","0"
"pit-trial","135","930693","0.0-15.0","battery-v0.2","","""event"",""trial"",""time""
""fullscreenenter"",""1"",""3465""
","
","
","""event"",""trial"",""time""
""fullscreenenter"",""1"",""3465""
","
","","","908.9000000357628","","","18","4443","2675","&#9730;","elianto","#3366ff99"," "," ","1","+10","[1760.800000011921]","1","1","","","4443","12","1","1","win","go","0"
"pit-trial","136","934725","0.0-16.0","battery-v0.2","","""event"",""trial"",""time""
""fullscreenenter"",""1"",""3465""
","
","
","""event"",""trial"",""time""
""fullscreenenter"",""1"",""3465""
","
","","","1174.800000011921","","","18","4443","2675","&#9752;","elianto","#f73b6a7A"," "," ","1","0","[2025.1000000238419]","1","1","","","4443","13","3","3","lose","go","0"
"pit-trial","137","939586","0.0-17.0","battery-v0.2","","""event"",""trial"",""time""
""fullscreenenter"",""1"",""3465""
","
","
","""event"",""trial"",""time""
""fullscreenenter"",""1"",""3465""
","
","","","-1","","","18","4443","2675","&#9733;","elianto","#3366ff99","-1","-1","1","0","[]","0","1","","","4443","14","2","2","win","no-go","1"
"pit-trial","138","944445","0.0-18.0","battery-v0.2","","""event"",""trial"",""time""
""fullscreenenter"",""1"",""3465""
","
","
","""event"",""trial"",""time""
""fullscreenenter"",""1"",""3465""
","
","","","-1","","","18","4443","2675","&#9728;","elianto","#f73b6a7A","-1","-1","1","-10","[]","0","1","","","4443","15","0","4","lose","no-go","1"
"pit-trial","139","948038","0.0-19.0","battery-v0.2","","""event"",""trial"",""time""
""fullscreenenter"",""1"",""3465""
","
","
","""event"",""trial"",""time""
""fullscreenenter"",""1"",""3465""
","
","","","736.2999999523163","","","18","4443","2675","&#9730;","elianto","#3366ff99"," "," ","1","0","[1587]","1","1","","","4443","16","1","1","win","go","1"
"pit-trial","140","951730","0.0-20.0","battery-v0.2","","""event"",""trial"",""time""
""fullscreenenter"",""1"",""3465""
","
","
","""event"",""trial"",""time""
""fullscreenenter"",""1"",""3465""
","
","","","833.1999999880791","","","18","4443","2675","&#9730;","elianto","#3366ff99"," "," ","1","+10","[1684.8999999761581]","1","1","","","4443","17","1","1","win","go","0"
"pit-trial","141","956588","0.0-21.0","battery-v0.2","","""event"",""trial"",""time""
""fullscreenenter"",""1"",""3465""
","
","
","""event"",""trial"",""time""
""fullscreenenter"",""1"",""3465""
","
","","","-1","","","18","4443","2675","&#9733;","elianto","#3366ff99","-1","-1","1","+10","[]","0","1","","","4443","18","2","2","win","no-go","0"
"pit-trial","142","961447","0.0-22.0","battery-v0.2","","""event"",""trial"",""time""
""fullscreenenter"",""1"",""3465""
","
","
","""event"",""trial"",""time""
""fullscreenenter"",""1"",""3465""
","
","","","-1","","","18","4443","2675","&#9728;","elianto","#f73b6a7A","-1","-1","1","0","[]","0","1","","","4443","19","0","4","lose","no-go","0"
"pit-trial","143","965505","0.0-23.0","battery-v0.2","","""event"",""trial"",""time""
""fullscreenenter"",""1"",""3465""
","
","
","""event"",""trial"",""time""
""fullscreenenter"",""1"",""3465""
","
","","","1200.6000000238419","","","18","4443","2675","&#9752;","elianto","#f73b6a7A"," "," ","1","0","[2050.800000011921]","1","1","","","4443","20","3","3","lose","go","0"
"pit-instructions","144","977615","0.0-24.0","battery-v0.2","","""event"",""trial"",""time""
""fullscreenenter"",""1"",""3465""
","
","
","""event"",""trial"",""time""
""fullscreenenter"",""1"",""3465""
","
","","[{""page_index"":0,""viewing_time"":5451},{""page_index"":1,""viewing_time"":6655.600000023842}]","12107.800000011921","","","","","","","","","","","","","","","","","","","","","","","",""
"pit-trial","145","981482","0.0-25.0","battery-v0.2","","""event"",""trial"",""time""
""fullscreenenter"",""1"",""3465""
","
","
","""event"",""trial"",""time""
""fullscreenenter"",""1"",""3465""
","
","","","1005.8000000119209","","","18","4443","2675","b","elianto","#f73b6a7A","-1"," ","0","-10","[1856.300000011921]","1","2","","","4443","21","3","4","lose","no-go","0"
"pit-trial","146","985694","0.0-26.0","battery-v0.2","","""event"",""trial"",""time""
""fullscreenenter"",""1"",""3465""
","
","
","""event"",""trial"",""time""
""fullscreenenter"",""1"",""3465""
","
","","","1354.2999999523163","","","18","4443","2675","t","elianto","#f73b6a7A"," "," ","1","0","[2204.300000011921]","1","2","","","4443","22","2","3","lose","go","0"
"pit-trial","147","989349","0.0-27.0","battery-v0.2","","""event"",""trial"",""time""
""fullscreenenter"",""1"",""3465""
","
","
","""event"",""trial"",""time""
""fullscreenenter"",""1"",""3465""
","
","","","801.9000000357628","","","18","4443","2675","f","elianto","#3366ff99","-1"," ","0","0","[1652]","1","2","","","4443","23","1","2","win","no-go","0"
"pit-trial","148","993211","0.0-28.0","battery-v0.2","","""event"",""trial"",""time""
""fullscreenenter"",""1"",""3465""
","
","
","""event"",""trial"",""time""
""fullscreenenter"",""1"",""3465""
","
","","","1004","","","18","4443","2675","n","elianto","#f73b6a7A"," "," ","1","0","[1854]","1","2","","","4443","24","0","3","lose","go","0"
"pit-trial","149","996896","0.0-29.0","battery-v0.2","","""event"",""trial"",""time""
""fullscreenenter"",""1"",""3465""
","
","
","""event"",""trial"",""time""
""fullscreenenter"",""1"",""3465""
","
","","","827.8000000119209","","","18","4443","2675","n","elianto","#f73b6a7A"," "," ","1","-10","[1678]","1","2","","","4443","25","0","3","lose","go","1"
"pit-trial","150","1000503","0.0-30.0","battery-v0.2","","""event"",""trial"",""time""
""fullscreenenter"",""1"",""3465""
","
","
","""event"",""trial"",""time""
""fullscreenenter"",""1"",""3465""
","
","","","750.9000000357628","","","18","4443","2675","t","elianto","#f73b6a7A"," "," ","1","0","[1603]","1","2","","","4443","26","2","3","lose","go","0"
"pit-trial","151","1005362","0.0-31.0","battery-v0.2","","""event"",""trial"",""time""
""fullscreenenter"",""1"",""3465""
","
","
","""event"",""trial"",""time""
""fullscreenenter"",""1"",""3465""
","
","","","-1","","","18","4443","2675","f","elianto","#3366ff99","-1","-1","1","+10","[]","0","2","","","4443","27","1","2","win","no-go","0"
"pit-trial","152","1009352","0.0-32.0","battery-v0.2","","""event"",""trial"",""time""
""fullscreenenter"",""1"",""3465""
","
","
","""event"",""trial"",""time""
""fullscreenenter"",""1"",""3465""
","
","","","1133.699999988079","","","18","4443","2675","b","elianto","#f73b6a7A","-1"," ","0","-10","[1984]","1","2","","","4443","28","3","4","lose","no-go","0"
"pit-trial","153","1014211","0.0-33.0","battery-v0.2","","""event"",""trial"",""time""
""fullscreenenter"",""1"",""3465""
","
","
","""event"",""trial"",""time""
""fullscreenenter"",""1"",""3465""
","
","","","-1","","","18","4443","2675","b","elianto","#f73b6a7A","-1","-1","1","0","[]","0","2","","","4443","29","3","4","lose","no-go","0"
"pit-trial","154","1019070","0.0-34.0","battery-v0.2","","""event"",""trial"",""time""
""fullscreenenter"",""1"",""3465""
","
","
","""event"",""trial"",""time""
""fullscreenenter"",""1"",""3465""
","
","","","-1","","","18","4443","2675","f","elianto","#3366ff99","-1","-1","1","0","[]","0","2","","","4443","30","1","2","win","no-go","1"
"pit-trial","155","1023592","0.0-35.0","battery-v0.2","","""event"",""trial"",""time""
""fullscreenenter"",""1"",""3465""
","
","
","""event"",""trial"",""time""
""fullscreenenter"",""1"",""3465""
","
","","","1665.699999988079","","","18","4443","2675","t","elianto","#f73b6a7A"," "," ","1","0","[2517.600000023842]","1","2","","","4443","31","2","3","lose","go","0"
"pit-trial","156","1027423","0.0-36.0","battery-v0.2","","""event"",""trial"",""time""
""fullscreenenter"",""1"",""3465""
","
","
","""event"",""trial"",""time""
""fullscreenenter"",""1"",""3465""
","
","","","975.1999999880791","","","18","4443","2675","n","elianto","#f73b6a7A"," "," ","1","0","[1826.2999999523163]","1","2","","","4443","32","0","3","lose","go","0"
"pit-trial","157","1032281","0.0-37.0","battery-v0.2","","""event"",""trial"",""time""
""fullscreenenter"",""1"",""3465""
","
","
","""event"",""trial"",""time""
""fullscreenenter"",""1"",""3465""
","
","","","-1","","","18","4443","2675","f","elianto","#3366ff99","-1","-1","1","+10","[]","0","2","","","4443","33","1","2","win","no-go","0"
"pit-trial","158","1036583","0.0-38.0","battery-v0.2","","""event"",""trial"",""time""
""fullscreenenter"",""1"",""3465""
","
","
","""event"",""trial"",""time""
""fullscreenenter"",""1"",""3465""
","
","","","1446.3999999761581","","","18","4443","2675","n","elianto","#f73b6a7A"," "," ","1","-10","[2296.7999999523163]","1","2","","","4443","34","0","3","lose","go","1"
"pit-trial","159","1040483","0.0-39.0","battery-v0.2","","""event"",""trial"",""time""
""fullscreenenter"",""1"",""3465""
","
","
","""event"",""trial"",""time""
""fullscreenenter"",""1"",""3465""
","
","","","1045","","","18","4443","2675","t","elianto","#f73b6a7A"," "," ","1","0","[1896.2000000476837]","1","2","","","4443","35","2","3","lose","go","0"
"pit-trial","160","1045342","0.0-40.0","battery-v0.2","","""event"",""trial"",""time""
""fullscreenenter"",""1"",""3465""
","
","
","""event"",""trial"",""time""
""fullscreenenter"",""1"",""3465""
","
","","","-1","","","18","4443","2675","b","elianto","#f73b6a7A","-1","-1","1","0","[]","0","2","","","4443","36","3","4","lose","no-go","0"
"pit-trial","161","1050201","0.0-41.0","battery-v0.2","","""event"",""trial"",""time""
""fullscreenenter"",""1"",""3465""
","
","
","""event"",""trial"",""time""
""fullscreenenter"",""1"",""3465""
","
","","","-1","","","18","4443","2675","f","elianto","#3366ff99","-1","-1","1","0","[]","0","2","","","4443","37","1","2","win","no-go","1"
"pit-trial","162","1055059","0.0-42.0","battery-v0.2","","""event"",""trial"",""time""
""fullscreenenter"",""1"",""3465""
","
","
","""event"",""trial"",""time""
""fullscreenenter"",""1"",""3465""
","
","","","-1","","","18","4443","2675","n","elianto","#f73b6a7A"," ","-1","0","-10","[]","0","2","","","4443","38","0","3","lose","go","0"
"pit-trial","163","1059587","0.0-43.0","battery-v0.2","","""event"",""trial"",""time""
""fullscreenenter"",""1"",""3465""
","
","
","""event"",""trial"",""time""
""fullscreenenter"",""1"",""3465""
","
","","","1670.6000000238419","","","18","4443","2675","t","elianto","#f73b6a7A"," "," ","1","0","[2521.399999976158]","1","2","","","4443","39","2","3","lose","go","0"
"pit-trial","164","1064447","0.0-44.0","battery-v0.2","","""event"",""trial"",""time""
""fullscreenenter"",""1"",""3465""
","
","
","""event"",""trial"",""time""
""fullscreenenter"",""1"",""3465""
","
","","","-1","","","18","4443","2675","b","elianto","#f73b6a7A","-1","-1","1","0","[]","0","2","","","4443","40","3","4","lose","no-go","0"
"pit-trial","165","1068521","0.0-45.0","battery-v0.2","","""event"",""trial"",""time""
""fullscreenenter"",""1"",""3465""
","
","
","""event"",""trial"",""time""
""fullscreenenter"",""1"",""3465""
","
","","","1213","","","18","4443","2675","t","elianto","#f73b6a7A"," "," ","1","0","[2063.5]","1","2","","","4443","41","2","3","lose","go","0"
"pit-trial","166","1073379","0.0-46.0","battery-v0.2","","""event"",""trial"",""time""
""fullscreenenter"",""1"",""3465""
","
","
","""event"",""trial"",""time""
""fullscreenenter"",""1"",""3465""
","
","","","-1","","","18","4443","2675","n","elianto","#f73b6a7A"," ","-1","0","-10","[]","0","2","","","4443","42","0","3","lose","go","0"
"pit-trial","167","1078237","0.0-47.0","battery-v0.2","","""event"",""trial"",""time""
""fullscreenenter"",""1"",""3465""
","
","
","""event"",""trial"",""time""
""fullscreenenter"",""1"",""3465""
","
","","","-1","","","18","4443","2675","b","elianto","#f73b6a7A","-1","-1","1","0","[]","0","2","","","4443","43","3","4","lose","no-go","0"
"pit-trial","168","1083096","0.0-48.0","battery-v0.2","","""event"",""trial"",""time""
""fullscreenenter"",""1"",""3465""
","
","
","""event"",""trial"",""time""
""fullscreenenter"",""1"",""3465""
","
","","","-1","","","18","4443","2675","f","elianto","#3366ff99","-1","-1","1","0","[]","0","2","","","4443","44","1","2","win","no-go","1"
"pit-trial","169","1087954","0.0-49.0","battery-v0.2","","""event"",""trial"",""time""
""fullscreenenter"",""1"",""3465""
","
","
","""event"",""trial"",""time""
""fullscreenenter"",""1"",""3465""
","
","","","-1","","","18","4443","2675","b","elianto","#f73b6a7A","-1","-1","1","0","[]","0","2","","","4443","45","3","4","lose","no-go","0"
"pit-trial","170","1092813","0.0-50.0","battery-v0.2","","""event"",""trial"",""time""
""fullscreenenter"",""1"",""3465""
","
","
","""event"",""trial"",""time""
""fullscreenenter"",""1"",""3465""
","
","","","-1","","","18","4443","2675","f","elianto","#3366ff99","-1","-1","1","+10","[]","0","2","","","4443","46","1","2","win","no-go","0"
"pit-trial","171","1096766","0.0-51.0","battery-v0.2","","""event"",""trial"",""time""
""fullscreenenter"",""1"",""3465""
","
","
","""event"",""trial"",""time""
""fullscreenenter"",""1"",""3465""
","
","","","1095.699999988079","","","18","4443","2675","t","elianto","#f73b6a7A"," "," ","1","0","[1946.199999988079]","1","2","","","4443","47","2","3","lose","go","0"
"pit-trial","172","1100516","0.0-52.0","battery-v0.2","","""event"",""trial"",""time""
""fullscreenenter"",""1"",""3465""
","
","
","""event"",""trial"",""time""
""fullscreenenter"",""1"",""3465""
","
","","","893.0999999642372","","","18","4443","2675","n","elianto","#f73b6a7A"," "," ","1","0","[1744.5]","1","2","","","4443","48","0","3","lose","go","0"
"pit-trial","173","1105375","0.0-53.0","battery-v0.2","","""event"",""trial"",""time""
""fullscreenenter"",""1"",""3465""
","
","
","""event"",""trial"",""time""
""fullscreenenter"",""1"",""3465""
","
","","","-1","","","18","4443","2675","f","elianto","#3366ff99","-1","-1","1","+10","[]","0","2","","","4443","49","1","2","win","no-go","0"
"pit-trial","174","1109368","0.0-54.0","battery-v0.2","","""event"",""trial"",""time""
""fullscreenenter"",""1"",""3465""
","
","
","""event"",""trial"",""time""
""fullscreenenter"",""1"",""3465""
","
","","","1137.800000011921","","","18","4443","2675","n","elianto","#f73b6a7A"," "," ","1","0","[1987.800000011921]","1","2","","","4443","50","0","3","lose","go","0"
"pit-trial","175","1114227","0.0-55.0","battery-v0.2","","""event"",""trial"",""time""
""fullscreenenter"",""1"",""3465""
","
","
","""event"",""trial"",""time""
""fullscreenenter"",""1"",""3465""
","
","","","-1","","","18","4443","2675","b","elianto","#f73b6a7A","-1","-1","1","0","[]","0","2","","","4443","51","3","4","lose","no-go","0"
"pit-trial","176","1118186","0.0-56.0","battery-v0.2","","""event"",""trial"",""time""
""fullscreenenter"",""1"",""3465""
","
","
","""event"",""trial"",""time""
""fullscreenenter"",""1"",""3465""
","
","","","1099.199999988079","","","18","4443","2675","t","elianto","#f73b6a7A"," "," ","1","0","[1949.4000000357628]","1","2","","","4443","52","2","3","lose","go","0"
"pit-trial","177","1122092","0.0-57.0","battery-v0.2","","""event"",""trial"",""time""
""fullscreenenter"",""1"",""3465""
","
","
","""event"",""trial"",""time""
""fullscreenenter"",""1"",""3465""
","
","","","1049.0999999642372","","","18","4443","2675","n","elianto","#f73b6a7A"," "," ","1","0","[1901.5]","1","2","","","4443","53","0","3","lose","go","0"
"pit-trial","178","1126951","0.0-58.0","battery-v0.2","","""event"",""trial"",""time""
""fullscreenenter"",""1"",""3465""
","
","
","""event"",""trial"",""time""
""fullscreenenter"",""1"",""3465""
","
","","","-1","","","18","4443","2675","b","elianto","#f73b6a7A","-1","-1","1","0","[]","0","2","","","4443","54","3","4","lose","no-go","0"
"pit-trial","179","1130881","0.0-59.0","battery-v0.2","","""event"",""trial"",""time""
""fullscreenenter"",""1"",""3465""
","
","
","""event"",""trial"",""time""
""fullscreenenter"",""1"",""3465""
","
","","","1074.5999999642372","","","18","4443","2675","t","elianto","#f73b6a7A"," "," ","1","0","[1925]","1","2","","","4443","55","2","3","lose","go","0"
"pit-trial","180","1135740","0.0-60.0","battery-v0.2","","""event"",""trial"",""time""
""fullscreenenter"",""1"",""3465""
","
","
","""event"",""trial"",""time""
""fullscreenenter"",""1"",""3465""
","
","","","-1","","","18","4443","2675","f","elianto","#3366ff99","-1","-1","1","0","[]","0","2","","","4443","56","1","2","win","no-go","1"
"pit-trial","181","1139472","0.0-61.0","battery-v0.2","","""event"",""trial"",""time""
""fullscreenenter"",""1"",""3465""
","
","
","""event"",""trial"",""time""
""fullscreenenter"",""1"",""3465""
","
","","","874.6999999880791","","","18","4443","2675","n","elianto","#f73b6a7A"," "," ","1","0","[1725.699999988079]","1","2","","","4443","57","0","3","lose","go","0"
"pit-trial","182","1144330","0.0-62.0","battery-v0.2","","""event"",""trial"",""time""
""fullscreenenter"",""1"",""3465""
","
","
","""event"",""trial"",""time""
""fullscreenenter"",""1"",""3465""
","
","","","-1","","","18","4443","2675","b","elianto","#f73b6a7A","-1","-1","1","0","[]","0","2","","","4443","58","3","4","lose","no-go","0"
"pit-trial","183","1148776","0.0-63.0","battery-v0.2","","""event"",""trial"",""time""
""fullscreenenter"",""1"",""3465""
","
","
","""event"",""trial"",""time""
""fullscreenenter"",""1"",""3465""
","
","","","1592.5","","","18","4443","2675","t","elianto","#f73b6a7A"," "," ","1","0","[2443.2000000476837]","1","2","","","4443","59","2","3","lose","go","0"
"pit-trial","184","1153496","0.0-64.0","battery-v0.2","","""event"",""trial"",""time""
""fullscreenenter"",""1"",""3465""
","
","
","""event"",""trial"",""time""
""fullscreenenter"",""1"",""3465""
","
","","","1863.199999988079","","","18","4443","2675","c","elianto","#3366ff99"," "," ","1","+10","[2713.300000011921]","1","2","","","4443","60","4","1","win","go","0"
"pit-trial","185","1156886","0.0-65.0","battery-v0.2","","""event"",""trial"",""time""
""fullscreenenter"",""1"",""3465""
","
","
","""event"",""trial"",""time""
""fullscreenenter"",""1"",""3465""
","
","","","531.5999999642372","","","18","4443","2675","c","elianto","#3366ff99"," "," ","1","+10","[1382.199999988079]","1","2","","","4443","61","4","1","win","go","0"
"pit-trial","186","1160664","0.0-66.0","battery-v0.2","","""event"",""trial"",""time""
""fullscreenenter"",""1"",""3465""
","
","
","""event"",""trial"",""time""
""fullscreenenter"",""1"",""3465""
","
","","","919.7999999523163","","","18","4443","2675","t","elianto","#f73b6a7A"," "," ","1","0","[1770.2999999523163]","1","2","","","4443","62","2","3","lose","go","0"
"pit-trial","187","1165523","0.0-67.0","battery-v0.2","","""event"",""trial"",""time""
""fullscreenenter"",""1"",""3465""
","
","
","""event"",""trial"",""time""
""fullscreenenter"",""1"",""3465""
","
","","","-1","","","18","4443","2675","b","elianto","#f73b6a7A","-1","-1","1","0","[]","0","2","","","4443","63","3","4","lose","no-go","0"
"pit-trial","188","1170382","0.0-68.0","battery-v0.2","","""event"",""trial"",""time""
""fullscreenenter"",""1"",""3465""
","
","
","""event"",""trial"",""time""
""fullscreenenter"",""1"",""3465""
","
","","","-1","","","18","4443","2675","f","elianto","#3366ff99","-1","-1","1","+10","[]","0","2","","","4443","64","1","2","win","no-go","0"
"pit-trial","189","1175241","0.0-69.0","battery-v0.2","","""event"",""trial"",""time""
""fullscreenenter"",""1"",""3465""
","
","
","""event"",""trial"",""time""
""fullscreenenter"",""1"",""3465""
","
","","","-1","","","18","4443","2675","f","elianto","#3366ff99","-1","-1","1","0","[]","0","2","","","4443","65","1","2","win","no-go","1"
"pit-trial","190","1179089","0.0-70.0","battery-v0.2","","""event"",""trial"",""time""
""fullscreenenter"",""1"",""3465""
","
","
","""event"",""trial"",""time""
""fullscreenenter"",""1"",""3465""
","
","","","990.3000000119209","","","18","4443","2675","z","elianto","#3366ff99","-1"," ","0","0","[1840.5]","1","2","","","4443","66","5","2","win","no-go","0"
"pit-trial","191","1182967","0.0-71.0","battery-v0.2","","""event"",""trial"",""time""
""fullscreenenter"",""1"",""3465""
","
","
","""event"",""trial"",""time""
""fullscreenenter"",""1"",""3465""
","
","","","1022.2999999523163","","","18","4443","2675","c","elianto","#3366ff99"," "," ","1","+10","[1873.300000011921]","1","2","","","4443","67","4","1","win","go","0"
"pit-trial","192","1187827","0.0-72.0","battery-v0.2","","""event"",""trial"",""time""
""fullscreenenter"",""1"",""3465""
","
","
","""event"",""trial"",""time""
""fullscreenenter"",""1"",""3465""
","
","","","-1","","","18","4443","2675","b","elianto","#f73b6a7A","-1","-1","1","0","[]","0","2","","","4443","68","3","4","lose","no-go","0"
"pit-trial","193","1192684","0.0-73.0","battery-v0.2","","""event"",""trial"",""time""
""fullscreenenter"",""1"",""3465""
","
","
","""event"",""trial"",""time""
""fullscreenenter"",""1"",""3465""
","
","","","-1","","","18","4443","2675","f","elianto","#3366ff99","-1","-1","1","0","[]","0","2","","","4443","69","1","2","win","no-go","1"
"pit-trial","194","1196515","0.0-74.0","battery-v0.2","","""event"",""trial"",""time""
""fullscreenenter"",""1"",""3465""
","
","
","""event"",""trial"",""time""
""fullscreenenter"",""1"",""3465""
","
","","","970.1000000238419","","","18","4443","2675","z","elianto","#3366ff99","-1"," ","0","0","[1822.199999988079]","1","2","","","4443","70","5","2","win","no-go","0"
"pit-trial","195","1200404","0.0-75.0","battery-v0.2","","""event"",""trial"",""time""
""fullscreenenter"",""1"",""3465""
","
","
","""event"",""trial"",""time""
""fullscreenenter"",""1"",""3465""
","
","","","1031.1000000238419","","","18","4443","2675","t","elianto","#f73b6a7A"," "," ","1","0","[1882.699999988079]","1","2","","","4443","71","2","3","lose","go","0"
"pit-trial","196","1204340","0.0-76.0","battery-v0.2","","""event"",""trial"",""time""
""fullscreenenter"",""1"",""3465""
","
","
","""event"",""trial"",""time""
""fullscreenenter"",""1"",""3465""
","
","","","1078.800000011921","","","18","4443","2675","c","elianto","#3366ff99"," "," ","1","+10","[1930.5999999642372]","1","2","","","4443","72","4","1","win","go","0"
"pit-trial","197","1209198","0.0-77.0","battery-v0.2","","""event"",""trial"",""time""
""fullscreenenter"",""1"",""3465""
","
","
","""event"",""trial"",""time""
""fullscreenenter"",""1"",""3465""
","
","","","-1","","","18","4443","2675","f","elianto","#3366ff99","-1","-1","1","+10","[]","0","2","","","4443","73","1","2","win","no-go","0"
"pit-trial","198","1213871","0.0-78.0","battery-v0.2","","""event"",""trial"",""time""
""fullscreenenter"",""1"",""3465""
","
","
","""event"",""trial"",""time""
""fullscreenenter"",""1"",""3465""
","
","","","1815.4000000357628","","","18","4443","2675","c","elianto","#3366ff99"," "," ","1","+10","[2666.900000035763]","1","2","","","4443","74","4","1","win","go","0"
"pit-trial","199","1218730","0.0-79.0","battery-v0.2","","""event"",""trial"",""time""
""fullscreenenter"",""1"",""3465""
","
","
","""event"",""trial"",""time""
""fullscreenenter"",""1"",""3465""
","
","","","-1","","","18","4443","2675","z","elianto","#3366ff99","-1","-1","1","0","[]","0","2","","","4443","75","5","2","win","no-go","1"
"pit-trial","200","1223589","0.0-80.0","battery-v0.2","","""event"",""trial"",""time""
""fullscreenenter"",""1"",""3465""
","
","
","""event"",""trial"",""time""
""fullscreenenter"",""1"",""3465""
","
","","","-1","","","18","4443","2675","b","elianto","#f73b6a7A","-1","-1","1","0","[]","0","2","","","4443","76","3","4","lose","no-go","0"
"pit-trial","201","1228447","0.0-81.0","battery-v0.2","","""event"",""trial"",""time""
""fullscreenenter"",""1"",""3465""
","
","
","""event"",""trial"",""time""
""fullscreenenter"",""1"",""3465""
","
","","","-1","","","18","4443","2675","z","elianto","#3366ff99","-1","-1","1","+10","[]","0","2","","","4443","77","5","2","win","no-go","0"
"pit-trial","202","1232434","0.0-82.0","battery-v0.2","","""event"",""trial"",""time""
""fullscreenenter"",""1"",""3465""
","
","
","""event"",""trial"",""time""
""fullscreenenter"",""1"",""3465""
","
","","","1130.5","","","18","4443","2675","c","elianto","#3366ff99"," "," ","1","+10","[1981.300000011921]","1","2","","","4443","78","4","1","win","go","0"
"pit-trial","203","1237293","0.0-83.0","battery-v0.2","","""event"",""trial"",""time""
""fullscreenenter"",""1"",""3465""
","
","
","""event"",""trial"",""time""
""fullscreenenter"",""1"",""3465""
","
","","","-1","","","18","4443","2675","b","elianto","#f73b6a7A","-1","-1","1","0","[]","0","2","","","4443","79","3","4","lose","no-go","0"
"pit-trial","204","1241107","0.0-84.0","battery-v0.2","","""event"",""trial"",""time""
""fullscreenenter"",""1"",""3465""
","
","
","""event"",""trial"",""time""
""fullscreenenter"",""1"",""3465""
","
","","","956.9000000357628","","","18","4443","2675","c","elianto","#3366ff99"," "," ","1","0","[1807]","1","2","","","4443","80","4","1","win","go","1"
"pit-trial","205","1245043","0.0-85.0","battery-v0.2","","""event"",""trial"",""time""
""fullscreenenter"",""1"",""3465""
","
","
","""event"",""trial"",""time""
""fullscreenenter"",""1"",""3465""
","
","","","1079.6000000238419","","","18","4443","2675","y","elianto","#f73b6a7A","-1"," ","0","0","[1929.699999988079]","1","2","","","4443","81","7","4","lose","no-go","1"
"pit-trial","206","1248688","0.0-86.0","battery-v0.2","","""event"",""trial"",""time""
""fullscreenenter"",""1"",""3465""
","
","
","""event"",""trial"",""time""
""fullscreenenter"",""1"",""3465""
","
","","","790.0999999642372","","","18","4443","2675","c","elianto","#3366ff99"," "," ","1","+10","[1640.5999999642372]","1","2","","","4443","82","4","1","win","go","0"
"pit-trial","207","1253547","0.0-87.0","battery-v0.2","","""event"",""trial"",""time""
""fullscreenenter"",""1"",""3465""
","
","
","""event"",""trial"",""time""
""fullscreenenter"",""1"",""3465""
","
","","","-1","","","18","4443","2675","z","elianto","#3366ff99","-1","-1","1","+10","[]","0","2","","","4443","83","5","2","win","no-go","0"
"pit-trial","208","1258405","0.0-88.0","battery-v0.2","","""event"",""trial"",""time""
""fullscreenenter"",""1"",""3465""
","
","
","""event"",""trial"",""time""
""fullscreenenter"",""1"",""3465""
","
","","","-1","","","18","4443","2675","b","elianto","#f73b6a7A","-1","-1","1","0","[]","0","2","","","4443","84","3","4","lose","no-go","0"
"pit-trial","209","1263264","0.0-89.0","battery-v0.2","","""event"",""trial"",""time""
""fullscreenenter"",""1"",""3465""
","
","
","""event"",""trial"",""time""
""fullscreenenter"",""1"",""3465""
","
","","","-1","","","18","4443","2675","z","elianto","#3366ff99","-1","-1","1","+10","[]","0","2","","","4443","85","5","2","win","no-go","0"
"pit-trial","210","1267344","0.0-90.0","battery-v0.2","","""event"",""trial"",""time""
""fullscreenenter"",""1"",""3465""
","
","
","""event"",""trial"",""time""
""fullscreenenter"",""1"",""3465""
","
","","","1223.1000000238419","","","18","4443","2675","h","elianto","#f73b6a7A"," "," ","1","0","[2074.600000023842]","1","2","","","4443","86","6","3","lose","go","0"
"pit-trial","211","1271117","0.0-91.0","battery-v0.2","","""event"",""trial"",""time""
""fullscreenenter"",""1"",""3465""
","
","
","""event"",""trial"",""time""
""fullscreenenter"",""1"",""3465""
","
","","","912.4000000357628","","","18","4443","2675","c","elianto","#3366ff99"," "," ","1","+10","[1763]","1","2","","","4443","87","4","1","win","go","0"
"pit-trial","212","1274850","0.0-92.0","battery-v0.2","","""event"",""trial"",""time""
""fullscreenenter"",""1"",""3465""
","
","
","""event"",""trial"",""time""
""fullscreenenter"",""1"",""3465""
","
","","","877.1999999880791","","","18","4443","2675","y","elianto","#f73b6a7A","-1"," ","0","-10","[1728.5]","1","2","","","4443","88","7","4","lose","no-go","0"
"pit-trial","213","1279453","0.0-93.0","battery-v0.2","","""event"",""trial"",""time""
""fullscreenenter"",""1"",""3465""
","
","
","""event"",""trial"",""time""
""fullscreenenter"",""1"",""3465""
","
","","","1744.6000000238419","","","18","4443","2675","c","elianto","#3366ff99"," "," ","1","+10","[2597.100000023842]","1","2","","","4443","89","4","1","win","go","0"
"pit-trial","214","1284312","0.0-94.0","battery-v0.2","","""event"",""trial"",""time""
""fullscreenenter"",""1"",""3465""
","
","
","""event"",""trial"",""time""
""fullscreenenter"",""1"",""3465""
","
","","","-1","","","18","4443","2675","z","elianto","#3366ff99","-1","-1","1","+10","[]","0","2","","","4443","90","5","2","win","no-go","0"
"pit-trial","215","1288133","0.0-95.0","battery-v0.2","","""event"",""trial"",""time""
""fullscreenenter"",""1"",""3465""
","
","
","""event"",""trial"",""time""
""fullscreenenter"",""1"",""3465""
","
","","","965.1000000238419","","","18","4443","2675","h","elianto","#f73b6a7A"," "," ","1","0","[1815.5]","1","2","","","4443","91","6","3","lose","go","0"
"pit-trial","216","1292365","0.0-96.0","battery-v0.2","","""event"",""trial"",""time""
""fullscreenenter"",""1"",""3465""
","
","
","""event"",""trial"",""time""
""fullscreenenter"",""1"",""3465""
","
","","","1372.9000000357628","","","18","4443","2675","y","elianto","#f73b6a7A","-1"," ","0","-10","[2225.300000011921]","1","2","","","4443","92","7","4","lose","no-go","0"
"pit-trial","217","1297222","0.0-97.0","battery-v0.2","","""event"",""trial"",""time""
""fullscreenenter"",""1"",""3465""
","
","
","""event"",""trial"",""time""
""fullscreenenter"",""1"",""3465""
","
","","","-1","","","18","4443","2675","z","elianto","#3366ff99","-1","-1","1","+10","[]","0","2","","","4443","93","5","2","win","no-go","0"
"pit-trial","218","1302080","0.0-98.0","battery-v0.2","","""event"",""trial"",""time""
""fullscreenenter"",""1"",""3465""
","
","
","""event"",""trial"",""time""
""fullscreenenter"",""1"",""3465""
","
","","","-1","","","18","4443","2675","y","elianto","#f73b6a7A","-1","-1","1","-10","[]","0","2","","","4443","94","7","4","lose","no-go","1"
"pit-trial","219","1306186","0.0-99.0","battery-v0.2","","""event"",""trial"",""time""
""fullscreenenter"",""1"",""3465""
","
","
","""event"",""trial"",""time""
""fullscreenenter"",""1"",""3465""
","
","","","1249.300000011921","","","18","4443","2675","h","elianto","#f73b6a7A"," "," ","1","0","[2100.899999976158]","1","2","","","4443","95","6","3","lose","go","0"
"pit-trial","220","1310084","0.0-100.0","battery-v0.2","","""event"",""trial"",""time""
""fullscreenenter"",""1"",""3465""
","
","
","""event"",""trial"",""time""
""fullscreenenter"",""1"",""3465""
","
","","","1039.800000011921","","","18","4443","2675","r","elianto","#3366ff99"," "," ","1","+10","[1891.800000011921]","1","2","","","4443","96","8","1","win","go","0"
"pit-trial","221","1314945","0.0-101.0","battery-v0.2","","""event"",""trial"",""time""
""fullscreenenter"",""1"",""3465""
","
","
","""event"",""trial"",""time""
""fullscreenenter"",""1"",""3465""
","
","","","-1","","","18","4443","2675","z","elianto","#3366ff99","-1","-1","1","+10","[]","0","2","","","4443","97","5","2","win","no-go","0"
"pit-trial","222","1318722","0.0-102.0","battery-v0.2","","""event"",""trial"",""time""
""fullscreenenter"",""1"",""3465""
","
","
","""event"",""trial"",""time""
""fullscreenenter"",""1"",""3465""
","
","","","919.6999999880791","","","18","4443","2675","h","elianto","#f73b6a7A"," "," ","1","0","[1770]","1","2","","","4443","98","6","3","lose","go","0"
"pit-trial","223","1323581","0.0-103.0","battery-v0.2","","""event"",""trial"",""time""
""fullscreenenter"",""1"",""3465""
","
","
","""event"",""trial"",""time""
""fullscreenenter"",""1"",""3465""
","
","","","-1","","","18","4443","2675","y","elianto","#f73b6a7A","-1","-1","1","0","[]","0","2","","","4443","99","7","4","lose","no-go","0"
"pit-trial","224","1327551","0.0-104.0","battery-v0.2","","""event"",""trial"",""time""
""fullscreenenter"",""1"",""3465""
","
","
","""event"",""trial"",""time""
""fullscreenenter"",""1"",""3465""
","
","","","1112.4000000357628","","","18","4443","2675","r","elianto","#3366ff99"," "," ","1","+10","[1963.800000011921]","1","2","","","4443","100","8","1","win","go","0"
"pit-trial","225","1331284","0.0-105.0","battery-v0.2","","""event"",""trial"",""time""
""fullscreenenter"",""1"",""3465""
","
","
","""event"",""trial"",""time""
""fullscreenenter"",""1"",""3465""
","
","","","871","","","18","4443","2675","m","elianto","#3366ff99"," "," ","1","+10","[1723.9000000357628]","1","2","","","4443","101","9","1","win","go","0"
"pit-trial","226","1334981","0.0-106.0","battery-v0.2","","""event"",""trial"",""time""
""fullscreenenter"",""1"",""3465""
","
","
","""event"",""trial"",""time""
""fullscreenenter"",""1"",""3465""
","
","","","836.5","","","18","4443","2675","r","elianto","#3366ff99"," "," ","1","0","[1689.5]","1","2","","","4443","102","8","1","win","go","1"
"pit-trial","227","1339840","0.0-107.0","battery-v0.2","","""event"",""trial"",""time""
""fullscreenenter"",""1"",""3465""
","
","
","""event"",""trial"",""time""
""fullscreenenter"",""1"",""3465""
","
","","","-1","","","18","4443","2675","y","elianto","#f73b6a7A","-1","-1","1","-10","[]","0","2","","","4443","103","7","4","lose","no-go","1"
"pit-trial","228","1344699","0.0-108.0","battery-v0.2","","""event"",""trial"",""time""
""fullscreenenter"",""1"",""3465""
","
","
","""event"",""trial"",""time""
""fullscreenenter"",""1"",""3465""
","
","","","-1","","","18","4443","2675","z","elianto","#3366ff99","-1","-1","1","+10","[]","0","2","","","4443","104","5","2","win","no-go","0"
"pit-trial","229","1348460","0.0-109.0","battery-v0.2","","""event"",""trial"",""time""
""fullscreenenter"",""1"",""3465""
","
","
","""event"",""trial"",""time""
""fullscreenenter"",""1"",""3465""
","
","","","900.8000000119209","","","18","4443","2675","h","elianto","#f73b6a7A"," "," ","1","0","[1753]","1","2","","","4443","105","6","3","lose","go","0"
"pit-trial","230","1352250","0.0-110.0","battery-v0.2","","""event"",""trial"",""time""
""fullscreenenter"",""1"",""3465""
","
","
","""event"",""trial"",""time""
""fullscreenenter"",""1"",""3465""
","
","","","931.0999999642372","","","18","4443","2675","r","elianto","#3366ff99"," "," ","1","+10","[1782.2000000476837]","1","2","","","4443","106","8","1","win","go","0"
"pit-trial","231","1355948","0.0-111.0","battery-v0.2","","""event"",""trial"",""time""
""fullscreenenter"",""1"",""3465""
","
","
","""event"",""trial"",""time""
""fullscreenenter"",""1"",""3465""
","
","","","837.7000000476837","","","18","4443","2675","c","elianto","#3366ff99"," "," ","1","+10","[1690]","1","2","","","4443","107","4","1","win","go","0"
"pit-trial","232","1359623","0.0-112.0","battery-v0.2","","""event"",""trial"",""time""
""fullscreenenter"",""1"",""3465""
","
","
","""event"",""trial"",""time""
""fullscreenenter"",""1"",""3465""
","
","","","817.3999999761581","","","18","4443","2675","m","elianto","#3366ff99"," "," ","1","+10","[1669.5999999642372]","1","2","","","4443","108","9","1","win","go","0"
"pit-trial","233","1363300","0.0-113.0","battery-v0.2","","""event"",""trial"",""time""
""fullscreenenter"",""1"",""3465""
","
","
","""event"",""trial"",""time""
""fullscreenenter"",""1"",""3465""
","
","","","819.3000000119209","","","18","4443","2675","r","elianto","#3366ff99"," "," ","1","+10","[1669.2999999523163]","1","2","","","4443","109","8","1","win","go","0"
"pit-trial","234","1367407","0.0-114.0","battery-v0.2","","""event"",""trial"",""time""
""fullscreenenter"",""1"",""3465""
","
","
","""event"",""trial"",""time""
""fullscreenenter"",""1"",""3465""
","
","","","1246.300000011921","","","18","4443","2675","h","elianto","#f73b6a7A"," "," ","1","0","[2098.899999976158]","1","2","","","4443","110","6","3","lose","go","0"
"pit-trial","235","1372265","0.0-115.0","battery-v0.2","","""event"",""trial"",""time""
""fullscreenenter"",""1"",""3465""
","
","
","""event"",""trial"",""time""
""fullscreenenter"",""1"",""3465""
","
","","","-1","","","18","4443","2675","z","elianto","#3366ff99","-1","-1","1","0","[]","0","2","","","4443","111","5","2","win","no-go","1"
"pit-trial","236","1375991","0.0-116.0","battery-v0.2","","""event"",""trial"",""time""
""fullscreenenter"",""1"",""3465""
","
","
","""event"",""trial"",""time""
""fullscreenenter"",""1"",""3465""
","
","","","868.3999999761581","","","18","4443","2675","m","elianto","#3366ff99"," "," ","1","+10","[1720.699999988079]","1","2","","","4443","112","9","1","win","go","0"
"pit-trial","237","1379631","0.0-117.0","battery-v0.2","","""event"",""trial"",""time""
""fullscreenenter"",""1"",""3465""
","
","
","""event"",""trial"",""time""
""fullscreenenter"",""1"",""3465""
","
","","","787.3999999761581","","","18","4443","2675","r","elianto","#3366ff99"," "," ","1","+10","[1637.6000000238419]","1","2","","","4443","113","8","1","win","go","0"
"pit-trial","238","1383346","0.0-118.0","battery-v0.2","","""event"",""trial"",""time""
""fullscreenenter"",""1"",""3465""
","
","
","""event"",""trial"",""time""
""fullscreenenter"",""1"",""3465""
","
","","","855.3000000119209","","","18","4443","2675","z","elianto","#3366ff99","-1"," ","0","0","[1707.5999999642372]","1","2","","","4443","114","5","2","win","no-go","0"
"pit-trial","239","1386951","0.0-119.0","battery-v0.2","","""event"",""trial"",""time""
""fullscreenenter"",""1"",""3465""
","
","
","""event"",""trial"",""time""
""fullscreenenter"",""1"",""3465""
","
","","","744.9000000357628","","","18","4443","2675","m","elianto","#3366ff99"," "," ","1","+10","[1596.7000000476837]","1","2","","","4443","115","9","1","win","go","0"
"pit-trial","240","1390892","0.0-120.0","battery-v0.2","","""event"",""trial"",""time""
""fullscreenenter"",""1"",""3465""
","
","
","""event"",""trial"",""time""
""fullscreenenter"",""1"",""3465""
","
","","","1083.0999999642372","","","18","4443","2675","h","elianto","#f73b6a7A"," "," ","1","-10","[1935.699999988079]","1","2","","","4443","116","6","3","lose","go","1"
"pit-trial","241","1394637","0.0-121.0","battery-v0.2","","""event"",""trial"",""time""
""fullscreenenter"",""1"",""3465""
","
","
","""event"",""trial"",""time""
""fullscreenenter"",""1"",""3465""
","
","","","886.8999999761581","","","18","4443","2675","h","elianto","#f73b6a7A"," "," ","1","0","[1737]","1","2","","","4443","117","6","3","lose","go","0"
"pit-trial","242","1398374","0.0-122.0","battery-v0.2","","""event"",""trial"",""time""
""fullscreenenter"",""1"",""3465""
","
","
","""event"",""trial"",""time""
""fullscreenenter"",""1"",""3465""
","
","","","877.6999999880791","","","18","4443","2675","m","elianto","#3366ff99"," "," ","1","+10","[1728.5999999642372]","1","2","","","4443","118","9","1","win","go","0"
"pit-trial","243","1402194","0.0-123.0","battery-v0.2","","""event"",""trial"",""time""
""fullscreenenter"",""1"",""3465""
","
","
","""event"",""trial"",""time""
""fullscreenenter"",""1"",""3465""
","
","","","964.2999999523163","","","18","4443","2675","r","elianto","#3366ff99"," "," ","1","0","[303.5999999642372,1814.8999999761581]","2","2","","","4443","119","8","1","win","go","1"
"pit-trial","244","1407053","0.0-124.0","battery-v0.2","","""event"",""trial"",""time""
""fullscreenenter"",""1"",""3465""
","
","
","""event"",""trial"",""time""
""fullscreenenter"",""1"",""3465""
","
","","","-1","","","18","4443","2675","z","elianto","#3366ff99","-1","-1","1","+10","[]","0","2","","","4443","120","5","2","win","no-go","0"
"pit-trial","245","1410913","0.0-125.0","battery-v0.2","","""event"",""trial"",""time""
""fullscreenenter"",""1"",""3465""
","
","
","""event"",""trial"",""time""
""fullscreenenter"",""1"",""3465""
","
","","","1001.8000000119209","","","18","4443","2675","h","elianto","#f73b6a7A"," "," ","1","0","[1852.5999999642372]","1","2","","","4443","121","6","3","lose","go","0"
"pit-trial","246","1415771","0.0-126.0","battery-v0.2","","""event"",""trial"",""time""
""fullscreenenter"",""1"",""3465""
","
","
","""event"",""trial"",""time""
""fullscreenenter"",""1"",""3465""
","
","","","-1","","","18","4443","2675","y","elianto","#f73b6a7A","-1","-1","1","0","[]","0","2","","","4443","122","7","4","lose","no-go","0"
"pit-trial","247","1419387","0.0-127.0","battery-v0.2","","""event"",""trial"",""time""
""fullscreenenter"",""1"",""3465""
","
","
","""event"",""trial"",""time""
""fullscreenenter"",""1"",""3465""
","
","","","757.9000000357628","","","18","4443","2675","m","elianto","#3366ff99"," "," ","1","+10","[1607.8999999761581]","1","2","","","4443","123","9","1","win","go","0"
"pit-trial","248","1424248","0.0-128.0","battery-v0.2","","""event"",""trial"",""time""
""fullscreenenter"",""1"",""3465""
","
","
","""event"",""trial"",""time""
""fullscreenenter"",""1"",""3465""
","
","","","-1","","","18","4443","2675","r","elianto","#3366ff99"," ","-1","0","0","[]","0","2","","","4443","124","8","1","win","go","0"
"pit-trial","249","1429036","0.0-129.0","battery-v0.2","","""event"",""trial"",""time""
""fullscreenenter"",""1"",""3465""
","
","
","""event"",""trial"",""time""
""fullscreenenter"",""1"",""3465""
","
","","","1924.699999988079","","","18","4443","2675","y","elianto","#f73b6a7A","-1"," ","0","0","[2777.899999976158]","1","2","","","4443","125","7","4","lose","no-go","1"
"pit-trial","250","1433017","0.0-130.0","battery-v0.2","","""event"",""trial"",""time""
""fullscreenenter"",""1"",""3465""
","
","
","""event"",""trial"",""time""
""fullscreenenter"",""1"",""3465""
","
","","","1123.7000000476837","","","18","4443","2675","h","elianto","#f73b6a7A"," "," ","1","0","[1974.300000011921]","1","2","","","4443","126","6","3","lose","go","0"
"pit-trial","251","1436565","0.0-131.0","battery-v0.2","","""event"",""trial"",""time""
""fullscreenenter"",""1"",""3465""
","
","
","""event"",""trial"",""time""
""fullscreenenter"",""1"",""3465""
","
","","","688.3999999761581","","","18","4443","2675","m","elianto","#3366ff99"," "," ","1","+10","[1540]","1","2","","","4443","127","9","1","win","go","0"
"pit-trial","252","1440326","0.0-132.0","battery-v0.2","","""event"",""trial"",""time""
""fullscreenenter"",""1"",""3465""
","
","
","""event"",""trial"",""time""
""fullscreenenter"",""1"",""3465""
","
","","","902.5","","","18","4443","2675","r","elianto","#3366ff99"," "," ","1","+10","[1755.199999988079]","1","2","","","4443","128","8","1","win","go","0"
"pit-trial","253","1443819","0.0-133.0","battery-v0.2","","""event"",""trial"",""time""
""fullscreenenter"",""1"",""3465""
","
","
","""event"",""trial"",""time""
""fullscreenenter"",""1"",""3465""
","
","","","633.1999999880791","","","18","4443","2675","m","elianto","#3366ff99"," "," ","1","+10","[1484.7999999523163]","1","2","","","4443","129","9","1","win","go","0"
"pit-trial","254","1447564","0.0-134.0","battery-v0.2","","""event"",""trial"",""time""
""fullscreenenter"",""1"",""3465""
","
","
","""event"",""trial"",""time""
""fullscreenenter"",""1"",""3465""
","
","","","889.6999999880791","","","18","4443","2675","y","elianto","#f73b6a7A","-1"," ","0","-10","[1739.699999988079]","1","2","","","4443","130","7","4","lose","no-go","0"
"pit-trial","255","1451267","0.0-135.0","battery-v0.2","","""event"",""trial"",""time""
""fullscreenenter"",""1"",""3465""
","
","
","""event"",""trial"",""time""
""fullscreenenter"",""1"",""3465""
","
","","","845.6999999880791","","","18","4443","2675","h","elianto","#f73b6a7A"," "," ","1","0","[1698]","1","2","","","4443","131","6","3","lose","go","0"
"pit-trial","256","1455894","0.0-136.0","battery-v0.2","","""event"",""trial"",""time""
""fullscreenenter"",""1"",""3465""
","
","
","""event"",""trial"",""time""
""fullscreenenter"",""1"",""3465""
","
","","","1767.5","","","18","4443","2675","r","elianto","#3366ff99"," "," ","1","0","[2618.300000011921]","1","2","","","4443","132","8","1","win","go","1"
"pit-trial","257","1460753","0.0-137.0","battery-v0.2","","""event"",""trial"",""time""
""fullscreenenter"",""1"",""3465""
","
","
","""event"",""trial"",""time""
""fullscreenenter"",""1"",""3465""
","
","","","-1","","","18","4443","2675","y","elianto","#f73b6a7A","-1","-1","1","0","[]","0","2","","","4443","133","7","4","lose","no-go","0"
"pit-trial","258","1465611","0.0-138.0","battery-v0.2","","""event"",""trial"",""time""
""fullscreenenter"",""1"",""3465""
","
","
","""event"",""trial"",""time""
""fullscreenenter"",""1"",""3465""
","
","","","-1","","","18","4443","2675","r","elianto","#3366ff99"," ","-1","0","+10","[]","0","2","","","4443","134","8","1","win","go","1"
"pit-trial","259","1469349","0.0-139.0","battery-v0.2","","""event"",""trial"",""time""
""fullscreenenter"",""1"",""3465""
","
","
","""event"",""trial"",""time""
""fullscreenenter"",""1"",""3465""
","
","","","880.1999999880791","","","18","4443","2675","h","elianto","#f73b6a7A"," "," ","1","0","[1731.800000011921]","1","2","","","4443","135","6","3","lose","go","0"
"pit-trial","260","1472994","0.0-140.0","battery-v0.2","","""event"",""trial"",""time""
""fullscreenenter"",""1"",""3465""
","
","
","""event"",""trial"",""time""
""fullscreenenter"",""1"",""3465""
","
","","","789.3999999761581","","","18","4443","2675","m","elianto","#3366ff99"," "," ","1","+10","[1641.699999988079]","1","2","","","4443","136","9","1","win","go","0"
"pit-trial","261","1476602","0.0-141.0","battery-v0.2","","""event"",""trial"",""time""
""fullscreenenter"",""1"",""3465""
","
","
","""event"",""trial"",""time""
""fullscreenenter"",""1"",""3465""
","
","","","752.5","","","18","4443","2675","m","elianto","#3366ff99"," "," ","1","+10","[1602.5999999642372]","1","2","","","4443","137","9","1","win","go","0"
"pit-trial","262","1480396","0.0-142.0","battery-v0.2","","""event"",""trial"",""time""
""fullscreenenter"",""1"",""3465""
","
","
","""event"",""trial"",""time""
""fullscreenenter"",""1"",""3465""
","
","","","936.5","","","18","4443","2675","h","elianto","#f73b6a7A"," "," ","1","-10","[1787.7999999523163]","1","2","","","4443","138","6","3","lose","go","1"
"pit-trial","263","1483333","0.0-143.0","battery-v0.2","","""event"",""trial"",""time""
""fullscreenenter"",""1"",""3465""
","
","
","""event"",""trial"",""time""
""fullscreenenter"",""1"",""3465""
","
","","","77","","","18","4443","2675","r","elianto","#3366ff99"," "," ","1","+10","[929.1999999880791]","1","2","","","4443","139","8","1","win","go","0"
"pit-trial","264","1488192","0.0-144.0","battery-v0.2","","""event"",""trial"",""time""
""fullscreenenter"",""1"",""3465""
","
","
","""event"",""trial"",""time""
""fullscreenenter"",""1"",""3465""
","
","","","-1","","","18","4443","2675","y","elianto","#f73b6a7A","-1","-1","1","0","[]","0","2","","","4443","140","7","4","lose","no-go","0"
"pit-instructions","265","1502466","0.0-145.0","battery-v0.2","","""event"",""trial"",""time""
""fullscreenenter"",""1"",""3465""
","
","
","""event"",""trial"",""time""
""fullscreenenter"",""1"",""3465""
","
","","[{""page_index"":0,""viewing_time"":5655.699999988079},{""page_index"":1,""viewing_time"":8614.399999976158}]","14271.199999988079","","","","","","","","","","","","","","","","","","","","","","","",""
"pit-trial","266","1506139","0.0-146.0","battery-v0.2","","""event"",""trial"",""time""
""fullscreenenter"",""1"",""3465""
","
","
","""event"",""trial"",""time""
""fullscreenenter"",""1"",""3465""
","
","","","808.6999999880791","","","18","4443","2675","d","elianto","#3366ff99"," "," ","1","+10","[1659.2000000476837]","1","3","","","4443","141","1","1","win","go","0"
"pit-trial","267","1509884","0.0-147.0","battery-v0.2","","""event"",""trial"",""time""
""fullscreenenter"",""1"",""3465""
","
","
","""event"",""trial"",""time""
