"trial_type","trial_index","time_elapsed","internal_node_id","task_version","subject_id","interactions","blur_events","focus_events","fullscreenenter_events","fullscreenexit_events","success","view_history","rt","responses","num_errors","age","subject","participantId","rune","rune_set","hex","correct","choice","accuracy","outcome","keys","total_keys","block","practice","value","sub","trial","stimulus","robot","valence","action","sham"
"pavlovia","0","19","0.0-0.0","battery-v0.2","","""event"",""trial"",""time""
""fullscreenenter"",""1"",""6685""
","
","
","""event"",""trial"",""time""
""fullscreenenter"",""1"",""6685""
","
","","","","","","","","","","","","","","","","","","","","","","","","","","",""
"fullscreen","1","7673","0.0-1.0","battery-v0.2","","""event"",""trial"",""time""
""fullscreenenter"",""1"",""6685""
","
","
","""event"",""trial"",""time""
""fullscreenenter"",""1"",""6685""
","
","true","","","","","","","","","","","","","","","","","","","","","","","","","",""
"pit-instructions","2","17716","0.0-2.0-0.0","battery-v0.2","","""event"",""trial"",""time""
""fullscreenenter"",""1"",""6685""
","
","
","""event"",""trial"",""time""
""fullscreenenter"",""1"",""6685""
","
","","[{""page_index"":0,""viewing_time"":10020.10000000149}]","10022","","","","","","","","","","","","","","","","","","","","","","","",""
"pit-comprehension","3","21961","0.0-2.0-1.0-0.0","battery-v0.2","","""event"",""trial"",""time""
""fullscreenenter"",""1"",""6685""
","
","
","""event"",""trial"",""time""
""fullscreenenter"",""1"",""6685""
","
","","","4222.5","[""shark""]","0","11","5941","3504","","","","","","","","","","","","","","","","","","",""
"pit-instructions","4","23878","0.0-2.0-1.0-1.0","battery-v0.2","","""event"",""trial"",""time""
""fullscreenenter"",""1"",""6685""
","
","
","""event"",""trial"",""time""
""fullscreenenter"",""1"",""6685""
","
","","[{""page_index"":0,""viewing_time"":1901}]","1902.5","","","","","","","","","","","","","","","","","","","","","","","",""
"pit-comprehension","5","27098","0.0-2.0-2.0-0.0","battery-v0.2","","""event"",""trial"",""time""
""fullscreenenter"",""1"",""6685""
","
","
","""event"",""trial"",""time""
""fullscreenenter"",""1"",""6685""
","
","","","3200.900000002235","[""tiger""]","0","11","5941","3504","","","","","","","","","","","","","","","","","","",""
"pit-instructions","6","28820","0.0-2.0-2.0-1.0","battery-v0.2","","""event"",""trial"",""time""
""fullscreenenter"",""1"",""6685""
","
","
","""event"",""trial"",""time""
""fullscreenenter"",""1"",""6685""
","
","","[{""page_index"":0,""viewing_time"":1704.699999999255}]","1706.199999999255","","","","","","","","","","","","","","","","","","","","","","","",""
"pit-instructions","7","132284","0.0-2.0-3.0","battery-v0.2","","""event"",""trial"",""time""
""fullscreenenter"",""1"",""6685""
","
","
","""event"",""trial"",""time""
""fullscreenenter"",""1"",""6685""
","
","","[{""page_index"":0,""viewing_time"":8609.900000002235},{""page_index"":1,""viewing_time"":6250.099999997765},{""page_index"":2,""viewing_time"":6130.60000000149},{""page_index"":3,""viewing_time"":6485.60000000149},{""page_index"":4,""viewing_time"":6373.599999997765},{""page_index"":5,""viewing_time"":5794.5},{""page_index"":6,""viewing_time"":11619.900000002235},{""page_index"":7,""viewing_time"":8354.699999999255},{""page_index"":8,""viewing_time"":6445.699999999255},{""page_index"":9,""viewing_time"":10253.60000000149},{""page_index"":10,""viewing_time"":7120.699999999255},{""page_index"":11,""viewing_time"":7505.800000000745},{""page_index"":12,""viewing_time"":6747.699999999255},{""page_index"":13,""viewing_time"":5752.39999999851}]","103447.80000000075","","","","","","","","","","","","","","","","","","","","","","","",""
"pit-trial","8","136083","0.0-2.0-4.0-0.0","battery-v0.2","","""event"",""trial"",""time""
""fullscreenenter"",""1"",""6685""
","
","
","""event"",""trial"",""time""
""fullscreenenter"",""1"",""6685""
","
","","","922.5","","","11","5941","3504","&#9784;","elianto","#FFFFF080"," "," ","1","&#10004","[1777.300000000745]","1","0","0","","","","","","","",""
"pit-trial","9","139419","0.0-2.0-4.1-0.1","battery-v0.2","","""event"",""trial"",""time""
""fullscreenenter"",""1"",""6685""
","
","
","""event"",""trial"",""time""
""fullscreenenter"",""1"",""6685""
","
","","","458.69999999925494","","","11","5941","3504","&#9784;","elianto","#FFFFF080"," "," ","1","&#10004","[1311.2000000029802]","1","0","0","","","","","","","",""
"pit-trial","10","142867","0.0-2.0-4.2-0.2","battery-v0.2","","""event"",""trial"",""time""
""fullscreenenter"",""1"",""6685""
","
","
","""event"",""trial"",""time""
""fullscreenenter"",""1"",""6685""
","
","","","581.8999999985099","","","11","5941","3504","&#9784;","elianto","#FFFFF080"," "," ","1","&#10004","[1432.6000000014901]","1","0","0","","","","","","","",""
"pit-trial","11","146371","0.0-2.0-4.3-0.3","battery-v0.2","","""event"",""trial"",""time""
""fullscreenenter"",""1"",""6685""
","
","
","""event"",""trial"",""time""
""fullscreenenter"",""1"",""6685""
","
","","","637.7000000029802","","","11","5941","3504","&#9784;","elianto","#FFFFF080"," "," ","1","&#10004","[1488.199999999255]","1","0","0","","","","","","","",""
"pit-trial","12","150011","0.0-2.0-4.4-0.4","battery-v0.2","","""event"",""trial"",""time""
""fullscreenenter"",""1"",""6685""
","
","
","""event"",""trial"",""time""
""fullscreenenter"",""1"",""6685""
","
","","","768.4000000022352","","","11","5941","3504","&#9784;","elianto","#FFFFF080"," "," ","1","&#10004","[1620.1000000014901]","1","0","0","","","","","","","",""
"pit-instructions","13","180575","0.0-2.0-5.0","battery-v0.2","","""event"",""trial"",""time""
""fullscreenenter"",""1"",""6685""
","
","
","""event"",""trial"",""time""
""fullscreenenter"",""1"",""6685""
","
","","[{""page_index"":0,""viewing_time"":6283.199999999255},{""page_index"":1,""viewing_time"":6898.10000000149},{""page_index"":2,""viewing_time"":10307.300000000745},{""page_index"":3,""viewing_time"":7059.79999999702}]","30550.300000000745","","","","","","","","","","","","","","","","","","","","","","","",""
"pit-trial","14","185450","0.0-2.0-6.0-0.0","battery-v0.2","","""event"",""trial"",""time""
""fullscreenenter"",""1"",""6685""
","
","
","""event"",""trial"",""time""
""fullscreenenter"",""1"",""6685""
","
","","","-1","","","11","5941","3504","&#9854;","elianto","#FFFFF080","-1","-1","1","&#10004","[]","0","0","1","","","","","","","",""
"pit-trial","15","190322","0.0-2.0-6.1-0.1","battery-v0.2","","""event"",""trial"",""time""
""fullscreenenter"",""1"",""6685""
","
","
","""event"",""trial"",""time""
""fullscreenenter"",""1"",""6685""
","
","","","-1","","","11","5941","3504","&#9854;","elianto","#FFFFF080","-1","-1","1","&#10004","[]","0","0","1","","","","","","","",""
"pit-trial","16","195194","0.0-2.0-6.2-0.2","battery-v0.2","","""event"",""trial"",""time""
""fullscreenenter"",""1"",""6685""
","
","
","""event"",""trial"",""time""
""fullscreenenter"",""1"",""6685""
","
","","","-1","","","11","5941","3504","&#9854;","elianto","#FFFFF080","-1","-1","1","&#10004","[]","0","0","1","","","","","","","",""
"pit-trial","17","200067","0.0-2.0-6.3-0.3","battery-v0.2","","""event"",""trial"",""time""
""fullscreenenter"",""1"",""6685""
","
","
","""event"",""trial"",""time""
""fullscreenenter"",""1"",""6685""
","
","","","-1","","","11","5941","3504","&#9854;","elianto","#FFFFF080","-1","-1","1","&#10004","[]","0","0","1","","","","","","","",""
"pit-trial","18","204938","0.0-2.0-6.4-0.4","battery-v0.2","","""event"",""trial"",""time""
""fullscreenenter"",""1"",""6685""
","
","
","""event"",""trial"",""time""
""fullscreenenter"",""1"",""6685""
","
","","","-1","","","11","5941","3504","&#9854;","elianto","#FFFFF080","-1","-1","1","&#10004","[]","0","0","1","","","","","","","",""
"pit-instructions","19","347566","0.0-2.0-7.0","battery-v0.2","","""event"",""trial"",""time""
""fullscreenenter"",""1"",""6685""
","
","
","""event"",""trial"",""time""
""fullscreenenter"",""1"",""6685""
","
","","[{""page_index"":0,""viewing_time"":6330.800000000745},{""page_index"":1,""viewing_time"":8773},{""page_index"":2,""viewing_time"":6699.199999999255},{""page_index"":3,""viewing_time"":7033.39999999851},{""page_index"":4,""viewing_time"":7831.20000000298},{""page_index"":5,""viewing_time"":8628.599999997765},{""page_index"":6,""viewing_time"":7927.10000000149},{""page_index"":7,""viewing_time"":8717.599999997765},{""page_index"":8,""viewing_time"":11148.5},{""page_index"":9,""viewing_time"":8104.800000000745},{""page_index"":10,""viewing_time"":7450.5},{""page_index"":11,""viewing_time"":6645.699999999255},{""page_index"":12,""viewing_time"":9335.5},{""page_index"":13,""viewing_time"":7953.900000002235},{""page_index"":14,""viewing_time"":8696.599999997765},{""page_index"":15,""viewing_time"":7198.800000000745},{""page_index"":16,""viewing_time"":6723.199999999255},{""page_index"":17,""viewing_time"":7412.10000000149}]","142613.19999999925","","","","","","","","","","","","","","","","","","","","","","","",""
"pit-trial","20","351914","0.0-2.0-8.0-0.0","battery-v0.2","","""event"",""trial"",""time""
""fullscreenenter"",""1"",""6685""
","
","
","""event"",""trial"",""time""
""fullscreenenter"",""1"",""6685""
","
","","","1471.300000000745","","","11","5941","3504","&#9776;","elianto","#3366ff99"," "," ","1","+10","[2328.400000002235]","1","0","1","","","","","","","",""
"pit-trial","21","355410","0.0-2.0-8.0-1.0","battery-v0.2","","""event"",""trial"",""time""
""fullscreenenter"",""1"",""6685""
","
","
","""event"",""trial"",""time""
""fullscreenenter"",""1"",""6685""
","
","","","625.3999999985099","","","11","5941","3504","&#9776;","elianto","#3366ff99"," "," ","1","+10","[1482.9000000022352]","1","0","1","","","","","","","",""
"pit-trial","22","358842","0.0-2.0-8.0-2.0","battery-v0.2","","""event"",""trial"",""time""
""fullscreenenter"",""1"",""6685""
","
","
","""event"",""trial"",""time""
""fullscreenenter"",""1"",""6685""
","
","","","567.8999999985099","","","11","5941","3504","&#9776;","elianto","#3366ff99"," "," ","1","+10","[1421.4000000022352]","1","0","1","","","","","","","",""
"pit-trial","23","362281","0.0-2.0-8.0-3.0","battery-v0.2","","""event"",""trial"",""time""
""fullscreenenter"",""1"",""6685""
","
","
","""event"",""trial"",""time""
""fullscreenenter"",""1"",""6685""
","
","","","577","","","11","5941","3504","&#9776;","elianto","#3366ff99"," "," ","1","0","[1429.699999999255]","1","0","1","","","","","","","",""
"pit-trial","24","367154","0.0-2.0-8.0-4.0","battery-v0.2","","""event"",""trial"",""time""
""fullscreenenter"",""1"",""6685""
","
","
","""event"",""trial"",""time""
""fullscreenenter"",""1"",""6685""
","
","","","-1","","","11","5941","3504","&#9776;","elianto","#3366ff99"," ","-1","0","0","[]","0","0","1","","","","","","","",""
"pit-trial","25","370618","0.0-2.0-8.1-0.1","battery-v0.2","","""event"",""trial"",""time""
""fullscreenenter"",""1"",""6685""
","
","
","""event"",""trial"",""time""
""fullscreenenter"",""1"",""6685""
","
","","","598.6999999992549","","","11","5941","3504","&#9776;","elianto","#3366ff99"," "," ","1","+10","[1450.9000000022352]","1","0","1","","","","","","","",""
"pit-trial","26","375050","0.0-2.0-8.1-1.1","battery-v0.2","","""event"",""trial"",""time""
""fullscreenenter"",""1"",""6685""
","
","
","""event"",""trial"",""time""
""fullscreenenter"",""1"",""6685""
","
","","","1560.800000000745","","","11","5941","3504","&#9776;","elianto","#3366ff99"," "," ","1","+10","[2415.89999999851]","1","0","1","","","","","","","",""
"pit-trial","27","379146","0.0-2.0-8.1-2.1","battery-v0.2","","""event"",""trial"",""time""
""fullscreenenter"",""1"",""6685""
","
","
","""event"",""trial"",""time""
""fullscreenenter"",""1"",""6685""
","
","","","1229.699999999255","","","11","5941","3504","&#9776;","elianto","#3366ff99"," "," ","1","+10","[2081.39999999851]","1","0","1","","","","","","","",""
"pit-trial","28","383770","0.0-2.0-8.1-3.1","battery-v0.2","","""event"",""trial"",""time""
""fullscreenenter"",""1"",""6685""
","
","
","""event"",""trial"",""time""
""fullscreenenter"",""1"",""6685""
","
","","","1758.300000000745","","","11","5941","3504","&#9776;","elianto","#3366ff99"," "," ","1","0","[2609.89999999851]","1","0","1","","","","","","","",""
"pit-trial","29","388642","0.0-2.0-8.1-4.1","battery-v0.2","","""event"",""trial"",""time""
""fullscreenenter"",""1"",""6685""
","
","
","""event"",""trial"",""time""
""fullscreenenter"",""1"",""6685""
","
","","","-1","","","11","5941","3504","&#9776;","elianto","#3366ff99"," ","-1","0","0","[]","0","0","1","","","","","","","",""
"pit-trial","30","392058","0.0-2.0-8.2-0.2","battery-v0.2","","""event"",""trial"",""time""
""fullscreenenter"",""1"",""6685""
","
","
","""event"",""trial"",""time""
""fullscreenenter"",""1"",""6685""
","
","","","547.3000000007451","","","11","5941","3504","&#9776;","elianto","#3366ff99"," "," ","1","+10","[1399.5,1643]","2","0","1","","","","","","","",""
"pit-trial","31","395386","0.0-2.0-8.2-1.2","battery-v0.2","","""event"",""trial"",""time""
""fullscreenenter"",""1"",""6685""
","
","
","""event"",""trial"",""time""
""fullscreenenter"",""1"",""6685""
","
","","","455.30000000074506","","","11","5941","3504","&#9776;","elianto","#3366ff99"," "," ","1","+10","[1310.6000000014901]","1","0","1","","","","","","","",""
"pit-trial","32","398842","0.0-2.0-8.2-2.2","battery-v0.2","","""event"",""trial"",""time""
""fullscreenenter"",""1"",""6685""
","
","
","""event"",""trial"",""time""
""fullscreenenter"",""1"",""6685""
","
","","","585.0999999977648","","","11","5941","3504","&#9776;","elianto","#3366ff99"," "," ","1","+10","[1440.3999999985099]","1","0","1","","","","","","","",""
"pit-trial","33","402034","0.0-2.0-8.2-3.2","battery-v0.2","","""event"",""trial"",""time""
""fullscreenenter"",""1"",""6685""
","
","
","""event"",""trial"",""time""
""fullscreenenter"",""1"",""6685""
","
","","","320.30000000074506","","","11","5941","3504","&#9776;","elianto","#3366ff99"," "," ","1","0","[1175.699999999255]","1","0","1","","","","","","","",""
"pit-trial","34","405346","0.0-2.0-8.2-4.2","battery-v0.2","","""event"",""trial"",""time""
""fullscreenenter"",""1"",""6685""
","
","
","""event"",""trial"",""time""
""fullscreenenter"",""1"",""6685""
","
","","","444.69999999925494","","","11","5941","3504","&#9776;","elianto","#3366ff99"," "," ","1","+10","[1298.5999999977648]","1","0","1","","","","","","","",""
"call-function","35","405355","0.0-2.0-9.0","battery-v0.2","","""event"",""trial"",""time""
""fullscreenenter"",""1"",""6685""
","
","
","""event"",""trial"",""time""
""fullscreenenter"",""1"",""6685""
","
","","","","","","","","","","","","","","","","","","","","","","","","","","",""
"pit-instructions","36","452191","0.0-2.0-10.0","battery-v0.2","","""event"",""trial"",""time""
""fullscreenenter"",""1"",""6685""
","
","
","""event"",""trial"",""time""
""fullscreenenter"",""1"",""6685""
","
","","[{""page_index"":0,""viewing_time"":11126.099999997765},{""page_index"":1,""viewing_time"":8031.10000000149},{""page_index"":2,""viewing_time"":10405.300000000745},{""page_index"":3,""viewing_time"":9630.29999999702},{""page_index"":4,""viewing_time"":7636}]","46832","","","","","","","","","","","","","","","","","","","","","","","",""
"pit-trial","37","455754","0.0-2.0-11.0-0.0","battery-v0.2","","""event"",""trial"",""time""
""fullscreenenter"",""1"",""6685""
","
","
","""event"",""trial"",""time""
""fullscreenenter"",""1"",""6685""
","
","","","693.4000000022352","","","11","5941","3504","&#9761;","elianto","#3366ff99","-1"," ","0","0","[1545.5]","1","0","2","","","","","","","",""
"pit-trial","38","458882","0.0-2.0-11.0-1.0","battery-v0.2","","""event"",""trial"",""time""
""fullscreenenter"",""1"",""6685""
","
","
","""event"",""trial"",""time""
""fullscreenenter"",""1"",""6685""
","
","","","257.8999999985099","","","11","5941","3504","&#9761;","elianto","#3366ff99","-1"," ","0","0","[1110.1000000014901]","1","0","2","","","","","","","",""
"pit-trial","39","463755","0.0-2.0-11.0-2.0","battery-v0.2","","""event"",""trial"",""time""
""fullscreenenter"",""1"",""6685""
","
","
","""event"",""trial"",""time""
""fullscreenenter"",""1"",""6685""
","
","","","-1","","","11","5941","3504","&#9761;","elianto","#3366ff99","-1","-1","1","+10","[]","0","0","2","","","","","","","",""
"pit-trial","40","468628","0.0-2.0-11.0-3.0","battery-v0.2","","""event"",""trial"",""time""
""fullscreenenter"",""1"",""6685""
","
","
","""event"",""trial"",""time""
""fullscreenenter"",""1"",""6685""
","
","","","-1","","","11","5941","3504","&#9761;","elianto","#3366ff99","-1","-1","1","0","[]","0","0","2","","","","","","","",""
"pit-trial","41","473499","0.0-2.0-11.0-4.0","battery-v0.2","","""event"",""trial"",""time""
""fullscreenenter"",""1"",""6685""
","
","
","""event"",""trial"",""time""
""fullscreenenter"",""1"",""6685""
","
","","","-1","","","11","5941","3504","&#9761;","elianto","#3366ff99","-1","-1","1","+10","[]","0","0","2","","","","","","","",""
"pit-trial","42","478371","0.0-2.0-11.1-0.1","battery-v0.2","","""event"",""trial"",""time""
""fullscreenenter"",""1"",""6685""
","
","
","""event"",""trial"",""time""
""fullscreenenter"",""1"",""6685""
","
","","","-1","","","11","5941","3504","&#9761;","elianto","#3366ff99","-1","-1","1","+10","[]","0","0","2","","","","","","","",""
"pit-trial","43","483243","0.0-2.0-11.1-1.1","battery-v0.2","","""event"",""trial"",""time""
""fullscreenenter"",""1"",""6685""
","
","
","""event"",""trial"",""time""
""fullscreenenter"",""1"",""6685""
","
","","","-1","","","11","5941","3504","&#9761;","elianto","#3366ff99","-1","-1","1","+10","[]","0","0","2","","","","","","","",""
"pit-trial","44","488115","0.0-2.0-11.1-2.1","battery-v0.2","","""event"",""trial"",""time""
""fullscreenenter"",""1"",""6685""
","
","
","""event"",""trial"",""time""
""fullscreenenter"",""1"",""6685""
","
","","","-1","","","11","5941","3504","&#9761;","elianto","#3366ff99","-1","-1","1","+10","[]","0","0","2","","","","","","","",""
"pit-trial","45","492987","0.0-2.0-11.1-3.1","battery-v0.2","","""event"",""trial"",""time""
""fullscreenenter"",""1"",""6685""
","
","
","""event"",""trial"",""time""
""fullscreenenter"",""1"",""6685""
","
","","","-1","","","11","5941","3504","&#9761;","elianto","#3366ff99","-1","-1","1","0","[]","0","0","2","","","","","","","",""
"pit-trial","46","497858","0.0-2.0-11.1-4.1","battery-v0.2","","""event"",""trial"",""time""
""fullscreenenter"",""1"",""6685""
","
","
","""event"",""trial"",""time""
""fullscreenenter"",""1"",""6685""
","
","","","-1","","","11","5941","3504","&#9761;","elianto","#3366ff99","-1","-1","1","+10","[]","0","0","2","","","","","","","",""
"pit-trial","47","502729","0.0-2.0-11.2-0.2","battery-v0.2","","""event"",""trial"",""time""
""fullscreenenter"",""1"",""6685""
","
","
","""event"",""trial"",""time""
""fullscreenenter"",""1"",""6685""
","
","","","-1","","","11","5941","3504","&#9761;","elianto","#3366ff99","-1","-1","1","+10","[]","0","0","2","","","","","","","",""
"pit-trial","48","507601","0.0-2.0-11.2-1.2","battery-v0.2","","""event"",""trial"",""time""
""fullscreenenter"",""1"",""6685""
","
","
","""event"",""trial"",""time""
""fullscreenenter"",""1"",""6685""
","
","","","-1","","","11","5941","3504","&#9761;","elianto","#3366ff99","-1","-1","1","+10","[]","0","0","2","","","","","","","",""
"pit-trial","49","512473","0.0-2.0-11.2-2.2","battery-v0.2","","""event"",""trial"",""time""
""fullscreenenter"",""1"",""6685""
","
","
","""event"",""trial"",""time""
""fullscreenenter"",""1"",""6685""
","
","","","-1","","","11","5941","3504","&#9761;","elianto","#3366ff99","-1","-1","1","+10","[]","0","0","2","","","","","","","",""
"pit-trial","50","517338","0.0-2.0-11.2-3.2","battery-v0.2","","""event"",""trial"",""time""
""fullscreenenter"",""1"",""6685""
","
","
","""event"",""trial"",""time""
""fullscreenenter"",""1"",""6685""
","
","","","-1","","","11","5941","3504","&#9761;","elianto","#3366ff99","-1","-1","1","0","[]","0","0","2","","","","","","","",""
"pit-trial","51","522210","0.0-2.0-11.2-4.2","battery-v0.2","","""event"",""trial"",""time""
""fullscreenenter"",""1"",""6685""
","
","
","""event"",""trial"",""time""
""fullscreenenter"",""1"",""6685""
","
","","","-1","","","11","5941","3504","&#9761;","elianto","#3366ff99","-1","-1","1","+10","[]","0","0","2","","","","","","","",""
"pit-trial","52","527082","0.0-2.0-11.3-0.3","battery-v0.2","","""event"",""trial"",""time""
""fullscreenenter"",""1"",""6685""
","
","
","""event"",""trial"",""time""
""fullscreenenter"",""1"",""6685""
","
","","","-1","","","11","5941","3504","&#9761;","elianto","#3366ff99","-1","-1","1","+10","[]","0","0","2","","","","","","","",""
"pit-trial","53","531954","0.0-2.0-11.3-1.3","battery-v0.2","","""event"",""trial"",""time""
""fullscreenenter"",""1"",""6685""
","
","
","""event"",""trial"",""time""
""fullscreenenter"",""1"",""6685""
","
","","","-1","","","11","5941","3504","&#9761;","elianto","#3366ff99","-1","-1","1","+10","[]","0","0","2","","","","","","","",""
"pit-trial","54","536826","0.0-2.0-11.3-2.3","battery-v0.2","","""event"",""trial"",""time""
""fullscreenenter"",""1"",""6685""
","
","
","""event"",""trial"",""time""
""fullscreenenter"",""1"",""6685""
","
","","","-1","","","11","5941","3504","&#9761;","elianto","#3366ff99","-1","-1","1","+10","[]","0","0","2","","","","","","","",""
"pit-trial","55","541698","0.0-2.0-11.3-3.3","battery-v0.2","","""event"",""trial"",""time""
""fullscreenenter"",""1"",""6685""
","
","
","""event"",""trial"",""time""
""fullscreenenter"",""1"",""6685""
","
","","","-1","","","11","5941","3504","&#9761;","elianto","#3366ff99","-1","-1","1","0","[]","0","0","2","","","","","","","",""
"pit-trial","56","546570","0.0-2.0-11.3-4.3","battery-v0.2","","""event"",""trial"",""time""
""fullscreenenter"",""1"",""6685""
","
","
","""event"",""trial"",""time""
""fullscreenenter"",""1"",""6685""
","
","","","-1","","","11","5941","3504","&#9761;","elianto","#3366ff99","-1","-1","1","+10","[]","0","0","2","","","","","","","",""
"call-function","57","546582","0.0-2.0-12.0","battery-v0.2","","""event"",""trial"",""time""
""fullscreenenter"",""1"",""6685""
","
","
","""event"",""trial"",""time""
""fullscreenenter"",""1"",""6685""
","
","","","","","","","","","","","","","","","","","","","","","","","","","","",""
"pit-instructions","58","584976","0.0-2.0-13.0","battery-v0.2","","""event"",""trial"",""time""
""fullscreenenter"",""1"",""6685""
","
","
","""event"",""trial"",""time""
""fullscreenenter"",""1"",""6685""
","
","","[{""page_index"":0,""viewing_time"":5940.5},{""page_index"":1,""viewing_time"":7980.300000000745},{""page_index"":2,""viewing_time"":6509.699999999255},{""page_index"":3,""viewing_time"":12392.5},{""page_index"":4,""viewing_time"":5558.5}]","38386.300000000745","","","","","","","","","","","","","","","","","","","","","","","",""
"pit-trial","59","588907","0.0-2.0-14.0-0.0","battery-v0.2","","""event"",""trial"",""time""
""fullscreenenter"",""1"",""6685""
","
","
","""event"",""trial"",""time""
""fullscreenenter"",""1"",""6685""
","
","","","1058","","","11","5941","3504","&#9826;","elianto","#f73b6a7A","-1"," ","0","-10","[1913.300000000745]","1","0","3","","","","","","","",""
"pit-trial","60","593778","0.0-2.0-14.0-1.0","battery-v0.2","","""event"",""trial"",""time""
""fullscreenenter"",""1"",""6685""
","
","
","""event"",""trial"",""time""
""fullscreenenter"",""1"",""6685""
","
","","","-1","","","11","5941","3504","&#9826;","elianto","#f73b6a7A","-1","-1","1","0","[]","0","0","3","","","","","","","",""
"pit-trial","61","598650","0.0-2.0-14.0-2.0","battery-v0.2","","""event"",""trial"",""time""
""fullscreenenter"",""1"",""6685""
","
","
","""event"",""trial"",""time""
""fullscreenenter"",""1"",""6685""
","
","","","-1","","","11","5941","3504","&#9826;","elianto","#f73b6a7A","-1","-1","1","0","[]","0","0","3","","","","","","","",""
"pit-trial","62","603522","0.0-2.0-14.0-3.0","battery-v0.2","","""event"",""trial"",""time""
""fullscreenenter"",""1"",""6685""
","
","
","""event"",""trial"",""time""
""fullscreenenter"",""1"",""6685""
","
","","","-1","","","11","5941","3504","&#9826;","elianto","#f73b6a7A","-1","-1","1","-10","[]","0","0","3","","","","","","","",""
"pit-trial","63","608394","0.0-2.0-14.0-4.0","battery-v0.2","","""event"",""trial"",""time""
""fullscreenenter"",""1"",""6685""
","
","
","""event"",""trial"",""time""
""fullscreenenter"",""1"",""6685""
","
","","","-1","","","11","5941","3504","&#9826;","elianto","#f73b6a7A","-1","-1","1","0","[]","0","0","3","","","","","","","",""
"pit-trial","64","613266","0.0-2.0-14.1-0.1","battery-v0.2","","""event"",""trial"",""time""
""fullscreenenter"",""1"",""6685""
","
","
","""event"",""trial"",""time""
""fullscreenenter"",""1"",""6685""
","
","","","-1","","","11","5941","3504","&#9826;","elianto","#f73b6a7A","-1","-1","1","0","[]","0","0","3","","","","","","","",""
"pit-trial","65","618131","0.0-2.0-14.1-1.1","battery-v0.2","","""event"",""trial"",""time""
""fullscreenenter"",""1"",""6685""
","
","
","""event"",""trial"",""time""
""fullscreenenter"",""1"",""6685""
","
","","","-1","","","11","5941","3504","&#9826;","elianto","#f73b6a7A","-1","-1","1","0","[]","0","0","3","","","","","","","",""
"pit-trial","66","623011","0.0-2.0-14.1-2.1","battery-v0.2","","""event"",""trial"",""time""
""fullscreenenter"",""1"",""6685""
","
","
","""event"",""trial"",""time""
""fullscreenenter"",""1"",""6685""
","
","","","-1","","","11","5941","3504","&#9826;","elianto","#f73b6a7A","-1","-1","1","0","[]","0","0","3","","","","","","","",""
"pit-trial","67","627883","0.0-2.0-14.1-3.1","battery-v0.2","","""event"",""trial"",""time""
""fullscreenenter"",""1"",""6685""
","
","
","""event"",""trial"",""time""
""fullscreenenter"",""1"",""6685""
","
","","","-1","","","11","5941","3504","&#9826;","elianto","#f73b6a7A","-1","-1","1","-10","[]","0","0","3","","","","","","","",""
"pit-trial","68","632754","0.0-2.0-14.1-4.1","battery-v0.2","","""event"",""trial"",""time""
""fullscreenenter"",""1"",""6685""
","
","
","""event"",""trial"",""time""
""fullscreenenter"",""1"",""6685""
","
","","","-1","","","11","5941","3504","&#9826;","elianto","#f73b6a7A","-1","-1","1","0","[]","0","0","3","","","","","","","",""
"pit-trial","69","637627","0.0-2.0-14.2-0.2","battery-v0.2","","""event"",""trial"",""time""
""fullscreenenter"",""1"",""6685""
","
","
","""event"",""trial"",""time""
""fullscreenenter"",""1"",""6685""
","
","","","-1","","","11","5941","3504","&#9826;","elianto","#f73b6a7A","-1","-1","1","0","[]","0","0","3","","","","","","","",""
"pit-trial","70","642498","0.0-2.0-14.2-1.2","battery-v0.2","","""event"",""trial"",""time""
""fullscreenenter"",""1"",""6685""
","
","
","""event"",""trial"",""time""
""fullscreenenter"",""1"",""6685""
","
","","","-1","","","11","5941","3504","&#9826;","elianto","#f73b6a7A","-1","-1","1","0","[]","0","0","3","","","","","","","",""
"pit-trial","71","647371","0.0-2.0-14.2-2.2","battery-v0.2","","""event"",""trial"",""time""
""fullscreenenter"",""1"",""6685""
","
","
","""event"",""trial"",""time""
""fullscreenenter"",""1"",""6685""
","
","","","-1","","","11","5941","3504","&#9826;","elianto","#f73b6a7A","-1","-1","1","0","[]","0","0","3","","","","","","","",""
"pit-trial","72","652243","0.0-2.0-14.2-3.2","battery-v0.2","","""event"",""trial"",""time""
""fullscreenenter"",""1"",""6685""
","
","
","""event"",""trial"",""time""
""fullscreenenter"",""1"",""6685""
","
","","","-1","","","11","5941","3504","&#9826;","elianto","#f73b6a7A","-1","-1","1","-10","[]","0","0","3","","","","","","","",""
"pit-trial","73","657115","0.0-2.0-14.2-4.2","battery-v0.2","","""event"",""trial"",""time""
""fullscreenenter"",""1"",""6685""
","
","
","""event"",""trial"",""time""
""fullscreenenter"",""1"",""6685""
","
","","","-1","","","11","5941","3504","&#9826;","elianto","#f73b6a7A","-1","-1","1","0","[]","0","0","3","","","","","","","",""
"pit-trial","74","661987","0.0-2.0-14.3-0.3","battery-v0.2","","""event"",""trial"",""time""
""fullscreenenter"",""1"",""6685""
","
","
","""event"",""trial"",""time""
""fullscreenenter"",""1"",""6685""
","
","","","-1","","","11","5941","3504","&#9826;","elianto","#f73b6a7A","-1","-1","1","0","[]","0","0","3","","","","","","","",""
"pit-trial","75","666859","0.0-2.0-14.3-1.3","battery-v0.2","","""event"",""trial"",""time""
""fullscreenenter"",""1"",""6685""
","
","
","""event"",""trial"",""time""
""fullscreenenter"",""1"",""6685""
","
","","","-1","","","11","5941","3504","&#9826;","elianto","#f73b6a7A","-1","-1","1","0","[]","0","0","3","","","","","","","",""
"pit-trial","76","671729","0.0-2.0-14.3-2.3","battery-v0.2","","""event"",""trial"",""time""
""fullscreenenter"",""1"",""6685""
","
","
","""event"",""trial"",""time""
""fullscreenenter"",""1"",""6685""
","
","","","-1","","","11","5941","3504","&#9826;","elianto","#f73b6a7A","-1","-1","1","0","[]","0","0","3","","","","","","","",""
"pit-trial","77","676601","0.0-2.0-14.3-3.3","battery-v0.2","","""event"",""trial"",""time""
""fullscreenenter"",""1"",""6685""
","
","
","""event"",""trial"",""time""
""fullscreenenter"",""1"",""6685""
","
","","","-1","","","11","5941","3504","&#9826;","elianto","#f73b6a7A","-1","-1","1","-10","[]","0","0","3","","","","","","","",""
"pit-trial","78","681465","0.0-2.0-14.3-4.3","battery-v0.2","","""event"",""trial"",""time""
""fullscreenenter"",""1"",""6685""
","
","
","""event"",""trial"",""time""
""fullscreenenter"",""1"",""6685""
","
","","","-1","","","11","5941","3504","&#9826;","elianto","#f73b6a7A","-1","-1","1","0","[]","0","0","3","","","","","","","",""
"call-function","79","681473","0.0-2.0-15.0","battery-v0.2","","""event"",""trial"",""time""
""fullscreenenter"",""1"",""6685""
","
","
","""event"",""trial"",""time""
""fullscreenenter"",""1"",""6685""
","
","","","","","","","","","","","","","","","","","","","","","","","","","","",""
"pit-instructions","80","708552","0.0-2.0-16.0","battery-v0.2","","""event"",""trial"",""time""
""fullscreenenter"",""1"",""6685""
","
","
","""event"",""trial"",""time""
""fullscreenenter"",""1"",""6685""
","
","","[{""page_index"":0,""viewing_time"":7479.39999999851},{""page_index"":1,""viewing_time"":8309.699999999255},{""page_index"":2,""viewing_time"":5465.5},{""page_index"":3,""viewing_time"":5819.5}]","27076","","","","","","","","","","","","","","","","","","","","","","","",""
"pit-trial","81","711906","0.0-2.0-17.0-0.0","battery-v0.2","","""event"",""trial"",""time""
""fullscreenenter"",""1"",""6685""
","
","
","""event"",""trial"",""time""
""fullscreenenter"",""1"",""6685""
","
","","","483","","","11","5941","3504","&#9789;","elianto","#f73b6a7A"," "," ","1","0","[1336.9000000022352]","1","0","4","","","","","","","",""
"pit-trial","82","715010","0.0-2.0-17.0-1.0","battery-v0.2","","""event"",""trial"",""time""
""fullscreenenter"",""1"",""6685""
","
","
","""event"",""trial"",""time""
""fullscreenenter"",""1"",""6685""
","
","","","235.69999999925494","","","11","5941","3504","&#9789;","elianto","#f73b6a7A"," "," ","1","0","[494.5,1091.699999999255]","2","0","4","","","","","","","",""
"pit-trial","83","718330","0.0-2.0-17.0-2.0","battery-v0.2","","""event"",""trial"",""time""
""fullscreenenter"",""1"",""6685""
","
","
","""event"",""trial"",""time""
""fullscreenenter"",""1"",""6685""
","
","","","457.80000000074506","","","11","5941","3504","&#9789;","elianto","#f73b6a7A"," "," ","1","0","[1306.8999999985099]","1","0","4","","","","","","","",""
"pit-trial","84","721322","0.0-2.0-17.0-3.0","battery-v0.2","","""event"",""trial"",""time""
""fullscreenenter"",""1"",""6685""
","
","
","""event"",""trial"",""time""
""fullscreenenter"",""1"",""6685""
","
","","","123.5","","","11","5941","3504","&#9789;","elianto","#f73b6a7A"," "," ","1","-10","[975.0999999977648]","1","0","4","","","","","","","",""
"pit-trial","85","724786","0.0-2.0-17.0-4.0","battery-v0.2","","""event"",""trial"",""time""
""fullscreenenter"",""1"",""6685""
","
","
","""event"",""trial"",""time""
""fullscreenenter"",""1"",""6685""
","
","","","597.8000000007451","","","11","5941","3504","&#9789;","elianto","#f73b6a7A"," "," ","1","0","[1447.9000000022352]","1","0","4","","","","","","","",""
"pit-trial","86","729082","0.0-2.0-17.1-0.1","battery-v0.2","","""event"",""trial"",""time""
""fullscreenenter"",""1"",""6685""
","
","
","""event"",""trial"",""time""
""fullscreenenter"",""1"",""6685""
","
","","","1428.8999999985099","","","11","5941","3504","&#9789;","elianto","#f73b6a7A"," "," ","1","0","[2280.400000002235]","1","0","4","","","","","","","",""
"pit-trial","87","733506","0.0-2.0-17.1-1.1","battery-v0.2","","""event"",""trial"",""time""
""fullscreenenter"",""1"",""6685""
","
","
","""event"",""trial"",""time""
""fullscreenenter"",""1"",""6685""
","
","","","1555.8999999985099","","","11","5941","3504","&#9789;","elianto","#f73b6a7A"," "," ","1","0","[2411.89999999851]","1","0","4","","","","","","","",""
"pit-trial","88","737250","0.0-2.0-17.1-2.1","battery-v0.2","","""event"",""trial"",""time""
""fullscreenenter"",""1"",""6685""
","
","
","""event"",""trial"",""time""
""fullscreenenter"",""1"",""6685""
","
","","","872.6999999992549","","","11","5941","3504","&#9789;","elianto","#f73b6a7A"," "," ","1","0","[1730.6000000014901]","1","0","4","","","","","","","",""
"pit-trial","89","741506","0.0-2.0-17.1-3.1","battery-v0.2","","""event"",""trial"",""time""
""fullscreenenter"",""1"",""6685""
","
","
","""event"",""trial"",""time""
""fullscreenenter"",""1"",""6685""
","
","","","1387.1000000014901","","","11","5941","3504","&#9789;","elianto","#f73b6a7A"," "," ","1","-10","[2242.39999999851]","1","0","4","","","","","","","",""
"pit-trial","90","745050","0.0-2.0-17.1-4.1","battery-v0.2","","""event"",""trial"",""time""
""fullscreenenter"",""1"",""6685""
","
","
","""event"",""trial"",""time""
""fullscreenenter"",""1"",""6685""
","
","","","679.0999999977648","","","11","5941","3504","&#9789;","elianto","#f73b6a7A"," "," ","1","0","[1532.699999999255]","1","0","4","","","","","","","",""
"pit-trial","91","749122","0.0-2.0-17.2-0.2","battery-v0.2","","""event"",""trial"",""time""
""fullscreenenter"",""1"",""6685""
","
","
","""event"",""trial"",""time""
""fullscreenenter"",""1"",""6685""
","
","","","1198.6000000014901","","","11","5941","3504","&#9789;","elianto","#f73b6a7A"," "," ","1","0","[2052.10000000149]","1","0","4","","","","","","","",""
"pit-trial","92","752554","0.0-2.0-17.2-1.2","battery-v0.2","","""event"",""trial"",""time""
""fullscreenenter"",""1"",""6685""
","
","
","""event"",""trial"",""time""
""fullscreenenter"",""1"",""6685""
","
","","","560","","","11","5941","3504","&#9789;","elianto","#f73b6a7A"," "," ","1","0","[1415.3999999985099]","1","0","4","","","","","","","",""
"pit-trial","93","756194","0.0-2.0-17.2-2.2","battery-v0.2","","""event"",""trial"",""time""
""fullscreenenter"",""1"",""6685""
","
","
","""event"",""trial"",""time""
""fullscreenenter"",""1"",""6685""
","
","","","772","","","11","5941","3504","&#9789;","elianto","#f73b6a7A"," "," ","1","0","[1626.6000000014901]","1","0","4","","","","","","","",""
"pit-trial","94","760786","0.0-2.0-17.2-3.2","battery-v0.2","","""event"",""trial"",""time""
""fullscreenenter"",""1"",""6685""
","
","
","""event"",""trial"",""time""
""fullscreenenter"",""1"",""6685""
","
","","","1726.4000000022352","","","11","5941","3504","&#9789;","elianto","#f73b6a7A"," "," ","1","-10","[2577.5]","1","0","4","","","","","","","",""
"pit-trial","95","764595","0.0-2.0-17.2-4.2","battery-v0.2","","""event"",""trial"",""time""
""fullscreenenter"",""1"",""6685""
","
","
","""event"",""trial"",""time""
""fullscreenenter"",""1"",""6685""
","
","","","935.5","","","11","5941","3504","&#9789;","elianto","#f73b6a7A"," "," ","1","0","[1790.8999999985099]","1","0","4","","","","","","","",""
"pit-trial","96","768459","0.0-2.0-17.3-0.3","battery-v0.2","","""event"",""trial"",""time""
""fullscreenenter"",""1"",""6685""
","
","
","""event"",""trial"",""time""
""fullscreenenter"",""1"",""6685""
","
","","","993.2000000029802","","","11","5941","3504","&#9789;","elianto","#f73b6a7A"," "," ","1","0","[1845.5]","1","0","4","","","","","","","",""
"pit-trial","97","773331","0.0-2.0-17.3-1.3","battery-v0.2","","""event"",""trial"",""time""
""fullscreenenter"",""1"",""6685""
","
","
","""event"",""trial"",""time""
""fullscreenenter"",""1"",""6685""
","
","","","-1","","","11","5941","3504","&#9789;","elianto","#f73b6a7A"," ","-1","0","-10","[4337]","1","0","4","","","","","","","",""
"pit-trial","98","776547","0.0-2.0-17.3-2.3","battery-v0.2","","""event"",""trial"",""time""
""fullscreenenter"",""1"",""6685""
","
","
","""event"",""trial"",""time""
""fullscreenenter"",""1"",""6685""
","
","","","352.19999999925494","","","11","5941","3504","&#9789;","elianto","#f73b6a7A"," "," ","1","0","[1203.5]","1","0","4","","","","","","","",""
"pit-trial","99","779859","0.0-2.0-17.3-3.3","battery-v0.2","","""event"",""trial"",""time""
""fullscreenenter"",""1"",""6685""
","
","
","""event"",""trial"",""time""
""fullscreenenter"",""1"",""6685""
","
","","","440.8999999985099","","","11","5941","3504","&#9789;","elianto","#f73b6a7A"," "," ","1","-10","[1294.800000000745]","1","0","4","","","","","","","",""
"pit-trial","100","783243","0.0-2.0-17.3-4.3","battery-v0.2","","""event"",""trial"",""time""
""fullscreenenter"",""1"",""6685""
","
","
","""event"",""trial"",""time""
""fullscreenenter"",""1"",""6685""
","
","","","518.1999999992549","","","11","5941","3504","&#9789;","elianto","#f73b6a7A"," "," ","1","0","[601.9000000022352,1372.1000000014901]","2","0","4","","","","","","","",""
"call-function","101","783250","0.0-2.0-18.0","battery-v0.2","","""event"",""trial"",""time""
""fullscreenenter"",""1"",""6685""
","
","
","""event"",""trial"",""time""
""fullscreenenter"",""1"",""6685""
","
","","","","","","","","","","","","","","","","","","","","","","","","","","",""
"pit-instructions","102","878158","0.0-2.0-19.0","battery-v0.2","","""event"",""trial"",""time""
""fullscreenenter"",""1"",""6685""
","
","
","""event"",""trial"",""time""
""fullscreenenter"",""1"",""6685""
","
","","[{""page_index"":0,""viewing_time"":6749.10000000149},{""page_index"":1,""viewing_time"":5788.800000000745},{""page_index"":2,""viewing_time"":15907.89999999851},{""page_index"":3,""viewing_time"":9311.900000002235},{""page_index"":4,""viewing_time"":10477.29999999702},{""page_index"":5,""viewing_time"":9064.800000000745},{""page_index"":6,""viewing_time"":10871.300000000745},{""page_index"":7,""viewing_time"":7133.699999999255},{""page_index"":8,""viewing_time"":19596.10000000149}]","94904.30000000075","","","","","","","","","","","","","","","","","","","","","","","",""
"pit-comprehension","103","884082","0.0-2.0-20.0-0.0","battery-v0.2","","""event"",""trial"",""time""
""fullscreenenter"",""1"",""6685""
","
","
","""event"",""trial"",""time""
""fullscreenenter"",""1"",""6685""
","
","","","5896.900000002235","[""SPACE""]","0","11","5941","3504","","","","","","","","","","","","","","","","","","",""
"pit-instructions","104","886932","0.0-2.0-20.0-1.0","battery-v0.2","","""event"",""trial"",""time""
""fullscreenenter"",""1"",""6685""
","
","
","""event"",""trial"",""time""
""fullscreenenter"",""1"",""6685""
","
","","[{""page_index"":0,""viewing_time"":2746.199999999255}]","2748.099999997765","","","","","","","","","","","","","","","","","","","","","","","",""
"pit-comprehension","105","898628","0.0-2.0-21.0-0.0","battery-v0.2","","""event"",""trial"",""time""
""fullscreenenter"",""1"",""6685""
","
","
","""event"",""trial"",""time""
""fullscreenenter"",""1"",""6685""
","
","","","11670.20000000298","[""10""]","0","11","5941","3504","","","","","","","","","","","","","","","","","","",""
"pit-instructions","106","899939","0.0-2.0-21.0-1.0","battery-v0.2","","""event"",""trial"",""time""
""fullscreenenter"",""1"",""6685""
","
","
","""event"",""trial"",""time""
""fullscreenenter"",""1"",""6685""
","
","","[{""page_index"":0,""viewing_time"":1208.5}]","1210.6000000014901","","","","","","","","","","","","","","","","","","","","","","","",""
"pit-comprehension","107","906111","0.0-2.0-22.0-0.0","battery-v0.2","","""event"",""trial"",""time""
""fullscreenenter"",""1"",""6685""
","
","
","""event"",""trial"",""time""
""fullscreenenter"",""1"",""6685""
","
","","","6146.39999999851","[""-10""]","1","11","5941","3504","","","","","","","","","","","","","","","","","","",""
"pit-instructions","108","912401","0.0-2.0-22.0-1.0","battery-v0.2","","""event"",""trial"",""time""
""fullscreenenter"",""1"",""6685""
","
","
","""event"",""trial"",""time""
""fullscreenenter"",""1"",""6685""
","
","","[{""page_index"":0,""viewing_time"":6188.20000000298}]","6190.60000000149","","","","","","","","","","","","","","","","","","","","","","","",""
"pit-instructions","109","913723","0.0-2.0-22.0-2.0-0.0","battery-v0.2","","""event"",""trial"",""time""
""fullscreenenter"",""1"",""6685""
","
","
","""event"",""trial"",""time""
""fullscreenenter"",""1"",""6685""
","
","","[{""page_index"":0,""viewing_time"":1309.4000000022352}]","1311.800000000745","","","","","","","","","","","","","","","","","","","","","","","",""
"pit-comprehension","110","920492","0.0-2.0-22.1-0.1","battery-v0.2","","""event"",""trial"",""time""
""fullscreenenter"",""1"",""6685""
","
","
","""event"",""trial"",""time""
""fullscreenenter"",""1"",""6685""
","
","","","6751.70000000298","[""0""]","0","11","5941","3504","","","","","","","","","","","","","","","","","","",""
"pit-instructions","111","922811","0.0-2.0-22.1-1.1","battery-v0.2","","""event"",""trial"",""time""
""fullscreenenter"",""1"",""6685""
","
","
","""event"",""trial"",""time""
""fullscreenenter"",""1"",""6685""
","
","","[{""page_index"":0,""viewing_time"":2212.300000000745}]","2214.10000000149","","","","","","","","","","","","","","","","","","","","","","","",""
"pit-comprehension","112","955841","0.0-2.0-23.0-0.0","battery-v0.2","","""event"",""trial"",""time""
""fullscreenenter"",""1"",""6685""
","
","
","""event"",""trial"",""time""
""fullscreenenter"",""1"",""6685""
","
","","","33017.300000000745","[""True""]","0","11","5941","3504","","","","","","","","","","","","","","","","","","",""
"pit-instructions","113","957591","0.0-2.0-23.0-1.0","battery-v0.2","","""event"",""trial"",""time""
""fullscreenenter"",""1"",""6685""
","
","
","""event"",""trial"",""time""
""fullscreenenter"",""1"",""6685""
","
","","[{""page_index"":0,""viewing_time"":1646.699999999255}]","1648.8999999985099","","","","","","","","","","","","","","","","","","","","","","","",""
"pit-comprehension","114","970631","0.0-2.0-24.0-0.0","battery-v0.2","","""event"",""trial"",""time""
""fullscreenenter"",""1"",""6685""
","
","
","""event"",""trial"",""time""
""fullscreenenter"",""1"",""6685""
","
","","","13015.800000000745","[""True""]","0","11","5941","3504","","","","","","","","","","","","","","","","","","",""
"pit-instructions","115","971798","0.0-2.0-24.0-1.0","battery-v0.2","","""event"",""trial"",""time""
""fullscreenenter"",""1"",""6685""
","
","
","""event"",""trial"",""time""
""fullscreenenter"",""1"",""6685""
","
","","[{""page_index"":0,""viewing_time"":1056.2999999970198}]","1057.0999999977648","","","","","","","","","","","","","","","","","","","","","","","",""
"pit-comprehension","116","978327","0.0-2.0-25.0-0.0","battery-v0.2","","""event"",""trial"",""time""
""fullscreenenter"",""1"",""6685""
","
","
","""event"",""trial"",""time""
""fullscreenenter"",""1"",""6685""
","
","","","6506.5","[""True""]","0","11","5941","3504","","","","","","","","","","","","","","","","","","",""
"pit-instructions","117","980110","0.0-2.0-25.0-1.0","battery-v0.2","","""event"",""trial"",""time""
""fullscreenenter"",""1"",""6685""
","
","
","""event"",""trial"",""time""
""fullscreenenter"",""1"",""6685""
","
","","[{""page_index"":0,""viewing_time"":1673.199999999255}]","1674.800000000745","","","","","","","","","","","","","","","","","","","","","","","",""
"pit-comprehension","118","985028","0.0-2.0-26.0-0.0","battery-v0.2","","""event"",""trial"",""time""
""fullscreenenter"",""1"",""6685""
","
","
","""event"",""trial"",""time""
""fullscreenenter"",""1"",""6685""
","
","","","4898.10000000149","[""False""]","0","11","5941","3504","","","","","","","","","","","","","","","","","","",""
"pit-instructions","119","986421","0.0-2.0-26.0-1.0","battery-v0.2","","""event"",""trial"",""time""
""fullscreenenter"",""1"",""6685""
","
","
","""event"",""trial"",""time""
""fullscreenenter"",""1"",""6685""
","
","","[{""page_index"":0,""viewing_time"":1282.8999999985099}]","1284.800000000745","","","","","","","","","","","","","","","","","","","","","","","",""
"pit-instructions","120","1004967","0.0-3.0","battery-v0.2","","""event"",""trial"",""time""
""fullscreenenter"",""1"",""6685""
","
","
","""event"",""trial"",""time""
""fullscreenenter"",""1"",""6685""
","
","","[{""page_index"":0,""viewing_time"":4916.800000000745},{""page_index"":1,""viewing_time"":5396.199999999255},{""page_index"":2,""viewing_time"":8219.60000000149}]","18534.70000000298","","","","","","","","","","","","","","","","","","","","","","","",""
"pit-trial","121","1009506","0.0-4.0","battery-v0.2","","""event"",""trial"",""time""
""fullscreenenter"",""1"",""6685""
","
","
","""event"",""trial"",""time""
""fullscreenenter"",""1"",""6685""
","
","","","1655.0999999977648","","","11","5941","3504","&#9730;","elianto","#3366ff99"," "," ","1","0","[2508.10000000149]","1","1","","","5941","1","1","1","win","go","1"
"pit-trial","122","1014378","0.0-5.0","battery-v0.2","","""event"",""trial"",""time""
""fullscreenenter"",""1"",""6685""
","
","
","""event"",""trial"",""time""
""fullscreenenter"",""1"",""6685""
","
","","","-1","","","11","5941","3504","&#9752;","elianto","#f73b6a7A"," ","-1","0","-10","[2933.5]","1","1","","","5941","2","3","3","lose","go","0"
"pit-trial","123","1019074","0.0-6.0","battery-v0.2","","""event"",""trial"",""time""
""fullscreenenter"",""1"",""6685""
","
","
","""event"",""trial"",""time""
""fullscreenenter"",""1"",""6685""
","
","","","1825.300000000745","","","11","5941","3504","&#9733;","elianto","#3366ff99","-1"," ","0","0","[2679.39999999851]","1","1","","","5941","3","2","2","win","no-go","0"
"pit-trial","124","1023786","0.0-7.0","battery-v0.2","","""event"",""trial"",""time""
""fullscreenenter"",""1"",""6685""
","
","
","""event"",""trial"",""time""
""fullscreenenter"",""1"",""6685""
","
","","","1844.300000000745","","","11","5941","3504","&#9728;","elianto","#f73b6a7A","-1"," ","0","-10","[2698.599999997765]","1","1","","","5941","4","0","4","lose","no-go","0"
"pit-trial","125","1028658","0.0-8.0","battery-v0.2","","""event"",""trial"",""time""
""fullscreenenter"",""1"",""6685""
","
","
","""event"",""trial"",""time""
""fullscreenenter"",""1"",""6685""
","
","","","-1","","","11","5941","3504","&#9728;","elianto","#f73b6a7A","-1","-1","1","0","[]","0","1","","","5941","5","0","4","lose","no-go","0"
"pit-trial","126","1033531","0.0-9.0","battery-v0.2","","""event"",""trial"",""time""
""fullscreenenter"",""1"",""6685""
","
","
","""event"",""trial"",""time""
""fullscreenenter"",""1"",""6685""
","
","","","-1","","","11","5941","3504","&#9752;","elianto","#f73b6a7A"," ","-1","0","0","[]","0","1","","","5941","6","3","3","lose","go","1"
"pit-trial","127","1038402","0.0-10.0","battery-v0.2","","""event"",""trial"",""time""
""fullscreenenter"",""1"",""6685""
","
","
","""event"",""trial"",""time""
""fullscreenenter"",""1"",""6685""
","
","","","-1","","","11","5941","3504","&#9730;","elianto","#3366ff99"," ","-1","0","0","[]","0","1","","","5941","7","1","1","win","go","0"
"pit-trial","128","1042418","0.0-11.0","battery-v0.2","","""event"",""trial"",""time""
""fullscreenenter"",""1"",""6685""
","
","
","""event"",""trial"",""time""
""fullscreenenter"",""1"",""6685""
","
","","","1146.5","","","11","5941","3504","&#9733;","elianto","#3366ff99","-1"," ","0","0","[1999.4000000022352]","1","1","","","5941","8","2","2","win","no-go","0"
"pit-trial","129","1047290","0.0-12.0","battery-v0.2","","""event"",""trial"",""time""
""fullscreenenter"",""1"",""6685""
","
","
","""event"",""trial"",""time""
""fullscreenenter"",""1"",""6685""
","
","","","-1","","","11","5941","3504","&#9728;","elianto","#f73b6a7A","-1","-1","1","-10","[]","0","1","","","5941","9","0","4","lose","no-go","1"
"pit-trial","130","1052161","0.0-13.0","battery-v0.2","","""event"",""trial"",""time""
""fullscreenenter"",""1"",""6685""
","
","
","""event"",""trial"",""time""
""fullscreenenter"",""1"",""6685""
","
","","","-1","","","11","5941","3504","&#9752;","elianto","#f73b6a7A"," ","-1","0","-10","[]","0","1","","","5941","10","3","3","lose","go","0"
"pit-trial","131","1057033","0.0-14.0","battery-v0.2","","""event"",""trial"",""time""
""fullscreenenter"",""1"",""6685""
","
","
","""event"",""trial"",""time""
""fullscreenenter"",""1"",""6685""
","
","","","-1","","","11","5941","3504","&#9733;","elianto","#3366ff99","-1","-1","1","+10","[]","0","1","","","5941","11","2","2","win","no-go","0"
"pit-trial","132","1060729","0.0-15.0","battery-v0.2","","""event"",""trial"",""time""
""fullscreenenter"",""1"",""6685""
","
","
","""event"",""trial"",""time""
""fullscreenenter"",""1"",""6685""
","
","","","827","","","11","5941","3504","&#9730;","elianto","#3366ff99"," "," ","1","+10","[1682.7000000029802]","1","1","","","5941","12","1","1","win","go","0"
"pit-trial","133","1065602","0.0-16.0","battery-v0.2","","""event"",""trial"",""time""
""fullscreenenter"",""1"",""6685""
","
","
","""event"",""trial"",""time""
""fullscreenenter"",""1"",""6685""
","
","","","-1","","","11","5941","3504","&#9730;","elianto","#3366ff99"," ","-1","0","+10","[]","0","1","","","5941","13","1","1","win","go","1"
"pit-trial","134","1070474","0.0-17.0","battery-v0.2","","""event"",""trial"",""time""
""fullscreenenter"",""1"",""6685""
","
","
","""event"",""trial"",""time""
""fullscreenenter"",""1"",""6685""
","
","","","-1","","","11","5941","3504","&#9752;","elianto","#f73b6a7A"," ","-1","0","-10","[]","0","1","","","5941","14","3","3","lose","go","0"
"pit-trial","135","1074570","0.0-18.0","battery-v0.2","","""event"",""trial"",""time""
""fullscreenenter"",""1"",""6685""
","
","
","""event"",""trial"",""time""
""fullscreenenter"",""1"",""6685""
","
","","","1230.2999999970198","","","11","5941","3504","&#9728;","elianto","#f73b6a7A","-1"," ","0","-10","[2084.300000000745]","1","1","","","5941","15","0","4","lose","no-go","0"
"pit-trial","136","1079442","0.0-19.0","battery-v0.2","","""event"",""trial"",""time""
""fullscreenenter"",""1"",""6685""
","
","
","""event"",""trial"",""time""
""fullscreenenter"",""1"",""6685""
","
","","","-1","","","11","5941","3504","&#9733;","elianto","#3366ff99","-1","-1","1","0","[]","0","1","","","5941","16","2","2","win","no-go","1"
"pit-trial","137","1083834","0.0-20.0","battery-v0.2","","""event"",""trial"",""time""
""fullscreenenter"",""1"",""6685""
","
","
","""event"",""trial"",""time""
""fullscreenenter"",""1"",""6685""
","
","","","1526.8999999985099","","","11","5941","3504","&#9730;","elianto","#3366ff99"," "," ","1","+10","[2378.10000000149]","1","1","","","5941","17","1","1","win","go","0"
"pit-trial","138","1088706","0.0-21.0","battery-v0.2","","""event"",""trial"",""time""
""fullscreenenter"",""1"",""6685""
","
","
","""event"",""trial"",""time""
""fullscreenenter"",""1"",""6685""
","
","","","-1","","","11","5941","3504","&#9733;","elianto","#3366ff99","-1","-1","1","0","[]","0","1","","","5941","18","2","2","win","no-go","1"
"pit-trial","139","1093578","0.0-22.0","battery-v0.2","","""event"",""trial"",""time""
""fullscreenenter"",""1"",""6685""
","
","
","""event"",""trial"",""time""
""fullscreenenter"",""1"",""6685""
","
","","","-1","","","11","5941","3504","&#9752;","elianto","#f73b6a7A"," ","-1","0","0","[]","0","1","","","5941","19","3","3","lose","go","1"
"pit-trial","140","1098450","0.0-23.0","battery-v0.2","","""event"",""trial"",""time""
""fullscreenenter"",""1"",""6685""
","
","
","""event"",""trial"",""time""
""fullscreenenter"",""1"",""6685""
","
","","","-1","","","11","5941","3504","&#9728;","elianto","#f73b6a7A","-1","-1","1","0","[]","0","1","","","5941","20","0","4","lose","no-go","0"
"pit-instructions","141","1111110","0.0-24.0","battery-v0.2","","""event"",""trial"",""time""
""fullscreenenter"",""1"",""6685""
","
","
","""event"",""trial"",""time""
""fullscreenenter"",""1"",""6685""
","
","","[{""page_index"":0,""viewing_time"":5470.5},{""page_index"":1,""viewing_time"":7179.89999999851}]","12652.699999999255","","","","","","","","","","","","","","","","","","","","","","","",""
"pit-trial","142","1115922","0.0-25.0","battery-v0.2","","""event"",""trial"",""time""
""fullscreenenter"",""1"",""6685""
","
","
","""event"",""trial"",""time""
""fullscreenenter"",""1"",""6685""
","
","","","1933.699999999255","","","11","5941","3504","j","elianto","#f73b6a7A","-1"," ","0","-10","[2787.7000000029802]","1","2","","","5941","21","0","4","lose","no-go","0"
"pit-trial","143","1120267","0.0-26.0","battery-v0.2","","""event"",""trial"",""time""
""fullscreenenter"",""1"",""6685""
","
","
","""event"",""trial"",""time""
""fullscreenenter"",""1"",""6685""
","
","","","1474.300000000745","","","11","5941","3504","w","elianto","#f73b6a7A"," "," ","1","0","[2326.900000002235]","1","2","","","5941","22","3","3","lose","go","0"
"pit-trial","144","1124522","0.0-27.0","battery-v0.2","","""event"",""trial"",""time""
""fullscreenenter"",""1"",""6685""
","
","
","""event"",""trial"",""time""
""fullscreenenter"",""1"",""6685""
","
","","","1382.5999999977648","","","11","5941","3504","d","elianto","#3366ff99"," "," ","1","+10","[2237.800000000745]","1","2","","","5941","23","1","1","win","go","0"
"pit-trial","145","1129394","0.0-28.0","battery-v0.2","","""event"",""trial"",""time""
""fullscreenenter"",""1"",""6685""
","
","
","""event"",""trial"",""time""
""fullscreenenter"",""1"",""6685""
","
","","","-1","","","11","5941","3504","e","elianto","#f73b6a7A","-1","-1","1","0","[2874.900000002235]","1","2","","","5941","24","2","4","lose","no-go","0"
"pit-trial","146","1134123","0.0-29.0","battery-v0.2","","""event"",""trial"",""time""
""fullscreenenter"",""1"",""6685""
","
","
","""event"",""trial"",""time""
""fullscreenenter"",""1"",""6685""
","
","","","1864.5","","","11","5941","3504","w","elianto","#f73b6a7A"," "," ","1","0","[2715.300000000745]","1","2","","","5941","25","3","3","lose","go","0"
"pit-trial","147","1138354","0.0-30.0","battery-v0.2","","""event"",""trial"",""time""
""fullscreenenter"",""1"",""6685""
","
","
","""event"",""trial"",""time""
""fullscreenenter"",""1"",""6685""
","
","","","1363.699999999255","","","11","5941","3504","d","elianto","#3366ff99"," "," ","1","+10","[2217.199999999255]","1","2","","","5941","26","1","1","win","go","0"
"pit-trial","148","1142258","0.0-31.0","battery-v0.2","","""event"",""trial"",""time""
""fullscreenenter"",""1"",""6685""
","
","
","""event"",""trial"",""time""
""fullscreenenter"",""1"",""6685""
","
","","","1038.4000000022352","","","11","5941","3504","j","elianto","#f73b6a7A","-1"," ","0","-10","[1889.4000000022352]","1","2","","","5941","27","0","4","lose","no-go","0"
"pit-trial","149","1146491","0.0-32.0","battery-v0.2","","""event"",""trial"",""time""
""fullscreenenter"",""1"",""6685""
","
","
","""event"",""trial"",""time""
""fullscreenenter"",""1"",""6685""
","
","","","1361.1000000014901","","","11","5941","3504","e","elianto","#f73b6a7A","-1"," ","0","0","[2215.599999997765]","1","2","","","5941","28","2","4","lose","no-go","1"
"pit-trial","150","1150347","0.0-33.0","battery-v0.2","","""event"",""trial"",""time""
""fullscreenenter"",""1"",""6685""
","
","
","""event"",""trial"",""time""
""fullscreenenter"",""1"",""6685""
","
","","","981.8000000007451","","","11","5941","3504","e","elianto","#f73b6a7A","-1"," ","0","-10","[1838.699999999255]","1","2","","","5941","29","2","4","lose","no-go","0"
"pit-trial","151","1154667","0.0-34.0","battery-v0.2","","""event"",""trial"",""time""
""fullscreenenter"",""1"",""6685""
","
","
","""event"",""trial"",""time""
""fullscreenenter"",""1"",""6685""
","
","","","1452.699999999255","","","11","5941","3504","w","elianto","#f73b6a7A"," "," ","1","0","[2306.2999999970198]","1","2","","","5941","30","3","3","lose","go","0"
"pit-trial","152","1158395","0.0-35.0","battery-v0.2","","""event"",""trial"",""time""
""fullscreenenter"",""1"",""6685""
","
","
","""event"",""trial"",""time""
""fullscreenenter"",""1"",""6685""
","
","","","859.6000000014901","","","11","5941","3504","d","elianto","#3366ff99"," "," ","1","+10","[1710.0999999977648]","1","2","","","5941","31","1","1","win","go","0"
"pit-trial","153","1162850","0.0-36.0","battery-v0.2","","""event"",""trial"",""time""
""fullscreenenter"",""1"",""6685""
","
","
","""event"",""trial"",""time""
""fullscreenenter"",""1"",""6685""
","
","","","1583.7000000029802","","","11","5941","3504","j","elianto","#f73b6a7A","-1"," ","0","-10","[2436.60000000149]","1","2","","","5941","32","0","4","lose","no-go","0"
"pit-trial","154","1166483","0.0-37.0","battery-v0.2","","""event"",""trial"",""time""
""fullscreenenter"",""1"",""6685""
","
","
","""event"",""trial"",""time""
""fullscreenenter"",""1"",""6685""
","
","","","764","","","11","5941","3504","d","elianto","#3366ff99"," "," ","1","+10","[1615.3999999985099]","1","2","","","5941","33","1","1","win","go","0"
"pit-trial","155","1170171","0.0-38.0","battery-v0.2","","""event"",""trial"",""time""
""fullscreenenter"",""1"",""6685""
","
","
","""event"",""trial"",""time""
""fullscreenenter"",""1"",""6685""
","
","","","821.8000000007451","","","11","5941","3504","j","elianto","#f73b6a7A","-1"," ","0","-10","[1675]","1","2","","","5941","34","0","4","lose","no-go","0"
"pit-trial","156","1173883","0.0-39.0","battery-v0.2","","""event"",""trial"",""time""
""fullscreenenter"",""1"",""6685""
","
","
","""event"",""trial"",""time""
""fullscreenenter"",""1"",""6685""
","
","","","837","","","11","5941","3504","e","elianto","#f73b6a7A","-1"," ","0","-10","[1692.5]","1","2","","","5941","35","2","4","lose","no-go","0"
"pit-trial","157","1177163","0.0-40.0","battery-v0.2","","""event"",""trial"",""time""
""fullscreenenter"",""1"",""6685""
","
","
","""event"",""trial"",""time""
""fullscreenenter"",""1"",""6685""
","
","","","404.3999999985099","","","11","5941","3504","w","elianto","#f73b6a7A"," "," ","1","0","[1260.7999999970198]","1","2","","","5941","36","3","3","lose","go","0"
"pit-trial","158","1182033","0.0-41.0","battery-v0.2","","""event"",""trial"",""time""
""fullscreenenter"",""1"",""6685""
","
","
","""event"",""trial"",""time""
""fullscreenenter"",""1"",""6685""
","
","","","-1","","","11","5941","3504","j","elianto","#f73b6a7A","-1","-1","1","0","[]","0","2","","","5941","37","0","4","lose","no-go","0"
"pit-trial","159","1186905","0.0-42.0","battery-v0.2","","""event"",""trial"",""time""
""fullscreenenter"",""1"",""6685""
","
","
","""event"",""trial"",""time""
""fullscreenenter"",""1"",""6685""
","
","","","-1","","","11","5941","3504","w","elianto","#f73b6a7A"," ","-1","0","-10","[]","0","2","","","5941","38","3","3","lose","go","0"
"pit-trial","160","1191666","0.0-43.0","battery-v0.2","","""event"",""trial"",""time""
""fullscreenenter"",""1"",""6685""
","
","
","""event"",""trial"",""time""
""fullscreenenter"",""1"",""6685""
","
","","","1891.6000000014901","","","11","5941","3504","e","elianto","#f73b6a7A","-1"," ","0","-10","[2750.199999999255]","1","2","","","5941","39","2","4","lose","no-go","0"
"pit-trial","161","1195466","0.0-44.0","battery-v0.2","","""event"",""trial"",""time""
""fullscreenenter"",""1"",""6685""
","
","
","""event"",""trial"",""time""
""fullscreenenter"",""1"",""6685""
","
","","","932.1000000014901","","","11","5941","3504","d","elianto","#3366ff99"," "," ","1","+10","[1785.699999999255]","1","2","","","5941","40","1","1","win","go","0"
"pit-trial","162","1200338","0.0-45.0","battery-v0.2","","""event"",""trial"",""time""
""fullscreenenter"",""1"",""6685""
","
","
","""event"",""trial"",""time""
""fullscreenenter"",""1"",""6685""
","
","","","-1","","","11","5941","3504","w","elianto","#f73b6a7A"," ","-1","0","-10","[]","0","2","","","5941","41","3","3","lose","go","0"
"pit-trial","163","1204234","0.0-46.0","battery-v0.2","","""event"",""trial"",""time""
""fullscreenenter"",""1"",""6685""
","
","
","""event"",""trial"",""time""
""fullscreenenter"",""1"",""6685""
","
","","","1024.5","","","11","5941","3504","d","elianto","#3366ff99"," "," ","1","+10","[1880.5999999977648,2430.39999999851]","2","2","","","5941","42","1","1","win","go","0"
"pit-trial","164","1208698","0.0-47.0","battery-v0.2","","""event"",""trial"",""time""
""fullscreenenter"",""1"",""6685""
","
","
","""event"",""trial"",""time""
""fullscreenenter"",""1"",""6685""
","
","","","1591.300000000745","","","11","5941","3504","e","elianto","#f73b6a7A","-1"," ","0","0","[2447.10000000149]","1","2","","","5941","43","2","4","lose","no-go","1"
"pit-trial","165","1213570","0.0-48.0","battery-v0.2","","""event"",""trial"",""time""
""fullscreenenter"",""1"",""6685""
","
","
","""event"",""trial"",""time""
""fullscreenenter"",""1"",""6685""
","
","","","-1","","","11","5941","3504","j","elianto","#f73b6a7A","-1","-1","1","0","[285.80000000074506]","1","2","","","5941","44","0","4","lose","no-go","0"
"pit-trial","166","1217322","0.0-49.0","battery-v0.2","","""event"",""trial"",""time""
""fullscreenenter"",""1"",""6685""
","
","
","""event"",""trial"",""time""
""fullscreenenter"",""1"",""6685""
","
","","","883.7999999970198","","","11","5941","3504","s","elianto","#3366ff99","-1"," ","0","+10","[1735.699999999255]","1","2","","","5941","45","4","2","win","no-go","1"
"pit-trial","167","1221859","0.0-50.0","battery-v0.2","","""event"",""trial"",""time""
""fullscreenenter"",""1"",""6685""
","
","
","""event"",""trial"",""time""
""fullscreenenter"",""1"",""6685""
","
","","","1663.8999999985099","","","11","5941","3504","e","elianto","#f73b6a7A","-1"," ","0","-10","[2518.900000002235]","1","2","","","5941","46","2","4","lose","no-go","0"
"pit-trial","168","1226730","0.0-51.0","battery-v0.2","","""event"",""trial"",""time""
""fullscreenenter"",""1"",""6685""
","
","
","""event"",""trial"",""time""
""fullscreenenter"",""1"",""6685""
","
","","","-1","","","11","5941","3504","j","elianto","#f73b6a7A","-1","-1","1","0","[]","0","2","","","5941","47","0","4","lose","no-go","0"
"pit-trial","169","1231442","0.0-52.0","battery-v0.2","","""event"",""trial"",""time""
""fullscreenenter"",""1"",""6685""
","
","
","""event"",""trial"",""time""
""fullscreenenter"",""1"",""6685""
","
","","","1840.6000000014901","","","11","5941","3504","w","elianto","#f73b6a7A"," "," ","1","0","[2696.199999999255,4313.099999997765]","2","2","","","5941","48","3","3","lose","go","0"
"pit-trial","170","1236314","0.0-53.0","battery-v0.2","","""event"",""trial"",""time""
""fullscreenenter"",""1"",""6685""
","
","
","""event"",""trial"",""time""
""fullscreenenter"",""1"",""6685""
","
","","","-1","","","11","5941","3504","j","elianto","#f73b6a7A","-1","-1","1","0","[]","0","2","","","5941","49","0","4","lose","no-go","0"
"pit-trial","171","1239943","0.0-54.0","battery-v0.2","","""event"",""trial"",""time""
""fullscreenenter"",""1"",""6685""
","
","
","""event"",""trial"",""time""
""fullscreenenter"",""1"",""6685""
","
","","","757.3999999985099","","","11","5941","3504","s","elianto","#3366ff99","-1"," ","0","0","[1611.800000000745]","1","2","","","5941","50","4","2","win","no-go","0"
"pit-trial","172","1244514","0.0-55.0","battery-v0.2","","""event"",""trial"",""time""
""fullscreenenter"",""1"",""6685""
","
","
","""event"",""trial"",""time""
""fullscreenenter"",""1"",""6685""
","
","","","1701.800000000745","","","11","5941","3504","w","elianto","#f73b6a7A"," "," ","1","0","[2556.699999999255]","1","2","","","5941","51","3","3","lose","go","0"
"pit-trial","173","1248338","0.0-56.0","battery-v0.2","","""event"",""trial"",""time""
""fullscreenenter"",""1"",""6685""
","
","
","""event"",""trial"",""time""
""fullscreenenter"",""1"",""6685""
","
","","","952.4000000022352","","","11","5941","3504","d","elianto","#3366ff99"," "," ","1","+10","[1807.1000000014901]","1","2","","","5941","52","1","1","win","go","0"
"pit-trial","174","1253210","0.0-57.0","battery-v0.2","","""event"",""trial"",""time""
""fullscreenenter"",""1"",""6685""
","
","
","""event"",""trial"",""time""
""fullscreenenter"",""1"",""6685""
","
","","","-1","","","11","5941","3504","s","elianto","#3366ff99","-1","-1","1","+10","[]","0","2","","","5941","53","4","2","win","no-go","0"
"pit-trial","175","1256314","0.0-58.0","battery-v0.2","","""event"",""trial"",""time""
""fullscreenenter"",""1"",""6685""
","
","
","""event"",""trial"",""time""
""fullscreenenter"",""1"",""6685""
","
","","","237.60000000149012","","","11","5941","3504","e","elianto","#f73b6a7A","-1"," ","0","-10","[1091.5]","1","2","","","5941","54","2","4","lose","no-go","0"
"pit-trial","176","1260594","0.0-59.0","battery-v0.2","","""event"",""trial"",""time""
""fullscreenenter"",""1"",""6685""
","
","
","""event"",""trial"",""time""
""fullscreenenter"",""1"",""6685""
","
","","","1411.800000000745","","","11","5941","3504","d","elianto","#3366ff99"," "," ","1","+10","[2266.199999999255]","1","2","","","5941","55","1","1","win","go","0"
"pit-trial","177","1265466","0.0-60.0","battery-v0.2","","""event"",""trial"",""time""
""fullscreenenter"",""1"",""6685""
","
","
","""event"",""trial"",""time""
""fullscreenenter"",""1"",""6685""
","
","","","-1","","","11","5941","3504","j","elianto","#f73b6a7A","-1","-1","1","0","[]","0","2","","","5941","56","0","4","lose","no-go","0"
"pit-trial","178","1270338","0.0-61.0","battery-v0.2","","""event"",""trial"",""time""
""fullscreenenter"",""1"",""6685""
","
","
","""event"",""trial"",""time""
""fullscreenenter"",""1"",""6685""
","
","","","-1","","","11","5941","3504","s","elianto","#3366ff99","-1","-1","1","+10","[]","0","2","","","5941","57","4","2","win","no-go","0"
"pit-trial","179","1275211","0.0-62.0","battery-v0.2","","""event"",""trial"",""time""
""fullscreenenter"",""1"",""6685""
","
","
","""event"",""trial"",""time""
""fullscreenenter"",""1"",""6685""
","
","","","-1","","","11","5941","3504","j","elianto","#f73b6a7A","-1","-1","1","0","[]","0","2","","","5941","58","0","4","lose","no-go","0"
"pit-trial","180","1279531","0.0-63.0","battery-v0.2","","""event"",""trial"",""time""
""fullscreenenter"",""1"",""6685""
","
","
","""event"",""trial"",""time""
""fullscreenenter"",""1"",""6685""
","
","","","1450.3999999985099","","","11","5941","3504","w","elianto","#f73b6a7A"," "," ","1","0","[2305.699999999255]","1","2","","","5941","59","3","3","lose","go","0"
"pit-trial","181","1283467","0.0-64.0","battery-v0.2","","""event"",""trial"",""time""
""fullscreenenter"",""1"",""6685""
","
","
","""event"",""trial"",""time""
""fullscreenenter"",""1"",""6685""
","
","","","1064.4000000022352","","","11","5941","3504","d","elianto","#3366ff99"," "," ","1","+10","[1918]","1","2","","","5941","60","1","1","win","go","0"
"pit-trial","182","1287187","0.0-65.0","battery-v0.2","","""event"",""trial"",""time""
""fullscreenenter"",""1"",""6685""
","
","
","""event"",""trial"",""time""
""fullscreenenter"",""1"",""6685""
","
","","","846.5999999977648","","","11","5941","3504","s","elianto","#3366ff99","-1"," ","0","0","[1706.1000000014901]","1","2","","","5941","61","4","2","win","no-go","0"
"pit-trial","183","1292059","0.0-66.0","battery-v0.2","","""event"",""trial"",""time""
""fullscreenenter"",""1"",""6685""
","
","
","""event"",""trial"",""time""
""fullscreenenter"",""1"",""6685""
","
","","","-1","","","11","5941","3504","d","elianto","#3366ff99"," ","-1","0","0","[]","0","2","","","5941","62","1","1","win","go","0"
"pit-trial","184","1295579","0.0-67.0","battery-v0.2","","""event"",""trial"",""time""
""fullscreenenter"",""1"",""6685""
","
","
","""event"",""trial"",""time""
""fullscreenenter"",""1"",""6685""
","
","","","648.1999999992549","","","11","5941","3504","e","elianto","#f73b6a7A","-1"," ","0","-10","[1501.199999999255]","1","2","","","5941","63","2","4","lose","no-go","0"
"pit-trial","185","1300019","0.0-68.0","battery-v0.2","","""event"",""trial"",""time""
""fullscreenenter"",""1"",""6685""
","
","
","""event"",""trial"",""time""
""fullscreenenter"",""1"",""6685""
","
","","","1569.3999999985099","","","11","5941","3504","w","elianto","#f73b6a7A"," "," ","1","0","[2421.900000002235]","1","2","","","5941","64","3","3","lose","go","0"
"pit-trial","186","1304891","0.0-69.0","battery-v0.2","","""event"",""trial"",""time""
""fullscreenenter"",""1"",""6685""
","
","
","""event"",""trial"",""time""
""fullscreenenter"",""1"",""6685""
","
","","","-1","","","11","5941","3504","w","elianto","#f73b6a7A"," ","-1","0","-10","[3029.599999997765]","1","2","","","5941","65","3","3","lose","go","0"
"pit-trial","187","1309763","0.0-70.0","battery-v0.2","","""event"",""trial"",""time""
""fullscreenenter"",""1"",""6685""
","
","
","""event"",""trial"",""time""
""fullscreenenter"",""1"",""6685""
","
","","","-1","","","11","5941","3504","s","elianto","#3366ff99","-1","-1","1","0","[]","0","2","","","5941","66","4","2","win","no-go","1"
"pit-trial","188","1313763","0.0-71.0","battery-v0.2","","""event"",""trial"",""time""
""fullscreenenter"",""1"",""6685""
","
","
","""event"",""trial"",""time""
""fullscreenenter"",""1"",""6685""
","
","","","1134.8999999985099","","","11","5941","3504","d","elianto","#3366ff99"," "," ","1","+10","[1985.7000000029802]","1","2","","","5941","67","1","1","win","go","0"
"pit-trial","189","1318633","0.0-72.0","battery-v0.2","","""event"",""trial"",""time""
""fullscreenenter"",""1"",""6685""
","
","
","""event"",""trial"",""time""
""fullscreenenter"",""1"",""6685""
","
","","","-1","","","11","5941","3504","e","elianto","#f73b6a7A","-1","-1","1","-10","[]","0","2","","","5941","68","2","4","lose","no-go","1"
"pit-trial","190","1323154","0.0-73.0","battery-v0.2","","""event"",""trial"",""time""
""fullscreenenter"",""1"",""6685""
","
","
","""event"",""trial"",""time""
""fullscreenenter"",""1"",""6685""
","
","","","1647.5","","","11","5941","3504","w","elianto","#f73b6a7A"," "," ","1","0","[2503.39999999851]","1","2","","","5941","69","3","3","lose","go","0"
"pit-trial","191","1327714","0.0-74.0","battery-v0.2","","""event"",""trial"",""time""
""fullscreenenter"",""1"",""6685""
","
","
","""event"",""trial"",""time""
""fullscreenenter"",""1"",""6685""
","
","","","1692.300000000745","","","11","5941","3504","p","elianto","#3366ff99"," "," ","1","+10","[2546.89999999851]","1","2","","","5941","70","5","1","win","go","0"
"pit-trial","192","1331122","0.0-75.0","battery-v0.2","","""event"",""trial"",""time""
""fullscreenenter"",""1"",""6685""
","
","
","""event"",""trial"",""time""
""fullscreenenter"",""1"",""6685""
","
","","","540.1999999992549","","","11","5941","3504","d","elianto","#3366ff99"," "," ","1","+10","[1392]","1","2","","","5941","71","1","1","win","go","0"
"pit-trial","193","1335994","0.0-76.0","battery-v0.2","","""event"",""trial"",""time""
""fullscreenenter"",""1"",""6685""
","
","
","""event"",""trial"",""time""
""fullscreenenter"",""1"",""6685""
","
","","","-1","","","11","5941","3504","s","elianto","#3366ff99","-1","-1","1","0","[4658.300000000745]","1","2","","","5941","72","4","2","win","no-go","1"
"pit-trial","194","1339802","0.0-77.0","battery-v0.2","","""event"",""trial"",""time""
""fullscreenenter"",""1"",""6685""
","
","
","""event"",""trial"",""time""
""fullscreenenter"",""1"",""6685""
","
","","","939.6000000014901","","","11","5941","3504","d","elianto","#3366ff99"," "," ","1","+10","[1793.6000000014901]","1","2","","","5941","73","1","1","win","go","0"
"pit-trial","195","1344674","0.0-78.0","battery-v0.2","","""event"",""trial"",""time""
""fullscreenenter"",""1"",""6685""
","
","
","""event"",""trial"",""time""
""fullscreenenter"",""1"",""6685""
","
","","","-1","","","11","5941","3504","w","elianto","#f73b6a7A"," ","-1","0","-10","[3705.5]","1","2","","","5941","74","3","3","lose","go","0"
"pit-trial","196","1349481","0.0-79.0","battery-v0.2","","""event"",""trial"",""time""
""fullscreenenter"",""1"",""6685""
","
","
","""event"",""trial"",""time""
""fullscreenenter"",""1"",""6685""
","
","","","1935.300000000745","","","11","5941","3504","s","elianto","#3366ff99","-1"," ","0","0","[2790.699999999255]","1","2","","","5941","75","4","2","win","no-go","0"
"pit-trial","197","1353258","0.0-80.0","battery-v0.2","","""event"",""trial"",""time""
""fullscreenenter"",""1"",""6685""
","
","
","""event"",""trial"",""time""
""fullscreenenter"",""1"",""6685""
","
","","","917.4000000022352","","","11","5941","3504","p","elianto","#3366ff99"," "," ","1","+10","[1769]","1","2","","","5941","76","5","1","win","go","0"
"pit-trial","198","1358130","0.0-81.0","battery-v0.2","","""event"",""trial"",""time""
""fullscreenenter"",""1"",""6685""
","
","
","""event"",""trial"",""time""
""fullscreenenter"",""1"",""6685""
","
","","","-1","","","11","5941","3504","s","elianto","#3366ff99","-1","-1","1","+10","[]","0","2","","","5941","77","4","2","win","no-go","0"
"pit-trial","199","1362306","0.0-82.0","battery-v0.2","","""event"",""trial"",""time""
""fullscreenenter"",""1"",""6685""
","
","
","""event"",""trial"",""time""
""fullscreenenter"",""1"",""6685""
","
","","","1304.1000000014901","","","11","5941","3504","p","elianto","#3366ff99"," "," ","1","0","[2158.800000000745]","1","2","","","5941","78","5","1","win","go","1"
"pit-trial","200","1367178","0.0-83.0","battery-v0.2","","""event"",""trial"",""time""
""fullscreenenter"",""1"",""6685""
","
","
","""event"",""trial"",""time""
""fullscreenenter"",""1"",""6685""
","
","","","-1","","","11","5941","3504","g","elianto","#f73b6a7A","-1","-1","1","0","[]","0","2","","","5941","79","6","4","lose","no-go","0"
"pit-trial","201","1371514","0.0-84.0","battery-v0.2","","""event"",""trial"",""time""
""fullscreenenter"",""1"",""6685""
","
","
","""event"",""trial"",""time""
""fullscreenenter"",""1"",""6685""
","
","","","1473.7000000029802","","","11","5941","3504","w","elianto","#f73b6a7A"," "," ","1","0","[2325.300000000745]","1","2","","","5941","80","3","3","lose","go","0"
"pit-trial","202","1376386","0.0-85.0","battery-v0.2","","""event"",""trial"",""time""
""fullscreenenter"",""1"",""6685""
","
","
","""event"",""trial"",""time""
""fullscreenenter"",""1"",""6685""
","
","","","-1","","","11","5941","3504","s","elianto","#3366ff99","-1","-1","1","0","[]","0","2","","","5941","81","4","2","win","no-go","1"
"pit-trial","203","1379610","0.0-86.0","battery-v0.2","","""event"",""trial"",""time""
""fullscreenenter"",""1"",""6685""
","
","
","""event"",""trial"",""time""
""fullscreenenter"",""1"",""6685""
","
","","","358.19999999925494","","","11","5941","3504","p","elianto","#3366ff99"," "," ","1","+10","[1210]","1","2","","","5941","82","5","1","win","go","0"
"pit-trial","204","1383930","0.0-87.0","battery-v0.2","","""event"",""trial"",""time""
""fullscreenenter"",""1"",""6685""
","
","
","""event"",""trial"",""time""
""fullscreenenter"",""1"",""6685""
","
","","","1447.3999999985099","","","11","5941","3504","a","elianto","#f73b6a7A"," "," ","1","0","[2302]","1","2","","","5941","83","7","3","lose","go","0"
"pit-trial","205","1388210","0.0-88.0","battery-v0.2","","""event"",""trial"",""time""
""fullscreenenter"",""1"",""6685""
","
","
","""event"",""trial"",""time""
""fullscreenenter"",""1"",""6685""
","
","","","1403.6000000014901","","","11","5941","3504","g","elianto","#f73b6a7A","-1"," ","0","-10","[2260.900000002235]","1","2","","","5941","84","6","4","lose","no-go","0"
"pit-trial","206","1392386","0.0-89.0","battery-v0.2","","""event"",""trial"",""time""
""fullscreenenter"",""1"",""6685""
","
","
","""event"",""trial"",""time""
""fullscreenenter"",""1"",""6685""
","
","","","1305.699999999255","","","11","5941","3504","a","elianto","#f73b6a7A"," "," ","1","0","[2161.60000000149]","1","2","","","5941","85","7","3","lose","go","0"
"pit-trial","207","1397258","0.0-90.0","battery-v0.2","","""event"",""trial"",""time""
""fullscreenenter"",""1"",""6685""
","
","
","""event"",""trial"",""time""
""fullscreenenter"",""1"",""6685""
","
","","","-1","","","11","5941","3504","s","elianto","#3366ff99","-1","-1","1","+10","[]","0","2","","","5941","86","4","2","win","no-go","0"
"pit-trial","208","1401026","0.0-91.0","battery-v0.2","","""event"",""trial"",""time""
""fullscreenenter"",""1"",""6685""
","
","
","""event"",""trial"",""time""
""fullscreenenter"",""1"",""6685""
","
","","","900","","","11","5941","3504","p","elianto","#3366ff99"," "," ","1","+10","[1750.3999999985099]","1","2","","","5941","87","5","1","win","go","0"
"pit-trial","209","1405898","0.0-92.0","battery-v0.2","","""event"",""trial"",""time""
""fullscreenenter"",""1"",""6685""
","
","
","""event"",""trial"",""time""
""fullscreenenter"",""1"",""6685""
","
","","","-1","","","11","5941","3504","g","elianto","#f73b6a7A","-1","-1","1","0","[]","0","2","","","5941","88","6","4","lose","no-go","0"
"pit-trial","210","1409683","0.0-93.0","battery-v0.2","","""event"",""trial"",""time""
""fullscreenenter"",""1"",""6685""
","
","
","""event"",""trial"",""time""
""fullscreenenter"",""1"",""6685""
","
","","","913.5","","","11","5941","3504","p","elianto","#3366ff99"," "," ","1","+10","[1766.800000000745]","1","2","","","5941","89","5","1","win","go","0"
"pit-trial","211","1414555","0.0-94.0","battery-v0.2","","""event"",""trial"",""time""
""fullscreenenter"",""1"",""6685""
","
","
","""event"",""trial"",""time""
""fullscreenenter"",""1"",""6685""
","
","","","-1","","","11","5941","3504","a","elianto","#f73b6a7A"," ","-1","0","0","[]","0","2","","","5941","90","7","3","lose","go","1"
"pit-trial","212","1419427","0.0-95.0","battery-v0.2","","""event"",""trial"",""time""
""fullscreenenter"",""1"",""6685""
","
","
","""event"",""trial"",""time""
""fullscreenenter"",""1"",""6685""
","
","","","-1","","","11","5941","3504","s","elianto","#3366ff99","-1","-1","1","+10","[]","0","2","","","5941","91","4","2","win","no-go","0"
"pit-trial","213","1424298","0.0-96.0","battery-v0.2","","""event"",""trial"",""time""
""fullscreenenter"",""1"",""6685""
","
","
","""event"",""trial"",""time""
""fullscreenenter"",""1"",""6685""
","
","","","-1","","","11","5941","3504","g","elianto","#f73b6a7A","-1","-1","1","0","[4669.20000000298]","1","2","","","5941","92","6","4","lose","no-go","0"
"pit-trial","214","1429155","0.0-97.0","battery-v0.2","","""event"",""trial"",""time""
""fullscreenenter"",""1"",""6685""
","
","
","""event"",""trial"",""time""
""fullscreenenter"",""1"",""6685""
","
","","","1986.4000000022352","","","11","5941","3504","a","elianto","#f73b6a7A"," "," ","1","0","[2841.39999999851]","1","2","","","5941","93","7","3","lose","go","0"
"pit-trial","215","1433355","0.0-98.0","battery-v0.2","","""event"",""trial"",""time""
""fullscreenenter"",""1"",""6685""
","
","
","""event"",""trial"",""time""
""fullscreenenter"",""1"",""6685""
","
","","","1334.800000000745","","","11","5941","3504","l","elianto","#3366ff99","-1"," ","0","0","[2186.89999999851]","1","2","","","5941","94","8","2","win","no-go","0"
"pit-trial","216","1437235","0.0-99.0","battery-v0.2","","""event"",""trial"",""time""
""fullscreenenter"",""1"",""6685""
","
","
","""event"",""trial"",""time""
""fullscreenenter"",""1"",""6685""
","
","","","1006.1999999992549","","","11","5941","3504","p","elianto","#3366ff99"," "," ","1","+10","[1860.7999999970198]","1","2","","","5941","95","5","1","win","go","0"
"pit-trial","217","1442107","0.0-100.0","battery-v0.2","","""event"",""trial"",""time""
""fullscreenenter"",""1"",""6685""
","
","
","""event"",""trial"",""time""
""fullscreenenter"",""1"",""6685""
","
","","","-1","","","11","5941","3504","g","elianto","#f73b6a7A","-1","-1","1","0","[]","0","2","","","5941","96","6","4","lose","no-go","0"
"pit-trial","218","1446547","0.0-101.0","battery-v0.2","","""event"",""trial"",""time""
""fullscreenenter"",""1"",""6685""
","
","
","""event"",""trial"",""time""
""fullscreenenter"",""1"",""6685""
","
","","","1566.7000000029802","","","11","5941","3504","a","elianto","#f73b6a7A"," "," ","1","0","[2418.800000000745]","1","2","","","5941","97","7","3","lose","go","0"
"pit-trial","219","1451419","0.0-102.0","battery-v0.2","","""event"",""trial"",""time""
""fullscreenenter"",""1"",""6685""
","
","
","""event"",""trial"",""time""
""fullscreenenter"",""1"",""6685""
","
","","","-1","","","11","5941","3504","l","elianto","#3366ff99","-1","-1","1","0","[]","0","2","","","5941","98","8","2","win","no-go","1"
"pit-trial","220","1456291","0.0-103.0","battery-v0.2","","""event"",""trial"",""time""
""fullscreenenter"",""1"",""6685""
","
","
","""event"",""trial"",""time""
""fullscreenenter"",""1"",""6685""
","
","","","-1","","","11","5941","3504","g","elianto","#f73b6a7A","-1","-1","1","-10","[]","0","2","","","5941","99","6","4","lose","no-go","1"
"pit-trial","221","1460161","0.0-104.0","battery-v0.2","","""event"",""trial"",""time""
""fullscreenenter"",""1"",""6685""
","
","
","""event"",""trial"",""time""
""fullscreenenter"",""1"",""6685""
","
","","","1001.6000000014901","","","11","5941","3504","p","elianto","#3366ff99"," "," ","1","+10","[1854.0999999977648]","1","2","","","5941","100","5","1","win","go","0"
"pit-trial","222","1463937","0.0-105.0","battery-v0.2","","""event"",""trial"",""time""
""fullscreenenter"",""1"",""6685""
","
","
","""event"",""trial"",""time""
""fullscreenenter"",""1"",""6685""
","
","","","903.9000000022352","","","11","5941","3504","l","elianto","#3366ff99","-1"," ","0","0","[1764.1000000014901]","1","2","","","5941","101","8","2","win","no-go","0"
"pit-trial","223","1468018","0.0-106.0","battery-v0.2","","""event"",""trial"",""time""
""fullscreenenter"",""1"",""6685""
","
","
","""event"",""trial"",""time""
""fullscreenenter"",""1"",""6685""
","
","","","1208.0999999977648","","","11","5941","3504","u","elianto","#3366ff99","-1"," ","0","0","[2064.7000000029802]","1","2","","","5941","102","9","2","win","no-go","0"
"pit-trial","224","1471898","0.0-107.0","battery-v0.2","","""event"",""trial"",""time""
""fullscreenenter"",""1"",""6685""
","
","
","""event"",""trial"",""time""
""fullscreenenter"",""1"",""6685""
","
","","","1001.5","","","11","5941","3504","p","elianto","#3366ff99"," "," ","1","+10","[313.1000000014901,1863.4000000022352]","2","2","","","5941","103","5","1","win","go","0"
"pit-trial","225","1476770","0.0-108.0","battery-v0.2","","""event"",""trial"",""time""
""fullscreenenter"",""1"",""6685""
","
","
","""event"",""trial"",""time""
""fullscreenenter"",""1"",""6685""
","
","","","-1","","","11","5941","3504","g","elianto","#f73b6a7A","-1","-1","1","0","[]","0","2","","","5941","104","6","4","lose","no-go","0"
"pit-trial","226","1480682","0.0-109.0","battery-v0.2","","""event"",""trial"",""time""
""fullscreenenter"",""1"",""6685""
","
","
","""event"",""trial"",""time""
""fullscreenenter"",""1"",""6685""
","
","","","1041.300000000745","","","11","5941","3504","p","elianto","#3366ff99"," "," ","1","+10","[1895.2999999970198]","1","2","","","5941","105","5","1","win","go","0"
"pit-trial","227","1485554","0.0-110.0","battery-v0.2","","""event"",""trial"",""time""
""fullscreenenter"",""1"",""6685""
","
","
","""event"",""trial"",""time""
""fullscreenenter"",""1"",""6685""
","
","","","-1","","","11","5941","3504","u","elianto","#3366ff99","-1","-1","1","+10","[]","0","2","","","5941","106","9","2","win","no-go","0"
"pit-trial","228","1490426","0.0-111.0","battery-v0.2","","""event"",""trial"",""time""
""fullscreenenter"",""1"",""6685""
","
","
","""event"",""trial"",""time""
""fullscreenenter"",""1"",""6685""
","
","","","-1","","","11","5941","3504","l","elianto","#3366ff99","-1","-1","1","+10","[]","0","2","","","5941","107","8","2","win","no-go","0"
"pit-trial","229","1495298","0.0-112.0","battery-v0.2","","""event"",""trial"",""time""
""fullscreenenter"",""1"",""6685""
","
","
","""event"",""trial"",""time""
""fullscreenenter"",""1"",""6685""
","
","","","-1","","","11","5941","3504","g","elianto","#f73b6a7A","-1","-1","1","0","[]","0","2","","","5941","108","6","4","lose","no-go","0"
"pit-trial","230","1500106","0.0-113.0","battery-v0.2","","""event"",""trial"",""time""
""fullscreenenter"",""1"",""6685""
","
","
","""event"",""trial"",""time""
""fullscreenenter"",""1"",""6685""
","
","","","1936.300000000745","","","11","5941","3504","p","elianto","#3366ff99"," "," ","1","+10","[2792.5]","1","2","","","5941","109","5","1","win","go","0"
"pit-trial","231","1504978","0.0-114.0","battery-v0.2","","""event"",""trial"",""time""
""fullscreenenter"",""1"",""6685""
","
","
","""event"",""trial"",""time""
""fullscreenenter"",""1"",""6685""
","
","","","-1","","","11","5941","3504","u","elianto","#3366ff99","-1","-1","1","0","[]","0","2","","","5941","110","9","2","win","no-go","1"
"pit-trial","232","1509802","0.0-115.0","battery-v0.2","","""event"",""trial"",""time""
""fullscreenenter"",""1"",""6685""
","
","
","""event"",""trial"",""time""
""fullscreenenter"",""1"",""6685""
","
","","","1954.5","","","11","5941","3504","l","elianto","#3366ff99","-1"," ","0","0","[2806.5]","1","2","","","5941","111","8","2","win","no-go","0"
"pit-trial","233","1514674","0.0-116.0","battery-v0.2","","""event"",""trial"",""time""
""fullscreenenter"",""1"",""6685""
","
","
","""event"",""trial"",""time""
""fullscreenenter"",""1"",""6685""
","
","","","-1","","","11","5941","3504","g","elianto","#f73b6a7A","-1","-1","1","-10","[]","0","2","","","5941","112","6","4","lose","no-go","1"
"pit-trial","234","1518930","0.0-117.0","battery-v0.2","","""event"",""trial"",""time""
""fullscreenenter"",""1"",""6685""
","
","
","""event"",""trial"",""time""
""fullscreenenter"",""1"",""6685""
","
","","","1383.5","","","11","5941","3504","u","elianto","#3366ff99","-1"," ","0","0","[2238.699999999255]","1","2","","","5941","113","9","2","win","no-go","0"
"pit-trial","235","1523226","0.0-118.0","battery-v0.2","","""event"",""trial"",""time""
""fullscreenenter"",""1"",""6685""
","
","
","""event"",""trial"",""time""
""fullscreenenter"",""1"",""6685""
","
","","","1426.0999999977648","","","11","5941","3504","a","elianto","#f73b6a7A"," "," ","1","0","[2278.2000000029802]","1","2","","","5941","114","7","3","lose","go","0"
"pit-trial","236","1528098","0.0-119.0","battery-v0.2","","""event"",""trial"",""time""
""fullscreenenter"",""1"",""6685""
","
","
","""event"",""trial"",""time""
""fullscreenenter"",""1"",""6685""
","
","","","-1","","","11","5941","3504","p","elianto","#3366ff99"," ","-1","0","0","[3006.199999999255]","1","2","","","5941","115","5","1","win","go","0"
"pit-trial","237","1532970","0.0-120.0","battery-v0.2","","""event"",""trial"",""time""
""fullscreenenter"",""1"",""6685""
","
","
","""event"",""trial"",""time""
""fullscreenenter"",""1"",""6685""
","
","","","-1","","","11","5941","3504","l","elianto","#3366ff99","-1","-1","1","+10","[]","0","2","","","5941","116","8","2","win","no-go","0"
"pit-trial","238","1537514","0.0-121.0","battery-v0.2","","""event"",""trial"",""time""
""fullscreenenter"",""1"",""6685""
","
","
","""event"",""trial"",""time""
""fullscreenenter"",""1"",""6685""
","
","","","1676.1000000014901","","","11","5941","3504","u","elianto","#3366ff99","-1"," ","0","0","[2529.900000002235]","1","2","","","5941","117","9","2","win","no-go","0"
"pit-trial","239","1542386","0.0-122.0","battery-v0.2","","""event"",""trial"",""time""
""fullscreenenter"",""1"",""6685""
","
","
","""event"",""trial"",""time""
""fullscreenenter"",""1"",""6685""
","
","","","-1","","","11","5941","3504","l","elianto","#3366ff99","-1","-1","1","0","[]","0","2","","","5941","118","8","2","win","no-go","1"
"pit-trial","240","1547258","0.0-123.0","battery-v0.2","","""event"",""trial"",""time""
""fullscreenenter"",""1"",""6685""
","
","
","""event"",""trial"",""time""
""fullscreenenter"",""1"",""6685""
","
","","","-1","","","11","5941","3504","g","elianto","#f73b6a7A","-1","-1","1","0","[]","0","2","","","5941","119","6","4","lose","no-go","0"
"pit-trial","241","1550970","0.0-124.0","battery-v0.2","","""event"",""trial"",""time""
""fullscreenenter"",""1"",""6685""
","
","
","""event"",""trial"",""time""
""fullscreenenter"",""1"",""6685""
","
","","","839","","","11","5941","3504","p","elianto","#3366ff99"," "," ","1","+10","[1692.300000000745]","1","2","","","5941","120","5","1","win","go","0"
"pit-trial","242","1555706","0.0-125.0","battery-v0.2","","""event"",""trial"",""time""
""fullscreenenter"",""1"",""6685""
","
","
","""event"",""trial"",""time""
""fullscreenenter"",""1"",""6685""
","
","","","1871","","","11","5941","3504","a","elianto","#f73b6a7A"," "," ","1","0","[2726.2000000029802]","1","2","","","5941","121","7","3","lose","go","0"
"pit-trial","243","1560579","0.0-126.0","battery-v0.2","","""event"",""trial"",""time""
""fullscreenenter"",""1"",""6685""
","
","
","""event"",""trial"",""time""
""fullscreenenter"",""1"",""6685""
","
","","","-1","","","11","5941","3504","l","elianto","#3366ff99","-1","-1","1","+10","[67.5]","1","2","","","5941","122","8","2","win","no-go","0"
"pit-trial","244","1565451","0.0-127.0","battery-v0.2","","""event"",""trial"",""time""
""fullscreenenter"",""1"",""6685""
","
","
","""event"",""trial"",""time""
""fullscreenenter"",""1"",""6685""
","
","","","-1","","","11","5941","3504","u","elianto","#3366ff99","-1","-1","1","+10","[]","0","2","","","5941","123","9","2","win","no-go","0"
"pit-trial","245","1569667","0.0-128.0","battery-v0.2","","""event"",""trial"",""time""
""fullscreenenter"",""1"",""6685""
","
","
","""event"",""trial"",""time""
""fullscreenenter"",""1"",""6685""
","
","","","1344.300000000745","","","11","5941","3504","p","elianto","#3366ff99"," "," ","1","+10","[2202.199999999255]","1","2","","","5941","124","5","1","win","go","0"
"pit-trial","246","1574541","0.0-129.0","battery-v0.2","","""event"",""trial"",""time""
""fullscreenenter"",""1"",""6685""
","
","
","""event"",""trial"",""time""
""fullscreenenter"",""1"",""6685""
","
","","","-1","","","11","5941","3504","g","elianto","#f73b6a7A","-1","-1","1","0","[3478.60000000149]","1","2","","","5941","125","6","4","lose","no-go","0"
"pit-trial","247","1578819","0.0-130.0","battery-v0.2","","""event"",""trial"",""time""
""fullscreenenter"",""1"",""6685""
","
","
","""event"",""trial"",""time""
""fullscreenenter"",""1"",""6685""
","
","","","1414.199999999255","","","11","5941","3504","l","elianto","#3366ff99","-1"," ","0","+10","[2264.5]","1","2","","","5941","126","8","2","win","no-go","1"
"pit-trial","248","1583691","0.0-131.0","battery-v0.2","","""event"",""trial"",""time""
""fullscreenenter"",""1"",""6685""
","
","
","""event"",""trial"",""time""
""fullscreenenter"",""1"",""6685""
","
","","","-1","","","11","5941","3504","u","elianto","#3366ff99","-1","-1","1","+10","[3978.10000000149]","1","2","","","5941","127","9","2","win","no-go","0"
"pit-trial","249","1588564","0.0-132.0","battery-v0.2","","""event"",""trial"",""time""
""fullscreenenter"",""1"",""6685""
","
","
","""event"",""trial"",""time""
""fullscreenenter"",""1"",""6685""
","
","","","-1","","","11","5941","3504","a","elianto","#f73b6a7A"," ","-1","0","-10","[3052.10000000149]","1","2","","","5941","128","7","3","lose","go","0"
"pit-trial","250","1593435","0.0-133.0","battery-v0.2","","""event"",""trial"",""time""
""fullscreenenter"",""1"",""6685""
","
","
","""event"",""trial"",""time""
""fullscreenenter"",""1"",""6685""
","
","","","-1","","","11","5941","3504","l","elianto","#3366ff99","-1","-1","1","0","[]","0","2","","","5941","129","8","2","win","no-go","1"
"pit-trial","251","1597299","0.0-134.0","battery-v0.2","","""event"",""trial"",""time""
""fullscreenenter"",""1"",""6685""
","
","
","""event"",""trial"",""time""
""fullscreenenter"",""1"",""6685""
","
","","","992.1999999992549","","","11","5941","3504","a","elianto","#f73b6a7A"," "," ","1","0","[1844.5]","1","2","","","5941","130","7","3","lose","go","0"
"pit-trial","252","1602169","0.0-135.0","battery-v0.2","","""event"",""trial"",""time""
""fullscreenenter"",""1"",""6685""
","
","
","""event"",""trial"",""time""
""fullscreenenter"",""1"",""6685""
","
","","","-1","","","11","5941","3504","g","elianto","#f73b6a7A","-1","-1","1","0","[]","0","2","","","5941","131","6","4","lose","no-go","0"
"pit-trial","253","1607041","0.0-136.0","battery-v0.2","","""event"",""trial"",""time""
""fullscreenenter"",""1"",""6685""
","
","
","""event"",""trial"",""time""
""fullscreenenter"",""1"",""6685""
","
","","","-1","","","11","5941","3504","u","elianto","#3366ff99","-1","-1","1","+10","[]","0","2","","","5941","132","9","2","win","no-go","0"
"pit-trial","254","1611913","0.0-137.0","battery-v0.2","","""event"",""trial"",""time""
""fullscreenenter"",""1"",""6685""
","
","
","""event"",""trial"",""time""
""fullscreenenter"",""1"",""6685""
","
","","","-1","","","11","5941","3504","g","elianto","#f73b6a7A","-1","-1","1","0","[]","0","2","","","5941","133","6","4","lose","no-go","0"
"pit-trial","255","1616785","0.0-138.0","battery-v0.2","","""event"",""trial"",""time""
""fullscreenenter"",""1"",""6685""
","
","
","""event"",""trial"",""time""
""fullscreenenter"",""1"",""6685""
","
","","","-1","","","11","5941","3504","u","elianto","#3366ff99","-1","-1","1","+10","[]","0","2","","","5941","134","9","2","win","no-go","0"
"pit-trial","256","1621658","0.0-139.0","battery-v0.2","","""event"",""trial"",""time""
""fullscreenenter"",""1"",""6685""
","
","
","""event"",""trial"",""time""
""fullscreenenter"",""1"",""6685""
","
","","","-1","","","11","5941","3504","l","elianto","#3366ff99","-1","-1","1","+10","[]","0","2","","","5941","135","8","2","win","no-go","0"
"pit-trial","257","1625658","0.0-140.0","battery-v0.2","","""event"",""trial"",""time""
""fullscreenenter"",""1"",""6685""
","
","
","""event"",""trial"",""time""
""fullscreenenter"",""1"",""6685""
","
","","","1133.9000000022352","","","11","5941","3504","a","elianto","#f73b6a7A"," "," ","1","0","[1984.8999999985099]","1","2","","","5941","136","7","3","lose","go","0"
"pit-trial","258","1630530","0.0-141.0","battery-v0.2","","""event"",""trial"",""time""
""fullscreenenter"",""1"",""6685""
","
","
","""event"",""trial"",""time""
""fullscreenenter"",""1"",""6685""
","
","","","-1","","","11","5941","3504","u","elianto","#3366ff99","-1","-1","1","+10","[]","0","2","","","5941","137","9","2","win","no-go","0"
"pit-trial","259","1634642","0.0-142.0","battery-v0.2","","""event"",""trial"",""time""
""fullscreenenter"",""1"",""6685""
","
","
","""event"",""trial"",""time""
""fullscreenenter"",""1"",""6685""
","
","","","1241.199999999255","","","11","5941","3504","a","elianto","#f73b6a7A"," "," ","1","-10","[2096.300000000745]","1","2","","","5941","138","7","3","lose","go","1"
"pit-trial","260","1639514","0.0-143.0","battery-v0.2","","""event"",""trial"",""time""
""fullscreenenter"",""1"",""6685""
","
","
","""event"",""trial"",""time""
""fullscreenenter"",""1"",""6685""
","
","","","-1","","","11","5941","3504","l","elianto","#3366ff99","-1","-1","1","0","[]","0","2","","","5941","139","8","2","win","no-go","1"
"pit-trial","261","1644386","0.0-144.0","battery-v0.2","","""event"",""trial"",""time""
""fullscreenenter"",""1"",""6685""
","
","
","""event"",""trial"",""time""
""fullscreenenter"",""1"",""6685""
","
","","","-1","","","11","5941","3504","g","elianto","#f73b6a7A","-1","-1","1","-10","[]","0","2","","","5941","140","6","4","lose","no-go","1"
"pit-instructions","262","1701823","0.0-145.0","battery-v0.2","","""event"",""trial"",""time""
""fullscreenenter"",""1"",""6685""
","
","
","""event"",""trial"",""time""
""fullscreenenter"",""1"",""6685""
","
","","[{""page_index"":0,""viewing_time"":34865.10000000149},{""page_index"":1,""viewing_time"":22561.599999997765}]","57428.699999999255","","","","","","","","","","","","","","","","","","","","","","","",""
"pit-trial","263","1706698","0.0-146.0","battery-v0.2","","""event"",""trial"",""time""
""fullscreenenter"",""1"",""6685""
","
","
","""event"",""trial"",""time""
""fullscreenenter"",""1"",""6685""
","
","","","-1","","","11","5941","3504","b","elianto","#f73b6a7A","-1","-1","1","0","[]","0","3","","","5941","141","3","4","lose","no-go","0"
"pit-trial","264","1711570","0.0-147.0","battery-v0.2","","""event"",""trial"",""time""
""fullscreenenter"",""1"",""6685""
","
","
","""event"",""trial"",""time""
""fullscreenenter"",""1"",""6685""
","
","","","-1","","","11","5941","3504","t","elianto","#f73b6a7A"," ","-1","0","-10","[]","0","3","","","5941","142","2","3","lose","go","0"
"pit-trial","265","1716442","0.0-148.0","battery-v0.2","","""event"",""trial"",""time""
""fullscreenenter"",""1"",""6685""
","
","
","""event"",""trial"",""time""
""fullscreenenter"",""1"",""6685""
","
","","","-1","","","11","5941","3504","n","elianto","#f73b6a7A"," ","-1","0","-10","[]","0","3","","","5941","143","0","3","lose","go","0"
"pit-trial","266","1720010","0.0-149.0","battery-v0.2","","""event"",""trial"",""time""
""fullscreenenter"",""1"",""6685""
","
","
","""event"",""trial"",""time""
""fullscreenenter"",""1"",""6685""
","
","","","695.1999999992549","","","11","5941","3504","f","elianto","#3366ff99","-1"," ","0","0","[1549.6000000014901,3525.800000000745]","2","3","","","5941","144","1","2","win","no-go","0"
"pit-trial","267","1724378","0.0-150.0","battery-v0.2","","""event"",""trial"",""time""
""fullscreenenter"",""1"",""6685""
","
","
","""event"",""trial"",""time""
""fullscreenenter"",""1"",""6685""
","
