"trial_type","trial_index","time_elapsed","internal_node_id","task_version","subject_id","interactions","blur_events","focus_events","fullscreenenter_events","fullscreenexit_events","success","view_history","rt","responses","num_errors","age","subject","participantId","rune","rune_set","hex","correct","choice","accuracy","outcome","keys","total_keys","block","practice","value","sub","trial","stimulus","robot","valence","action","sham"
"pavlovia","0","20","0.0-0.0","battery-v0.2","","""event"",""trial"",""time""
""fullscreenenter"",""1"",""21149""
","
","
","""event"",""trial"",""time""
""fullscreenenter"",""1"",""21149""
","
","","","","","","","","","","","","","","","","","","","","","","","","","","",""
"fullscreen","1","22128","0.0-1.0","battery-v0.2","","""event"",""trial"",""time""
""fullscreenenter"",""1"",""21149""
","
","
","""event"",""trial"",""time""
""fullscreenenter"",""1"",""21149""
","
","true","","","","","","","","","","","","","","","","","","","","","","","","","",""
"pit-instructions","2","35862","0.0-2.0-0.0","battery-v0.2","","""event"",""trial"",""time""
""fullscreenenter"",""1"",""21149""
","
","
","""event"",""trial"",""time""
""fullscreenenter"",""1"",""21149""
","
","","[{""page_index"":0,""viewing_time"":13728.79999999702}]","13729.29999999702","","","","","","","","","","","","","","","","","","","","","","","",""
"pit-comprehension","3","40640","0.0-2.0-1.0-0.0","battery-v0.2","","""event"",""trial"",""time""
""fullscreenenter"",""1"",""21149""
","
","
","""event"",""trial"",""time""
""fullscreenenter"",""1"",""21149""
","
","","","4775","[""shark""]","0","11","4381","2981","","","","","","","","","","","","","","","","","","",""
"pit-instructions","4","41837","0.0-2.0-1.0-1.0","battery-v0.2","","""event"",""trial"",""time""
""fullscreenenter"",""1"",""21149""
","
","
","""event"",""trial"",""time""
""fullscreenenter"",""1"",""21149""
","
","","[{""page_index"":0,""viewing_time"":1181.7000000029802}]","1181.9000000059605","","","","","","","","","","","","","","","","","","","","","","","",""
"pit-comprehension","5","45214","0.0-2.0-2.0-0.0","battery-v0.2","","""event"",""trial"",""time""
""fullscreenenter"",""1"",""21149""
","
","
","""event"",""trial"",""time""
""fullscreenenter"",""1"",""21149""
","
","","","3373.7000000029802","[""tiger""]","0","11","4381","2981","","","","","","","","","","","","","","","","","","",""
"pit-instructions","6","46231","0.0-2.0-2.0-1.0","battery-v0.2","","""event"",""trial"",""time""
""fullscreenenter"",""1"",""21149""
","
","
","""event"",""trial"",""time""
""fullscreenenter"",""1"",""21149""
","
","","[{""page_index"":0,""viewing_time"":1013.1999999955297}]","1013.6999999955297","","","","","","","","","","","","","","","","","","","","","","","",""
"pit-instructions","7","161094","0.0-2.0-3.0","battery-v0.2","","""event"",""trial"",""time""
""fullscreenenter"",""1"",""21149""
","
","
","""event"",""trial"",""time""
""fullscreenenter"",""1"",""21149""
","
","","[{""page_index"":0,""viewing_time"":8495.60000000149},{""page_index"":1,""viewing_time"":6656.60000000149},{""page_index"":2,""viewing_time"":7618},{""page_index"":3,""viewing_time"":6045.19999999553},{""page_index"":4,""viewing_time"":6512.4000000059605},{""page_index"":5,""viewing_time"":5475.89999999851},{""page_index"":6,""viewing_time"":25683.5},{""page_index"":7,""viewing_time"":8381.60000000149},{""page_index"":8,""viewing_time"":6178.5999999940395},{""page_index"":9,""viewing_time"":7211.30000000447},{""page_index"":10,""viewing_time"":8410.79999999702},{""page_index"":11,""viewing_time"":6379.5},{""page_index"":12,""viewing_time"":6956.5},{""page_index"":13,""viewing_time"":4852.39999999851}]","114858.60000000149","","","","","","","","","","","","","","","","","","","","","","","",""
"pit-trial","8","164671","0.0-2.0-4.0-0.0","battery-v0.2","","""event"",""trial"",""time""
""fullscreenenter"",""1"",""21149""
","
","
","""event"",""trial"",""time""
""fullscreenenter"",""1"",""21149""
","
","","","720.6000000014901","","","11","4381","2981","&#9784;","elianto","#FFFFF080"," "," ","1","&#10004","[1571.1000000014901]","1","0","0","","","","","","","",""
"pit-trial","9","168386","0.0-2.0-4.1-0.1","battery-v0.2","","""event"",""trial"",""time""
""fullscreenenter"",""1"",""21149""
","
","
","""event"",""trial"",""time""
""fullscreenenter"",""1"",""21149""
","
","","","858.1000000014901","","","11","4381","2981","&#9784;","elianto","#FFFFF080"," "," ","1","&#10004","[1708.2999999970198]","1","0","0","","","","","","","",""
"pit-trial","10","171828","0.0-2.0-4.2-0.2","battery-v0.2","","""event"",""trial"",""time""
""fullscreenenter"",""1"",""21149""
","
","
","""event"",""trial"",""time""
""fullscreenenter"",""1"",""21149""
","
","","","585.3999999985099","","","11","4381","2981","&#9784;","elianto","#FFFFF080"," "," ","1","&#10004","[1437.7999999970198]","1","0","0","","","","","","","",""
"pit-trial","11","175224","0.0-2.0-4.3-0.3","battery-v0.2","","""event"",""trial"",""time""
""fullscreenenter"",""1"",""21149""
","
","
","""event"",""trial"",""time""
""fullscreenenter"",""1"",""21149""
","
","","","542.8000000044703","","","11","4381","2981","&#9784;","elianto","#FFFFF080"," "," ","1","&#10004","[1393.3999999985099]","1","0","0","","","","","","","",""
"pit-trial","12","178624","0.0-2.0-4.4-0.4","battery-v0.2","","""event"",""trial"",""time""
""fullscreenenter"",""1"",""21149""
","
","
","""event"",""trial"",""time""
""fullscreenenter"",""1"",""21149""
","
","","","544.0999999940395","","","11","4381","2981","&#9784;","elianto","#FFFFF080"," "," ","1","&#10004","[1394.4000000059605]","1","0","0","","","","","","","",""
"pit-instructions","13","202637","0.0-2.0-5.0","battery-v0.2","","""event"",""trial"",""time""
""fullscreenenter"",""1"",""21149""
","
","
","""event"",""trial"",""time""
""fullscreenenter"",""1"",""21149""
","
","","[{""page_index"":0,""viewing_time"":8437.5},{""page_index"":1,""viewing_time"":5197.10000000149},{""page_index"":2,""viewing_time"":4252.39999999851},{""page_index"":3,""viewing_time"":6122.4000000059605}]","24009.70000000298","","","","","","","","","","","","","","","","","","","","","","","",""
"pit-trial","14","207493","0.0-2.0-6.0-0.0","battery-v0.2","","""event"",""trial"",""time""
""fullscreenenter"",""1"",""21149""
","
","
","""event"",""trial"",""time""
""fullscreenenter"",""1"",""21149""
","
","","","-1","","","11","4381","2981","&#9854;","elianto","#FFFFF080","-1","-1","1","&#10004","[]","0","0","1","","","","","","","",""
"pit-trial","15","212348","0.0-2.0-6.1-0.1","battery-v0.2","","""event"",""trial"",""time""
""fullscreenenter"",""1"",""21149""
","
","
","""event"",""trial"",""time""
""fullscreenenter"",""1"",""21149""
","
","","","-1","","","11","4381","2981","&#9854;","elianto","#FFFFF080","-1","-1","1","&#10004","[]","0","0","1","","","","","","","",""
"pit-trial","16","217206","0.0-2.0-6.2-0.2","battery-v0.2","","""event"",""trial"",""time""
""fullscreenenter"",""1"",""21149""
","
","
","""event"",""trial"",""time""
""fullscreenenter"",""1"",""21149""
","
","","","-1","","","11","4381","2981","&#9854;","elianto","#FFFFF080","-1","-1","1","&#10004","[]","0","0","1","","","","","","","",""
"pit-trial","17","222065","0.0-2.0-6.3-0.3","battery-v0.2","","""event"",""trial"",""time""
""fullscreenenter"",""1"",""21149""
","
","
","""event"",""trial"",""time""
""fullscreenenter"",""1"",""21149""
","
","","","-1","","","11","4381","2981","&#9854;","elianto","#FFFFF080","-1","-1","1","&#10004","[]","0","0","1","","","","","","","",""
"pit-trial","18","226924","0.0-2.0-6.4-0.4","battery-v0.2","","""event"",""trial"",""time""
""fullscreenenter"",""1"",""21149""
","
","
","""event"",""trial"",""time""
""fullscreenenter"",""1"",""21149""
","
","","","-1","","","11","4381","2981","&#9854;","elianto","#FFFFF080","-1","-1","1","&#10004","[]","0","0","1","","","","","","","",""
"pit-instructions","19","394913","0.0-2.0-7.0","battery-v0.2","","""event"",""trial"",""time""
""fullscreenenter"",""1"",""21149""
","
","
","""event"",""trial"",""time""
""fullscreenenter"",""1"",""21149""
","
","","[{""page_index"":0,""viewing_time"":8607.20000000298},{""page_index"":1,""viewing_time"":9493.20000000298},{""page_index"":2,""viewing_time"":7240.29999999702},{""page_index"":3,""viewing_time"":6243.89999999851},{""page_index"":4,""viewing_time"":5491.20000000298},{""page_index"":5,""viewing_time"":7224.19999999553},{""page_index"":6,""viewing_time"":4589},{""page_index"":7,""viewing_time"":7275.70000000298},{""page_index"":8,""viewing_time"":8010.29999999702},{""page_index"":9,""viewing_time"":6326.30000000447},{""page_index"":10,""viewing_time"":7255.89999999851},{""page_index"":11,""viewing_time"":6132.5},{""page_index"":12,""viewing_time"":6581.29999999702},{""page_index"":13,""viewing_time"":14012.20000000298},{""page_index"":14,""viewing_time"":42202.89999999851},{""page_index"":15,""viewing_time"":7596.60000000149},{""page_index"":16,""viewing_time"":6358},{""page_index"":17,""viewing_time"":7343.79999999702}]","167985.1000000015","","","","","","","","","","","","","","","","","","","","","","","",""
"pit-trial","20","398316","0.0-2.0-8.0-0.0","battery-v0.2","","""event"",""trial"",""time""
""fullscreenenter"",""1"",""21149""
","
","
","""event"",""trial"",""time""
""fullscreenenter"",""1"",""21149""
","
","","","546.8000000044703","","","11","4381","2981","&#9776;","elianto","#3366ff99"," "," ","1","+10","[1397.7000000029802]","1","0","1","","","","","","","",""
"pit-trial","21","401680","0.0-2.0-8.0-1.0","battery-v0.2","","""event"",""trial"",""time""
""fullscreenenter"",""1"",""21149""
","
","
","""event"",""trial"",""time""
""fullscreenenter"",""1"",""21149""
","
","","","510.3999999985099","","","11","4381","2981","&#9776;","elianto","#3366ff99"," "," ","1","+10","[1362.2000000029802]","1","0","1","","","","","","","",""
"pit-trial","22","405070","0.0-2.0-8.0-2.0","battery-v0.2","","""event"",""trial"",""time""
""fullscreenenter"",""1"",""21149""
","
","
","""event"",""trial"",""time""
""fullscreenenter"",""1"",""21149""
","
","","","531.7000000029802","","","11","4381","2981","&#9776;","elianto","#3366ff99"," "," ","1","+10","[1382.6000000014901]","1","0","1","","","","","","","",""
"pit-trial","23","408419","0.0-2.0-8.0-3.0","battery-v0.2","","""event"",""trial"",""time""
""fullscreenenter"",""1"",""21149""
","
","
","""event"",""trial"",""time""
""fullscreenenter"",""1"",""21149""
","
","","","494","","","11","4381","2981","&#9776;","elianto","#3366ff99"," "," ","1","0","[1345.5]","1","0","1","","","","","","","",""
"pit-trial","24","412477","0.0-2.0-8.0-4.0","battery-v0.2","","""event"",""trial"",""time""
""fullscreenenter"",""1"",""21149""
","
","
","""event"",""trial"",""time""
""fullscreenenter"",""1"",""21149""
","
","","","1197.5","","","11","4381","2981","&#9776;","elianto","#3366ff99"," "," ","1","+10","[2053.89999999851]","1","0","1","","","","","","","",""
"pit-trial","25","415939","0.0-2.0-8.1-0.1","battery-v0.2","","""event"",""trial"",""time""
""fullscreenenter"",""1"",""21149""
","
","
","""event"",""trial"",""time""
""fullscreenenter"",""1"",""21149""
","
","","","606.0999999940395","","","11","4381","2981","&#9776;","elianto","#3366ff99"," "," ","1","+10","[1456.2000000029802]","1","0","1","","","","","","","",""
"pit-trial","26","419118","0.0-2.0-8.1-1.1","battery-v0.2","","""event"",""trial"",""time""
""fullscreenenter"",""1"",""21149""
","
","
","""event"",""trial"",""time""
""fullscreenenter"",""1"",""21149""
","
","","","327.19999999552965","","","11","4381","2981","&#9776;","elianto","#3366ff99"," "," ","1","+10","[1177.2999999970198]","1","0","1","","","","","","","",""
"pit-trial","27","422496","0.0-2.0-8.1-2.1","battery-v0.2","","""event"",""trial"",""time""
""fullscreenenter"",""1"",""21149""
","
","
","""event"",""trial"",""time""
""fullscreenenter"",""1"",""21149""
","
","","","524.1000000014901","","","11","4381","2981","&#9776;","elianto","#3366ff99"," "," ","1","+10","[1375.1999999955297]","1","0","1","","","","","","","",""
"pit-trial","28","426526","0.0-2.0-8.1-3.1","battery-v0.2","","""event"",""trial"",""time""
""fullscreenenter"",""1"",""21149""
","
","
","""event"",""trial"",""time""
""fullscreenenter"",""1"",""21149""
","
","","","1174.5","","","11","4381","2981","&#9776;","elianto","#3366ff99"," "," ","1","0","[2025.1999999955297]","1","0","1","","","","","","","",""
"pit-trial","29","429835","0.0-2.0-8.1-4.1","battery-v0.2","","""event"",""trial"",""time""
""fullscreenenter"",""1"",""21149""
","
","
","""event"",""trial"",""time""
""fullscreenenter"",""1"",""21149""
","
","","","452","","","11","4381","2981","&#9776;","elianto","#3366ff99"," "," ","1","+10","[1302.5]","1","0","1","","","","","","","",""
"pit-trial","30","433197","0.0-2.0-8.2-0.2","battery-v0.2","","""event"",""trial"",""time""
""fullscreenenter"",""1"",""21149""
","
","
","""event"",""trial"",""time""
""fullscreenenter"",""1"",""21149""
","
","","","504","","","11","4381","2981","&#9776;","elianto","#3366ff99"," "," ","1","+10","[1354.5]","1","0","1","","","","","","","",""
"pit-trial","31","436488","0.0-2.0-8.2-1.2","battery-v0.2","","""event"",""trial"",""time""
""fullscreenenter"",""1"",""21149""
","
","
","""event"",""trial"",""time""
""fullscreenenter"",""1"",""21149""
","
","","","436.8999999985099","","","11","4381","2981","&#9776;","elianto","#3366ff99"," "," ","1","+10","[1287.3999999985099]","1","0","1","","","","","","","",""
"pit-trial","32","440238","0.0-2.0-8.2-2.2","battery-v0.2","","""event"",""trial"",""time""
""fullscreenenter"",""1"",""21149""
","
","
","""event"",""trial"",""time""
""fullscreenenter"",""1"",""21149""
","
","","","892.5999999940395","","","11","4381","2981","&#9776;","elianto","#3366ff99"," "," ","1","+10","[1743.5999999940395]","1","0","1","","","","","","","",""
"pit-trial","33","444214","0.0-2.0-8.2-3.2","battery-v0.2","","""event"",""trial"",""time""
""fullscreenenter"",""1"",""21149""
","
","
","""event"",""trial"",""time""
""fullscreenenter"",""1"",""21149""
","
","","","1122.8999999985099","","","11","4381","2981","&#9776;","elianto","#3366ff99"," "," ","1","0","[1973.1000000014901]","1","0","1","","","","","","","",""
"pit-trial","34","447378","0.0-2.0-8.2-4.2","battery-v0.2","","""event"",""trial"",""time""
""fullscreenenter"",""1"",""21149""
","
","
","""event"",""trial"",""time""
""fullscreenenter"",""1"",""21149""
","
","","","308.1000000014901","","","11","4381","2981","&#9776;","elianto","#3366ff99"," "," ","1","+10","[1158.4000000059605,1286.1000000014901]","2","0","1","","","","","","","",""
"call-function","35","447379","0.0-2.0-9.0","battery-v0.2","","""event"",""trial"",""time""
""fullscreenenter"",""1"",""21149""
","
","
","""event"",""trial"",""time""
""fullscreenenter"",""1"",""21149""
","
","","","","","","","","","","","","","","","","","","","","","","","","","","",""
"pit-instructions","36","488698","0.0-2.0-10.0","battery-v0.2","","""event"",""trial"",""time""
""fullscreenenter"",""1"",""21149""
","
","
","""event"",""trial"",""time""
""fullscreenenter"",""1"",""21149""
","
","","[{""page_index"":0,""viewing_time"":5752},{""page_index"":1,""viewing_time"":7024.60000000149},{""page_index"":2,""viewing_time"":9185.19999999553},{""page_index"":3,""viewing_time"":11612.89999999851},{""page_index"":4,""viewing_time"":7742.5}]","41317.60000000149","","","","","","","","","","","","","","","","","","","","","","","",""
"pit-trial","37","492548","0.0-2.0-11.0-0.0","battery-v0.2","","""event"",""trial"",""time""
""fullscreenenter"",""1"",""21149""
","
","
","""event"",""trial"",""time""
""fullscreenenter"",""1"",""21149""
","
","","","994.5","","","11","4381","2981","&#9761;","elianto","#3366ff99","-1"," ","0","0","[1845.3999999985099]","1","0","2","","","","","","","",""
"pit-trial","38","497403","0.0-2.0-11.0-1.0","battery-v0.2","","""event"",""trial"",""time""
""fullscreenenter"",""1"",""21149""
","
","
","""event"",""trial"",""time""
""fullscreenenter"",""1"",""21149""
","
","","","-1","","","11","4381","2981","&#9761;","elianto","#3366ff99","-1","-1","1","+10","[]","0","0","2","","","","","","","",""
"pit-trial","39","500329","0.0-2.0-11.0-2.0","battery-v0.2","","""event"",""trial"",""time""
""fullscreenenter"",""1"",""21149""
","
","
","""event"",""trial"",""time""
""fullscreenenter"",""1"",""21149""
","
","","","68.90000000596046","","","11","4381","2981","&#9761;","elianto","#3366ff99","-1"," ","0","0","[559.8999999985099,748,923,1107,1294.7000000029802,1453.8999999985099]","6","0","2","","","","","","","",""
"pit-trial","40","505188","0.0-2.0-11.0-3.0","battery-v0.2","","""event"",""trial"",""time""
""fullscreenenter"",""1"",""21149""
","
","
","""event"",""trial"",""time""
""fullscreenenter"",""1"",""21149""
","
","","","-1","","","11","4381","2981","&#9761;","elianto","#3366ff99","-1","-1","1","0","[]","0","0","2","","","","","","","",""
"pit-trial","41","508733","0.0-2.0-11.0-4.0","battery-v0.2","","""event"",""trial"",""time""
""fullscreenenter"",""1"",""21149""
","
","
","""event"",""trial"",""time""
""fullscreenenter"",""1"",""21149""
","
","","","688.2999999970198","","","11","4381","2981","&#9761;","elianto","#3366ff99","-1"," ","0","0","[1540.3999999985099,1677.1000000014901]","2","0","2","","","","","","","",""
"pit-trial","42","512485","0.0-2.0-11.1-0.1","battery-v0.2","","""event"",""trial"",""time""
""fullscreenenter"",""1"",""21149""
","
","
","""event"",""trial"",""time""
""fullscreenenter"",""1"",""21149""
","
","","","896.2000000029802","","","11","4381","2981","&#9761;","elianto","#3366ff99","-1"," ","0","0","[1748.2000000029802]","1","0","2","","","","","","","",""
"pit-trial","43","516717","0.0-2.0-11.1-1.1","battery-v0.2","","""event"",""trial"",""time""
""fullscreenenter"",""1"",""21149""
","
","
","""event"",""trial"",""time""
""fullscreenenter"",""1"",""21149""
","
","","","1373.3999999985099","","","11","4381","2981","&#9761;","elianto","#3366ff99","-1"," ","0","0","[2225.5]","1","0","2","","","","","","","",""
"pit-trial","44","521571","0.0-2.0-11.1-2.1","battery-v0.2","","""event"",""trial"",""time""
""fullscreenenter"",""1"",""21149""
","
","
","""event"",""trial"",""time""
""fullscreenenter"",""1"",""21149""
","
","","","-1","","","11","4381","2981","&#9761;","elianto","#3366ff99","-1","-1","1","+10","[]","0","0","2","","","","","","","",""
"pit-trial","45","526430","0.0-2.0-11.1-3.1","battery-v0.2","","""event"",""trial"",""time""
""fullscreenenter"",""1"",""21149""
","
","
","""event"",""trial"",""time""
""fullscreenenter"",""1"",""21149""
","
","","","-1","","","11","4381","2981","&#9761;","elianto","#3366ff99","-1","-1","1","0","[]","0","0","2","","","","","","","",""
"pit-trial","46","531288","0.0-2.0-11.1-4.1","battery-v0.2","","""event"",""trial"",""time""
""fullscreenenter"",""1"",""21149""
","
","
","""event"",""trial"",""time""
""fullscreenenter"",""1"",""21149""
","
","","","-1","","","11","4381","2981","&#9761;","elianto","#3366ff99","-1","-1","1","+10","[]","0","0","2","","","","","","","",""
"pit-trial","47","535758","0.0-2.0-11.2-0.2","battery-v0.2","","""event"",""trial"",""time""
""fullscreenenter"",""1"",""21149""
","
","
","""event"",""trial"",""time""
""fullscreenenter"",""1"",""21149""
","
","","","1614.6999999955297","","","11","4381","2981","&#9761;","elianto","#3366ff99","-1"," ","0","0","[2465.89999999851]","1","0","2","","","","","","","",""
"pit-trial","48","539741","0.0-2.0-11.2-1.2","battery-v0.2","","""event"",""trial"",""time""
""fullscreenenter"",""1"",""21149""
","
","
","""event"",""trial"",""time""
""fullscreenenter"",""1"",""21149""
","
","","","1130.8999999985099","","","11","4381","2981","&#9761;","elianto","#3366ff99","-1"," ","0","0","[1980.8999999985099]","1","0","2","","","","","","","",""
"pit-trial","49","543050","0.0-2.0-11.2-2.2","battery-v0.2","","""event"",""trial"",""time""
""fullscreenenter"",""1"",""21149""
","
","
","""event"",""trial"",""time""
""fullscreenenter"",""1"",""21149""
","
","","","451.1000000014901","","","11","4381","2981","&#9761;","elianto","#3366ff99","-1"," ","0","0","[1301.2000000029802]","1","0","2","","","","","","","",""
"pit-trial","50","546434","0.0-2.0-11.2-3.2","battery-v0.2","","""event"",""trial"",""time""
""fullscreenenter"",""1"",""21149""
","
","
","""event"",""trial"",""time""
""fullscreenenter"",""1"",""21149""
","
","","","525.2000000029802","","","11","4381","2981","&#9761;","elianto","#3366ff99","-1"," ","0","+10","[1377.3999999985099]","1","0","2","","","","","","","",""
"pit-trial","51","550289","0.0-2.0-11.2-4.2","battery-v0.2","","""event"",""trial"",""time""
""fullscreenenter"",""1"",""21149""
","
","
","""event"",""trial"",""time""
""fullscreenenter"",""1"",""21149""
","
","","","997.1000000014901","","","11","4381","2981","&#9761;","elianto","#3366ff99","-1"," ","0","0","[1848.5]","1","0","2","","","","","","","",""
"pit-trial","52","555147","0.0-2.0-11.3-0.3","battery-v0.2","","""event"",""trial"",""time""
""fullscreenenter"",""1"",""21149""
","
","
","""event"",""trial"",""time""
""fullscreenenter"",""1"",""21149""
","
","","","-1","","","11","4381","2981","&#9761;","elianto","#3366ff99","-1","-1","1","+10","[]","0","0","2","","","","","","","",""
"pit-trial","53","559229","0.0-2.0-11.3-1.3","battery-v0.2","","""event"",""trial"",""time""
""fullscreenenter"",""1"",""21149""
","
","
","""event"",""trial"",""time""
""fullscreenenter"",""1"",""21149""
","
","","","1222.2999999970198","","","11","4381","2981","&#9761;","elianto","#3366ff99","-1"," ","0","0","[2074.1999999955297]","1","0","2","","","","","","","",""
"pit-trial","54","562584","0.0-2.0-11.3-2.3","battery-v0.2","","""event"",""trial"",""time""
""fullscreenenter"",""1"",""21149""
","
","
","""event"",""trial"",""time""
""fullscreenenter"",""1"",""21149""
","
","","","498.6000000014901","","","11","4381","2981","&#9761;","elianto","#3366ff99","-1"," ","0","0","[1348.8999999985099]","1","0","2","","","","","","","",""
"pit-trial","55","566560","0.0-2.0-11.3-3.3","battery-v0.2","","""event"",""trial"",""time""
""fullscreenenter"",""1"",""21149""
","
","
","""event"",""trial"",""time""
""fullscreenenter"",""1"",""21149""
","
","","","1122.3999999985099","","","11","4381","2981","&#9761;","elianto","#3366ff99","-1"," ","0","+10","[1973.2999999970198]","1","0","2","","","","","","","",""
"pit-trial","56","570078","0.0-2.0-11.3-4.3","battery-v0.2","","""event"",""trial"",""time""
""fullscreenenter"",""1"",""21149""
","
","
","""event"",""trial"",""time""
""fullscreenenter"",""1"",""21149""
","
","","","664.1000000014901","","","11","4381","2981","&#9761;","elianto","#3366ff99","-1"," ","0","0","[1514.2000000029802]","1","0","2","","","","","","","",""
"call-function","57","570079","0.0-2.0-12.0","battery-v0.2","","""event"",""trial"",""time""
""fullscreenenter"",""1"",""21149""
","
","
","""event"",""trial"",""time""
""fullscreenenter"",""1"",""21149""
","
","","","","","","","","","","","","","","","","","","","","","","","","","","",""
"pit-instructions","58","622289","0.0-2.0-13.0","battery-v0.2","","""event"",""trial"",""time""
""fullscreenenter"",""1"",""21149""
","
","
","""event"",""trial"",""time""
""fullscreenenter"",""1"",""21149""
","
","","[{""page_index"":0,""viewing_time"":6874.60000000149},{""page_index"":1,""viewing_time"":6606.79999999702},{""page_index"":2,""viewing_time"":10628.10000000149},{""page_index"":3,""viewing_time"":10146.30000000447},{""page_index"":4,""viewing_time"":17952}]","52208.39999999851","","","","","","","","","","","","","","","","","","","","","","","",""
"pit-trial","59","627149","0.0-2.0-14.0-0.0","battery-v0.2","","""event"",""trial"",""time""
""fullscreenenter"",""1"",""21149""
","
","
","""event"",""trial"",""time""
""fullscreenenter"",""1"",""21149""
","
","","","-1","","","11","4381","2981","&#9826;","elianto","#f73b6a7A","-1","-1","1","0","[]","0","0","3","","","","","","","",""
"pit-trial","60","631659","0.0-2.0-14.0-1.0","battery-v0.2","","""event"",""trial"",""time""
""fullscreenenter"",""1"",""21149""
","
","
","""event"",""trial"",""time""
""fullscreenenter"",""1"",""21149""
","
","","","1651.7999999970198","","","11","4381","2981","&#9826;","elianto","#f73b6a7A","-1"," ","0","-10","[2503.39999999851]","1","0","3","","","","","","","",""
"pit-trial","61","636518","0.0-2.0-14.0-2.0","battery-v0.2","","""event"",""trial"",""time""
""fullscreenenter"",""1"",""21149""
","
","
","""event"",""trial"",""time""
""fullscreenenter"",""1"",""21149""
","
","","","-1","","","11","4381","2981","&#9826;","elianto","#f73b6a7A","-1","-1","1","0","[]","0","0","3","","","","","","","",""
"pit-trial","62","641372","0.0-2.0-14.0-3.0","battery-v0.2","","""event"",""trial"",""time""
""fullscreenenter"",""1"",""21149""
","
","
","""event"",""trial"",""time""
""fullscreenenter"",""1"",""21149""
","
","","","-1","","","11","4381","2981","&#9826;","elianto","#f73b6a7A","-1","-1","1","-10","[]","0","0","3","","","","","","","",""
"pit-trial","63","646231","0.0-2.0-14.0-4.0","battery-v0.2","","""event"",""trial"",""time""
""fullscreenenter"",""1"",""21149""
","
","
","""event"",""trial"",""time""
""fullscreenenter"",""1"",""21149""
","
","","","-1","","","11","4381","2981","&#9826;","elianto","#f73b6a7A","-1","-1","1","0","[]","0","0","3","","","","","","","",""
"pit-trial","64","651089","0.0-2.0-14.1-0.1","battery-v0.2","","""event"",""trial"",""time""
""fullscreenenter"",""1"",""21149""
","
","
","""event"",""trial"",""time""
""fullscreenenter"",""1"",""21149""
","
","","","-1","","","11","4381","2981","&#9826;","elianto","#f73b6a7A","-1","-1","1","0","[]","0","0","3","","","","","","","",""
"pit-trial","65","655948","0.0-2.0-14.1-1.1","battery-v0.2","","""event"",""trial"",""time""
""fullscreenenter"",""1"",""21149""
","
","
","""event"",""trial"",""time""
""fullscreenenter"",""1"",""21149""
","
","","","-1","","","11","4381","2981","&#9826;","elianto","#f73b6a7A","-1","-1","1","0","[]","0","0","3","","","","","","","",""
"pit-trial","66","660807","0.0-2.0-14.1-2.1","battery-v0.2","","""event"",""trial"",""time""
""fullscreenenter"",""1"",""21149""
","
","
","""event"",""trial"",""time""
""fullscreenenter"",""1"",""21149""
","
","","","-1","","","11","4381","2981","&#9826;","elianto","#f73b6a7A","-1","-1","1","0","[]","0","0","3","","","","","","","",""
"pit-trial","67","665666","0.0-2.0-14.1-3.1","battery-v0.2","","""event"",""trial"",""time""
""fullscreenenter"",""1"",""21149""
","
","
","""event"",""trial"",""time""
""fullscreenenter"",""1"",""21149""
","
","","","-1","","","11","4381","2981","&#9826;","elianto","#f73b6a7A","-1","-1","1","-10","[]","0","0","3","","","","","","","",""
"pit-trial","68","670525","0.0-2.0-14.1-4.1","battery-v0.2","","""event"",""trial"",""time""
""fullscreenenter"",""1"",""21149""
","
","
","""event"",""trial"",""time""
""fullscreenenter"",""1"",""21149""
","
","","","-1","","","11","4381","2981","&#9826;","elianto","#f73b6a7A","-1","-1","1","0","[]","0","0","3","","","","","","","",""
"pit-trial","69","675385","0.0-2.0-14.2-0.2","battery-v0.2","","""event"",""trial"",""time""
""fullscreenenter"",""1"",""21149""
","
","
","""event"",""trial"",""time""
""fullscreenenter"",""1"",""21149""
","
","","","-1","","","11","4381","2981","&#9826;","elianto","#f73b6a7A","-1","-1","1","0","[]","0","0","3","","","","","","","",""
"pit-trial","70","680243","0.0-2.0-14.2-1.2","battery-v0.2","","""event"",""trial"",""time""
""fullscreenenter"",""1"",""21149""
","
","
","""event"",""trial"",""time""
""fullscreenenter"",""1"",""21149""
","
","","","-1","","","11","4381","2981","&#9826;","elianto","#f73b6a7A","-1","-1","1","0","[]","0","0","3","","","","","","","",""
"pit-trial","71","685104","0.0-2.0-14.2-2.2","battery-v0.2","","""event"",""trial"",""time""
""fullscreenenter"",""1"",""21149""
","
","
","""event"",""trial"",""time""
""fullscreenenter"",""1"",""21149""
","
","","","-1","","","11","4381","2981","&#9826;","elianto","#f73b6a7A","-1","-1","1","0","[]","0","0","3","","","","","","","",""
"pit-trial","72","689960","0.0-2.0-14.2-3.2","battery-v0.2","","""event"",""trial"",""time""
""fullscreenenter"",""1"",""21149""
","
","
","""event"",""trial"",""time""
""fullscreenenter"",""1"",""21149""
","
","","","-1","","","11","4381","2981","&#9826;","elianto","#f73b6a7A","-1","-1","1","-10","[]","0","0","3","","","","","","","",""
"pit-trial","73","694819","0.0-2.0-14.2-4.2","battery-v0.2","","""event"",""trial"",""time""
""fullscreenenter"",""1"",""21149""
","
","
","""event"",""trial"",""time""
""fullscreenenter"",""1"",""21149""
","
","","","-1","","","11","4381","2981","&#9826;","elianto","#f73b6a7A","-1","-1","1","0","[]","0","0","3","","","","","","","",""
"pit-trial","74","699678","0.0-2.0-14.3-0.3","battery-v0.2","","""event"",""trial"",""time""
""fullscreenenter"",""1"",""21149""
","
","
","""event"",""trial"",""time""
""fullscreenenter"",""1"",""21149""
","
","","","-1","","","11","4381","2981","&#9826;","elianto","#f73b6a7A","-1","-1","1","0","[]","0","0","3","","","","","","","",""
"pit-trial","75","704537","0.0-2.0-14.3-1.3","battery-v0.2","","""event"",""trial"",""time""
""fullscreenenter"",""1"",""21149""
","
","
","""event"",""trial"",""time""
""fullscreenenter"",""1"",""21149""
","
","","","-1","","","11","4381","2981","&#9826;","elianto","#f73b6a7A","-1","-1","1","0","[]","0","0","3","","","","","","","",""
"pit-trial","76","709396","0.0-2.0-14.3-2.3","battery-v0.2","","""event"",""trial"",""time""
""fullscreenenter"",""1"",""21149""
","
","
","""event"",""trial"",""time""
""fullscreenenter"",""1"",""21149""
","
","","","-1","","","11","4381","2981","&#9826;","elianto","#f73b6a7A","-1","-1","1","0","[]","0","0","3","","","","","","","",""
"pit-trial","77","714254","0.0-2.0-14.3-3.3","battery-v0.2","","""event"",""trial"",""time""
""fullscreenenter"",""1"",""21149""
","
","
","""event"",""trial"",""time""
""fullscreenenter"",""1"",""21149""
","
","","","-1","","","11","4381","2981","&#9826;","elianto","#f73b6a7A","-1","-1","1","-10","[]","0","0","3","","","","","","","",""
"pit-trial","78","719114","0.0-2.0-14.3-4.3","battery-v0.2","","""event"",""trial"",""time""
""fullscreenenter"",""1"",""21149""
","
","
","""event"",""trial"",""time""
""fullscreenenter"",""1"",""21149""
","
","","","-1","","","11","4381","2981","&#9826;","elianto","#f73b6a7A","-1","-1","1","0","[]","0","0","3","","","","","","","",""
"call-function","79","719115","0.0-2.0-15.0","battery-v0.2","","""event"",""trial"",""time""
""fullscreenenter"",""1"",""21149""
","
","
","""event"",""trial"",""time""
""fullscreenenter"",""1"",""21149""
","
","","","","","","","","","","","","","","","","","","","","","","","","","","",""
"pit-instructions","80","789534","0.0-2.0-16.0","battery-v0.2","","""event"",""trial"",""time""
""fullscreenenter"",""1"",""21149""
","
","
","""event"",""trial"",""time""
""fullscreenenter"",""1"",""21149""
","
","","[{""page_index"":0,""viewing_time"":35890},{""page_index"":1,""viewing_time"":19602.30000000447},{""page_index"":2,""viewing_time"":7777.10000000149},{""page_index"":3,""viewing_time"":7146.39999999851}]","70417.30000000447","","","","","","","","","","","","","","","","","","","","","","","",""
"pit-trial","81","794395","0.0-2.0-17.0-0.0","battery-v0.2","","""event"",""trial"",""time""
""fullscreenenter"",""1"",""21149""
","
","
","""event"",""trial"",""time""
""fullscreenenter"",""1"",""21149""
","
","","","-1","","","11","4381","2981","&#9789;","elianto","#f73b6a7A"," ","-1","0","-10","[]","0","0","4","","","","","","","",""
"pit-trial","82","799250","0.0-2.0-17.0-1.0","battery-v0.2","","""event"",""trial"",""time""
""fullscreenenter"",""1"",""21149""
","
","
","""event"",""trial"",""time""
""fullscreenenter"",""1"",""21149""
","
","","","-1","","","11","4381","2981","&#9789;","elianto","#f73b6a7A"," ","-1","0","-10","[]","0","0","4","","","","","","","",""
"pit-trial","83","802506","0.0-2.0-17.0-2.0","battery-v0.2","","""event"",""trial"",""time""
""fullscreenenter"",""1"",""21149""
","
","
","""event"",""trial"",""time""
""fullscreenenter"",""1"",""21149""
","
","","","401.70000000298023","","","11","4381","2981","&#9789;","elianto","#f73b6a7A"," "," ","1","0","[42.600000001490116,1253.2000000029802,1572.8000000044703]","3","0","4","","","","","","","",""
"pit-trial","84","805430","0.0-2.0-17.0-3.0","battery-v0.2","","""event"",""trial"",""time""
""fullscreenenter"",""1"",""21149""
","
","
","""event"",""trial"",""time""
""fullscreenenter"",""1"",""21149""
","
","","","66.89999999850988","","","11","4381","2981","&#9789;","elianto","#f73b6a7A"," "," ","1","-10","[399.6000000014901,709.5,917.2000000029802,1130.3999999985099,1423.8000000044703,1603.8999999985099,1849.2000000029802,2158.3000000044703]","8","0","4","","","","","","","",""
"pit-trial","85","808731","0.0-2.0-17.0-4.0","battery-v0.2","","""event"",""trial"",""time""
""fullscreenenter"",""1"",""21149""
","
","
","""event"",""trial"",""time""
""fullscreenenter"",""1"",""21149""
","
","","","444.80000000447035","","","11","4381","2981","&#9789;","elianto","#f73b6a7A"," "," ","1","0","[168.39999999850988,774.1999999955297,1296.3999999985099,1802.5999999940395,2310.2999999970198,2849.2999999970198]","6","0","4","","","","","","","",""
"pit-trial","86","813592","0.0-2.0-17.1-0.1","battery-v0.2","","""event"",""trial"",""time""
""fullscreenenter"",""1"",""21149""
","
","
","""event"",""trial"",""time""
""fullscreenenter"",""1"",""21149""
","
","","","-1","","","11","4381","2981","&#9789;","elianto","#f73b6a7A"," ","-1","0","-10","[]","0","0","4","","","","","","","",""
"pit-trial","87","818446","0.0-2.0-17.1-1.1","battery-v0.2","","""event"",""trial"",""time""
""fullscreenenter"",""1"",""21149""
","
","
","""event"",""trial"",""time""
""fullscreenenter"",""1"",""21149""
","
","","","-1","","","11","4381","2981","&#9789;","elianto","#f73b6a7A"," ","-1","0","-10","[]","0","0","4","","","","","","","",""
"pit-trial","88","822811","0.0-2.0-17.1-2.1","battery-v0.2","","""event"",""trial"",""time""
""fullscreenenter"",""1"",""21149""
","
","
","""event"",""trial"",""time""
""fullscreenenter"",""1"",""21149""
","
","","","1511.8000000044703","","","11","4381","2981","&#9789;","elianto","#f73b6a7A"," "," ","1","0","[2363.5]","1","0","4","","","","","","","",""
"pit-trial","89","827403","0.0-2.0-17.1-3.1","battery-v0.2","","""event"",""trial"",""time""
""fullscreenenter"",""1"",""21149""
","
","
","""event"",""trial"",""time""
""fullscreenenter"",""1"",""21149""
","
","","","1738.6000000014901","","","11","4381","2981","&#9789;","elianto","#f73b6a7A"," "," ","1","-10","[2588.60000000149]","1","0","4","","","","","","","",""
"pit-trial","90","831410","0.0-2.0-17.1-4.1","battery-v0.2","","""event"",""trial"",""time""
""fullscreenenter"",""1"",""21149""
","
","
","""event"",""trial"",""time""
""fullscreenenter"",""1"",""21149""
","
","","","1152.1000000014901","","","11","4381","2981","&#9789;","elianto","#f73b6a7A"," "," ","1","0","[2002.8000000044703,2587.3000000044703,3003.8000000044703]","3","0","4","","","","","","","",""
"pit-trial","91","834602","0.0-2.0-17.2-0.2","battery-v0.2","","""event"",""trial"",""time""
""fullscreenenter"",""1"",""21149""
","
","
","""event"",""trial"",""time""
""fullscreenenter"",""1"",""21149""
","
","","","332.90000000596046","","","11","4381","2981","&#9789;","elianto","#f73b6a7A"," "," ","1","0","[326.70000000298023,1183.9000000059605]","2","0","4","","","","","","","",""
"pit-trial","92","837986","0.0-2.0-17.2-1.2","battery-v0.2","","""event"",""trial"",""time""
""fullscreenenter"",""1"",""21149""
","
","
","""event"",""trial"",""time""
""fullscreenenter"",""1"",""21149""
","
","","","529.6000000014901","","","11","4381","2981","&#9789;","elianto","#f73b6a7A"," "," ","1","0","[1380.9000000059605]","1","0","4","","","","","","","",""
"pit-trial","93","842839","0.0-2.0-17.2-2.2","battery-v0.2","","""event"",""trial"",""time""
""fullscreenenter"",""1"",""21149""
","
","
","""event"",""trial"",""time""
""fullscreenenter"",""1"",""21149""
","
","","","-1","","","11","4381","2981","&#9789;","elianto","#f73b6a7A"," ","-1","0","-10","[3346.5999999940395]","1","0","4","","","","","","","",""
"pit-trial","94","847698","0.0-2.0-17.2-3.2","battery-v0.2","","""event"",""trial"",""time""
""fullscreenenter"",""1"",""21149""
","
","
","""event"",""trial"",""time""
""fullscreenenter"",""1"",""21149""
","
","","","-1","","","11","4381","2981","&#9789;","elianto","#f73b6a7A"," ","-1","0","0","[4031.0999999940395]","1","0","4","","","","","","","",""
"pit-trial","95","852557","0.0-2.0-17.2-4.2","battery-v0.2","","""event"",""trial"",""time""
""fullscreenenter"",""1"",""21149""
","
","
","""event"",""trial"",""time""
""fullscreenenter"",""1"",""21149""
","
","","","-1","","","11","4381","2981","&#9789;","elianto","#f73b6a7A"," ","-1","0","-10","[]","0","0","4","","","","","","","",""
"pit-trial","96","857415","0.0-2.0-17.3-0.3","battery-v0.2","","""event"",""trial"",""time""
""fullscreenenter"",""1"",""21149""
","
","
","""event"",""trial"",""time""
""fullscreenenter"",""1"",""21149""
","
","","","-1","","","11","4381","2981","&#9789;","elianto","#f73b6a7A"," ","-1","0","-10","[]","0","0","4","","","","","","","",""
"pit-trial","97","862276","0.0-2.0-17.3-1.3","battery-v0.2","","""event"",""trial"",""time""
""fullscreenenter"",""1"",""21149""
","
","
","""event"",""trial"",""time""
""fullscreenenter"",""1"",""21149""
","
","","","-1","","","11","4381","2981","&#9789;","elianto","#f73b6a7A"," ","-1","0","-10","[]","0","0","4","","","","","","","",""
"pit-trial","98","867132","0.0-2.0-17.3-2.3","battery-v0.2","","""event"",""trial"",""time""
""fullscreenenter"",""1"",""21149""
","
","
","""event"",""trial"",""time""
""fullscreenenter"",""1"",""21149""
","
","","","-1","","","11","4381","2981","&#9789;","elianto","#f73b6a7A"," ","-1","0","-10","[]","0","0","4","","","","","","","",""
"pit-trial","99","871992","0.0-2.0-17.3-3.3","battery-v0.2","","""event"",""trial"",""time""
""fullscreenenter"",""1"",""21149""
","
","
","""event"",""trial"",""time""
""fullscreenenter"",""1"",""21149""
","
","","","-1","","","11","4381","2981","&#9789;","elianto","#f73b6a7A"," ","-1","0","0","[]","0","0","4","","","","","","","",""
"pit-trial","100","876851","0.0-2.0-17.3-4.3","battery-v0.2","","""event"",""trial"",""time""
""fullscreenenter"",""1"",""21149""
","
","
","""event"",""trial"",""time""
""fullscreenenter"",""1"",""21149""
","
","","","-1","","","11","4381","2981","&#9789;","elianto","#f73b6a7A"," ","-1","0","-10","[]","0","0","4","","","","","","","",""
"call-function","101","876852","0.0-2.0-18.0","battery-v0.2","","""event"",""trial"",""time""
""fullscreenenter"",""1"",""21149""
","
","
","""event"",""trial"",""time""
""fullscreenenter"",""1"",""21149""
","
","","","","","","","","","","","","","","","","","","","","","","","","","","",""
"pit-instructions","102","956834","0.0-2.0-19.0","battery-v0.2","","""event"",""trial"",""time""
""fullscreenenter"",""1"",""21149""
","
","
","""event"",""trial"",""time""
""fullscreenenter"",""1"",""21149""
","
","","[{""page_index"":0,""viewing_time"":8667.19999999553},{""page_index"":1,""viewing_time"":13898.10000000149},{""page_index"":2,""viewing_time"":11365},{""page_index"":3,""viewing_time"":6477.5},{""page_index"":4,""viewing_time"":6562.000000007451},{""page_index"":5,""viewing_time"":9370.59999999404},{""page_index"":6,""viewing_time"":10198.5},{""page_index"":7,""viewing_time"":7228.79999999702},{""page_index"":8,""viewing_time"":6212}]","79980.19999999553","","","","","","","","","","","","","","","","","","","","","","","",""
"pit-comprehension","103","961654","0.0-2.0-20.0-0.0","battery-v0.2","","""event"",""trial"",""time""
""fullscreenenter"",""1"",""21149""
","
","
","""event"",""trial"",""time""
""fullscreenenter"",""1"",""21149""
","
","","","4817.100000008941","[""SPACE""]","0","11","4381","2981","","","","","","","","","","","","","","","","","","",""
"pit-instructions","104","966777","0.0-2.0-20.0-1.0","battery-v0.2","","""event"",""trial"",""time""
""fullscreenenter"",""1"",""21149""
","
","
","""event"",""trial"",""time""
""fullscreenenter"",""1"",""21149""
","
","","[{""page_index"":0,""viewing_time"":5093.5}]","5093.79999999702","","","","","","","","","","","","","","","","","","","","","","","",""
"pit-comprehension","105","971679","0.0-2.0-21.0-0.0","battery-v0.2","","""event"",""trial"",""time""
""fullscreenenter"",""1"",""21149""
","
","
","""event"",""trial"",""time""
""fullscreenenter"",""1"",""21149""
","
","","","4898.5","[""10""]","0","11","4381","2981","","","","","","","","","","","","","","","","","","",""
"pit-instructions","106","973476","0.0-2.0-21.0-1.0","battery-v0.2","","""event"",""trial"",""time""
""fullscreenenter"",""1"",""21149""
","
","
","""event"",""trial"",""time""
""fullscreenenter"",""1"",""21149""
","
","","[{""page_index"":0,""viewing_time"":1767.2000000029802}]","1767.5","","","","","","","","","","","","","","","","","","","","","","","",""
"pit-comprehension","107","980232","0.0-2.0-22.0-0.0","battery-v0.2","","""event"",""trial"",""time""
""fullscreenenter"",""1"",""21149""
","
","
","""event"",""trial"",""time""
""fullscreenenter"",""1"",""21149""
","
","","","6753.20000000298","[""-10""]","1","11","4381","2981","","","","","","","","","","","","","","","","","","",""
"pit-instructions","108","985713","0.0-2.0-22.0-1.0","battery-v0.2","","""event"",""trial"",""time""
""fullscreenenter"",""1"",""21149""
","
","
","""event"",""trial"",""time""
""fullscreenenter"",""1"",""21149""
","
","","[{""page_index"":0,""viewing_time"":5448.600000008941}]","5448.79999999702","","","","","","","","","","","","","","","","","","","","","","","",""
"pit-instructions","109","987392","0.0-2.0-22.0-2.0-0.0","battery-v0.2","","""event"",""trial"",""time""
""fullscreenenter"",""1"",""21149""
","
","
","""event"",""trial"",""time""
""fullscreenenter"",""1"",""21149""
","
","","[{""page_index"":0,""viewing_time"":1677.4000000059605}]","1677.5999999940395","","","","","","","","","","","","","","","","","","","","","","","",""
"pit-comprehension","110","993504","0.0-2.0-22.1-0.1","battery-v0.2","","""event"",""trial"",""time""
""fullscreenenter"",""1"",""21149""
","
","
","""event"",""trial"",""time""
""fullscreenenter"",""1"",""21149""
","
","","","6109.100000008941","[""0""]","0","11","4381","2981","","","","","","","","","","","","","","","","","","",""
"pit-instructions","111","995049","0.0-2.0-22.1-1.1","battery-v0.2","","""event"",""trial"",""time""
""fullscreenenter"",""1"",""21149""
","
","
","""event"",""trial"",""time""
""fullscreenenter"",""1"",""21149""
","
","","[{""page_index"":0,""viewing_time"":1515.7000000029802}]","1516","","","","","","","","","","","","","","","","","","","","","","","",""
"pit-comprehension","112","1004950","0.0-2.0-23.0-0.0","battery-v0.2","","""event"",""trial"",""time""
""fullscreenenter"",""1"",""21149""
","
","
","""event"",""trial"",""time""
""fullscreenenter"",""1"",""21149""
","
","","","9899","[""True""]","0","11","4381","2981","","","","","","","","","","","","","","","","","","",""
"pit-instructions","113","1006132","0.0-2.0-23.0-1.0","battery-v0.2","","""event"",""trial"",""time""
""fullscreenenter"",""1"",""21149""
","
","
","""event"",""trial"",""time""
""fullscreenenter"",""1"",""21149""
","
","","[{""page_index"":0,""viewing_time"":1148.4000000059605}]","1148.7000000029802","","","","","","","","","","","","","","","","","","","","","","","",""
"pit-comprehension","114","1013582","0.0-2.0-24.0-0.0","battery-v0.2","","""event"",""trial"",""time""
""fullscreenenter"",""1"",""21149""
","
","
","""event"",""trial"",""time""
""fullscreenenter"",""1"",""21149""
","
","","","7447","[""True""]","0","11","4381","2981","","","","","","","","","","","","","","","","","","",""
"pit-instructions","115","1015112","0.0-2.0-24.0-1.0","battery-v0.2","","""event"",""trial"",""time""
""fullscreenenter"",""1"",""21149""
","
","
","""event"",""trial"",""time""
""fullscreenenter"",""1"",""21149""
","
","","[{""page_index"":0,""viewing_time"":1492.1000000089407}]","1492.2999999970198","","","","","","","","","","","","","","","","","","","","","","","",""
"pit-comprehension","116","1021553","0.0-2.0-25.0-0.0","battery-v0.2","","""event"",""trial"",""time""
""fullscreenenter"",""1"",""21149""
","
","
","""event"",""trial"",""time""
""fullscreenenter"",""1"",""21149""
","
","","","6437.0999999940395","[""False""]","1","11","4381","2981","","","","","","","","","","","","","","","","","","",""
"pit-instructions","117","1024786","0.0-2.0-25.0-1.0","battery-v0.2","","""event"",""trial"",""time""
""fullscreenenter"",""1"",""21149""
","
","
","""event"",""trial"",""time""
""fullscreenenter"",""1"",""21149""
","
","","[{""page_index"":0,""viewing_time"":3200.9000000059605}]","3201.7999999970198","","","","","","","","","","","","","","","","","","","","","","","",""
"pit-instructions","118","1026129","0.0-2.0-25.0-2.0-0.0","battery-v0.2","","""event"",""trial"",""time""
""fullscreenenter"",""1"",""21149""
","
","
","""event"",""trial"",""time""
""fullscreenenter"",""1"",""21149""
","
","","[{""page_index"":0,""viewing_time"":1341.9000000059605}]","1342.2000000029802","","","","","","","","","","","","","","","","","","","","","","","",""
"pit-comprehension","119","1032561","0.0-2.0-25.1-0.1","battery-v0.2","","""event"",""trial"",""time""
""fullscreenenter"",""1"",""21149""
","
","
","""event"",""trial"",""time""
""fullscreenenter"",""1"",""21149""
","
","","","6428.399999991059","[""True""]","0","11","4381","2981","","","","","","","","","","","","","","","","","","",""
"pit-instructions","120","1035560","0.0-2.0-25.1-1.1","battery-v0.2","","""event"",""trial"",""time""
""fullscreenenter"",""1"",""21149""
","
","
","""event"",""trial"",""time""
""fullscreenenter"",""1"",""21149""
","
","","[{""page_index"":0,""viewing_time"":2967.9000000059605}]","2968.0999999940395","","","","","","","","","","","","","","","","","","","","","","","",""
"pit-comprehension","121","1043591","0.0-2.0-26.0-0.0","battery-v0.2","","""event"",""trial"",""time""
""fullscreenenter"",""1"",""21149""
","
","
","""event"",""trial"",""time""
""fullscreenenter"",""1"",""21149""
","
","","","8027.70000000298","[""False""]","0","11","4381","2981","","","","","","","","","","","","","","","","","","",""
"pit-instructions","122","1046645","0.0-2.0-26.0-1.0","battery-v0.2","","""event"",""trial"",""time""
""fullscreenenter"",""1"",""21149""
","
","
","""event"",""trial"",""time""
""fullscreenenter"",""1"",""21149""
","
","","[{""page_index"":0,""viewing_time"":3022}]","3022.2000000029802","","","","","","","","","","","","","","","","","","","","","","","",""
"pit-instructions","123","1063576","0.0-3.0","battery-v0.2","","""event"",""trial"",""time""
""fullscreenenter"",""1"",""21149""
","
","
","""event"",""trial"",""time""
""fullscreenenter"",""1"",""21149""
","
","","[{""page_index"":0,""viewing_time"":5206},{""page_index"":1,""viewing_time"":5177.20000000298},{""page_index"":2,""viewing_time"":6545.399999991059}]","16928.89999999106","","","","","","","","","","","","","","","","","","","","","","","",""
"pit-trial","124","1067221","0.0-4.0","battery-v0.2","","""event"",""trial"",""time""
""fullscreenenter"",""1"",""21149""
","
","
","""event"",""trial"",""time""
""fullscreenenter"",""1"",""21149""
","
","","","786","","","11","4381","2981","&#9733;","elianto","#3366ff99","-1"," ","0","0","[1637.1000000089407]","1","1","","","4381","1","2","2","win","no-go","0"
"pit-trial","125","1072079","0.0-5.0","battery-v0.2","","""event"",""trial"",""time""
""fullscreenenter"",""1"",""21149""
","
","
","""event"",""trial"",""time""
""fullscreenenter"",""1"",""21149""
","
","","","-1","","","11","4381","2981","&#9728;","elianto","#f73b6a7A","-1","-1","1","0","[]","0","1","","","4381","2","0","4","lose","no-go","0"
"pit-trial","126","1076128","0.0-6.0","battery-v0.2","","""event"",""trial"",""time""
""fullscreenenter"",""1"",""21149""
","
","
","""event"",""trial"",""time""
""fullscreenenter"",""1"",""21149""
","
","","","1194.4000000059605","","","11","4381","2981","&#9752;","elianto","#f73b6a7A"," "," ","1","-10","[2044.5]","1","1","","","4381","3","3","3","lose","go","1"
"pit-trial","127","1079986","0.0-7.0","battery-v0.2","","""event"",""trial"",""time""
""fullscreenenter"",""1"",""21149""
","
","
","""event"",""trial"",""time""
""fullscreenenter"",""1"",""21149""
","
","","","1002.0999999940395","","","11","4381","2981","&#9730;","elianto","#3366ff99"," "," ","1","0","[1853.5]","1","1","","","4381","4","1","1","win","go","1"
"pit-trial","128","1084404","0.0-8.0","battery-v0.2","","""event"",""trial"",""time""
""fullscreenenter"",""1"",""21149""
","
","
","""event"",""trial"",""time""
""fullscreenenter"",""1"",""21149""
","
","","","1563.699999988079","","","11","4381","2981","&#9730;","elianto","#3366ff99"," "," ","1","+10","[2414.0999999940395]","1","1","","","4381","5","1","1","win","go","0"
"pit-trial","129","1089261","0.0-9.0","battery-v0.2","","""event"",""trial"",""time""
""fullscreenenter"",""1"",""21149""
","
","
","""event"",""trial"",""time""
""fullscreenenter"",""1"",""21149""
","
","","","-1","","","11","4381","2981","&#9728;","elianto","#f73b6a7A","-1","-1","1","0","[]","0","1","","","4381","6","0","4","lose","no-go","0"
"pit-trial","130","1094121","0.0-10.0","battery-v0.2","","""event"",""trial"",""time""
""fullscreenenter"",""1"",""21149""
","
","
","""event"",""trial"",""time""
""fullscreenenter"",""1"",""21149""
","
","","","-1","","","11","4381","2981","&#9733;","elianto","#3366ff99","-1","-1","1","0","[3819.2999999970198,4370]","2","1","","","4381","7","2","2","win","no-go","1"
"pit-trial","131","1098859","0.0-11.0","battery-v0.2","","""event"",""trial"",""time""
""fullscreenenter"",""1"",""21149""
","
","
","""event"",""trial"",""time""
""fullscreenenter"",""1"",""21149""
","
","","","1882","","","11","4381","2981","&#9752;","elianto","#f73b6a7A"," "," ","1","0","[39.19999998807907,545.6999999880791,2732.199999988079]","3","1","","","4381","8","3","3","lose","go","0"
"pit-trial","132","1102691","0.0-12.0","battery-v0.2","","""event"",""trial"",""time""
""fullscreenenter"",""1"",""21149""
","
","
","""event"",""trial"",""time""
""fullscreenenter"",""1"",""21149""
","
","","","978.9000000059605","","","11","4381","2981","&#9730;","elianto","#3366ff99"," "," ","1","+10","[1829.1000000089407]","1","1","","","4381","9","1","1","win","go","0"
"pit-trial","133","1106862","0.0-13.0","battery-v0.2","","""event"",""trial"",""time""
""fullscreenenter"",""1"",""21149""
","
","
","""event"",""trial"",""time""
""fullscreenenter"",""1"",""21149""
","
","","","1312.8999999910593","","","11","4381","2981","&#9752;","elianto","#f73b6a7A"," "," ","1","-10","[2163.7999999970198]","1","1","","","4381","10","3","3","lose","go","1"
"pit-trial","134","1111720","0.0-14.0","battery-v0.2","","""event"",""trial"",""time""
""fullscreenenter"",""1"",""21149""
","
","
","""event"",""trial"",""time""
""fullscreenenter"",""1"",""21149""
","
","","","-1","","","11","4381","2981","&#9728;","elianto","#f73b6a7A","-1","-1","1","0","[]","0","1","","","4381","11","0","4","lose","no-go","0"
"pit-trial","135","1115720","0.0-15.0","battery-v0.2","","""event"",""trial"",""time""
""fullscreenenter"",""1"",""21149""
","
","
","""event"",""trial"",""time""
""fullscreenenter"",""1"",""21149""
","
","","","1142","","","11","4381","2981","&#9733;","elianto","#3366ff99","-1"," ","0","0","[1993.199999988079]","1","1","","","4381","12","2","2","win","no-go","0"
"pit-trial","136","1120577","0.0-16.0","battery-v0.2","","""event"",""trial"",""time""
""fullscreenenter"",""1"",""21149""
","
","
","""event"",""trial"",""time""
""fullscreenenter"",""1"",""21149""
","
","","","-1","","","11","4381","2981","&#9728;","elianto","#f73b6a7A","-1","-1","1","0","[]","0","1","","","4381","13","0","4","lose","no-go","0"
"pit-trial","137","1125438","0.0-17.0","battery-v0.2","","""event"",""trial"",""time""
""fullscreenenter"",""1"",""21149""
","
","
","""event"",""trial"",""time""
""fullscreenenter"",""1"",""21149""
","
","","","-1","","","11","4381","2981","&#9733;","elianto","#3366ff99","-1","-1","1","+10","[]","0","1","","","4381","14","2","2","win","no-go","0"
"pit-trial","138","1129545","0.0-18.0","battery-v0.2","","""event"",""trial"",""time""
""fullscreenenter"",""1"",""21149""
","
","
","""event"",""trial"",""time""
""fullscreenenter"",""1"",""21149""
","
","","","1254.2000000029802","","","11","4381","2981","&#9730;","elianto","#3366ff99"," "," ","1","+10","[2104.2999999970198]","1","1","","","4381","15","1","1","win","go","0"
"pit-trial","139","1133110","0.0-19.0","battery-v0.2","","""event"",""trial"",""time""
""fullscreenenter"",""1"",""21149""
","
","
","""event"",""trial"",""time""
""fullscreenenter"",""1"",""21149""
","
","","","705.5","","","11","4381","2981","&#9752;","elianto","#f73b6a7A"," "," ","1","0","[1556.5999999940395]","1","1","","","4381","16","3","3","lose","go","0"
"pit-trial","140","1137969","0.0-20.0","battery-v0.2","","""event"",""trial"",""time""
""fullscreenenter"",""1"",""21149""
","
","
","""event"",""trial"",""time""
""fullscreenenter"",""1"",""21149""
","
","","","-1","","","11","4381","2981","&#9733;","elianto","#3366ff99","-1","-1","1","+10","[]","0","1","","","4381","17","2","2","win","no-go","0"
"pit-trial","141","1142364","0.0-21.0","battery-v0.2","","""event"",""trial"",""time""
""fullscreenenter"",""1"",""21149""
","
","
","""event"",""trial"",""time""
""fullscreenenter"",""1"",""21149""
","
","","","1538","","","11","4381","2981","&#9752;","elianto","#f73b6a7A"," "," ","1","-10","[2389.2000000029802]","1","1","","","4381","18","3","3","lose","go","1"
"pit-trial","142","1147222","0.0-22.0","battery-v0.2","","""event"",""trial"",""time""
""fullscreenenter"",""1"",""21149""
","
","
","""event"",""trial"",""time""
""fullscreenenter"",""1"",""21149""
","
","","","-1","","","11","4381","2981","&#9728;","elianto","#f73b6a7A","-1","-1","1","-10","[]","0","1","","","4381","19","0","4","lose","no-go","1"
"pit-trial","143","1151668","0.0-23.0","battery-v0.2","","""event"",""trial"",""time""
""fullscreenenter"",""1"",""21149""
","
","
","""event"",""trial"",""time""
""fullscreenenter"",""1"",""21149""
","
","","","1593.3999999910593","","","11","4381","2981","&#9730;","elianto","#3366ff99"," "," ","1","+10","[2443.9000000059605]","1","1","","","4381","20","1","1","win","go","0"
"pit-instructions","144","1163431","0.0-24.0","battery-v0.2","","""event"",""trial"",""time""
""fullscreenenter"",""1"",""21149""
","
","
","""event"",""trial"",""time""
""fullscreenenter"",""1"",""21149""
","
","","[{""page_index"":0,""viewing_time"":5630.699999988079},{""page_index"":1,""viewing_time"":6129.9000000059605}]","11760.79999999702","","","","","","","","","","","","","","","","","","","","","","","",""
"pit-trial","145","1167383","0.0-25.0","battery-v0.2","","""event"",""trial"",""time""
""fullscreenenter"",""1"",""21149""
","
","
","""event"",""trial"",""time""
""fullscreenenter"",""1"",""21149""
","
","","","1095.4000000059605","","","11","4381","2981","d","elianto","#3366ff99","-1"," ","0","0","[1947.5,2775.7999999970198]","2","2","","","4381","21","1","2","win","no-go","0"
"pit-trial","146","1172241","0.0-26.0","battery-v0.2","","""event"",""trial"",""time""
""fullscreenenter"",""1"",""21149""
","
","
","""event"",""trial"",""time""
""fullscreenenter"",""1"",""21149""
","
","","","-1","","","11","4381","2981","w","elianto","#f73b6a7A","-1","-1","1","0","[]","0","2","","","4381","22","3","4","lose","no-go","0"
"pit-trial","147","1175920","0.0-27.0","battery-v0.2","","""event"",""trial"",""time""
""fullscreenenter"",""1"",""21149""
","
","
","""event"",""trial"",""time""
""fullscreenenter"",""1"",""21149""
","
","","","824.2000000029802","","","11","4381","2981","j","elianto","#f73b6a7A"," "," ","1","0","[1674.2000000029802]","1","2","","","4381","23","0","3","lose","go","0"
"pit-trial","148","1180303","0.0-28.0","battery-v0.2","","""event"",""trial"",""time""
""fullscreenenter"",""1"",""21149""
","
","
","""event"",""trial"",""time""
""fullscreenenter"",""1"",""21149""
","
","","","1526.0999999940395","","","11","4381","2981","e","elianto","#f73b6a7A"," "," ","1","0","[2377.5]","1","2","","","4381","24","2","3","lose","go","0"
"pit-trial","149","1184610","0.0-29.0","battery-v0.2","","""event"",""trial"",""time""
""fullscreenenter"",""1"",""21149""
","
","
","""event"",""trial"",""time""
""fullscreenenter"",""1"",""21149""
","
","","","1450.199999988079","","","11","4381","2981","e","elianto","#f73b6a7A"," "," ","1","0","[2301]","1","2","","","4381","25","2","3","lose","go","0"
"pit-trial","150","1189463","0.0-30.0","battery-v0.2","","""event"",""trial"",""time""
""fullscreenenter"",""1"",""21149""
","
","
","""event"",""trial"",""time""
""fullscreenenter"",""1"",""21149""
","
","","","-1","","","11","4381","2981","d","elianto","#3366ff99","-1","-1","1","+10","[]","0","2","","","4381","26","1","2","win","no-go","0"
"pit-trial","151","1194319","0.0-31.0","battery-v0.2","","""event"",""trial"",""time""
""fullscreenenter"",""1"",""21149""
","
","
","""event"",""trial"",""time""
""fullscreenenter"",""1"",""21149""
","
","","","-1","","","11","4381","2981","j","elianto","#f73b6a7A"," ","-1","0","0","[]","0","2","","","4381","27","0","3","lose","go","1"
"pit-trial","152","1199177","0.0-32.0","battery-v0.2","","""event"",""trial"",""time""
""fullscreenenter"",""1"",""21149""
","
","
","""event"",""trial"",""time""
""fullscreenenter"",""1"",""21149""
","
","","","-1","","","11","4381","2981","w","elianto","#f73b6a7A","-1","-1","1","0","[]","0","2","","","4381","28","3","4","lose","no-go","0"
"pit-trial","153","1204035","0.0-33.0","battery-v0.2","","""event"",""trial"",""time""
""fullscreenenter"",""1"",""21149""
","
","
","""event"",""trial"",""time""
""fullscreenenter"",""1"",""21149""
","
","","","-1","","","11","4381","2981","j","elianto","#f73b6a7A"," ","-1","0","0","[]","0","2","","","4381","29","0","3","lose","go","1"
"pit-trial","154","1208120","0.0-34.0","battery-v0.2","","""event"",""trial"",""time""
""fullscreenenter"",""1"",""21149""
","
","
","""event"",""trial"",""time""
""fullscreenenter"",""1"",""21149""
","
","","","1226.5999999940395","","","11","4381","2981","w","elianto","#f73b6a7A","-1"," ","0","-10","[2077.7000000029802]","1","2","","","4381","30","3","4","lose","no-go","0"
"pit-trial","155","1212975","0.0-35.0","battery-v0.2","","""event"",""trial"",""time""
""fullscreenenter"",""1"",""21149""
","
","
","""event"",""trial"",""time""
""fullscreenenter"",""1"",""21149""
","
","","","-1","","","11","4381","2981","d","elianto","#3366ff99","-1","-1","1","+10","[]","0","2","","","4381","31","1","2","win","no-go","0"
"pit-trial","156","1217834","0.0-36.0","battery-v0.2","","""event"",""trial"",""time""
""fullscreenenter"",""1"",""21149""
","
","
","""event"",""trial"",""time""
""fullscreenenter"",""1"",""21149""
","
","","","-1","","","11","4381","2981","e","elianto","#f73b6a7A"," ","-1","0","-10","[]","0","2","","","4381","32","2","3","lose","go","0"
"pit-trial","157","1222693","0.0-37.0","battery-v0.2","","""event"",""trial"",""time""
""fullscreenenter"",""1"",""21149""
","
","
","""event"",""trial"",""time""
""fullscreenenter"",""1"",""21149""
","
","","","-1","","","11","4381","2981","e","elianto","#f73b6a7A"," ","-1","0","-10","[]","0","2","","","4381","33","2","3","lose","go","0"
"pit-trial","158","1227552","0.0-38.0","battery-v0.2","","""event"",""trial"",""time""
""fullscreenenter"",""1"",""21149""
","
","
","""event"",""trial"",""time""
""fullscreenenter"",""1"",""21149""
","
","","","-1","","","11","4381","2981","w","elianto","#f73b6a7A","-1","-1","1","0","[]","0","2","","","4381","34","3","4","lose","no-go","0"
"pit-trial","159","1232411","0.0-39.0","battery-v0.2","","""event"",""trial"",""time""
""fullscreenenter"",""1"",""21149""
","
","
","""event"",""trial"",""time""
""fullscreenenter"",""1"",""21149""
","
","","","-1","","","11","4381","2981","j","elianto","#f73b6a7A"," ","-1","0","-10","[3696.0999999940395,3968,4150.5999999940395,4321.5,4483.0999999940395,4630.29999999702]","6","2","","","4381","35","0","3","lose","go","0"
"pit-trial","160","1237269","0.0-40.0","battery-v0.2","","""event"",""trial"",""time""
""fullscreenenter"",""1"",""21149""
","
","
","""event"",""trial"",""time""
""fullscreenenter"",""1"",""21149""
","
","","","-1","","","11","4381","2981","d","elianto","#3366ff99","-1","-1","1","+10","[]","0","2","","","4381","36","1","2","win","no-go","0"
"pit-trial","161","1241368","0.0-41.0","battery-v0.2","","""event"",""trial"",""time""
""fullscreenenter"",""1"",""21149""
","
","
","""event"",""trial"",""time""
""fullscreenenter"",""1"",""21149""
","
","","","1242","","","11","4381","2981","e","elianto","#f73b6a7A"," "," ","1","0","[2092.4000000059605]","1","2","","","4381","37","2","3","lose","go","0"
"pit-trial","162","1246226","0.0-42.0","battery-v0.2","","""event"",""trial"",""time""
""fullscreenenter"",""1"",""21149""
","
","
","""event"",""trial"",""time""
""fullscreenenter"",""1"",""21149""
","
","","","-1","","","11","4381","2981","d","elianto","#3366ff99","-1","-1","1","+10","[]","0","2","","","4381","38","1","2","win","no-go","0"
"pit-trial","163","1251085","0.0-43.0","battery-v0.2","","""event"",""trial"",""time""
""fullscreenenter"",""1"",""21149""
","
","
","""event"",""trial"",""time""
""fullscreenenter"",""1"",""21149""
","
","","","-1","","","11","4381","2981","w","elianto","#f73b6a7A","-1","-1","1","0","[]","0","2","","","4381","39","3","4","lose","no-go","0"
"pit-trial","164","1254824","0.0-44.0","battery-v0.2","","""event"",""trial"",""time""
""fullscreenenter"",""1"",""21149""
","
","
","""event"",""trial"",""time""
""fullscreenenter"",""1"",""21149""
","
","","","879.7999999970198","","","11","4381","2981","j","elianto","#f73b6a7A"," "," ","1","0","[1733.4000000059605]","1","2","","","4381","40","0","3","lose","go","0"
"pit-trial","165","1259683","0.0-45.0","battery-v0.2","","""event"",""trial"",""time""
""fullscreenenter"",""1"",""21149""
","
","
","""event"",""trial"",""time""
""fullscreenenter"",""1"",""21149""
","
","","","-1","","","11","4381","2981","e","elianto","#f73b6a7A"," ","-1","0","0","[]","0","2","","","4381","41","2","3","lose","go","1"
"pit-trial","166","1264541","0.0-46.0","battery-v0.2","","""event"",""trial"",""time""
""fullscreenenter"",""1"",""21149""
","
","
","""event"",""trial"",""time""
""fullscreenenter"",""1"",""21149""
","
","","","-1","","","11","4381","2981","d","elianto","#3366ff99","-1","-1","1","+10","[]","0","2","","","4381","42","1","2","win","no-go","0"
"pit-trial","167","1269400","0.0-47.0","battery-v0.2","","""event"",""trial"",""time""
""fullscreenenter"",""1"",""21149""
","
","
","""event"",""trial"",""time""
""fullscreenenter"",""1"",""21149""
","
","","","-1","","","11","4381","2981","w","elianto","#f73b6a7A","-1","-1","1","0","[]","0","2","","","4381","43","3","4","lose","no-go","0"
"pit-trial","168","1272890","0.0-48.0","battery-v0.2","","""event"",""trial"",""time""
""fullscreenenter"",""1"",""21149""
","
","
","""event"",""trial"",""time""
""fullscreenenter"",""1"",""21149""
","
","","","634","","","11","4381","2981","j","elianto","#f73b6a7A"," "," ","1","0","[1486.7000000029802]","1","2","","","4381","44","0","3","lose","go","0"
"pit-trial","169","1277748","0.0-49.0","battery-v0.2","","""event"",""trial"",""time""
""fullscreenenter"",""1"",""21149""
","
","
","""event"",""trial"",""time""
""fullscreenenter"",""1"",""21149""
","
","","","-1","","","11","4381","2981","e","elianto","#f73b6a7A"," ","-1","0","-10","[]","0","2","","","4381","45","2","3","lose","go","0"
"pit-trial","170","1282607","0.0-50.0","battery-v0.2","","""event"",""trial"",""time""
""fullscreenenter"",""1"",""21149""
","
","
","""event"",""trial"",""time""
""fullscreenenter"",""1"",""21149""
","
","","","-1","","","11","4381","2981","j","elianto","#f73b6a7A"," ","-1","0","-10","[]","0","2","","","4381","46","0","3","lose","go","0"
"pit-trial","171","1287465","0.0-51.0","battery-v0.2","","""event"",""trial"",""time""
""fullscreenenter"",""1"",""21149""
","
","
","""event"",""trial"",""time""
""fullscreenenter"",""1"",""21149""
","
","","","-1","","","11","4381","2981","d","elianto","#3366ff99","-1","-1","1","+10","[]","0","2","","","4381","47","1","2","win","no-go","0"
"pit-trial","172","1292326","0.0-52.0","battery-v0.2","","""event"",""trial"",""time""
""fullscreenenter"",""1"",""21149""
","
","
","""event"",""trial"",""time""
""fullscreenenter"",""1"",""21149""
","
","","","-1","","","11","4381","2981","w","elianto","#f73b6a7A","-1","-1","1","0","[]","0","2","","","4381","48","3","4","lose","no-go","0"
"pit-trial","173","1297183","0.0-53.0","battery-v0.2","","""event"",""trial"",""time""
""fullscreenenter"",""1"",""21149""
","
","
","""event"",""trial"",""time""
""fullscreenenter"",""1"",""21149""
","
","","","-1","","","11","4381","2981","e","elianto","#f73b6a7A"," ","-1","0","-10","[]","0","2","","","4381","49","2","3","lose","go","0"
"pit-trial","174","1302042","0.0-54.0","battery-v0.2","","""event"",""trial"",""time""
""fullscreenenter"",""1"",""21149""
","
","
","""event"",""trial"",""time""
""fullscreenenter"",""1"",""21149""
","
","","","-1","","","11","4381","2981","w","elianto","#f73b6a7A","-1","-1","1","0","[]","0","2","","","4381","50","3","4","lose","no-go","0"
"pit-trial","175","1305885","0.0-55.0","battery-v0.2","","""event"",""trial"",""time""
""fullscreenenter"",""1"",""21149""
","
","
","""event"",""trial"",""time""
""fullscreenenter"",""1"",""21149""
","
","","","988","","","11","4381","2981","j","elianto","#f73b6a7A"," "," ","1","0","[1838.7000000029802]","1","2","","","4381","51","0","3","lose","go","0"
"pit-trial","176","1310744","0.0-56.0","battery-v0.2","","""event"",""trial"",""time""
""fullscreenenter"",""1"",""21149""
","
","
","""event"",""trial"",""time""
""fullscreenenter"",""1"",""21149""
","
","","","-1","","","11","4381","2981","d","elianto","#3366ff99","-1","-1","1","0","[]","0","2","","","4381","52","1","2","win","no-go","1"
"pit-trial","177","1315602","0.0-57.0","battery-v0.2","","""event"",""trial"",""time""
""fullscreenenter"",""1"",""21149""
","
","
","""event"",""trial"",""time""
""fullscreenenter"",""1"",""21149""
","
","","","-1","","","11","4381","2981","e","elianto","#f73b6a7A"," ","-1","0","-10","[3943.5999999940395,4277.29999999702,4548.699999988079]","3","2","","","4381","53","2","3","lose","go","0"
"pit-trial","178","1319794","0.0-58.0","battery-v0.2","","""event"",""trial"",""time""
""fullscreenenter"",""1"",""21149""
","
","
","""event"",""trial"",""time""
""fullscreenenter"",""1"",""21149""
","
","","","1338.0999999940395","","","11","4381","2981","j","elianto","#f73b6a7A"," "," ","1","0","[2188.5999999940395]","1","2","","","4381","54","0","3","lose","go","0"
"pit-trial","179","1324653","0.0-59.0","battery-v0.2","","""event"",""trial"",""time""
""fullscreenenter"",""1"",""21149""
","
","
","""event"",""trial"",""time""
""fullscreenenter"",""1"",""21149""
","
","","","-1","","","11","4381","2981","w","elianto","#f73b6a7A","-1","-1","1","-10","[]","0","2","","","4381","55","3","4","lose","no-go","1"
"pit-trial","180","1328890","0.0-60.0","battery-v0.2","","""event"",""trial"",""time""
""fullscreenenter"",""1"",""21149""
","
","
","""event"",""trial"",""time""
""fullscreenenter"",""1"",""21149""
","
","","","1382.5999999940395","","","11","4381","2981","d","elianto","#3366ff99","-1"," ","0","0","[2234]","1","2","","","4381","56","1","2","win","no-go","0"
"pit-trial","181","1333750","0.0-61.0","battery-v0.2","","""event"",""trial"",""time""
""fullscreenenter"",""1"",""21149""
","
","
","""event"",""trial"",""time""
""fullscreenenter"",""1"",""21149""
","
","","","-1","","","11","4381","2981","e","elianto","#f73b6a7A"," ","-1","0","-10","[3937.2999999970198,4146.79999999702]","2","2","","","4381","57","2","3","lose","go","0"
"pit-trial","182","1337767","0.0-62.0","battery-v0.2","","""event"",""trial"",""time""
""fullscreenenter"",""1"",""21149""
","
","
","""event"",""trial"",""time""
""fullscreenenter"",""1"",""21149""
","
","","","1160.5999999940395","","","11","4381","2981","j","elianto","#f73b6a7A"," "," ","1","0","[2011.5999999940395]","1","2","","","4381","58","0","3","lose","go","0"
"pit-trial","183","1342625","0.0-63.0","battery-v0.2","","""event"",""trial"",""time""
""fullscreenenter"",""1"",""21149""
","
","
","""event"",""trial"",""time""
""fullscreenenter"",""1"",""21149""
","
","","","-1","","","11","4381","2981","w","elianto","#f73b6a7A","-1","-1","1","0","[]","0","2","","","4381","59","3","4","lose","no-go","0"
"pit-trial","184","1347042","0.0-64.0","battery-v0.2","","""event"",""trial"",""time""
""fullscreenenter"",""1"",""21149""
","
","
","""event"",""trial"",""time""
""fullscreenenter"",""1"",""21149""
","
","","","1561.2000000029802","","","11","4381","2981","s","elianto","#3366ff99"," "," ","1","+10","[2411.4000000059605]","1","2","","","4381","60","4","1","win","go","0"
"pit-trial","185","1351901","0.0-65.0","battery-v0.2","","""event"",""trial"",""time""
""fullscreenenter"",""1"",""21149""
","
","
","""event"",""trial"",""time""
""fullscreenenter"",""1"",""21149""
","
","","","-1","","","11","4381","2981","d","elianto","#3366ff99","-1","-1","1","+10","[]","0","2","","","4381","61","1","2","win","no-go","0"
"pit-trial","186","1356372","0.0-66.0","battery-v0.2","","""event"",""trial"",""time""
""fullscreenenter"",""1"",""21149""
","
","
","""event"",""trial"",""time""
""fullscreenenter"",""1"",""21149""
","
","","","1614","","","11","4381","2981","e","elianto","#f73b6a7A"," "," ","1","0","[2466]","1","2","","","4381","62","2","3","lose","go","0"
"pit-trial","187","1361231","0.0-67.0","battery-v0.2","","""event"",""trial"",""time""
""fullscreenenter"",""1"",""21149""
","
","
","""event"",""trial"",""time""
""fullscreenenter"",""1"",""21149""
","
","","","-1","","","11","4381","2981","w","elianto","#f73b6a7A","-1","-1","1","0","[]","0","2","","","4381","63","3","4","lose","no-go","0"
"pit-trial","188","1365375","0.0-68.0","battery-v0.2","","""event"",""trial"",""time""
""fullscreenenter"",""1"",""21149""
","
","
","""event"",""trial"",""time""
""fullscreenenter"",""1"",""21149""
","
","","","1288.2000000029802","","","11","4381","2981","s","elianto","#3366ff99"," "," ","1","+10","[2139.3999999910593]","1","2","","","4381","64","4","1","win","go","0"
"pit-trial","189","1370234","0.0-69.0","battery-v0.2","","""event"",""trial"",""time""
""fullscreenenter"",""1"",""21149""
","
","
","""event"",""trial"",""time""
""fullscreenenter"",""1"",""21149""
","
","","","-1","","","11","4381","2981","d","elianto","#3366ff99","-1","-1","1","+10","[]","0","2","","","4381","65","1","2","win","no-go","0"
"pit-trial","190","1374089","0.0-70.0","battery-v0.2","","""event"",""trial"",""time""
""fullscreenenter"",""1"",""21149""
","
","
","""event"",""trial"",""time""
""fullscreenenter"",""1"",""21149""
","
","","","997.5999999940395","","","11","4381","2981","s","elianto","#3366ff99"," "," ","1","+10","[1848.8999999910593]","1","2","","","4381","66","4","1","win","go","0"
"pit-trial","191","1378948","0.0-71.0","battery-v0.2","","""event"",""trial"",""time""
""fullscreenenter"",""1"",""21149""
","
","
","""event"",""trial"",""time""
""fullscreenenter"",""1"",""21149""
","
","","","-1","","","11","4381","2981","p","elianto","#3366ff99","-1","-1","1","+10","[]","0","2","","","4381","67","5","2","win","no-go","0"
"pit-trial","192","1383806","0.0-72.0","battery-v0.2","","""event"",""trial"",""time""
""fullscreenenter"",""1"",""21149""
","
","
","""event"",""trial"",""time""
""fullscreenenter"",""1"",""21149""
","
","","","-1","","","11","4381","2981","w","elianto","#f73b6a7A","-1","-1","1","0","[]","0","2","","","4381","68","3","4","lose","no-go","0"
"pit-trial","193","1387719","0.0-73.0","battery-v0.2","","""event"",""trial"",""time""
""fullscreenenter"",""1"",""21149""
","
","
","""event"",""trial"",""time""
""fullscreenenter"",""1"",""21149""
","
","","","1055.5","","","11","4381","2981","s","elianto","#3366ff99"," "," ","1","+10","[1905.7000000029802]","1","2","","","4381","69","4","1","win","go","0"
"pit-trial","194","1392578","0.0-74.0","battery-v0.2","","""event"",""trial"",""time""
""fullscreenenter"",""1"",""21149""
","
","
","""event"",""trial"",""time""
""fullscreenenter"",""1"",""21149""
","
","","","-1","","","11","4381","2981","p","elianto","#3366ff99","-1","-1","1","+10","[]","0","2","","","4381","70","5","2","win","no-go","0"
"pit-trial","195","1396490","0.0-75.0","battery-v0.2","","""event"",""trial"",""time""
""fullscreenenter"",""1"",""21149""
","
","
","""event"",""trial"",""time""
""fullscreenenter"",""1"",""21149""
","
","","","1055.4000000059605","","","11","4381","2981","e","elianto","#f73b6a7A"," "," ","1","0","[1906.5]","1","2","","","4381","71","2","3","lose","go","0"
"pit-trial","196","1401349","0.0-76.0","battery-v0.2","","""event"",""trial"",""time""
""fullscreenenter"",""1"",""21149""
","
","
","""event"",""trial"",""time""
""fullscreenenter"",""1"",""21149""
","
","","","-1","","","11","4381","2981","d","elianto","#3366ff99","-1","-1","1","0","[]","0","2","","","4381","72","1","2","win","no-go","1"
"pit-trial","197","1406208","0.0-77.0","battery-v0.2","","""event"",""trial"",""time""
""fullscreenenter"",""1"",""21149""
","
","
","""event"",""trial"",""time""
""fullscreenenter"",""1"",""21149""
","
","","","-1","","","11","4381","2981","p","elianto","#3366ff99","-1","-1","1","+10","[]","0","2","","","4381","73","5","2","win","no-go","0"
"pit-trial","198","1410074","0.0-78.0","battery-v0.2","","""event"",""trial"",""time""
""fullscreenenter"",""1"",""21149""
","
","
","""event"",""trial"",""time""
""fullscreenenter"",""1"",""21149""
","
","","","1010.2000000029802","","","11","4381","2981","s","elianto","#3366ff99"," "," ","1","+10","[1860.7000000029802]","1","2","","","4381","74","4","1","win","go","0"
"pit-trial","199","1414933","0.0-79.0","battery-v0.2","","""event"",""trial"",""time""
""fullscreenenter"",""1"",""21149""
","
","
","""event"",""trial"",""time""
""fullscreenenter"",""1"",""21149""
","
","","","-1","","","11","4381","2981","w","elianto","#f73b6a7A","-1","-1","1","0","[]","0","2","","","4381","75","3","4","lose","no-go","0"
"pit-trial","200","1419792","0.0-80.0","battery-v0.2","","""event"",""trial"",""time""
""fullscreenenter"",""1"",""21149""
","
","
","""event"",""trial"",""time""
""fullscreenenter"",""1"",""21149""
","
","","","-1","","","11","4381","2981","d","elianto","#3366ff99","-1","-1","1","0","[]","0","2","","","4381","76","1","2","win","no-go","1"
"pit-trial","201","1424100","0.0-81.0","battery-v0.2","","""event"",""trial"",""time""
""fullscreenenter"",""1"",""21149""
","
","
","""event"",""trial"",""time""
""fullscreenenter"",""1"",""21149""
","
","","","1453.2999999970198","","","11","4381","2981","s","elianto","#3366ff99"," "," ","1","+10","[2303.3999999910593]","1","2","","","4381","77","4","1","win","go","0"
"pit-trial","202","1428958","0.0-82.0","battery-v0.2","","""event"",""trial"",""time""
""fullscreenenter"",""1"",""21149""
","
","
","""event"",""trial"",""time""
""fullscreenenter"",""1"",""21149""
","
","","","-1","","","11","4381","2981","w","elianto","#f73b6a7A","-1","-1","1","0","[]","0","2","","","4381","78","3","4","lose","no-go","0"
"pit-trial","203","1433817","0.0-83.0","battery-v0.2","","""event"",""trial"",""time""
""fullscreenenter"",""1"",""21149""
","
","
","""event"",""trial"",""time""
""fullscreenenter"",""1"",""21149""
","
","","","-1","","","11","4381","2981","p","elianto","#3366ff99","-1","-1","1","+10","[]","0","2","","","4381","79","5","2","win","no-go","0"
"pit-trial","204","1437631","0.0-84.0","battery-v0.2","","""event"",""trial"",""time""
""fullscreenenter"",""1"",""21149""
","
","
","""event"",""trial"",""time""
""fullscreenenter"",""1"",""21149""
","
","","","958.2000000029802","","","11","4381","2981","s","elianto","#3366ff99"," "," ","1","+10","[1809.8999999910593]","1","2","","","4381","80","4","1","win","go","0"
"pit-trial","205","1442342","0.0-85.0","battery-v0.2","","""event"",""trial"",""time""
""fullscreenenter"",""1"",""21149""
","
","
","""event"",""trial"",""time""
""fullscreenenter"",""1"",""21149""
","
","","","1855.0999999940395","","","11","4381","2981","a","elianto","#f73b6a7A","-1"," ","0","-10","[2706.5]","1","2","","","4381","81","7","4","lose","no-go","0"
"pit-trial","206","1446292","0.0-86.0","battery-v0.2","","""event"",""trial"",""time""
""fullscreenenter"",""1"",""21149""
","
","
","""event"",""trial"",""time""
""fullscreenenter"",""1"",""21149""
","
","","","1095.4000000059605","","","11","4381","2981","s","elianto","#3366ff99"," "," ","1","+10","[1946.4000000059605,3630.4000000059605]","2","2","","","4381","82","4","1","win","go","0"
"pit-trial","207","1451153","0.0-87.0","battery-v0.2","","""event"",""trial"",""time""
""fullscreenenter"",""1"",""21149""
","
","
","""event"",""trial"",""time""
""fullscreenenter"",""1"",""21149""
","
","","","-1","","","11","4381","2981","w","elianto","#f73b6a7A","-1","-1","1","0","[]","0","2","","","4381","83","3","4","lose","no-go","0"
"pit-trial","208","1456010","0.0-88.0","battery-v0.2","","""event"",""trial"",""time""
""fullscreenenter"",""1"",""21149""
","
","
","""event"",""trial"",""time""
""fullscreenenter"",""1"",""21149""
","
","","","-1","","","11","4381","2981","p","elianto","#3366ff99","-1","-1","1","+10","[]","0","2","","","4381","84","5","2","win","no-go","0"
"pit-trial","209","1460868","0.0-89.0","battery-v0.2","","""event"",""trial"",""time""
""fullscreenenter"",""1"",""21149""
","
","
","""event"",""trial"",""time""
""fullscreenenter"",""1"",""21149""
","
","","","-1","","","11","4381","2981","p","elianto","#3366ff99","-1","-1","1","0","[]","0","2","","","4381","85","5","2","win","no-go","1"
"pit-trial","210","1464722","0.0-90.0","battery-v0.2","","""event"",""trial"",""time""
""fullscreenenter"",""1"",""21149""
","
","
","""event"",""trial"",""time""
""fullscreenenter"",""1"",""21149""
","
","","","999.2000000029802","","","11","4381","2981","s","elianto","#3366ff99"," "," ","1","+10","[1850.199999988079]","1","2","","","4381","86","4","1","win","go","0"
"pit-trial","211","1469581","0.0-91.0","battery-v0.2","","""event"",""trial"",""time""
""fullscreenenter"",""1"",""21149""
","
","
","""event"",""trial"",""time""
""fullscreenenter"",""1"",""21149""
","
","","","-1","","","11","4381","2981","a","elianto","#f73b6a7A","-1","-1","1","0","[]","0","2","","","4381","87","7","4","lose","no-go","0"
"pit-trial","212","1474441","0.0-92.0","battery-v0.2","","""event"",""trial"",""time""
""fullscreenenter"",""1"",""21149""
","
","
","""event"",""trial"",""time""
""fullscreenenter"",""1"",""21149""
","
","","","-1","","","11","4381","2981","g","elianto","#f73b6a7A"," ","-1","0","-10","[2973.1000000089407]","1","2","","","4381","88","6","3","lose","go","0"
"pit-trial","213","1479300","0.0-93.0","battery-v0.2","","""event"",""trial"",""time""
""fullscreenenter"",""1"",""21149""
","
","
","""event"",""trial"",""time""
""fullscreenenter"",""1"",""21149""
","
","","","-1","","","11","4381","2981","p","elianto","#3366ff99","-1","-1","1","+10","[]","0","2","","","4381","89","5","2","win","no-go","0"
"pit-trial","214","1483114","0.0-94.0","battery-v0.2","","""event"",""trial"",""time""
""fullscreenenter"",""1"",""21149""
","
","
","""event"",""trial"",""time""
""fullscreenenter"",""1"",""21149""
","
","","","955.2999999970198","","","11","4381","2981","s","elianto","#3366ff99"," "," ","1","+10","[1806.9000000059605]","1","2","","","4381","90","4","1","win","go","0"
"pit-trial","215","1487975","0.0-95.0","battery-v0.2","","""event"",""trial"",""time""
""fullscreenenter"",""1"",""21149""
","
","
","""event"",""trial"",""time""
""fullscreenenter"",""1"",""21149""
","
","","","-1","","","11","4381","2981","a","elianto","#f73b6a7A","-1","-1","1","0","[]","0","2","","","4381","91","7","4","lose","no-go","0"
"pit-trial","216","1491948","0.0-96.0","battery-v0.2","","""event"",""trial"",""time""
""fullscreenenter"",""1"",""21149""
","
","
","""event"",""trial"",""time""
""fullscreenenter"",""1"",""21149""
","
","","","1119.1000000089407","","","11","4381","2981","g","elianto","#f73b6a7A"," "," ","1","-10","[1969.2000000029802]","1","2","","","4381","92","6","3","lose","go","1"
"pit-trial","217","1496809","0.0-97.0","battery-v0.2","","""event"",""trial"",""time""
""fullscreenenter"",""1"",""21149""
","
","
","""event"",""trial"",""time""
""fullscreenenter"",""1"",""21149""
","
","","","-1","","","11","4381","2981","p","elianto","#3366ff99","-1","-1","1","0","[]","0","2","","","4381","93","5","2","win","no-go","1"
"pit-trial","218","1501667","0.0-98.0","battery-v0.2","","""event"",""trial"",""time""
""fullscreenenter"",""1"",""21149""
","
","
","""event"",""trial"",""time""
""fullscreenenter"",""1"",""21149""
","
","","","-1","","","11","4381","2981","g","elianto","#f73b6a7A"," ","-1","0","-10","[]","0","2","","","4381","94","6","3","lose","go","0"
"pit-trial","219","1506249","0.0-99.0","battery-v0.2","","""event"",""trial"",""time""
""fullscreenenter"",""1"",""21149""
","
","
","""event"",""trial"",""time""
""fullscreenenter"",""1"",""21149""
","
","","","1725.8999999910593","","","11","4381","2981","l","elianto","#3366ff99"," "," ","1","+10","[2577.1000000089407]","1","2","","","4381","95","8","1","win","go","0"
"pit-trial","220","1511105","0.0-100.0","battery-v0.2","","""event"",""trial"",""time""
""fullscreenenter"",""1"",""21149""
","
","
","""event"",""trial"",""time""
""fullscreenenter"",""1"",""21149""
","
","","","-1","","","11","4381","2981","a","elianto","#f73b6a7A","-1","-1","1","0","[]","0","2","","","4381","96","7","4","lose","no-go","0"
"pit-trial","221","1515964","0.0-101.0","battery-v0.2","","""event"",""trial"",""time""
""fullscreenenter"",""1"",""21149""
","
","
","""event"",""trial"",""time""
""fullscreenenter"",""1"",""21149""
","
","","","-1","","","11","4381","2981","p","elianto","#3366ff99","-1","-1","1","+10","[]","0","2","","","4381","97","5","2","win","no-go","0"
"pit-trial","222","1520823","0.0-102.0","battery-v0.2","","""event"",""trial"",""time""
""fullscreenenter"",""1"",""21149""
","
","
","""event"",""trial"",""time""
""fullscreenenter"",""1"",""21149""
","
","","","-1","","","11","4381","2981","a","elianto","#f73b6a7A","-1","-1","1","0","[]","0","2","","","4381","98","7","4","lose","no-go","0"
"pit-trial","223","1524991","0.0-103.0","battery-v0.2","","""event"",""trial"",""time""
""fullscreenenter"",""1"",""21149""
","
","
","""event"",""trial"",""time""
""fullscreenenter"",""1"",""21149""
","
","","","1310","","","11","4381","2981","g","elianto","#f73b6a7A"," "," ","1","0","[2160.9000000059605]","1","2","","","4381","99","6","3","lose","go","0"
"pit-trial","224","1529522","0.0-104.0","battery-v0.2","","""event"",""trial"",""time""
""fullscreenenter"",""1"",""21149""
","
","
","""event"",""trial"",""time""
""fullscreenenter"",""1"",""21149""
","
","","","1674.6000000089407","","","11","4381","2981","l","elianto","#3366ff99"," "," ","1","+10","[2525.300000011921]","1","2","","","4381","100","8","1","win","go","0"
"pit-trial","225","1534378","0.0-105.0","battery-v0.2","","""event"",""trial"",""time""
""fullscreenenter"",""1"",""21149""
","
","
","""event"",""trial"",""time""
""fullscreenenter"",""1"",""21149""
","
","","","-1","","","11","4381","2981","p","elianto","#3366ff99","-1","-1","1","+10","[]","0","2","","","4381","101","5","2","win","no-go","0"
"pit-trial","226","1539237","0.0-106.0","battery-v0.2","","""event"",""trial"",""time""
""fullscreenenter"",""1"",""21149""
","
","
","""event"",""trial"",""time""
""fullscreenenter"",""1"",""21149""
","
","","","-1","","","11","4381","2981","a","elianto","#f73b6a7A","-1","-1","1","0","[]","0","2","","","4381","102","7","4","lose","no-go","0"
"pit-trial","227","1544096","0.0-107.0","battery-v0.2","","""event"",""trial"",""time""
""fullscreenenter"",""1"",""21149""
","
","
","""event"",""trial"",""time""
""fullscreenenter"",""1"",""21149""
","
","","","-1","","","11","4381","2981","u","elianto","#3366ff99"," ","-1","0","0","[3467.7000000029802]","1","2","","","4381","103","9","1","win","go","0"
"pit-trial","228","1548100","0.0-108.0","battery-v0.2","","""event"",""trial"",""time""
""fullscreenenter"",""1"",""21149""
","
","
","""event"",""trial"",""time""
""fullscreenenter"",""1"",""21149""
","
","","","1148.3999999910593","","","11","4381","2981","l","elianto","#3366ff99"," "," ","1","+10","[1999.0999999940395]","1","2","","","4381","104","8","1","win","go","0"
"pit-trial","229","1552426","0.0-109.0","battery-v0.2","","""event"",""trial"",""time""
""fullscreenenter"",""1"",""21149""
","
","
","""event"",""trial"",""time""
""fullscreenenter"",""1"",""21149""
","
","","","1469.4000000059605","","","11","4381","2981","g","elianto","#f73b6a7A"," "," ","1","0","[2321.5]","1","2","","","4381","105","6","3","lose","go","0"
"pit-trial","230","1556671","0.0-110.0","battery-v0.2","","""event"",""trial"",""time""
""fullscreenenter"",""1"",""21149""
","
","
","""event"",""trial"",""time""
""fullscreenenter"",""1"",""21149""
","
","","","1389.5","","","11","4381","2981","s","elianto","#3366ff99"," "," ","1","+10","[2240.7000000029802]","1","2","","","4381","106","4","1","win","go","0"
"pit-trial","231","1560437","0.0-111.0","battery-v0.2","","""event"",""trial"",""time""
""fullscreenenter"",""1"",""21149""
","
","
","""event"",""trial"",""time""
""fullscreenenter"",""1"",""21149""
","
","","","910.2000000029802","","","11","4381","2981","l","elianto","#3366ff99"," "," ","1","+10","[1761]","1","2","","","4381","107","8","1","win","go","0"
"pit-trial","232","1563926","0.0-112.0","battery-v0.2","","""event"",""trial"",""time""
""fullscreenenter"",""1"",""21149""
","
","
","""event"",""trial"",""time""
""fullscreenenter"",""1"",""21149""
","
","","","630","","","11","4381","2981","u","elianto","#3366ff99"," "," ","1","0","[1482.1000000089407]","1","2","","","4381","108","9","1","win","go","1"
"pit-trial","233","1567533","0.0-113.0","battery-v0.2","","""event"",""trial"",""time""
""fullscreenenter"",""1"",""21149""
","
","
","""event"",""trial"",""time""
""fullscreenenter"",""1"",""21149""
","
","","","752.2999999970198","","","11","4381","2981","l","elianto","#3366ff99"," "," ","1","+10","[1603]","1","2","","","4381","109","8","1","win","go","0"
"pit-trial","234","1571786","0.0-114.0","battery-v0.2","","""event"",""trial"",""time""
""fullscreenenter"",""1"",""21149""
","
","
","""event"",""trial"",""time""
""fullscreenenter"",""1"",""21149""
","
","","","1395.7000000029802","","","11","4381","2981","u","elianto","#3366ff99"," "," ","1","+10","[2245.8999999910593]","1","2","","","4381","110","9","1","win","go","0"
"pit-trial","235","1576645","0.0-115.0","battery-v0.2","","""event"",""trial"",""time""
""fullscreenenter"",""1"",""21149""
","
","
","""event"",""trial"",""time""
""fullscreenenter"",""1"",""21149""
","
","","","-1","","","11","4381","2981","p","elianto","#3366ff99","-1","-1","1","+10","[]","0","2","","","4381","111","5","2","win","no-go","0"
"pit-trial","236","1580992","0.0-116.0","battery-v0.2","","""event"",""trial"",""time""
""fullscreenenter"",""1"",""21149""
","
","
","""event"",""trial"",""time""
""fullscreenenter"",""1"",""21149""
","
","","","1491.7999999970198","","","11","4381","2981","g","elianto","#f73b6a7A"," "," ","1","0","[2343.0999999940395]","1","2","","","4381","112","6","3","lose","go","0"
"pit-trial","237","1584866","0.0-117.0","battery-v0.2","","""event"",""trial"",""time""
""fullscreenenter"",""1"",""21149""
","
","
","""event"",""trial"",""time""
""fullscreenenter"",""1"",""21149""
","
","","","1020.2000000029802","","","11","4381","2981","l","elianto","#3366ff99"," "," ","1","+10","[1870.5]","1","2","","","4381","113","8","1","win","go","0"
"pit-trial","238","1589726","0.0-118.0","battery-v0.2","","""event"",""trial"",""time""
""fullscreenenter"",""1"",""21149""
","
","
","""event"",""trial"",""time""
""fullscreenenter"",""1"",""21149""
","
","","","-1","","","11","4381","2981","u","elianto","#3366ff99"," ","-1","0","+10","[]","0","2","","","4381","114","9","1","win","go","1"
"pit-trial","239","1594580","0.0-119.0","battery-v0.2","","""event"",""trial"",""time""
""fullscreenenter"",""1"",""21149""
","
","
","""event"",""trial"",""time""
""fullscreenenter"",""1"",""21149""
","
","","","-1","","","11","4381","2981","p","elianto","#3366ff99","-1","-1","1","0","[]","0","2","","","4381","115","5","2","win","no-go","1"
"pit-trial","240","1599069","0.0-120.0","battery-v0.2","","""event"",""trial"",""time""
""fullscreenenter"",""1"",""21149""
","
","
","""event"",""trial"",""time""
""fullscreenenter"",""1"",""21149""
","
","","","1633.7999999970198","","","11","4381","2981","g","elianto","#f73b6a7A"," "," ","1","0","[2484.2000000029802]","1","2","","","4381","116","6","3","lose","go","0"
"pit-trial","241","1603899","0.0-121.0","battery-v0.2","","""event"",""trial"",""time""
""fullscreenenter"",""1"",""21149""
","
","
","""event"",""trial"",""time""
""fullscreenenter"",""1"",""21149""
","
","","","1971.5","","","11","4381","2981","u","elianto","#3366ff99"," "," ","1","0","[2822.5]","1","2","","","4381","117","9","1","win","go","1"
"pit-trial","242","1608758","0.0-122.0","battery-v0.2","","""event"",""trial"",""time""
""fullscreenenter"",""1"",""21149""
","
","
","""event"",""trial"",""time""
""fullscreenenter"",""1"",""21149""
","
","","","-1","","","11","4381","2981","p","elianto","#3366ff99","-1","-1","1","+10","[]","0","2","","","4381","118","5","2","win","no-go","0"
"pit-trial","243","1612752","0.0-123.0","battery-v0.2","","""event"",""trial"",""time""
""fullscreenenter"",""1"",""21149""
","
","
","""event"",""trial"",""time""
""fullscreenenter"",""1"",""21149""
","
","","","1137","","","11","4381","2981","g","elianto","#f73b6a7A"," "," ","1","0","[1988]","1","2","","","4381","119","6","3","lose","go","0"
"pit-trial","244","1616410","0.0-124.0","battery-v0.2","","""event"",""trial"",""time""
""fullscreenenter"",""1"",""21149""
","
","
","""event"",""trial"",""time""
""fullscreenenter"",""1"",""21149""
","
","","","798.0999999940395","","","11","4381","2981","l","elianto","#3366ff99"," "," ","1","+10","[1650.2000000029802]","1","2","","","4381","120","8","1","win","go","0"
"pit-trial","245","1621269","0.0-125.0","battery-v0.2","","""event"",""trial"",""time""
""fullscreenenter"",""1"",""21149""
","
","
","""event"",""trial"",""time""
""fullscreenenter"",""1"",""21149""
","
","","","-1","","","11","4381","2981","u","elianto","#3366ff99"," ","-1","0","0","[]","0","2","","","4381","121","9","1","win","go","0"
"pit-trial","246","1625117","0.0-126.0","battery-v0.2","","""event"",""trial"",""time""
""fullscreenenter"",""1"",""21149""
","
","
","""event"",""trial"",""time""
""fullscreenenter"",""1"",""21149""
","
","","","990.8999999910593","","","11","4381","2981","l","elianto","#3366ff99"," "," ","1","+10","[1841.8999999910593,2665.2999999970198]","2","2","","","4381","122","8","1","win","go","0"
"pit-trial","247","1628675","0.0-127.0","battery-v0.2","","""event"",""trial"",""time""
""fullscreenenter"",""1"",""21149""
","
","
","""event"",""trial"",""time""
""fullscreenenter"",""1"",""21149""
","
","","","701.7999999970198","","","11","4381","2981","g","elianto","#f73b6a7A"," "," ","1","-10","[1552.1000000089407]","1","2","","","4381","123","6","3","lose","go","1"
"pit-trial","248","1633534","0.0-128.0","battery-v0.2","","""event"",""trial"",""time""
""fullscreenenter"",""1"",""21149""
","
","
","""event"",""trial"",""time""
""fullscreenenter"",""1"",""21149""
","
","","","-1","","","11","4381","2981","a","elianto","#f73b6a7A","-1","-1","1","0","[]","0","2","","","4381","124","7","4","lose","no-go","0"
"pit-trial","249","1637273","0.0-129.0","battery-v0.2","","""event"",""trial"",""time""
""fullscreenenter"",""1"",""21149""
","
","
","""event"",""trial"",""time""
""fullscreenenter"",""1"",""21149""
","
","","","882.0999999940395","","","11","4381","2981","g","elianto","#f73b6a7A"," "," ","1","0","[1734.199999988079]","1","2","","","4381","125","6","3","lose","go","0"
"pit-trial","250","1642132","0.0-130.0","battery-v0.2","","""event"",""trial"",""time""
""fullscreenenter"",""1"",""21149""
","
","
","""event"",""trial"",""time""
""fullscreenenter"",""1"",""21149""
","
","","","-1","","","11","4381","2981","a","elianto","#f73b6a7A","-1","-1","1","0","[]","0","2","","","4381","126","7","4","lose","no-go","0"
"pit-trial","251","1646496","0.0-131.0","battery-v0.2","","""event"",""trial"",""time""
""fullscreenenter"",""1"",""21149""
","
","
","""event"",""trial"",""time""
""fullscreenenter"",""1"",""21149""
","
","","","1510.1000000089407","","","11","4381","2981","u","elianto","#3366ff99"," "," ","1","+10","[2361.7000000029802,2744.5999999940395]","2","2","","","4381","127","9","1","win","go","0"
"pit-trial","252","1650299","0.0-132.0","battery-v0.2","","""event"",""trial"",""time""
""fullscreenenter"",""1"",""21149""
","
","
","""event"",""trial"",""time""
""fullscreenenter"",""1"",""21149""
","
","","","944.4000000059605","","","11","4381","2981","l","elianto","#3366ff99"," "," ","1","+10","[1796.1000000089407]","1","2","","","4381","128","8","1","win","go","0"
"pit-trial","253","1654135","0.0-133.0","battery-v0.2","","""event"",""trial"",""time""
""fullscreenenter"",""1"",""21149""
","
","
","""event"",""trial"",""time""
""fullscreenenter"",""1"",""21149""
","
","","","977.7999999970198","","","11","4381","2981","l","elianto","#3366ff99"," "," ","1","+10","[1829.3999999910593]","1","2","","","4381","129","8","1","win","go","0"
"pit-trial","254","1658003","0.0-134.0","battery-v0.2","","""event"",""trial"",""time""
""fullscreenenter"",""1"",""21149""
","
","
","""event"",""trial"",""time""
""fullscreenenter"",""1"",""21149""
","
","","","1009.7999999970198","","","11","4381","2981","u","elianto","#3366ff99"," "," ","1","+10","[1862.8999999910593]","1","2","","","4381","130","9","1","win","go","0"
"pit-trial","255","1661666","0.0-135.0","battery-v0.2","","""event"",""trial"",""time""
""fullscreenenter"",""1"",""21149""
","
","
","""event"",""trial"",""time""
""fullscreenenter"",""1"",""21149""
","
","","","806.0999999940395","","","11","4381","2981","g","elianto","#f73b6a7A"," "," ","1","0","[1656.5]","1","2","","","4381","131","6","3","lose","go","0"
"pit-trial","256","1666524","0.0-136.0","battery-v0.2","","""event"",""trial"",""time""
""fullscreenenter"",""1"",""21149""
","
","
","""event"",""trial"",""time""
""fullscreenenter"",""1"",""21149""
","
","","","-1","","","11","4381","2981","a","elianto","#f73b6a7A","-1","-1","1","0","[]","0","2","","","4381","132","7","4","lose","no-go","0"
"pit-trial","257","1670204","0.0-137.0","battery-v0.2","","""event"",""trial"",""time""
""fullscreenenter"",""1"",""21149""
","
","
","""event"",""trial"",""time""
""fullscreenenter"",""1"",""21149""
","
","","","822.2000000029802","","","11","4381","2981","u","elianto","#3366ff99"," "," ","1","+10","[1672.5999999940395]","1","2","","","4381","133","9","1","win","go","0"
"pit-trial","258","1673850","0.0-138.0","battery-v0.2","","""event"",""trial"",""time""
""fullscreenenter"",""1"",""21149""
","
","
","""event"",""trial"",""time""
""fullscreenenter"",""1"",""21149""
","
","","","789.6999999880791","","","11","4381","2981","g","elianto","#f73b6a7A"," "," ","1","0","[1640.5999999940395]","1","2","","","4381","134","6","3","lose","go","0"
"pit-trial","259","1678709","0.0-139.0","battery-v0.2","","""event"",""trial"",""time""
""fullscreenenter"",""1"",""21149""
","
","
","""event"",""trial"",""time""
""fullscreenenter"",""1"",""21149""
","
","","","-1","","","11","4381","2981","a","elianto","#f73b6a7A","-1","-1","1","0","[]","0","2","","","4381","135","7","4","lose","no-go","0"
"pit-trial","260","1682517","0.0-140.0","battery-v0.2","","""event"",""trial"",""time""
""fullscreenenter"",""1"",""21149""
","
","
","""event"",""trial"",""time""
""fullscreenenter"",""1"",""21149""
","
","","","951.4000000059605","","","11","4381","2981","l","elianto","#3366ff99"," "," ","1","+10","[1801.7999999970198]","1","2","","","4381","136","8","1","win","go","0"
"pit-trial","261","1686465","0.0-141.0","battery-v0.2","","""event"",""trial"",""time""
""fullscreenenter"",""1"",""21149""
","
","
","""event"",""trial"",""time""
""fullscreenenter"",""1"",""21149""
","
","","","1089","","","11","4381","2981","l","elianto","#3366ff99"," "," ","1","0","[1941]","1","2","","","4381","137","8","1","win","go","1"
"pit-trial","262","1690366","0.0-142.0","battery-v0.2","","""event"",""trial"",""time""
""fullscreenenter"",""1"",""21149""
","
","
","""event"",""trial"",""time""
""fullscreenenter"",""1"",""21149""
","
","","","1047.0999999940395","","","11","4381","2981","u","elianto","#3366ff99"," "," ","1","+10","[1898]","1","2","","","4381","138","9","1","win","go","0"
"pit-trial","263","1694348","0.0-143.0","battery-v0.2","","""event"",""trial"",""time""
""fullscreenenter"",""1"",""21149""
","
","
","""event"",""trial"",""time""
""fullscreenenter"",""1"",""21149""
","
","","","1124.199999988079","","","11","4381","2981","g","elianto","#f73b6a7A"," "," ","1","0","[1975.5]","1","2","","","4381","139","6","3","lose","go","0"
"pit-trial","264","1699207","0.0-144.0","battery-v0.2","","""event"",""trial"",""time""
""fullscreenenter"",""1"",""21149""
","
","
","""event"",""trial"",""time""
""fullscreenenter"",""1"",""21149""
","
","","","-1","","","11","4381","2981","a","elianto","#f73b6a7A","-1","-1","1","0","[]","0","2","","","4381","140","7","4","lose","no-go","0"
"pit-instructions","265","1713407","0.0-145.0","battery-v0.2","","""event"",""trial"",""time""
""fullscreenenter"",""1"",""21149""
","
","
","""event"",""trial"",""time""
""fullscreenenter"",""1"",""21149""
","
