"trial_type","trial_index","time_elapsed","internal_node_id","task_version","subject_id","interactions","blur_events","focus_events","fullscreenenter_events","fullscreenexit_events","success","view_history","rt","responses","num_errors","age","subject","participantId","rune","rune_set","hex","correct","choice","accuracy","outcome","keys","total_keys","block","practice","value","sub","trial","stimulus","robot","valence","action","sham"
"pavlovia","0","6","0.0-0.0","battery-v0.2","","""event"",""trial"",""time""
""blur"",""1"",""1554""
""focus"",""1"",""5627""
""blur"",""1"",""6134""
""focus"",""1"",""1093340""
""fullscreenenter"",""1"",""1094331""
","""event"",""trial"",""time""
""blur"",""1"",""1554""
""blur"",""1"",""6134""
","""event"",""trial"",""time""
""focus"",""1"",""5627""
""focus"",""1"",""1093340""
","""event"",""trial"",""time""
""fullscreenenter"",""1"",""1094331""
","
","","","","","","","","","","","","","","","","","","","","","","","","","","",""
"fullscreen","1","1095325","0.0-1.0","battery-v0.2","","""event"",""trial"",""time""
""blur"",""1"",""1554""
""focus"",""1"",""5627""
""blur"",""1"",""6134""
""focus"",""1"",""1093340""
""fullscreenenter"",""1"",""1094331""
","""event"",""trial"",""time""
""blur"",""1"",""1554""
""blur"",""1"",""6134""
","""event"",""trial"",""time""
""focus"",""1"",""5627""
""focus"",""1"",""1093340""
","""event"",""trial"",""time""
""fullscreenenter"",""1"",""1094331""
","
","true","","","","","","","","","","","","","","","","","","","","","","","","","",""
"pit-instructions","2","1105547","0.0-2.0-0.0","battery-v0.2","","""event"",""trial"",""time""
""blur"",""1"",""1554""
""focus"",""1"",""5627""
""blur"",""1"",""6134""
""focus"",""1"",""1093340""
""fullscreenenter"",""1"",""1094331""
","""event"",""trial"",""time""
""blur"",""1"",""1554""
""blur"",""1"",""6134""
","""event"",""trial"",""time""
""focus"",""1"",""5627""
""focus"",""1"",""1093340""
","""event"",""trial"",""time""
""fullscreenenter"",""1"",""1094331""
","
","","[{""page_index"":0,""viewing_time"":10212.59999999404}]","10213.299999982119","","","","","","","","","","","","","","","","","","","","","","","",""
"pit-comprehension","3","1108987","0.0-2.0-1.0-0.0","battery-v0.2","","""event"",""trial"",""time""
""blur"",""1"",""1554""
""focus"",""1"",""5627""
""blur"",""1"",""6134""
""focus"",""1"",""1093340""
""fullscreenenter"",""1"",""1094331""
","""event"",""trial"",""time""
""blur"",""1"",""1554""
""blur"",""1"",""6134""
","""event"",""trial"",""time""
""focus"",""1"",""5627""
""focus"",""1"",""1093340""
","""event"",""trial"",""time""
""fullscreenenter"",""1"",""1094331""
","
","","","3436.300000011921","[""shark""]","0","17","10880","5202","","","","","","","","","","","","","","","","","","",""
"pit-instructions","4","1110022","0.0-2.0-1.0-1.0","battery-v0.2","","""event"",""trial"",""time""
""blur"",""1"",""1554""
""focus"",""1"",""5627""
""blur"",""1"",""6134""
""focus"",""1"",""1093340""
""fullscreenenter"",""1"",""1094331""
","""event"",""trial"",""time""
""blur"",""1"",""1554""
""blur"",""1"",""6134""
","""event"",""trial"",""time""
""focus"",""1"",""5627""
""focus"",""1"",""1093340""
","""event"",""trial"",""time""
""fullscreenenter"",""1"",""1094331""
","
","","[{""page_index"":0,""viewing_time"":1028.7999999821186}]","1029","","","","","","","","","","","","","","","","","","","","","","","",""
"pit-comprehension","5","1112569","0.0-2.0-2.0-0.0","battery-v0.2","","""event"",""trial"",""time""
""blur"",""1"",""1554""
""focus"",""1"",""5627""
""blur"",""1"",""6134""
""focus"",""1"",""1093340""
""fullscreenenter"",""1"",""1094331""
","""event"",""trial"",""time""
""blur"",""1"",""1554""
""blur"",""1"",""6134""
","""event"",""trial"",""time""
""focus"",""1"",""5627""
""focus"",""1"",""1093340""
","""event"",""trial"",""time""
""fullscreenenter"",""1"",""1094331""
","
","","","2544.199999988079","[""tiger""]","0","17","10880","5202","","","","","","","","","","","","","","","","","","",""
"pit-instructions","6","1113343","0.0-2.0-2.0-1.0","battery-v0.2","","""event"",""trial"",""time""
""blur"",""1"",""1554""
""focus"",""1"",""5627""
""blur"",""1"",""6134""
""focus"",""1"",""1093340""
""fullscreenenter"",""1"",""1094331""
","""event"",""trial"",""time""
""blur"",""1"",""1554""
""blur"",""1"",""6134""
","""event"",""trial"",""time""
""focus"",""1"",""5627""
""focus"",""1"",""1093340""
","""event"",""trial"",""time""
""fullscreenenter"",""1"",""1094331""
","
","","[{""page_index"":0,""viewing_time"":771.1999999880791}]","771.4000000059605","","","","","","","","","","","","","","","","","","","","","","","",""
"pit-instructions","7","1232938","0.0-2.0-3.0","battery-v0.2","","""event"",""trial"",""time""
""blur"",""1"",""1554""
""focus"",""1"",""5627""
""blur"",""1"",""6134""
""focus"",""1"",""1093340""
""fullscreenenter"",""1"",""1094331""
","""event"",""trial"",""time""
""blur"",""1"",""1554""
""blur"",""1"",""6134""
","""event"",""trial"",""time""
""focus"",""1"",""5627""
""focus"",""1"",""1093340""
","""event"",""trial"",""time""
""fullscreenenter"",""1"",""1094331""
","
","","[{""page_index"":0,""viewing_time"":7420.5999999940395},{""page_index"":1,""viewing_time"":7162.300000011921},{""page_index"":2,""viewing_time"":12654.299999982119},{""page_index"":3,""viewing_time"":10426.90000000596},{""page_index"":4,""viewing_time"":15478.5},{""page_index"":5,""viewing_time"":5669.5},{""page_index"":6,""viewing_time"":6697.800000011921},{""page_index"":7,""viewing_time"":6475},{""page_index"":8,""viewing_time"":7295.0999999940395},{""page_index"":9,""viewing_time"":8734.300000011921},{""page_index"":10,""viewing_time"":8380},{""page_index"":11,""viewing_time"":11676},{""page_index"":12,""viewing_time"":6210.0999999940395},{""page_index"":13,""viewing_time"":5311.5}]","119592.80000001192","","","","","","","","","","","","","","","","","","","","","","","",""
"pit-trial","8","1236276","0.0-2.0-4.0-0.0","battery-v0.2","","""event"",""trial"",""time""
""blur"",""1"",""1554""
""focus"",""1"",""5627""
""blur"",""1"",""6134""
""focus"",""1"",""1093340""
""fullscreenenter"",""1"",""1094331""
","""event"",""trial"",""time""
""blur"",""1"",""1554""
""blur"",""1"",""6134""
","""event"",""trial"",""time""
""focus"",""1"",""5627""
""focus"",""1"",""1093340""
","""event"",""trial"",""time""
""fullscreenenter"",""1"",""1094331""
","
","","","466.69999998807907","","","17","10880","5202","&#9784;","elianto","#FFFFF080"," "," ","1","&#10004","[1318]","1","0","0","","","","","","","",""
"pit-trial","9","1239287","0.0-2.0-4.1-0.1","battery-v0.2","","""event"",""trial"",""time""
""blur"",""1"",""1554""
""focus"",""1"",""5627""
""blur"",""1"",""6134""
""focus"",""1"",""1093340""
""fullscreenenter"",""1"",""1094331""
","""event"",""trial"",""time""
""blur"",""1"",""1554""
""blur"",""1"",""6134""
","""event"",""trial"",""time""
""focus"",""1"",""5627""
""focus"",""1"",""1093340""
","""event"",""trial"",""time""
""fullscreenenter"",""1"",""1094331""
","
","","","140.5","","","17","10880","5202","&#9784;","elianto","#FFFFF080"," "," ","1","&#10004","[995.8000000119209]","1","0","0","","","","","","","",""
"pit-trial","10","1242264","0.0-2.0-4.2-0.2","battery-v0.2","","""event"",""trial"",""time""
""blur"",""1"",""1554""
""focus"",""1"",""5627""
""blur"",""1"",""6134""
""focus"",""1"",""1093340""
""fullscreenenter"",""1"",""1094331""
","""event"",""trial"",""time""
""blur"",""1"",""1554""
""blur"",""1"",""6134""
","""event"",""trial"",""time""
""focus"",""1"",""5627""
""focus"",""1"",""1093340""
","""event"",""trial"",""time""
""fullscreenenter"",""1"",""1094331""
","
","","","110.59999999403954","","","17","10880","5202","&#9784;","elianto","#FFFFF080"," "," ","1","&#10004","[963.7999999821186]","1","0","0","","","","","","","",""
"pit-trial","11","1245275","0.0-2.0-4.3-0.3","battery-v0.2","","""event"",""trial"",""time""
""blur"",""1"",""1554""
""focus"",""1"",""5627""
""blur"",""1"",""6134""
""focus"",""1"",""1093340""
""fullscreenenter"",""1"",""1094331""
","""event"",""trial"",""time""
""blur"",""1"",""1554""
""blur"",""1"",""6134""
","""event"",""trial"",""time""
""focus"",""1"",""5627""
""focus"",""1"",""1093340""
","""event"",""trial"",""time""
""fullscreenenter"",""1"",""1094331""
","
","","","152.80000001192093","","","17","10880","5202","&#9784;","elianto","#FFFFF080"," "," ","1","&#10004","[1003.2000000178814]","1","0","0","","","","","","","",""
"pit-trial","12","1248274","0.0-2.0-4.4-0.4","battery-v0.2","","""event"",""trial"",""time""
""blur"",""1"",""1554""
""focus"",""1"",""5627""
""blur"",""1"",""6134""
""focus"",""1"",""1093340""
""fullscreenenter"",""1"",""1094331""
","""event"",""trial"",""time""
""blur"",""1"",""1554""
""blur"",""1"",""6134""
","""event"",""trial"",""time""
""focus"",""1"",""5627""
""focus"",""1"",""1093340""
","""event"",""trial"",""time""
""fullscreenenter"",""1"",""1094331""
","
","","","128","","","17","10880","5202","&#9784;","elianto","#FFFFF080"," "," ","1","&#10004","[980.8000000119209]","1","0","0","","","","","","","",""
"pit-instructions","13","1268223","0.0-2.0-5.0","battery-v0.2","","""event"",""trial"",""time""
""blur"",""1"",""1554""
""focus"",""1"",""5627""
""blur"",""1"",""6134""
""focus"",""1"",""1093340""
""fullscreenenter"",""1"",""1094331""
","""event"",""trial"",""time""
""blur"",""1"",""1554""
""blur"",""1"",""6134""
","""event"",""trial"",""time""
""focus"",""1"",""5627""
""focus"",""1"",""1093340""
","""event"",""trial"",""time""
""fullscreenenter"",""1"",""1094331""
","
","","[{""page_index"":0,""viewing_time"":5090.300000011921},{""page_index"":1,""viewing_time"":5321.800000011921},{""page_index"":2,""viewing_time"":4301.199999988079},{""page_index"":3,""viewing_time"":5229.199999988079}]","19942.70000001788","","","","","","","","","","","","","","","","","","","","","","","",""
"pit-trial","14","1273087","0.0-2.0-6.0-0.0","battery-v0.2","","""event"",""trial"",""time""
""blur"",""1"",""1554""
""focus"",""1"",""5627""
""blur"",""1"",""6134""
""focus"",""1"",""1093340""
""fullscreenenter"",""1"",""1094331""
","""event"",""trial"",""time""
""blur"",""1"",""1554""
""blur"",""1"",""6134""
","""event"",""trial"",""time""
""focus"",""1"",""5627""
""focus"",""1"",""1093340""
","""event"",""trial"",""time""
""fullscreenenter"",""1"",""1094331""
","
","","","-1","","","17","10880","5202","&#9854;","elianto","#FFFFF080","-1","-1","1","&#10004","[]","0","0","1","","","","","","","",""
"pit-trial","15","1277948","0.0-2.0-6.1-0.1","battery-v0.2","","""event"",""trial"",""time""
""blur"",""1"",""1554""
""focus"",""1"",""5627""
""blur"",""1"",""6134""
""focus"",""1"",""1093340""
""fullscreenenter"",""1"",""1094331""
","""event"",""trial"",""time""
""blur"",""1"",""1554""
""blur"",""1"",""6134""
","""event"",""trial"",""time""
""focus"",""1"",""5627""
""focus"",""1"",""1093340""
","""event"",""trial"",""time""
""fullscreenenter"",""1"",""1094331""
","
","","","-1","","","17","10880","5202","&#9854;","elianto","#FFFFF080","-1","-1","1","&#10004","[]","0","0","1","","","","","","","",""
"pit-trial","16","1282809","0.0-2.0-6.2-0.2","battery-v0.2","","""event"",""trial"",""time""
""blur"",""1"",""1554""
""focus"",""1"",""5627""
""blur"",""1"",""6134""
""focus"",""1"",""1093340""
""fullscreenenter"",""1"",""1094331""
","""event"",""trial"",""time""
""blur"",""1"",""1554""
""blur"",""1"",""6134""
","""event"",""trial"",""time""
""focus"",""1"",""5627""
""focus"",""1"",""1093340""
","""event"",""trial"",""time""
""fullscreenenter"",""1"",""1094331""
","
","","","-1","","","17","10880","5202","&#9854;","elianto","#FFFFF080","-1","-1","1","&#10004","[]","0","0","1","","","","","","","",""
"pit-trial","17","1287683","0.0-2.0-6.3-0.3","battery-v0.2","","""event"",""trial"",""time""
""blur"",""1"",""1554""
""focus"",""1"",""5627""
""blur"",""1"",""6134""
""focus"",""1"",""1093340""
""fullscreenenter"",""1"",""1094331""
","""event"",""trial"",""time""
""blur"",""1"",""1554""
""blur"",""1"",""6134""
","""event"",""trial"",""time""
""focus"",""1"",""5627""
""focus"",""1"",""1093340""
","""event"",""trial"",""time""
""fullscreenenter"",""1"",""1094331""
","
","","","-1","","","17","10880","5202","&#9854;","elianto","#FFFFF080","-1","-1","1","&#10004","[]","0","0","1","","","","","","","",""
"pit-trial","18","1292548","0.0-2.0-6.4-0.4","battery-v0.2","","""event"",""trial"",""time""
""blur"",""1"",""1554""
""focus"",""1"",""5627""
""blur"",""1"",""6134""
""focus"",""1"",""1093340""
""fullscreenenter"",""1"",""1094331""
","""event"",""trial"",""time""
""blur"",""1"",""1554""
""blur"",""1"",""6134""
","""event"",""trial"",""time""
""focus"",""1"",""5627""
""focus"",""1"",""1093340""
","""event"",""trial"",""time""
""fullscreenenter"",""1"",""1094331""
","
","","","-1","","","17","10880","5202","&#9854;","elianto","#FFFFF080","-1","-1","1","&#10004","[]","0","0","1","","","","","","","",""
"pit-instructions","19","1421462","0.0-2.0-7.0","battery-v0.2","","""event"",""trial"",""time""
""blur"",""1"",""1554""
""focus"",""1"",""5627""
""blur"",""1"",""6134""
""focus"",""1"",""1093340""
""fullscreenenter"",""1"",""1094331""
","""event"",""trial"",""time""
""blur"",""1"",""1554""
""blur"",""1"",""6134""
","""event"",""trial"",""time""
""focus"",""1"",""5627""
""focus"",""1"",""1093340""
","""event"",""trial"",""time""
""fullscreenenter"",""1"",""1094331""
","
","","[{""page_index"":0,""viewing_time"":7712.700000017881},{""page_index"":1,""viewing_time"":21939.90000000596},{""page_index"":2,""viewing_time"":5783.5},{""page_index"":3,""viewing_time"":5686},{""page_index"":4,""viewing_time"":6276.199999988079},{""page_index"":5,""viewing_time"":5369.199999988079},{""page_index"":6,""viewing_time"":4113.9000000059605},{""page_index"":7,""viewing_time"":7303.300000011921},{""page_index"":8,""viewing_time"":6749.4000000059605},{""page_index"":9,""viewing_time"":6219.5999999940395},{""page_index"":10,""viewing_time"":6300.5999999940395},{""page_index"":11,""viewing_time"":4823.300000011921},{""page_index"":12,""viewing_time"":6778.799999982119},{""page_index"":13,""viewing_time"":6679.700000017881},{""page_index"":14,""viewing_time"":7293.399999976158},{""page_index"":15,""viewing_time"":6340.600000023842},{""page_index"":16,""viewing_time"":6492.5999999940395},{""page_index"":17,""viewing_time"":7046.199999988079}]","128909.10000002384","","","","","","","","","","","","","","","","","","","","","","","",""
"pit-trial","20","1425549","0.0-2.0-8.0-0.0","battery-v0.2","","""event"",""trial"",""time""
""blur"",""1"",""1554""
""focus"",""1"",""5627""
""blur"",""1"",""6134""
""focus"",""1"",""1093340""
""fullscreenenter"",""1"",""1094331""
","""event"",""trial"",""time""
""blur"",""1"",""1554""
""blur"",""1"",""6134""
","""event"",""trial"",""time""
""focus"",""1"",""5627""
""focus"",""1"",""1093340""
","""event"",""trial"",""time""
""fullscreenenter"",""1"",""1094331""
","
","","","1221.6000000238419","","","17","10880","5202","&#9776;","elianto","#3366ff99"," "," ","1","+10","[2075.2999999821186]","1","0","1","","","","","","","",""
"pit-trial","21","1429146","0.0-2.0-8.0-1.0","battery-v0.2","","""event"",""trial"",""time""
""blur"",""1"",""1554""
""focus"",""1"",""5627""
""blur"",""1"",""6134""
""focus"",""1"",""1093340""
""fullscreenenter"",""1"",""1094331""
","""event"",""trial"",""time""
""blur"",""1"",""1554""
""blur"",""1"",""6134""
","""event"",""trial"",""time""
""focus"",""1"",""5627""
""focus"",""1"",""1093340""
","""event"",""trial"",""time""
""fullscreenenter"",""1"",""1094331""
","
","","","737.9000000059605","","","17","10880","5202","&#9776;","elianto","#3366ff99"," "," ","1","+10","[1591.800000011921]","1","0","1","","","","","","","",""
"pit-trial","22","1432679","0.0-2.0-8.0-2.0","battery-v0.2","","""event"",""trial"",""time""
""blur"",""1"",""1554""
""focus"",""1"",""5627""
""blur"",""1"",""6134""
""focus"",""1"",""1093340""
""fullscreenenter"",""1"",""1094331""
","""event"",""trial"",""time""
""blur"",""1"",""1554""
""blur"",""1"",""6134""
","""event"",""trial"",""time""
""focus"",""1"",""5627""
""focus"",""1"",""1093340""
","""event"",""trial"",""time""
""fullscreenenter"",""1"",""1094331""
","
","","","663.8000000119209","","","17","10880","5202","&#9776;","elianto","#3366ff99"," "," ","1","+10","[1515.5]","1","0","1","","","","","","","",""
"pit-trial","23","1436203","0.0-2.0-8.0-3.0","battery-v0.2","","""event"",""trial"",""time""
""blur"",""1"",""1554""
""focus"",""1"",""5627""
""blur"",""1"",""6134""
""focus"",""1"",""1093340""
""fullscreenenter"",""1"",""1094331""
","""event"",""trial"",""time""
""blur"",""1"",""1554""
""blur"",""1"",""6134""
","""event"",""trial"",""time""
""focus"",""1"",""5627""
""focus"",""1"",""1093340""
","""event"",""trial"",""time""
""fullscreenenter"",""1"",""1094331""
","
","","","657.1000000238419","","","17","10880","5202","&#9776;","elianto","#3366ff99"," "," ","1","0","[1507.5]","1","0","1","","","","","","","",""
"pit-trial","24","1439527","0.0-2.0-8.0-4.0","battery-v0.2","","""event"",""trial"",""time""
""blur"",""1"",""1554""
""focus"",""1"",""5627""
""blur"",""1"",""6134""
""focus"",""1"",""1093340""
""fullscreenenter"",""1"",""1094331""
","""event"",""trial"",""time""
""blur"",""1"",""1554""
""blur"",""1"",""6134""
","""event"",""trial"",""time""
""focus"",""1"",""5627""
""focus"",""1"",""1093340""
","""event"",""trial"",""time""
""fullscreenenter"",""1"",""1094331""
","
","","","463.59999999403954","","","17","10880","5202","&#9776;","elianto","#3366ff99"," "," ","1","+10","[1316.199999988079]","1","0","1","","","","","","","",""
"pit-trial","25","1443037","0.0-2.0-8.1-0.1","battery-v0.2","","""event"",""trial"",""time""
""blur"",""1"",""1554""
""focus"",""1"",""5627""
""blur"",""1"",""6134""
""focus"",""1"",""1093340""
""fullscreenenter"",""1"",""1094331""
","""event"",""trial"",""time""
""blur"",""1"",""1554""
""blur"",""1"",""6134""
","""event"",""trial"",""time""
""focus"",""1"",""5627""
""focus"",""1"",""1093340""
","""event"",""trial"",""time""
""fullscreenenter"",""1"",""1094331""
","
","","","646.2000000178814","","","17","10880","5202","&#9776;","elianto","#3366ff99"," "," ","1","+10","[1499.4000000059605]","1","0","1","","","","","","","",""
"pit-trial","26","1446430","0.0-2.0-8.1-1.1","battery-v0.2","","""event"",""trial"",""time""
""blur"",""1"",""1554""
""focus"",""1"",""5627""
""blur"",""1"",""6134""
""focus"",""1"",""1093340""
""fullscreenenter"",""1"",""1094331""
","""event"",""trial"",""time""
""blur"",""1"",""1554""
""blur"",""1"",""6134""
","""event"",""trial"",""time""
""focus"",""1"",""5627""
""focus"",""1"",""1093340""
","""event"",""trial"",""time""
""fullscreenenter"",""1"",""1094331""
","
","","","530.7999999821186","","","17","10880","5202","&#9776;","elianto","#3366ff99"," "," ","1","+10","[1382.4000000059605]","1","0","1","","","","","","","",""
"pit-trial","27","1449931","0.0-2.0-8.1-2.1","battery-v0.2","","""event"",""trial"",""time""
""blur"",""1"",""1554""
""focus"",""1"",""5627""
""blur"",""1"",""6134""
""focus"",""1"",""1093340""
""fullscreenenter"",""1"",""1094331""
","""event"",""trial"",""time""
""blur"",""1"",""1554""
""blur"",""1"",""6134""
","""event"",""trial"",""time""
""focus"",""1"",""5627""
""focus"",""1"",""1093340""
","""event"",""trial"",""time""
""fullscreenenter"",""1"",""1094331""
","
","","","636.1999999880791","","","17","10880","5202","&#9776;","elianto","#3366ff99"," "," ","1","+10","[1488.699999988079]","1","0","1","","","","","","","",""
"pit-trial","28","1453285","0.0-2.0-8.1-3.1","battery-v0.2","","""event"",""trial"",""time""
""blur"",""1"",""1554""
""focus"",""1"",""5627""
""blur"",""1"",""6134""
""focus"",""1"",""1093340""
""fullscreenenter"",""1"",""1094331""
","""event"",""trial"",""time""
""blur"",""1"",""1554""
""blur"",""1"",""6134""
","""event"",""trial"",""time""
""focus"",""1"",""5627""
""focus"",""1"",""1093340""
","""event"",""trial"",""time""
""fullscreenenter"",""1"",""1094331""
","
","","","497.39999997615814","","","17","10880","5202","&#9776;","elianto","#3366ff99"," "," ","1","0","[1350.4000000059605]","1","0","1","","","","","","","",""
"pit-trial","29","1457166","0.0-2.0-8.1-4.1","battery-v0.2","","""event"",""trial"",""time""
""blur"",""1"",""1554""
""focus"",""1"",""5627""
""blur"",""1"",""6134""
""focus"",""1"",""1093340""
""fullscreenenter"",""1"",""1094331""
","""event"",""trial"",""time""
""blur"",""1"",""1554""
""blur"",""1"",""6134""
","""event"",""trial"",""time""
""focus"",""1"",""5627""
""focus"",""1"",""1093340""
","""event"",""trial"",""time""
""fullscreenenter"",""1"",""1094331""
","
","","","1026.300000011921","","","17","10880","5202","&#9776;","elianto","#3366ff99"," "," ","1","+10","[1876.199999988079]","1","0","1","","","","","","","",""
"pit-trial","30","1460552","0.0-2.0-8.2-0.2","battery-v0.2","","""event"",""trial"",""time""
""blur"",""1"",""1554""
""focus"",""1"",""5627""
""blur"",""1"",""6134""
""focus"",""1"",""1093340""
""fullscreenenter"",""1"",""1094331""
","""event"",""trial"",""time""
""blur"",""1"",""1554""
""blur"",""1"",""6134""
","""event"",""trial"",""time""
""focus"",""1"",""5627""
""focus"",""1"",""1093340""
","""event"",""trial"",""time""
""fullscreenenter"",""1"",""1094331""
","
","","","530.5999999940395","","","17","10880","5202","&#9776;","elianto","#3366ff99"," "," ","1","+10","[1381.199999988079]","1","0","1","","","","","","","",""
"pit-trial","31","1463709","0.0-2.0-8.2-1.2","battery-v0.2","","""event"",""trial"",""time""
""blur"",""1"",""1554""
""focus"",""1"",""5627""
""blur"",""1"",""6134""
""focus"",""1"",""1093340""
""fullscreenenter"",""1"",""1094331""
","""event"",""trial"",""time""
""blur"",""1"",""1554""
""blur"",""1"",""6134""
","""event"",""trial"",""time""
""focus"",""1"",""5627""
""focus"",""1"",""1093340""
","""event"",""trial"",""time""
""fullscreenenter"",""1"",""1094331""
","
","","","302.5","","","17","10880","5202","&#9776;","elianto","#3366ff99"," "," ","1","+10","[1153.4000000059605]","1","0","1","","","","","","","",""
"pit-trial","32","1468564","0.0-2.0-8.2-2.2","battery-v0.2","","""event"",""trial"",""time""
""blur"",""1"",""1554""
""focus"",""1"",""5627""
""blur"",""1"",""6134""
""focus"",""1"",""1093340""
""fullscreenenter"",""1"",""1094331""
","""event"",""trial"",""time""
""blur"",""1"",""1554""
""blur"",""1"",""6134""
","""event"",""trial"",""time""
""focus"",""1"",""5627""
""focus"",""1"",""1093340""
","""event"",""trial"",""time""
""fullscreenenter"",""1"",""1094331""
","
","","","-1","","","17","10880","5202","&#9776;","elianto","#3366ff99"," ","-1","0","0","[]","0","0","1","","","","","","","",""
"pit-trial","33","1471809","0.0-2.0-8.2-3.2","battery-v0.2","","""event"",""trial"",""time""
""blur"",""1"",""1554""
""focus"",""1"",""5627""
""blur"",""1"",""6134""
""focus"",""1"",""1093340""
""fullscreenenter"",""1"",""1094331""
","""event"",""trial"",""time""
""blur"",""1"",""1554""
""blur"",""1"",""6134""
","""event"",""trial"",""time""
""focus"",""1"",""5627""
""focus"",""1"",""1093340""
","""event"",""trial"",""time""
""fullscreenenter"",""1"",""1094331""
","
","","","391.2000000178814","","","17","10880","5202","&#9776;","elianto","#3366ff99"," "," ","1","0","[1241.5]","1","0","1","","","","","","","",""
"pit-trial","34","1474943","0.0-2.0-8.2-4.2","battery-v0.2","","""event"",""trial"",""time""
""blur"",""1"",""1554""
""focus"",""1"",""5627""
""blur"",""1"",""6134""
""focus"",""1"",""1093340""
""fullscreenenter"",""1"",""1094331""
","""event"",""trial"",""time""
""blur"",""1"",""1554""
""blur"",""1"",""6134""
","""event"",""trial"",""time""
""focus"",""1"",""5627""
""focus"",""1"",""1093340""
","""event"",""trial"",""time""
""fullscreenenter"",""1"",""1094331""
","
","","","280.5","","","17","10880","5202","&#9776;","elianto","#3366ff99"," "," ","1","+10","[1131.199999988079]","1","0","1","","","","","","","",""
"call-function","35","1474947","0.0-2.0-9.0","battery-v0.2","","""event"",""trial"",""time""
""blur"",""1"",""1554""
""focus"",""1"",""5627""
""blur"",""1"",""6134""
""focus"",""1"",""1093340""
""fullscreenenter"",""1"",""1094331""
","""event"",""trial"",""time""
""blur"",""1"",""1554""
""blur"",""1"",""6134""
","""event"",""trial"",""time""
""focus"",""1"",""5627""
""focus"",""1"",""1093340""
","""event"",""trial"",""time""
""fullscreenenter"",""1"",""1094331""
","
","","","","","","","","","","","","","","","","","","","","","","","","","","",""
"pit-instructions","36","1514907","0.0-2.0-10.0","battery-v0.2","","""event"",""trial"",""time""
""blur"",""1"",""1554""
""focus"",""1"",""5627""
""blur"",""1"",""6134""
""focus"",""1"",""1093340""
""fullscreenenter"",""1"",""1094331""
","""event"",""trial"",""time""
""blur"",""1"",""1554""
""blur"",""1"",""6134""
","""event"",""trial"",""time""
""focus"",""1"",""5627""
""focus"",""1"",""1093340""
","""event"",""trial"",""time""
""fullscreenenter"",""1"",""1094331""
","
","","[{""page_index"":0,""viewing_time"":6426.399999976158},{""page_index"":1,""viewing_time"":7812},{""page_index"":2,""viewing_time"":9327.100000023842},{""page_index"":3,""viewing_time"":9213.199999988079},{""page_index"":4,""viewing_time"":7179.800000011921}]","39958.79999998212","","","","","","","","","","","","","","","","","","","","","","","",""
"pit-trial","37","1518389","0.0-2.0-11.0-0.0","battery-v0.2","","""event"",""trial"",""time""
""blur"",""1"",""1554""
""focus"",""1"",""5627""
""blur"",""1"",""6134""
""focus"",""1"",""1093340""
""fullscreenenter"",""1"",""1094331""
","""event"",""trial"",""time""
""blur"",""1"",""1554""
""blur"",""1"",""6134""
","""event"",""trial"",""time""
""focus"",""1"",""5627""
""focus"",""1"",""1093340""
","""event"",""trial"",""time""
""fullscreenenter"",""1"",""1094331""
","
","","","617.3999999761581","","","17","10880","5202","&#9761;","elianto","#3366ff99","-1"," ","0","0","[1468]","1","0","2","","","","","","","",""
"pit-trial","38","1523258","0.0-2.0-11.0-1.0","battery-v0.2","","""event"",""trial"",""time""
""blur"",""1"",""1554""
""focus"",""1"",""5627""
""blur"",""1"",""6134""
""focus"",""1"",""1093340""
""fullscreenenter"",""1"",""1094331""
","""event"",""trial"",""time""
""blur"",""1"",""1554""
""blur"",""1"",""6134""
","""event"",""trial"",""time""
""focus"",""1"",""5627""
""focus"",""1"",""1093340""
","""event"",""trial"",""time""
""fullscreenenter"",""1"",""1094331""
","
","","","-1","","","17","10880","5202","&#9761;","elianto","#3366ff99","-1","-1","1","+10","[3473.199999988079,3858.2999999821186]","2","0","2","","","","","","","",""
"pit-trial","39","1526302","0.0-2.0-11.0-2.0","battery-v0.2","","""event"",""trial"",""time""
""blur"",""1"",""1554""
""focus"",""1"",""5627""
""blur"",""1"",""6134""
""focus"",""1"",""1093340""
""fullscreenenter"",""1"",""1094331""
","""event"",""trial"",""time""
""blur"",""1"",""1554""
""blur"",""1"",""6134""
","""event"",""trial"",""time""
""focus"",""1"",""5627""
""focus"",""1"",""1093340""
","""event"",""trial"",""time""
""fullscreenenter"",""1"",""1094331""
","
","","","189.59999999403954","","","17","10880","5202","&#9761;","elianto","#3366ff99","-1"," ","0","0","[1041.2000000178814]","1","0","2","","","","","","","",""
"pit-trial","40","1529308","0.0-2.0-11.0-3.0","battery-v0.2","","""event"",""trial"",""time""
""blur"",""1"",""1554""
""focus"",""1"",""5627""
""blur"",""1"",""6134""
""focus"",""1"",""1093340""
""fullscreenenter"",""1"",""1094331""
","""event"",""trial"",""time""
""blur"",""1"",""1554""
""blur"",""1"",""6134""
","""event"",""trial"",""time""
""focus"",""1"",""5627""
""focus"",""1"",""1093340""
","""event"",""trial"",""time""
""fullscreenenter"",""1"",""1094331""
","
","","","149.19999998807907","","","17","10880","5202","&#9761;","elianto","#3366ff99","-1"," ","0","+10","[999.5999999940395]","1","0","2","","","","","","","",""
"pit-trial","41","1532270","0.0-2.0-11.0-4.0","battery-v0.2","","""event"",""trial"",""time""
""blur"",""1"",""1554""
""focus"",""1"",""5627""
""blur"",""1"",""6134""
""focus"",""1"",""1093340""
""fullscreenenter"",""1"",""1094331""
","""event"",""trial"",""time""
""blur"",""1"",""1554""
""blur"",""1"",""6134""
","""event"",""trial"",""time""
""focus"",""1"",""5627""
""focus"",""1"",""1093340""
","""event"",""trial"",""time""
""fullscreenenter"",""1"",""1094331""
","
","","","103.2999999821186","","","17","10880","5202","&#9761;","elianto","#3366ff99","-1"," ","0","0","[954.5999999940395]","1","0","2","","","","","","","",""
"pit-trial","42","1535202","0.0-2.0-11.1-0.1","battery-v0.2","","""event"",""trial"",""time""
""blur"",""1"",""1554""
""focus"",""1"",""5627""
""blur"",""1"",""6134""
""focus"",""1"",""1093340""
""fullscreenenter"",""1"",""1094331""
","""event"",""trial"",""time""
""blur"",""1"",""1554""
""blur"",""1"",""6134""
","""event"",""trial"",""time""
""focus"",""1"",""5627""
""focus"",""1"",""1093340""
","""event"",""trial"",""time""
""fullscreenenter"",""1"",""1094331""
","
","","","70.5","","","17","10880","5202","&#9761;","elianto","#3366ff99","-1"," ","0","0","[921.0999999940395]","1","0","2","","","","","","","",""
"pit-trial","43","1538195","0.0-2.0-11.1-1.1","battery-v0.2","","""event"",""trial"",""time""
""blur"",""1"",""1554""
""focus"",""1"",""5627""
""blur"",""1"",""6134""
""focus"",""1"",""1093340""
""fullscreenenter"",""1"",""1094331""
","""event"",""trial"",""time""
""blur"",""1"",""1554""
""blur"",""1"",""6134""
","""event"",""trial"",""time""
""focus"",""1"",""5627""
""focus"",""1"",""1093340""
","""event"",""trial"",""time""
""fullscreenenter"",""1"",""1094331""
","
","","","133.2000000178814","","","17","10880","5202","&#9761;","elianto","#3366ff99","-1"," ","0","0","[985.2000000178814]","1","0","2","","","","","","","",""
"pit-trial","44","1541190","0.0-2.0-11.1-2.1","battery-v0.2","","""event"",""trial"",""time""
""blur"",""1"",""1554""
""focus"",""1"",""5627""
""blur"",""1"",""6134""
""focus"",""1"",""1093340""
""fullscreenenter"",""1"",""1094331""
","""event"",""trial"",""time""
""blur"",""1"",""1554""
""blur"",""1"",""6134""
","""event"",""trial"",""time""
""focus"",""1"",""5627""
""focus"",""1"",""1093340""
","""event"",""trial"",""time""
""fullscreenenter"",""1"",""1094331""
","
","","","127.69999998807907","","","17","10880","5202","&#9761;","elianto","#3366ff99","-1"," ","0","0","[980.5999999940395]","1","0","2","","","","","","","",""
"pit-trial","45","1546057","0.0-2.0-11.1-3.1","battery-v0.2","","""event"",""trial"",""time""
""blur"",""1"",""1554""
""focus"",""1"",""5627""
""blur"",""1"",""6134""
""focus"",""1"",""1093340""
""fullscreenenter"",""1"",""1094331""
","""event"",""trial"",""time""
""blur"",""1"",""1554""
""blur"",""1"",""6134""
","""event"",""trial"",""time""
""focus"",""1"",""5627""
""focus"",""1"",""1093340""
","""event"",""trial"",""time""
""fullscreenenter"",""1"",""1094331""
","
","","","-1","","","17","10880","5202","&#9761;","elianto","#3366ff99","-1","-1","1","0","[]","0","0","2","","","","","","","",""
"pit-trial","46","1550914","0.0-2.0-11.1-4.1","battery-v0.2","","""event"",""trial"",""time""
""blur"",""1"",""1554""
""focus"",""1"",""5627""
""blur"",""1"",""6134""
""focus"",""1"",""1093340""
""fullscreenenter"",""1"",""1094331""
","""event"",""trial"",""time""
""blur"",""1"",""1554""
""blur"",""1"",""6134""
","""event"",""trial"",""time""
""focus"",""1"",""5627""
""focus"",""1"",""1093340""
","""event"",""trial"",""time""
""fullscreenenter"",""1"",""1094331""
","
","","","-1","","","17","10880","5202","&#9761;","elianto","#3366ff99","-1","-1","1","+10","[]","0","0","2","","","","","","","",""
"pit-trial","47","1553937","0.0-2.0-11.2-0.2","battery-v0.2","","""event"",""trial"",""time""
""blur"",""1"",""1554""
""focus"",""1"",""5627""
""blur"",""1"",""6134""
""focus"",""1"",""1093340""
""fullscreenenter"",""1"",""1094331""
","""event"",""trial"",""time""
""blur"",""1"",""1554""
""blur"",""1"",""6134""
","""event"",""trial"",""time""
""focus"",""1"",""5627""
""focus"",""1"",""1093340""
","""event"",""trial"",""time""
""fullscreenenter"",""1"",""1094331""
","
","","","165.39999997615814","","","17","10880","5202","&#9761;","elianto","#3366ff99","-1"," ","0","0","[1016.8999999761581]","1","0","2","","","","","","","",""
"pit-trial","48","1556928","0.0-2.0-11.2-1.2","battery-v0.2","","""event"",""trial"",""time""
""blur"",""1"",""1554""
""focus"",""1"",""5627""
""blur"",""1"",""6134""
""focus"",""1"",""1093340""
""fullscreenenter"",""1"",""1094331""
","""event"",""trial"",""time""
""blur"",""1"",""1554""
""blur"",""1"",""6134""
","""event"",""trial"",""time""
""focus"",""1"",""5627""
""focus"",""1"",""1093340""
","""event"",""trial"",""time""
""fullscreenenter"",""1"",""1094331""
","
","","","135.40000000596046","","","17","10880","5202","&#9761;","elianto","#3366ff99","-1"," ","0","0","[986.2000000178814]","1","0","2","","","","","","","",""
"pit-trial","49","1559915","0.0-2.0-11.2-2.2","battery-v0.2","","""event"",""trial"",""time""
""blur"",""1"",""1554""
""focus"",""1"",""5627""
""blur"",""1"",""6134""
""focus"",""1"",""1093340""
""fullscreenenter"",""1"",""1094331""
","""event"",""trial"",""time""
""blur"",""1"",""1554""
""blur"",""1"",""6134""
","""event"",""trial"",""time""
""focus"",""1"",""5627""
""focus"",""1"",""1093340""
","""event"",""trial"",""time""
""fullscreenenter"",""1"",""1094331""
","
","","","132.90000000596046","","","17","10880","5202","&#9761;","elianto","#3366ff99","-1"," ","0","0","[983.0999999940395]","1","0","2","","","","","","","",""
"pit-trial","50","1562812","0.0-2.0-11.2-3.2","battery-v0.2","","""event"",""trial"",""time""
""blur"",""1"",""1554""
""focus"",""1"",""5627""
""blur"",""1"",""6134""
""focus"",""1"",""1093340""
""fullscreenenter"",""1"",""1094331""
","""event"",""trial"",""time""
""blur"",""1"",""1554""
""blur"",""1"",""6134""
","""event"",""trial"",""time""
""focus"",""1"",""5627""
""focus"",""1"",""1093340""
","""event"",""trial"",""time""
""fullscreenenter"",""1"",""1094331""
","
","","","43.69999998807907","","","17","10880","5202","&#9761;","elianto","#3366ff99","-1"," ","0","+10","[895.2999999821186]","1","0","2","","","","","","","",""
"pit-trial","51","1565760","0.0-2.0-11.2-4.2","battery-v0.2","","""event"",""trial"",""time""
""blur"",""1"",""1554""
""focus"",""1"",""5627""
""blur"",""1"",""6134""
""focus"",""1"",""1093340""
""fullscreenenter"",""1"",""1094331""
","""event"",""trial"",""time""
""blur"",""1"",""1554""
""blur"",""1"",""6134""
","""event"",""trial"",""time""
""focus"",""1"",""5627""
""focus"",""1"",""1093340""
","""event"",""trial"",""time""
""fullscreenenter"",""1"",""1094331""
","
","","","94.7000000178814","","","17","10880","5202","&#9761;","elianto","#3366ff99","-1"," ","0","0","[944.8000000119209]","1","0","2","","","","","","","",""
"pit-trial","52","1568728","0.0-2.0-11.3-0.3","battery-v0.2","","""event"",""trial"",""time""
""blur"",""1"",""1554""
""focus"",""1"",""5627""
""blur"",""1"",""6134""
""focus"",""1"",""1093340""
""fullscreenenter"",""1"",""1094331""
","""event"",""trial"",""time""
""blur"",""1"",""1554""
""blur"",""1"",""6134""
","""event"",""trial"",""time""
""focus"",""1"",""5627""
""focus"",""1"",""1093340""
","""event"",""trial"",""time""
""fullscreenenter"",""1"",""1094331""
","
","","","112.10000002384186","","","17","10880","5202","&#9761;","elianto","#3366ff99","-1"," ","0","0","[962.5]","1","0","2","","","","","","","",""
"pit-trial","53","1571849","0.0-2.0-11.3-1.3","battery-v0.2","","""event"",""trial"",""time""
""blur"",""1"",""1554""
""focus"",""1"",""5627""
""blur"",""1"",""6134""
""focus"",""1"",""1093340""
""fullscreenenter"",""1"",""1094331""
","""event"",""trial"",""time""
""blur"",""1"",""1554""
""blur"",""1"",""6134""
","""event"",""trial"",""time""
""focus"",""1"",""5627""
""focus"",""1"",""1093340""
","""event"",""trial"",""time""
""fullscreenenter"",""1"",""1094331""
","
","","","269.30000001192093","","","17","10880","5202","&#9761;","elianto","#3366ff99","-1"," ","0","0","[1119.2999999821186]","1","0","2","","","","","","","",""
"pit-trial","54","1576704","0.0-2.0-11.3-2.3","battery-v0.2","","""event"",""trial"",""time""
""blur"",""1"",""1554""
""focus"",""1"",""5627""
""blur"",""1"",""6134""
""focus"",""1"",""1093340""
""fullscreenenter"",""1"",""1094331""
","""event"",""trial"",""time""
""blur"",""1"",""1554""
""blur"",""1"",""6134""
","""event"",""trial"",""time""
""focus"",""1"",""5627""
""focus"",""1"",""1093340""
","""event"",""trial"",""time""
""fullscreenenter"",""1"",""1094331""
","
","","","-1","","","17","10880","5202","&#9761;","elianto","#3366ff99","-1","-1","1","+10","[]","0","0","2","","","","","","","",""
"pit-trial","55","1579694","0.0-2.0-11.3-3.3","battery-v0.2","","""event"",""trial"",""time""
""blur"",""1"",""1554""
""focus"",""1"",""5627""
""blur"",""1"",""6134""
""focus"",""1"",""1093340""
""fullscreenenter"",""1"",""1094331""
","""event"",""trial"",""time""
""blur"",""1"",""1554""
""blur"",""1"",""6134""
","""event"",""trial"",""time""
""focus"",""1"",""5627""
""focus"",""1"",""1093340""
","""event"",""trial"",""time""
""fullscreenenter"",""1"",""1094331""
","
","","","136.19999998807907","","","17","10880","5202","&#9761;","elianto","#3366ff99","-1"," ","0","+10","[986.8000000119209]","1","0","2","","","","","","","",""
"pit-trial","56","1582646","0.0-2.0-11.3-4.3","battery-v0.2","","""event"",""trial"",""time""
""blur"",""1"",""1554""
""focus"",""1"",""5627""
""blur"",""1"",""6134""
""focus"",""1"",""1093340""
""fullscreenenter"",""1"",""1094331""
","""event"",""trial"",""time""
""blur"",""1"",""1554""
""blur"",""1"",""6134""
","""event"",""trial"",""time""
""focus"",""1"",""5627""
""focus"",""1"",""1093340""
","""event"",""trial"",""time""
""fullscreenenter"",""1"",""1094331""
","
","","","96.69999998807907","","","17","10880","5202","&#9761;","elianto","#3366ff99","-1"," ","0","0","[947.9000000059605]","1","0","2","","","","","","","",""
"call-function","57","1582650","0.0-2.0-12.0","battery-v0.2","","""event"",""trial"",""time""
""blur"",""1"",""1554""
""focus"",""1"",""5627""
""blur"",""1"",""6134""
""focus"",""1"",""1093340""
""fullscreenenter"",""1"",""1094331""
","""event"",""trial"",""time""
""blur"",""1"",""1554""
""blur"",""1"",""6134""
","""event"",""trial"",""time""
""focus"",""1"",""5627""
""focus"",""1"",""1093340""
","""event"",""trial"",""time""
""fullscreenenter"",""1"",""1094331""
","
","","","","","","","","","","","","","","","","","","","","","","","","","","",""
"pit-instructions","58","1617420","0.0-2.0-13.0","battery-v0.2","","""event"",""trial"",""time""
""blur"",""1"",""1554""
""focus"",""1"",""5627""
""blur"",""1"",""6134""
""focus"",""1"",""1093340""
""fullscreenenter"",""1"",""1094331""
","""event"",""trial"",""time""
""blur"",""1"",""1554""
""blur"",""1"",""6134""
","""event"",""trial"",""time""
""focus"",""1"",""5627""
""focus"",""1"",""1093340""
","""event"",""trial"",""time""
""fullscreenenter"",""1"",""1094331""
","
","","[{""page_index"":0,""viewing_time"":4454.9000000059605},{""page_index"":1,""viewing_time"":6544.899999976158},{""page_index"":2,""viewing_time"":3906.5},{""page_index"":3,""viewing_time"":10966.700000017881},{""page_index"":4,""viewing_time"":8896.799999982119}]","34770","","","","","","","","","","","","","","","","","","","","","","","",""
"pit-trial","59","1622114","0.0-2.0-14.0-0.0","battery-v0.2","","""event"",""trial"",""time""
""blur"",""1"",""1554""
""focus"",""1"",""5627""
""blur"",""1"",""6134""
""focus"",""1"",""1093340""
""fullscreenenter"",""1"",""1094331""
","""event"",""trial"",""time""
""blur"",""1"",""1554""
""blur"",""1"",""6134""
","""event"",""trial"",""time""
""focus"",""1"",""5627""
""focus"",""1"",""1093340""
","""event"",""trial"",""time""
""fullscreenenter"",""1"",""1094331""
","
","","","1822.800000011921","","","17","10880","5202","&#9826;","elianto","#f73b6a7A","-1"," ","0","-10","[2676.4000000059605]","1","0","3","","","","","","","",""
"pit-trial","60","1626983","0.0-2.0-14.0-1.0","battery-v0.2","","""event"",""trial"",""time""
""blur"",""1"",""1554""
""focus"",""1"",""5627""
""blur"",""1"",""6134""
""focus"",""1"",""1093340""
""fullscreenenter"",""1"",""1094331""
","""event"",""trial"",""time""
""blur"",""1"",""1554""
""blur"",""1"",""6134""
","""event"",""trial"",""time""
""focus"",""1"",""5627""
""focus"",""1"",""1093340""
","""event"",""trial"",""time""
""fullscreenenter"",""1"",""1094331""
","
","","","-1","","","17","10880","5202","&#9826;","elianto","#f73b6a7A","-1","-1","1","0","[]","0","0","3","","","","","","","",""
"pit-trial","61","1631855","0.0-2.0-14.0-2.0","battery-v0.2","","""event"",""trial"",""time""
""blur"",""1"",""1554""
""focus"",""1"",""5627""
""blur"",""1"",""6134""
""focus"",""1"",""1093340""
""fullscreenenter"",""1"",""1094331""
","""event"",""trial"",""time""
""blur"",""1"",""1554""
""blur"",""1"",""6134""
","""event"",""trial"",""time""
""focus"",""1"",""5627""
""focus"",""1"",""1093340""
","""event"",""trial"",""time""
""fullscreenenter"",""1"",""1094331""
","
","","","-1","","","17","10880","5202","&#9826;","elianto","#f73b6a7A","-1","-1","1","0","[]","0","0","3","","","","","","","",""
"pit-trial","62","1636081","0.0-2.0-14.0-3.0","battery-v0.2","","""event"",""trial"",""time""
""blur"",""1"",""1554""
""focus"",""1"",""5627""
""blur"",""1"",""6134""
""focus"",""1"",""1093340""
""fullscreenenter"",""1"",""1094331""
","""event"",""trial"",""time""
""blur"",""1"",""1554""
""blur"",""1"",""6134""
","""event"",""trial"",""time""
""focus"",""1"",""5627""
""focus"",""1"",""1093340""
","""event"",""trial"",""time""
""fullscreenenter"",""1"",""1094331""
","
","","","1355.5","","","17","10880","5202","&#9826;","elianto","#f73b6a7A","-1"," ","0","0","[2207.5]","1","0","3","","","","","","","",""
"pit-trial","63","1640956","0.0-2.0-14.0-4.0","battery-v0.2","","""event"",""trial"",""time""
""blur"",""1"",""1554""
""focus"",""1"",""5627""
""blur"",""1"",""6134""
""focus"",""1"",""1093340""
""fullscreenenter"",""1"",""1094331""
","""event"",""trial"",""time""
""blur"",""1"",""1554""
""blur"",""1"",""6134""
","""event"",""trial"",""time""
""focus"",""1"",""5627""
""focus"",""1"",""1093340""
","""event"",""trial"",""time""
""fullscreenenter"",""1"",""1094331""
","
","","","-1","","","17","10880","5202","&#9826;","elianto","#f73b6a7A","-1","-1","1","0","[]","0","0","3","","","","","","","",""
"pit-trial","64","1645814","0.0-2.0-14.1-0.1","battery-v0.2","","""event"",""trial"",""time""
""blur"",""1"",""1554""
""focus"",""1"",""5627""
""blur"",""1"",""6134""
""focus"",""1"",""1093340""
""fullscreenenter"",""1"",""1094331""
","""event"",""trial"",""time""
""blur"",""1"",""1554""
""blur"",""1"",""6134""
","""event"",""trial"",""time""
""focus"",""1"",""5627""
""focus"",""1"",""1093340""
","""event"",""trial"",""time""
""fullscreenenter"",""1"",""1094331""
","
","","","-1","","","17","10880","5202","&#9826;","elianto","#f73b6a7A","-1","-1","1","0","[]","0","0","3","","","","","","","",""
"pit-trial","65","1650670","0.0-2.0-14.1-1.1","battery-v0.2","","""event"",""trial"",""time""
""blur"",""1"",""1554""
""focus"",""1"",""5627""
""blur"",""1"",""6134""
""focus"",""1"",""1093340""
""fullscreenenter"",""1"",""1094331""
","""event"",""trial"",""time""
""blur"",""1"",""1554""
""blur"",""1"",""6134""
","""event"",""trial"",""time""
""focus"",""1"",""5627""
""focus"",""1"",""1093340""
","""event"",""trial"",""time""
""fullscreenenter"",""1"",""1094331""
","
","","","-1","","","17","10880","5202","&#9826;","elianto","#f73b6a7A","-1","-1","1","0","[]","0","0","3","","","","","","","",""
"pit-trial","66","1655525","0.0-2.0-14.1-2.1","battery-v0.2","","""event"",""trial"",""time""
""blur"",""1"",""1554""
""focus"",""1"",""5627""
""blur"",""1"",""6134""
""focus"",""1"",""1093340""
""fullscreenenter"",""1"",""1094331""
","""event"",""trial"",""time""
""blur"",""1"",""1554""
""blur"",""1"",""6134""
","""event"",""trial"",""time""
""focus"",""1"",""5627""
""focus"",""1"",""1093340""
","""event"",""trial"",""time""
""fullscreenenter"",""1"",""1094331""
","
","","","-1","","","17","10880","5202","&#9826;","elianto","#f73b6a7A","-1","-1","1","0","[]","0","0","3","","","","","","","",""
"pit-trial","67","1660391","0.0-2.0-14.1-3.1","battery-v0.2","","""event"",""trial"",""time""
""blur"",""1"",""1554""
""focus"",""1"",""5627""
""blur"",""1"",""6134""
""focus"",""1"",""1093340""
""fullscreenenter"",""1"",""1094331""
","""event"",""trial"",""time""
""blur"",""1"",""1554""
""blur"",""1"",""6134""
","""event"",""trial"",""time""
""focus"",""1"",""5627""
""focus"",""1"",""1093340""
","""event"",""trial"",""time""
""fullscreenenter"",""1"",""1094331""
","
","","","-1","","","17","10880","5202","&#9826;","elianto","#f73b6a7A","-1","-1","1","-10","[]","0","0","3","","","","","","","",""
"pit-trial","68","1665247","0.0-2.0-14.1-4.1","battery-v0.2","","""event"",""trial"",""time""
""blur"",""1"",""1554""
""focus"",""1"",""5627""
""blur"",""1"",""6134""
""focus"",""1"",""1093340""
""fullscreenenter"",""1"",""1094331""
","""event"",""trial"",""time""
""blur"",""1"",""1554""
""blur"",""1"",""6134""
","""event"",""trial"",""time""
""focus"",""1"",""5627""
""focus"",""1"",""1093340""
","""event"",""trial"",""time""
""fullscreenenter"",""1"",""1094331""
","
","","","-1","","","17","10880","5202","&#9826;","elianto","#f73b6a7A","-1","-1","1","0","[]","0","0","3","","","","","","","",""
"pit-trial","69","1670104","0.0-2.0-14.2-0.2","battery-v0.2","","""event"",""trial"",""time""
""blur"",""1"",""1554""
""focus"",""1"",""5627""
""blur"",""1"",""6134""
""focus"",""1"",""1093340""
""fullscreenenter"",""1"",""1094331""
","""event"",""trial"",""time""
""blur"",""1"",""1554""
""blur"",""1"",""6134""
","""event"",""trial"",""time""
""focus"",""1"",""5627""
""focus"",""1"",""1093340""
","""event"",""trial"",""time""
""fullscreenenter"",""1"",""1094331""
","
","","","-1","","","17","10880","5202","&#9826;","elianto","#f73b6a7A","-1","-1","1","0","[]","0","0","3","","","","","","","",""
"pit-trial","70","1673274","0.0-2.0-14.2-1.2","battery-v0.2","","""event"",""trial"",""time""
""blur"",""1"",""1554""
""focus"",""1"",""5627""
""blur"",""1"",""6134""
""focus"",""1"",""1093340""
""fullscreenenter"",""1"",""1094331""
","""event"",""trial"",""time""
""blur"",""1"",""1554""
""blur"",""1"",""6134""
","""event"",""trial"",""time""
""focus"",""1"",""5627""
""focus"",""1"",""1093340""
","""event"",""trial"",""time""
""fullscreenenter"",""1"",""1094331""
","
","","","316.80000001192093","","","17","10880","5202","&#9826;","elianto","#f73b6a7A","-1"," ","0","-10","[1167.0999999940395]","1","0","3","","","","","","","",""
"pit-trial","71","1676243","0.0-2.0-14.2-2.2","battery-v0.2","","""event"",""trial"",""time""
""blur"",""1"",""1554""
""focus"",""1"",""5627""
""blur"",""1"",""6134""
""focus"",""1"",""1093340""
""fullscreenenter"",""1"",""1094331""
","""event"",""trial"",""time""
""blur"",""1"",""1554""
""blur"",""1"",""6134""
","""event"",""trial"",""time""
""focus"",""1"",""5627""
""focus"",""1"",""1093340""
","""event"",""trial"",""time""
""fullscreenenter"",""1"",""1094331""
","
","","","113","","","17","10880","5202","&#9826;","elianto","#f73b6a7A","-1"," ","0","-10","[963.3000000119209]","1","0","3","","","","","","","",""
"pit-trial","72","1679214","0.0-2.0-14.2-3.2","battery-v0.2","","""event"",""trial"",""time""
""blur"",""1"",""1554""
""focus"",""1"",""5627""
""blur"",""1"",""6134""
""focus"",""1"",""1093340""
""fullscreenenter"",""1"",""1094331""
","""event"",""trial"",""time""
""blur"",""1"",""1554""
""blur"",""1"",""6134""
","""event"",""trial"",""time""
""focus"",""1"",""5627""
""focus"",""1"",""1093340""
","""event"",""trial"",""time""
""fullscreenenter"",""1"",""1094331""
","
","","","116.7999999821186","","","17","10880","5202","&#9826;","elianto","#f73b6a7A","-1"," ","0","0","[966.7999999821186]","1","0","3","","","","","","","",""
"pit-trial","73","1683719","0.0-2.0-14.2-4.2","battery-v0.2","","""event"",""trial"",""time""
""blur"",""1"",""1554""
""focus"",""1"",""5627""
""blur"",""1"",""6134""
""focus"",""1"",""1093340""
""fullscreenenter"",""1"",""1094331""
","""event"",""trial"",""time""
""blur"",""1"",""1554""
""blur"",""1"",""6134""
","""event"",""trial"",""time""
""focus"",""1"",""5627""
""focus"",""1"",""1093340""
","""event"",""trial"",""time""
""fullscreenenter"",""1"",""1094331""
","
","","","1649.800000011921","","","17","10880","5202","&#9826;","elianto","#f73b6a7A","-1"," ","0","-10","[2500.7000000178814]","1","0","3","","","","","","","",""
"pit-trial","74","1686747","0.0-2.0-14.3-0.3","battery-v0.2","","""event"",""trial"",""time""
""blur"",""1"",""1554""
""focus"",""1"",""5627""
""blur"",""1"",""6134""
""focus"",""1"",""1093340""
""fullscreenenter"",""1"",""1094331""
","""event"",""trial"",""time""
""blur"",""1"",""1554""
""blur"",""1"",""6134""
","""event"",""trial"",""time""
""focus"",""1"",""5627""
""focus"",""1"",""1093340""
","""event"",""trial"",""time""
""fullscreenenter"",""1"",""1094331""
","
","","","172.80000001192093","","","17","10880","5202","&#9826;","elianto","#f73b6a7A","-1"," ","0","-10","[1023.6999999880791]","1","0","3","","","","","","","",""
"pit-trial","75","1689671","0.0-2.0-14.3-1.3","battery-v0.2","","""event"",""trial"",""time""
""blur"",""1"",""1554""
""focus"",""1"",""5627""
""blur"",""1"",""6134""
""focus"",""1"",""1093340""
""fullscreenenter"",""1"",""1094331""
","""event"",""trial"",""time""
""blur"",""1"",""1554""
""blur"",""1"",""6134""
","""event"",""trial"",""time""
""focus"",""1"",""5627""
""focus"",""1"",""1093340""
","""event"",""trial"",""time""
""fullscreenenter"",""1"",""1094331""
","
","","","71","","","17","10880","5202","&#9826;","elianto","#f73b6a7A","-1"," ","0","-10","[921.4000000059605]","1","0","3","","","","","","","",""
"pit-trial","76","1692651","0.0-2.0-14.3-2.3","battery-v0.2","","""event"",""trial"",""time""
""blur"",""1"",""1554""
""focus"",""1"",""5627""
""blur"",""1"",""6134""
""focus"",""1"",""1093340""
""fullscreenenter"",""1"",""1094331""
","""event"",""trial"",""time""
""blur"",""1"",""1554""
""blur"",""1"",""6134""
","""event"",""trial"",""time""
""focus"",""1"",""5627""
""focus"",""1"",""1093340""
","""event"",""trial"",""time""
""fullscreenenter"",""1"",""1094331""
","
","","","123.7000000178814","","","17","10880","5202","&#9826;","elianto","#f73b6a7A","-1"," ","0","-10","[974.2000000178814]","1","0","3","","","","","","","",""
"pit-trial","77","1697159","0.0-2.0-14.3-3.3","battery-v0.2","","""event"",""trial"",""time""
""blur"",""1"",""1554""
""focus"",""1"",""5627""
""blur"",""1"",""6134""
""focus"",""1"",""1093340""
""fullscreenenter"",""1"",""1094331""
","""event"",""trial"",""time""
""blur"",""1"",""1554""
""blur"",""1"",""6134""
","""event"",""trial"",""time""
""focus"",""1"",""5627""
""focus"",""1"",""1093340""
","""event"",""trial"",""time""
""fullscreenenter"",""1"",""1094331""
","
","","","1651.199999988079","","","17","10880","5202","&#9826;","elianto","#f73b6a7A","-1"," ","0","0","[197,2503.0999999940395,4452.299999982119]","3","0","3","","","","","","","",""
"pit-trial","78","1700911","0.0-2.0-14.3-4.3","battery-v0.2","","""event"",""trial"",""time""
""blur"",""1"",""1554""
""focus"",""1"",""5627""
""blur"",""1"",""6134""
""focus"",""1"",""1093340""
""fullscreenenter"",""1"",""1094331""
","""event"",""trial"",""time""
""blur"",""1"",""1554""
""blur"",""1"",""6134""
","""event"",""trial"",""time""
""focus"",""1"",""5627""
""focus"",""1"",""1093340""
","""event"",""trial"",""time""
""fullscreenenter"",""1"",""1094331""
","
","","","896.5","","","17","10880","5202","&#9826;","elianto","#f73b6a7A","-1"," ","0","-10","[138.5,1747.300000011921,1993.4000000059605]","3","0","3","","","","","","","",""
"call-function","79","1700915","0.0-2.0-15.0","battery-v0.2","","""event"",""trial"",""time""
""blur"",""1"",""1554""
""focus"",""1"",""5627""
""blur"",""1"",""6134""
""focus"",""1"",""1093340""
""fullscreenenter"",""1"",""1094331""
","""event"",""trial"",""time""
""blur"",""1"",""1554""
""blur"",""1"",""6134""
","""event"",""trial"",""time""
""focus"",""1"",""5627""
""focus"",""1"",""1093340""
","""event"",""trial"",""time""
""fullscreenenter"",""1"",""1094331""
","
","","","","","","","","","","","","","","","","","","","","","","","","","","",""
"pit-instructions","80","1724968","0.0-2.0-16.0","battery-v0.2","","""event"",""trial"",""time""
""blur"",""1"",""1554""
""focus"",""1"",""5627""
""blur"",""1"",""6134""
""focus"",""1"",""1093340""
""fullscreenenter"",""1"",""1094331""
","""event"",""trial"",""time""
""blur"",""1"",""1554""
""blur"",""1"",""6134""
","""event"",""trial"",""time""
""focus"",""1"",""5627""
""focus"",""1"",""1093340""
","""event"",""trial"",""time""
""fullscreenenter"",""1"",""1094331""
","
","","[{""page_index"":0,""viewing_time"":6535.4000000059605},{""page_index"":1,""viewing_time"":8894.899999976158},{""page_index"":2,""viewing_time"":4328},{""page_index"":3,""viewing_time"":4294.200000017881}]","24052.69999998808","","","","","","","","","","","","","","","","","","","","","","","",""
"pit-trial","81","1728714","0.0-2.0-17.0-0.0","battery-v0.2","","""event"",""trial"",""time""
""blur"",""1"",""1554""
""focus"",""1"",""5627""
""blur"",""1"",""6134""
""focus"",""1"",""1093340""
""fullscreenenter"",""1"",""1094331""
","""event"",""trial"",""time""
""blur"",""1"",""1554""
""blur"",""1"",""6134""
","""event"",""trial"",""time""
""focus"",""1"",""5627""
""focus"",""1"",""1093340""
","""event"",""trial"",""time""
""fullscreenenter"",""1"",""1094331""
","
","","","890.2000000178814","","","17","10880","5202","&#9789;","elianto","#f73b6a7A"," "," ","1","0","[1741.0999999940395]","1","0","4","","","","","","","",""
"pit-trial","82","1731815","0.0-2.0-17.0-1.0","battery-v0.2","","""event"",""trial"",""time""
""blur"",""1"",""1554""
""focus"",""1"",""5627""
""blur"",""1"",""6134""
""focus"",""1"",""1093340""
""fullscreenenter"",""1"",""1094331""
","""event"",""trial"",""time""
""blur"",""1"",""1554""
""blur"",""1"",""6134""
","""event"",""trial"",""time""
""focus"",""1"",""5627""
""focus"",""1"",""1093340""
","""event"",""trial"",""time""
""fullscreenenter"",""1"",""1094331""
","
","","","234.90000000596046","","","17","10880","5202","&#9789;","elianto","#f73b6a7A"," "," ","1","0","[1085.2000000178814]","1","0","4","","","","","","","",""
"pit-trial","83","1734809","0.0-2.0-17.0-2.0","battery-v0.2","","""event"",""trial"",""time""
""blur"",""1"",""1554""
""focus"",""1"",""5627""
""blur"",""1"",""6134""
""focus"",""1"",""1093340""
""fullscreenenter"",""1"",""1094331""
","""event"",""trial"",""time""
""blur"",""1"",""1554""
""blur"",""1"",""6134""
","""event"",""trial"",""time""
""focus"",""1"",""5627""
""focus"",""1"",""1093340""
","""event"",""trial"",""time""
""fullscreenenter"",""1"",""1094331""
","
","","","127.60000002384186","","","17","10880","5202","&#9789;","elianto","#f73b6a7A"," "," ","1","0","[981.0999999940395]","1","0","4","","","","","","","",""
"pit-trial","84","1738007","0.0-2.0-17.0-3.0","battery-v0.2","","""event"",""trial"",""time""
""blur"",""1"",""1554""
""focus"",""1"",""5627""
""blur"",""1"",""6134""
""focus"",""1"",""1093340""
""fullscreenenter"",""1"",""1094331""
","""event"",""trial"",""time""
""blur"",""1"",""1554""
""blur"",""1"",""6134""
","""event"",""trial"",""time""
""focus"",""1"",""5627""
""focus"",""1"",""1093340""
","""event"",""trial"",""time""
""fullscreenenter"",""1"",""1094331""
","
","","","338.7999999821186","","","17","10880","5202","&#9789;","elianto","#f73b6a7A"," "," ","1","-10","[1192.5999999940395]","1","0","4","","","","","","","",""
"pit-trial","85","1741471","0.0-2.0-17.0-4.0","battery-v0.2","","""event"",""trial"",""time""
""blur"",""1"",""1554""
""focus"",""1"",""5627""
""blur"",""1"",""6134""
""focus"",""1"",""1093340""
""fullscreenenter"",""1"",""1094331""
","""event"",""trial"",""time""
""blur"",""1"",""1554""
""blur"",""1"",""6134""
","""event"",""trial"",""time""
""focus"",""1"",""5627""
""focus"",""1"",""1093340""
","""event"",""trial"",""time""
""fullscreenenter"",""1"",""1094331""
","
","","","605.3999999761581","","","17","10880","5202","&#9789;","elianto","#f73b6a7A"," "," ","1","0","[1456.199999988079]","1","0","4","","","","","","","",""
"pit-trial","86","1744497","0.0-2.0-17.1-0.1","battery-v0.2","","""event"",""trial"",""time""
""blur"",""1"",""1554""
""focus"",""1"",""5627""
""blur"",""1"",""6134""
""focus"",""1"",""1093340""
""fullscreenenter"",""1"",""1094331""
","""event"",""trial"",""time""
""blur"",""1"",""1554""
""blur"",""1"",""6134""
","""event"",""trial"",""time""
""focus"",""1"",""5627""
""focus"",""1"",""1093340""
","""event"",""trial"",""time""
""fullscreenenter"",""1"",""1094331""
","
","","","155.39999997615814","","","17","10880","5202","&#9789;","elianto","#f73b6a7A"," "," ","1","0","[1010.0999999940395]","1","0","4","","","","","","","",""
"pit-trial","87","1747412","0.0-2.0-17.1-1.1","battery-v0.2","","""event"",""trial"",""time""
""blur"",""1"",""1554""
""focus"",""1"",""5627""
""blur"",""1"",""6134""
""focus"",""1"",""1093340""
""fullscreenenter"",""1"",""1094331""
","""event"",""trial"",""time""
""blur"",""1"",""1554""
""blur"",""1"",""6134""
","""event"",""trial"",""time""
""focus"",""1"",""5627""
""focus"",""1"",""1093340""
","""event"",""trial"",""time""
""fullscreenenter"",""1"",""1094331""
","
","","","62","","","17","10880","5202","&#9789;","elianto","#f73b6a7A"," "," ","1","0","[912.5999999940395]","1","0","4","","","","","","","",""
"pit-trial","88","1750375","0.0-2.0-17.1-2.1","battery-v0.2","","""event"",""trial"",""time""
""blur"",""1"",""1554""
""focus"",""1"",""5627""
""blur"",""1"",""6134""
""focus"",""1"",""1093340""
""fullscreenenter"",""1"",""1094331""
","""event"",""trial"",""time""
""blur"",""1"",""1554""
""blur"",""1"",""6134""
","""event"",""trial"",""time""
""focus"",""1"",""5627""
""focus"",""1"",""1093340""
","""event"",""trial"",""time""
""fullscreenenter"",""1"",""1094331""
","
","","","105.40000000596046","","","17","10880","5202","&#9789;","elianto","#f73b6a7A"," "," ","1","0","[959]","1","0","4","","","","","","","",""
"pit-trial","89","1753355","0.0-2.0-17.1-3.1","battery-v0.2","","""event"",""trial"",""time""
""blur"",""1"",""1554""
""focus"",""1"",""5627""
""blur"",""1"",""6134""
""focus"",""1"",""1093340""
""fullscreenenter"",""1"",""1094331""
","""event"",""trial"",""time""
""blur"",""1"",""1554""
""blur"",""1"",""6134""
","""event"",""trial"",""time""
""focus"",""1"",""5627""
""focus"",""1"",""1093340""
","""event"",""trial"",""time""
""fullscreenenter"",""1"",""1094331""
","
","","","114.19999998807907","","","17","10880","5202","&#9789;","elianto","#f73b6a7A"," "," ","1","-10","[964.1999999880791]","1","0","4","","","","","","","",""
"pit-trial","90","1756370","0.0-2.0-17.1-4.1","battery-v0.2","","""event"",""trial"",""time""
""blur"",""1"",""1554""
""focus"",""1"",""5627""
""blur"",""1"",""6134""
""focus"",""1"",""1093340""
""fullscreenenter"",""1"",""1094331""
","""event"",""trial"",""time""
""blur"",""1"",""1554""
""blur"",""1"",""6134""
","""event"",""trial"",""time""
""focus"",""1"",""5627""
""focus"",""1"",""1093340""
","""event"",""trial"",""time""
""fullscreenenter"",""1"",""1094331""
","
","","","154.7000000178814","","","17","10880","5202","&#9789;","elianto","#f73b6a7A"," "," ","1","0","[1009.6999999880791]","1","0","4","","","","","","","",""
"pit-trial","91","1759382","0.0-2.0-17.2-0.2","battery-v0.2","","""event"",""trial"",""time""
""blur"",""1"",""1554""
""focus"",""1"",""5627""
""blur"",""1"",""6134""
""focus"",""1"",""1093340""
""fullscreenenter"",""1"",""1094331""
","""event"",""trial"",""time""
""blur"",""1"",""1554""
""blur"",""1"",""6134""
","""event"",""trial"",""time""
""focus"",""1"",""5627""
""focus"",""1"",""1093340""
","""event"",""trial"",""time""
""fullscreenenter"",""1"",""1094331""
","
","","","154.40000000596046","","","17","10880","5202","&#9789;","elianto","#f73b6a7A"," "," ","1","0","[1005.4000000059605]","1","0","4","","","","","","","",""
"pit-trial","92","1762419","0.0-2.0-17.2-1.2","battery-v0.2","","""event"",""trial"",""time""
""blur"",""1"",""1554""
""focus"",""1"",""5627""
""blur"",""1"",""6134""
""focus"",""1"",""1093340""
""fullscreenenter"",""1"",""1094331""
","""event"",""trial"",""time""
""blur"",""1"",""1554""
""blur"",""1"",""6134""
","""event"",""trial"",""time""
""focus"",""1"",""5627""
""focus"",""1"",""1093340""
","""event"",""trial"",""time""
""fullscreenenter"",""1"",""1094331""
","
","","","183.5","","","17","10880","5202","&#9789;","elianto","#f73b6a7A"," "," ","1","0","[1033.5999999940395]","1","0","4","","","","","","","",""
"pit-trial","93","1765530","0.0-2.0-17.2-2.2","battery-v0.2","","""event"",""trial"",""time""
""blur"",""1"",""1554""
""focus"",""1"",""5627""
""blur"",""1"",""6134""
""focus"",""1"",""1093340""
""fullscreenenter"",""1"",""1094331""
","""event"",""trial"",""time""
""blur"",""1"",""1554""
""blur"",""1"",""6134""
","""event"",""trial"",""time""
""focus"",""1"",""5627""
""focus"",""1"",""1093340""
","""event"",""trial"",""time""
""fullscreenenter"",""1"",""1094331""
","
","","","257.2999999821186","","","17","10880","5202","&#9789;","elianto","#f73b6a7A"," "," ","1","0","[1107.699999988079]","1","0","4","","","","","","","",""
"pit-trial","94","1768566","0.0-2.0-17.2-3.2","battery-v0.2","","""event"",""trial"",""time""
""blur"",""1"",""1554""
""focus"",""1"",""5627""
""blur"",""1"",""6134""
""focus"",""1"",""1093340""
""fullscreenenter"",""1"",""1094331""
","""event"",""trial"",""time""
""blur"",""1"",""1554""
""blur"",""1"",""6134""
","""event"",""trial"",""time""
""focus"",""1"",""5627""
""focus"",""1"",""1093340""
","""event"",""trial"",""time""
""fullscreenenter"",""1"",""1094331""
","
","","","180.40000000596046","","","17","10880","5202","&#9789;","elianto","#f73b6a7A"," "," ","1","-10","[1032]","1","0","4","","","","","","","",""
"pit-trial","95","1773433","0.0-2.0-17.2-4.2","battery-v0.2","","""event"",""trial"",""time""
""blur"",""1"",""1554""
""focus"",""1"",""5627""
""blur"",""1"",""6134""
""focus"",""1"",""1093340""
""fullscreenenter"",""1"",""1094331""
","""event"",""trial"",""time""
""blur"",""1"",""1554""
""blur"",""1"",""6134""
","""event"",""trial"",""time""
""focus"",""1"",""5627""
""focus"",""1"",""1093340""
","""event"",""trial"",""time""
""fullscreenenter"",""1"",""1094331""
","
","","","-1","","","17","10880","5202","&#9789;","elianto","#f73b6a7A"," ","-1","0","-10","[844.1999999880791]","1","0","4","","","","","","","",""
"pit-trial","96","1776608","0.0-2.0-17.3-0.3","battery-v0.2","","""event"",""trial"",""time""
""blur"",""1"",""1554""
""focus"",""1"",""5627""
""blur"",""1"",""6134""
""focus"",""1"",""1093340""
""fullscreenenter"",""1"",""1094331""
","""event"",""trial"",""time""
""blur"",""1"",""1554""
""blur"",""1"",""6134""
","""event"",""trial"",""time""
""focus"",""1"",""5627""
""focus"",""1"",""1093340""
","""event"",""trial"",""time""
""fullscreenenter"",""1"",""1094331""
","
","","","317.80000001192093","","","17","10880","5202","&#9789;","elianto","#f73b6a7A"," "," ","1","0","[334.69999998807907,1168]","2","0","4","","","","","","","",""
"pit-trial","97","1779610","0.0-2.0-17.3-1.3","battery-v0.2","","""event"",""trial"",""time""
""blur"",""1"",""1554""
""focus"",""1"",""5627""
""blur"",""1"",""6134""
""focus"",""1"",""1093340""
""fullscreenenter"",""1"",""1094331""
","""event"",""trial"",""time""
""blur"",""1"",""1554""
""blur"",""1"",""6134""
","""event"",""trial"",""time""
""focus"",""1"",""5627""
""focus"",""1"",""1093340""
","""event"",""trial"",""time""
""fullscreenenter"",""1"",""1094331""
","
","","","146.40000000596046","","","17","10880","5202","&#9789;","elianto","#f73b6a7A"," "," ","1","0","[997.2999999821186]","1","0","4","","","","","","","",""
"pit-trial","98","1782702","0.0-2.0-17.3-2.3","battery-v0.2","","""event"",""trial"",""time""
""blur"",""1"",""1554""
""focus"",""1"",""5627""
""blur"",""1"",""6134""
""focus"",""1"",""1093340""
""fullscreenenter"",""1"",""1094331""
","""event"",""trial"",""time""
""blur"",""1"",""1554""
""blur"",""1"",""6134""
","""event"",""trial"",""time""
""focus"",""1"",""5627""
""focus"",""1"",""1093340""
","""event"",""trial"",""time""
""fullscreenenter"",""1"",""1094331""
","
","","","238.10000002384186","","","17","10880","5202","&#9789;","elianto","#f73b6a7A"," "," ","1","0","[1088.699999988079]","1","0","4","","","","","","","",""
"pit-trial","99","1785786","0.0-2.0-17.3-3.3","battery-v0.2","","""event"",""trial"",""time""
""blur"",""1"",""1554""
""focus"",""1"",""5627""
""blur"",""1"",""6134""
""focus"",""1"",""1093340""
""fullscreenenter"",""1"",""1094331""
","""event"",""trial"",""time""
""blur"",""1"",""1554""
""blur"",""1"",""6134""
","""event"",""trial"",""time""
""focus"",""1"",""5627""
""focus"",""1"",""1093340""
","""event"",""trial"",""time""
""fullscreenenter"",""1"",""1094331""
","
","","","229.30000001192093","","","17","10880","5202","&#9789;","elianto","#f73b6a7A"," "," ","1","-10","[1079.699999988079]","1","0","4","","","","","","","",""
"pit-trial","100","1788845","0.0-2.0-17.3-4.3","battery-v0.2","","""event"",""trial"",""time""
""blur"",""1"",""1554""
""focus"",""1"",""5627""
""blur"",""1"",""6134""
""focus"",""1"",""1093340""
""fullscreenenter"",""1"",""1094331""
","""event"",""trial"",""time""
""blur"",""1"",""1554""
""blur"",""1"",""6134""
","""event"",""trial"",""time""
""focus"",""1"",""5627""
""focus"",""1"",""1093340""
","""event"",""trial"",""time""
""fullscreenenter"",""1"",""1094331""
","
","","","204","","","17","10880","5202","&#9789;","elianto","#f73b6a7A"," "," ","1","0","[1054.7000000178814]","1","0","4","","","","","","","",""
"call-function","101","1788849","0.0-2.0-18.0","battery-v0.2","","""event"",""trial"",""time""
""blur"",""1"",""1554""
""focus"",""1"",""5627""
""blur"",""1"",""6134""
""focus"",""1"",""1093340""
""fullscreenenter"",""1"",""1094331""
","""event"",""trial"",""time""
""blur"",""1"",""1554""
""blur"",""1"",""6134""
","""event"",""trial"",""time""
""focus"",""1"",""5627""
""focus"",""1"",""1093340""
","""event"",""trial"",""time""
""fullscreenenter"",""1"",""1094331""
","
","","","","","","","","","","","","","","","","","","","","","","","","","","",""
"pit-instructions","102","1879477","0.0-2.0-19.0","battery-v0.2","","""event"",""trial"",""time""
""blur"",""1"",""1554""
""focus"",""1"",""5627""
""blur"",""1"",""6134""
""focus"",""1"",""1093340""
""fullscreenenter"",""1"",""1094331""
","""event"",""trial"",""time""
""blur"",""1"",""1554""
""blur"",""1"",""6134""
","""event"",""trial"",""time""
""focus"",""1"",""5627""
""focus"",""1"",""1093340""
","""event"",""trial"",""time""
""fullscreenenter"",""1"",""1094331""
","
","","[{""page_index"":0,""viewing_time"":7380.5},{""page_index"":1,""viewing_time"":6103},{""page_index"":2,""viewing_time"":8787.700000017881},{""page_index"":3,""viewing_time"":10880.09999999404},{""page_index"":2,""viewing_time"":8212.800000011921},{""page_index"":3,""viewing_time"":4028.5},{""page_index"":4,""viewing_time"":3293.0999999940395},{""page_index"":3,""viewing_time"":9548},{""page_index"":4,""viewing_time"":7835.699999988079},{""page_index"":5,""viewing_time"":8062.800000011921},{""page_index"":6,""viewing_time"":8273.59999999404},{""page_index"":7,""viewing_time"":5033.4000000059605},{""page_index"":8,""viewing_time"":3187}]","90626.40000000596","","","","","","","","","","","","","","","","","","","","","","","",""
"pit-comprehension","103","1885002","0.0-2.0-20.0-0.0","battery-v0.2","","""event"",""trial"",""time""
""blur"",""1"",""1554""
""focus"",""1"",""5627""
""blur"",""1"",""6134""
""focus"",""1"",""1093340""
""fullscreenenter"",""1"",""1094331""
","""event"",""trial"",""time""
""blur"",""1"",""1554""
""blur"",""1"",""6134""
","""event"",""trial"",""time""
""focus"",""1"",""5627""
""focus"",""1"",""1093340""
","""event"",""trial"",""time""
""fullscreenenter"",""1"",""1094331""
","
","","","5522.199999988079","[""SPACE""]","0","17","10880","5202","","","","","","","","","","","","","","","","","","",""
"pit-instructions","104","1887494","0.0-2.0-20.0-1.0","battery-v0.2","","""event"",""trial"",""time""
""blur"",""1"",""1554""
""focus"",""1"",""5627""
""blur"",""1"",""6134""
""focus"",""1"",""1093340""
""fullscreenenter"",""1"",""1094331""
","""event"",""trial"",""time""
""blur"",""1"",""1554""
""blur"",""1"",""6134""
","""event"",""trial"",""time""
""focus"",""1"",""5627""
""focus"",""1"",""1093340""
","""event"",""trial"",""time""
""fullscreenenter"",""1"",""1094331""
","
","","[{""page_index"":0,""viewing_time"":2469.800000011921}]","2470","","","","","","","","","","","","","","","","","","","","","","","",""
"pit-comprehension","105","1892483","0.0-2.0-21.0-0.0","battery-v0.2","","""event"",""trial"",""time""
""blur"",""1"",""1554""
""focus"",""1"",""5627""
""blur"",""1"",""6134""
""focus"",""1"",""1093340""
""fullscreenenter"",""1"",""1094331""
","""event"",""trial"",""time""
""blur"",""1"",""1554""
""blur"",""1"",""6134""
","""event"",""trial"",""time""
""focus"",""1"",""5627""
""focus"",""1"",""1093340""
","""event"",""trial"",""time""
""fullscreenenter"",""1"",""1094331""
","
","","","4986","[""10""]","0","17","10880","5202","","","","","","","","","","","","","","","","","","",""
"pit-instructions","106","1894038","0.0-2.0-21.0-1.0","battery-v0.2","","""event"",""trial"",""time""
""blur"",""1"",""1554""
""focus"",""1"",""5627""
""blur"",""1"",""6134""
""focus"",""1"",""1093340""
""fullscreenenter"",""1"",""1094331""
","""event"",""trial"",""time""
""blur"",""1"",""1554""
""blur"",""1"",""6134""
","""event"",""trial"",""time""
""focus"",""1"",""5627""
""focus"",""1"",""1093340""
","""event"",""trial"",""time""
""fullscreenenter"",""1"",""1094331""
","
","","[{""page_index"":0,""viewing_time"":1534.9000000059605}]","1535.0999999940395","","","","","","","","","","","","","","","","","","","","","","","",""
"pit-comprehension","107","1910320","0.0-2.0-22.0-0.0","battery-v0.2","","""event"",""trial"",""time""
""blur"",""1"",""1554""
""focus"",""1"",""5627""
""blur"",""1"",""6134""
""focus"",""1"",""1093340""
""fullscreenenter"",""1"",""1094331""
","""event"",""trial"",""time""
""blur"",""1"",""1554""
""blur"",""1"",""6134""
","""event"",""trial"",""time""
""focus"",""1"",""5627""
""focus"",""1"",""1093340""
","""event"",""trial"",""time""
""fullscreenenter"",""1"",""1094331""
","
","","","16280.300000011921","[""0""]","0","17","10880","5202","","","","","","","","","","","","","","","","","","",""
"pit-instructions","108","1913070","0.0-2.0-22.0-1.0","battery-v0.2","","""event"",""trial"",""time""
""blur"",""1"",""1554""
""focus"",""1"",""5627""
""blur"",""1"",""6134""
""focus"",""1"",""1093340""
""fullscreenenter"",""1"",""1094331""
","""event"",""trial"",""time""
""blur"",""1"",""1554""
""blur"",""1"",""6134""
","""event"",""trial"",""time""
""focus"",""1"",""5627""
""focus"",""1"",""1093340""
","""event"",""trial"",""time""
""fullscreenenter"",""1"",""1094331""
","
","","[{""page_index"":0,""viewing_time"":2728.5}]","2728.699999988079","","","","","","","","","","","","","","","","","","","","","","","",""
"pit-comprehension","109","1926916","0.0-2.0-23.0-0.0","battery-v0.2","","""event"",""trial"",""time""
""blur"",""1"",""1554""
""focus"",""1"",""5627""
""blur"",""1"",""6134""
""focus"",""1"",""1093340""
""fullscreenenter"",""1"",""1094331""
","""event"",""trial"",""time""
""blur"",""1"",""1554""
""blur"",""1"",""6134""
","""event"",""trial"",""time""
""focus"",""1"",""5627""
""focus"",""1"",""1093340""
","""event"",""trial"",""time""
""fullscreenenter"",""1"",""1094331""
","
","","","13844.5","[""False""]","1","17","10880","5202","","","","","","","","","","","","","","","","","","",""
"pit-instructions","110","1935394","0.0-2.0-23.0-1.0","battery-v0.2","","""event"",""trial"",""time""
""blur"",""1"",""1554""
""focus"",""1"",""5627""
""blur"",""1"",""6134""
""focus"",""1"",""1093340""
""fullscreenenter"",""1"",""1094331""
","""event"",""trial"",""time""
""blur"",""1"",""1554""
""blur"",""1"",""6134""
","""event"",""trial"",""time""
""focus"",""1"",""5627""
""focus"",""1"",""1093340""
","""event"",""trial"",""time""
""fullscreenenter"",""1"",""1094331""
","
","","[{""page_index"":0,""viewing_time"":8453.90000000596}]","8454.09999999404","","","","","","","","","","","","","","","","","","","","","","","",""
"pit-instructions","111","1936741","0.0-2.0-23.0-2.0-0.0","battery-v0.2","","""event"",""trial"",""time""
""blur"",""1"",""1554""
""focus"",""1"",""5627""
""blur"",""1"",""6134""
""focus"",""1"",""1093340""
""fullscreenenter"",""1"",""1094331""
","""event"",""trial"",""time""
""blur"",""1"",""1554""
""blur"",""1"",""6134""
","""event"",""trial"",""time""
""focus"",""1"",""5627""
""focus"",""1"",""1093340""
","""event"",""trial"",""time""
""fullscreenenter"",""1"",""1094331""
","
","","[{""page_index"":0,""viewing_time"":1345.800000011921}]","1345.9000000059605","","","","","","","","","","","","","","","","","","","","","","","",""
"pit-comprehension","112","1945220","0.0-2.0-23.1-0.1","battery-v0.2","","""event"",""trial"",""time""
""blur"",""1"",""1554""
""focus"",""1"",""5627""
""blur"",""1"",""6134""
""focus"",""1"",""1093340""
""fullscreenenter"",""1"",""1094331""
","""event"",""trial"",""time""
""blur"",""1"",""1554""
""blur"",""1"",""6134""
","""event"",""trial"",""time""
""focus"",""1"",""5627""
""focus"",""1"",""1093340""
","""event"",""trial"",""time""
""fullscreenenter"",""1"",""1094331""
","
","","","8477.200000017881","[""True""]","0","17","10880","5202","","","","","","","","","","","","","","","","","","",""
"pit-instructions","113","1946825","0.0-2.0-23.1-1.1","battery-v0.2","","""event"",""trial"",""time""
""blur"",""1"",""1554""
""focus"",""1"",""5627""
""blur"",""1"",""6134""
""focus"",""1"",""1093340""
""fullscreenenter"",""1"",""1094331""
","""event"",""trial"",""time""
""blur"",""1"",""1554""
""blur"",""1"",""6134""
","""event"",""trial"",""time""
""focus"",""1"",""5627""
""focus"",""1"",""1093340""
","""event"",""trial"",""time""
""fullscreenenter"",""1"",""1094331""
","
","","[{""page_index"":0,""viewing_time"":1581.6000000238419}]","1581.800000011921","","","","","","","","","","","","","","","","","","","","","","","",""
"pit-comprehension","114","1956125","0.0-2.0-24.0-0.0","battery-v0.2","","""event"",""trial"",""time""
""blur"",""1"",""1554""
""focus"",""1"",""5627""
""blur"",""1"",""6134""
""focus"",""1"",""1093340""
""fullscreenenter"",""1"",""1094331""
","""event"",""trial"",""time""
""blur"",""1"",""1554""
""blur"",""1"",""6134""
","""event"",""trial"",""time""
""focus"",""1"",""5627""
""focus"",""1"",""1093340""
","""event"",""trial"",""time""
""fullscreenenter"",""1"",""1094331""
","
","","","9298","[""True""]","0","17","10880","5202","","","","","","","","","","","","","","","","","","",""
"pit-instructions","115","1957652","0.0-2.0-24.0-1.0","battery-v0.2","","""event"",""trial"",""time""
""blur"",""1"",""1554""
""focus"",""1"",""5627""
""blur"",""1"",""6134""
""focus"",""1"",""1093340""
""fullscreenenter"",""1"",""1094331""
","""event"",""trial"",""time""
""blur"",""1"",""1554""
""blur"",""1"",""6134""
","""event"",""trial"",""time""
""focus"",""1"",""5627""
""focus"",""1"",""1093340""
","""event"",""trial"",""time""
""fullscreenenter"",""1"",""1094331""
","
","","[{""page_index"":0,""viewing_time"":1505.2999999821186}]","1505.5","","","","","","","","","","","","","","","","","","","","","","","",""
"pit-comprehension","116","1963774","0.0-2.0-25.0-0.0","battery-v0.2","","""event"",""trial"",""time""
""blur"",""1"",""1554""
""focus"",""1"",""5627""
""blur"",""1"",""6134""
""focus"",""1"",""1093340""
""fullscreenenter"",""1"",""1094331""
","""event"",""trial"",""time""
""blur"",""1"",""1554""
""blur"",""1"",""6134""
","""event"",""trial"",""time""
""focus"",""1"",""5627""
""focus"",""1"",""1093340""
","""event"",""trial"",""time""
""fullscreenenter"",""1"",""1094331""
","
","","","6119.700000017881","[""True""]","0","17","10880","5202","","","","","","","","","","","","","","","","","","",""
"pit-instructions","117","1965260","0.0-2.0-25.0-1.0","battery-v0.2","","""event"",""trial"",""time""
""blur"",""1"",""1554""
""focus"",""1"",""5627""
""blur"",""1"",""6134""
""focus"",""1"",""1093340""
""fullscreenenter"",""1"",""1094331""
","""event"",""trial"",""time""
""blur"",""1"",""1554""
""blur"",""1"",""6134""
","""event"",""trial"",""time""
""focus"",""1"",""5627""
""focus"",""1"",""1093340""
","""event"",""trial"",""time""
""fullscreenenter"",""1"",""1094331""
","
","","[{""page_index"":0,""viewing_time"":1464.9000000059605}]","1465.199999988079","","","","","","","","","","","","","","","","","","","","","","","",""
"pit-comprehension","118","1972697","0.0-2.0-26.0-0.0","battery-v0.2","","""event"",""trial"",""time""
""blur"",""1"",""1554""
""focus"",""1"",""5627""
""blur"",""1"",""6134""
""focus"",""1"",""1093340""
""fullscreenenter"",""1"",""1094331""
","""event"",""trial"",""time""
""blur"",""1"",""1554""
""blur"",""1"",""6134""
","""event"",""trial"",""time""
""focus"",""1"",""5627""
""focus"",""1"",""1093340""
","""event"",""trial"",""time""
""fullscreenenter"",""1"",""1094331""
","
","","","7434.799999982119","[""False""]","0","17","10880","5202","","","","","","","","","","","","","","","","","","",""
"pit-instructions","119","1974123","0.0-2.0-26.0-1.0","battery-v0.2","","""event"",""trial"",""time""
""blur"",""1"",""1554""
""focus"",""1"",""5627""
""blur"",""1"",""6134""
""focus"",""1"",""1093340""
""fullscreenenter"",""1"",""1094331""
","""event"",""trial"",""time""
""blur"",""1"",""1554""
""blur"",""1"",""6134""
","""event"",""trial"",""time""
""focus"",""1"",""5627""
""focus"",""1"",""1093340""
","""event"",""trial"",""time""
""fullscreenenter"",""1"",""1094331""
","
","","[{""page_index"":0,""viewing_time"":1404.9000000059605}]","1405.0999999940395","","","","","","","","","","","","","","","","","","","","","","","",""
"pit-instructions","120","1989771","0.0-3.0","battery-v0.2","","""event"",""trial"",""time""
""blur"",""1"",""1554""
""focus"",""1"",""5627""
""blur"",""1"",""6134""
""focus"",""1"",""1093340""
""fullscreenenter"",""1"",""1094331""
","""event"",""trial"",""time""
""blur"",""1"",""1554""
""blur"",""1"",""6134""
","""event"",""trial"",""time""
""focus"",""1"",""5627""
""focus"",""1"",""1093340""
","""event"",""trial"",""time""
""fullscreenenter"",""1"",""1094331""
","
","","[{""page_index"":0,""viewing_time"":3575.5},{""page_index"":1,""viewing_time"":5317.5999999940395},{""page_index"":2,""viewing_time"":6753.199999988079}]","15646.5","","","","","","","","","","","","","","","","","","","","","","","",""
"pit-trial","121","1993914","0.0-4.0","battery-v0.2","","""event"",""trial"",""time""
""blur"",""1"",""1554""
""focus"",""1"",""5627""
""blur"",""1"",""6134""
""focus"",""1"",""1093340""
""fullscreenenter"",""1"",""1094331""
","""event"",""trial"",""time""
""blur"",""1"",""1554""
""blur"",""1"",""6134""
","""event"",""trial"",""time""
""focus"",""1"",""5627""
""focus"",""1"",""1093340""
","""event"",""trial"",""time""
""fullscreenenter"",""1"",""1094331""
","
","","","1286.2000000178814","","","17","10880","5202","&#9752;","elianto","#f73b6a7A"," "," ","1","0","[2136.800000011921]","1","1","","","10880","1","3","3","lose","go","0"
"pit-trial","122","1997411","0.0-5.0","battery-v0.2","","""event"",""trial"",""time""
""blur"",""1"",""1554""
""focus"",""1"",""5627""
""blur"",""1"",""6134""
""focus"",""1"",""1093340""
""fullscreenenter"",""1"",""1094331""
","""event"",""trial"",""time""
""blur"",""1"",""1554""
""blur"",""1"",""6134""
","""event"",""trial"",""time""
""focus"",""1"",""5627""
""focus"",""1"",""1093340""
","""event"",""trial"",""time""
""fullscreenenter"",""1"",""1094331""
","
","","","624.7999999821186","","","17","10880","5202","&#9733;","elianto","#3366ff99","-1"," ","0","0","[1476.5]","1","1","","","10880","2","2","2","win","no-go","0"
"pit-trial","123","2001112","0.0-6.0","battery-v0.2","","""event"",""trial"",""time""
""blur"",""1"",""1554""
""focus"",""1"",""5627""
""blur"",""1"",""6134""
""focus"",""1"",""1093340""
""fullscreenenter"",""1"",""1094331""
","""event"",""trial"",""time""
""blur"",""1"",""1554""
""blur"",""1"",""6134""
","""event"",""trial"",""time""
""focus"",""1"",""5627""
""focus"",""1"",""1093340""
","""event"",""trial"",""time""
""fullscreenenter"",""1"",""1094331""
","
","","","832","","","17","10880","5202","&#9728;","elianto","#f73b6a7A","-1"," ","0","-10","[1682.5]","1","1","","","10880","3","0","4","lose","no-go","0"
"pit-trial","124","2004896","0.0-7.0","battery-v0.2","","""event"",""trial"",""time""
""blur"",""1"",""1554""
""focus"",""1"",""5627""
""blur"",""1"",""6134""
""focus"",""1"",""1093340""
""fullscreenenter"",""1"",""1094331""
","""event"",""trial"",""time""
""blur"",""1"",""1554""
""blur"",""1"",""6134""
","""event"",""trial"",""time""
""focus"",""1"",""5627""
""focus"",""1"",""1093340""
","""event"",""trial"",""time""
""fullscreenenter"",""1"",""1094331""
","
","","","913.7000000178814","","","17","10880","5202","&#9730;","elianto","#3366ff99"," "," ","1","+10","[1768.800000011921]","1","1","","","10880","4","1","1","win","go","0"
"pit-trial","125","2008299","0.0-8.0","battery-v0.2","","""event"",""trial"",""time""
""blur"",""1"",""1554""
""focus"",""1"",""5627""
""blur"",""1"",""6134""
""focus"",""1"",""1093340""
""fullscreenenter"",""1"",""1094331""
","""event"",""trial"",""time""
""blur"",""1"",""1554""
""blur"",""1"",""6134""
","""event"",""trial"",""time""
""focus"",""1"",""5627""
""focus"",""1"",""1093340""
","""event"",""trial"",""time""
""fullscreenenter"",""1"",""1094331""
","
","","","537.0999999940395","","","17","10880","5202","&#9730;","elianto","#3366ff99"," "," ","1","+10","[1391.6000000238419]","1","1","","","10880","5","1","1","win","go","0"
"pit-trial","126","2011964","0.0-9.0","battery-v0.2","","""event"",""trial"",""time""
""blur"",""1"",""1554""
""focus"",""1"",""5627""
""blur"",""1"",""6134""
""focus"",""1"",""1093340""
""fullscreenenter"",""1"",""1094331""
","""event"",""trial"",""time""
""blur"",""1"",""1554""
""blur"",""1"",""6134""
","""event"",""trial"",""time""
""focus"",""1"",""5627""
""focus"",""1"",""1093340""
","""event"",""trial"",""time""
""fullscreenenter"",""1"",""1094331""
","
","","","807.2999999821186","","","17","10880","5202","&#9752;","elianto","#f73b6a7A"," "," ","1","0","[1658.699999988079]","1","1","","","10880","6","3","3","lose","go","0"
"pit-trial","127","2015367","0.0-10.0","battery-v0.2","","""event"",""trial"",""time""
""blur"",""1"",""1554""
""focus"",""1"",""5627""
""blur"",""1"",""6134""
""focus"",""1"",""1093340""
""fullscreenenter"",""1"",""1094331""
","""event"",""trial"",""time""
""blur"",""1"",""1554""
""blur"",""1"",""6134""
","""event"",""trial"",""time""
""focus"",""1"",""5627""
""focus"",""1"",""1093340""
","""event"",""trial"",""time""
""fullscreenenter"",""1"",""1094331""
","
","","","536.5","","","17","10880","5202","&#9733;","elianto","#3366ff99","-1"," ","0","0","[1388.2999999821186]","1","1","","","10880","7","2","2","win","no-go","0"
"pit-trial","128","2020228","0.0-11.0","battery-v0.2","","""event"",""trial"",""time""
""blur"",""1"",""1554""
""focus"",""1"",""5627""
""blur"",""1"",""6134""
""focus"",""1"",""1093340""
""fullscreenenter"",""1"",""1094331""
","""event"",""trial"",""time""
""blur"",""1"",""1554""
""blur"",""1"",""6134""
","""event"",""trial"",""time""
""focus"",""1"",""5627""
""focus"",""1"",""1093340""
","""event"",""trial"",""time""
""fullscreenenter"",""1"",""1094331""
","
","","","-1","","","17","10880","5202","&#9728;","elianto","#f73b6a7A","-1","-1","1","-10","[]","0","1","","","10880","8","0","4","lose","no-go","1"
"pit-trial","129","2025084","0.0-12.0","battery-v0.2","","""event"",""trial"",""time""
""blur"",""1"",""1554""
""focus"",""1"",""5627""
""blur"",""1"",""6134""
""focus"",""1"",""1093340""
""fullscreenenter"",""1"",""1094331""
","""event"",""trial"",""time""
""blur"",""1"",""1554""
""blur"",""1"",""6134""
","""event"",""trial"",""time""
""focus"",""1"",""5627""
""focus"",""1"",""1093340""
","""event"",""trial"",""time""
""fullscreenenter"",""1"",""1094331""
","
","","","-1","","","17","10880","5202","&#9728;","elianto","#f73b6a7A","-1","-1","1","-10","[]","0","1","","","10880","9","0","4","lose","no-go","1"
"pit-trial","130","2028533","0.0-13.0","battery-v0.2","","""event"",""trial"",""time""
""blur"",""1"",""1554""
""focus"",""1"",""5627""
""blur"",""1"",""6134""
""focus"",""1"",""1093340""
""fullscreenenter"",""1"",""1094331""
","""event"",""trial"",""time""
""blur"",""1"",""1554""
""blur"",""1"",""6134""
","""event"",""trial"",""time""
""focus"",""1"",""5627""
""focus"",""1"",""1093340""
","""event"",""trial"",""time""
""fullscreenenter"",""1"",""1094331""
","
","","","593.6000000238419","","","17","10880","5202","&#9733;","elianto","#3366ff99","-1"," ","0","0","[1444.8999999761581]","1","1","","","10880","10","2","2","win","no-go","0"
"pit-trial","131","2031925","0.0-14.0","battery-v0.2","","""event"",""trial"",""time""
""blur"",""1"",""1554""
""focus"",""1"",""5627""
""blur"",""1"",""6134""
""focus"",""1"",""1093340""
""fullscreenenter"",""1"",""1094331""
","""event"",""trial"",""time""
""blur"",""1"",""1554""
""blur"",""1"",""6134""
","""event"",""trial"",""time""
""focus"",""1"",""5627""
""focus"",""1"",""1093340""
","""event"",""trial"",""time""
""fullscreenenter"",""1"",""1094331""
","
","","","538.2000000178814","","","17","10880","5202","&#9730;","elianto","#3366ff99"," "," ","1","+10","[1389]","1","1","","","10880","11","1","1","win","go","0"
"pit-trial","132","2035456","0.0-15.0","battery-v0.2","","""event"",""trial"",""time""
""blur"",""1"",""1554""
""focus"",""1"",""5627""
""blur"",""1"",""6134""
""focus"",""1"",""1093340""
""fullscreenenter"",""1"",""1094331""
","""event"",""trial"",""time""
""blur"",""1"",""1554""
""blur"",""1"",""6134""
","""event"",""trial"",""time""
""focus"",""1"",""5627""
""focus"",""1"",""1093340""
","""event"",""trial"",""time""
""fullscreenenter"",""1"",""1094331""
","
","","","676.4000000059605","","","17","10880","5202","&#9752;","elianto","#f73b6a7A"," "," ","1","0","[1527.4000000059605]","1","1","","","10880","12","3","3","lose","go","0"
"pit-trial","133","2038848","0.0-16.0","battery-v0.2","","""event"",""trial"",""time""
""blur"",""1"",""1554""
""focus"",""1"",""5627""
""blur"",""1"",""6134""
""focus"",""1"",""1093340""
""fullscreenenter"",""1"",""1094331""
","""event"",""trial"",""time""
""blur"",""1"",""1554""
""blur"",""1"",""6134""
","""event"",""trial"",""time""
""focus"",""1"",""5627""
""focus"",""1"",""1093340""
","""event"",""trial"",""time""
""fullscreenenter"",""1"",""1094331""
","
","","","536.5999999940395","","","17","10880","5202","&#9733;","elianto","#3366ff99","-1"," ","0","0","[1387.0999999940395]","1","1","","","10880","13","2","2","win","no-go","0"
"pit-trial","134","2042457","0.0-17.0","battery-v0.2","","""event"",""trial"",""time""
""blur"",""1"",""1554""
""focus"",""1"",""5627""
""blur"",""1"",""6134""
""focus"",""1"",""1093340""
""fullscreenenter"",""1"",""1094331""
","""event"",""trial"",""time""
""blur"",""1"",""1554""
""blur"",""1"",""6134""
","""event"",""trial"",""time""
""focus"",""1"",""5627""
""focus"",""1"",""1093340""
","""event"",""trial"",""time""
""fullscreenenter"",""1"",""1094331""
","
","","","753.8000000119209","","","17","10880","5202","&#9752;","elianto","#f73b6a7A"," "," ","1","0","[1603.9000000059605]","1","1","","","10880","14","3","3","lose","go","0"
"pit-trial","135","2047312","0.0-18.0","battery-v0.2","","""event"",""trial"",""time""
""blur"",""1"",""1554""
""focus"",""1"",""5627""
""blur"",""1"",""6134""
""focus"",""1"",""1093340""
""fullscreenenter"",""1"",""1094331""
","""event"",""trial"",""time""
""blur"",""1"",""1554""
""blur"",""1"",""6134""
","""event"",""trial"",""time""
""focus"",""1"",""5627""
""focus"",""1"",""1093340""
","""event"",""trial"",""time""
""fullscreenenter"",""1"",""1094331""
","
","","","-1","","","17","10880","5202","&#9728;","elianto","#f73b6a7A","-1","-1","1","-10","[]","0","1","","","10880","15","0","4","lose","no-go","1"
"pit-trial","136","2050586","0.0-19.0","battery-v0.2","","""event"",""trial"",""time""
""blur"",""1"",""1554""
""focus"",""1"",""5627""
""blur"",""1"",""6134""
""focus"",""1"",""1093340""
""fullscreenenter"",""1"",""1094331""
","""event"",""trial"",""time""
""blur"",""1"",""1554""
""blur"",""1"",""6134""
","""event"",""trial"",""time""
""focus"",""1"",""5627""
""focus"",""1"",""1093340""
","""event"",""trial"",""time""
""fullscreenenter"",""1"",""1094331""
","
","","","417.69999998807907","","","17","10880","5202","&#9730;","elianto","#3366ff99"," "," ","1","0","[1269]","1","1","","","10880","16","1","1","win","go","1"
"pit-trial","137","2054628","0.0-20.0","battery-v0.2","","""event"",""trial"",""time""
""blur"",""1"",""1554""
""focus"",""1"",""5627""
""blur"",""1"",""6134""
""focus"",""1"",""1093340""
""fullscreenenter"",""1"",""1094331""
","""event"",""trial"",""time""
""blur"",""1"",""1554""
""blur"",""1"",""6134""
","""event"",""trial"",""time""
""focus"",""1"",""5627""
""focus"",""1"",""1093340""
","""event"",""trial"",""time""
""fullscreenenter"",""1"",""1094331""
","
","","","1174","","","17","10880","5202","&#9752;","elianto","#f73b6a7A"," "," ","1","0","[2025.2000000178814]","1","1","","","10880","17","3","3","lose","go","0"
"pit-trial","138","2059483","0.0-21.0","battery-v0.2","","""event"",""trial"",""time""
""blur"",""1"",""1554""
""focus"",""1"",""5627""
""blur"",""1"",""6134""
""focus"",""1"",""1093340""
""fullscreenenter"",""1"",""1094331""
","""event"",""trial"",""time""
""blur"",""1"",""1554""
""blur"",""1"",""6134""
","""event"",""trial"",""time""
""focus"",""1"",""5627""
""focus"",""1"",""1093340""
","""event"",""trial"",""time""
""fullscreenenter"",""1"",""1094331""
","
","","","-1","","","17","10880","5202","&#9728;","elianto","#f73b6a7A","-1","-1","1","0","[]","0","1","","","10880","18","0","4","lose","no-go","0"
"pit-trial","139","2062912","0.0-22.0","battery-v0.2","","""event"",""trial"",""time""
""blur"",""1"",""1554""
""focus"",""1"",""5627""
""blur"",""1"",""6134""
""focus"",""1"",""1093340""
""fullscreenenter"",""1"",""1094331""
","""event"",""trial"",""time""
""blur"",""1"",""1554""
""blur"",""1"",""6134""
","""event"",""trial"",""time""
""focus"",""1"",""5627""
""focus"",""1"",""1093340""
","""event"",""trial"",""time""
""fullscreenenter"",""1"",""1094331""
","
","","","573.8000000119209","","","17","10880","5202","&#9730;","elianto","#3366ff99"," "," ","1","+10","[1424.300000011921]","1","1","","","10880","19","1","1","win","go","0"
"pit-trial","140","2066261","0.0-23.0","battery-v0.2","","""event"",""trial"",""time""
""blur"",""1"",""1554""
""focus"",""1"",""5627""
""blur"",""1"",""6134""
""focus"",""1"",""1093340""
""fullscreenenter"",""1"",""1094331""
","""event"",""trial"",""time""
""blur"",""1"",""1554""
""blur"",""1"",""6134""
","""event"",""trial"",""time""
""focus"",""1"",""5627""
""focus"",""1"",""1093340""
","""event"",""trial"",""time""
""fullscreenenter"",""1"",""1094331""
","
","","","493.7000000178814","","","17","10880","5202","&#9733;","elianto","#3366ff99","-1"," ","0","0","[1344.2999999821186]","1","1","","","10880","20","2","2","win","no-go","0"
"pit-instructions","141","2080866","0.0-24.0","battery-v0.2","","""event"",""trial"",""time""
""blur"",""1"",""1554""
""focus"",""1"",""5627""
""blur"",""1"",""6134""
""focus"",""1"",""1093340""
""fullscreenenter"",""1"",""1094331""
","""event"",""trial"",""time""
""blur"",""1"",""1554""
""blur"",""1"",""6134""
","""event"",""trial"",""time""
""focus"",""1"",""5627""
""focus"",""1"",""1093340""
","""event"",""trial"",""time""
""fullscreenenter"",""1"",""1094331""
","
","","[{""page_index"":0,""viewing_time"":7628.199999988079},{""page_index"":1,""viewing_time"":6973.300000011921}]","14601.699999988079","","","","","","","","","","","","","","","","","","","","","","","",""
"pit-trial","142","2084633","0.0-25.0","battery-v0.2","","""event"",""trial"",""time""
""blur"",""1"",""1554""
""focus"",""1"",""5627""
""blur"",""1"",""6134""
""focus"",""1"",""1093340""
""fullscreenenter"",""1"",""1094331""
","""event"",""trial"",""time""
""blur"",""1"",""1554""
""blur"",""1"",""6134""
","""event"",""trial"",""time""
""focus"",""1"",""5627""
""focus"",""1"",""1093340""
","""event"",""trial"",""time""
""fullscreenenter"",""1"",""1094331""
","
","","","896.1999999880791","","","17","10880","5202","g","elianto","#f73b6a7A"," "," ","1","0","[1750.2999999821186]","1","2","","","10880","21","3","3","lose","go","0"
"pit-trial","143","2089494","0.0-26.0","battery-v0.2","","""event"",""trial"",""time""
""blur"",""1"",""1554""
""focus"",""1"",""5627""
""blur"",""1"",""6134""
""focus"",""1"",""1093340""
""fullscreenenter"",""1"",""1094331""
","""event"",""trial"",""time""
""blur"",""1"",""1554""
""blur"",""1"",""6134""
","""event"",""trial"",""time""
""focus"",""1"",""5627""
""focus"",""1"",""1093340""
","""event"",""trial"",""time""
""fullscreenenter"",""1"",""1094331""
","
","","","-1","","","17","10880","5202","a","elianto","#f73b6a7A","-1","-1","1","0","[]","0","2","","","10880","22","2","4","lose","no-go","0"
"pit-trial","144","2093074","0.0-27.0","battery-v0.2","","""event"",""trial"",""time""
""blur"",""1"",""1554""
""focus"",""1"",""5627""
""blur"",""1"",""6134""
""focus"",""1"",""1093340""
""fullscreenenter"",""1"",""1094331""
","""event"",""trial"",""time""
""blur"",""1"",""1554""
""blur"",""1"",""6134""
","""event"",""trial"",""time""
""focus"",""1"",""5627""
""focus"",""1"",""1093340""
","""event"",""trial"",""time""
""fullscreenenter"",""1"",""1094331""
","
","","","719.5999999940395","","","17","10880","5202","l","elianto","#3366ff99"," "," ","1","+10","[1570.9000000059605]","1","2","","","10880","23","1","1","win","go","0"
"pit-trial","145","2097947","0.0-28.0","battery-v0.2","","""event"",""trial"",""time""
""blur"",""1"",""1554""
""focus"",""1"",""5627""
""blur"",""1"",""6134""
""focus"",""1"",""1093340""
""fullscreenenter"",""1"",""1094331""
","""event"",""trial"",""time""
""blur"",""1"",""1554""
""blur"",""1"",""6134""
","""event"",""trial"",""time""
""focus"",""1"",""5627""
""focus"",""1"",""1093340""
","""event"",""trial"",""time""
""fullscreenenter"",""1"",""1094331""
","
","","","-1","","","17","10880","5202","u","elianto","#f73b6a7A","-1","-1","1","-10","[]","0","2","","","10880","24","0","4","lose","no-go","1"
"pit-trial","146","2101308","0.0-29.0","battery-v0.2","","""event"",""trial"",""time""
""blur"",""1"",""1554""
""focus"",""1"",""5627""
""blur"",""1"",""6134""
""focus"",""1"",""1093340""
""fullscreenenter"",""1"",""1094331""
","""event"",""trial"",""time""
""blur"",""1"",""1554""
""blur"",""1"",""6134""
","""event"",""trial"",""time""
""focus"",""1"",""5627""
""focus"",""1"",""1093340""
","""event"",""trial"",""time""
""fullscreenenter"",""1"",""1094331""
","
","","","505.5","","","17","10880","5202","l","elianto","#3366ff99"," "," ","1","+10","[1355.699999988079]","1","2","","","10880","25","1","1","win","go","0"
"pit-trial","147","2105069","0.0-30.0","battery-v0.2","","""event"",""trial"",""time""
""blur"",""1"",""1554""
""focus"",""1"",""5627""
""blur"",""1"",""6134""
""focus"",""1"",""1093340""
""fullscreenenter"",""1"",""1094331""
","""event"",""trial"",""time""
""blur"",""1"",""1554""
""blur"",""1"",""6134""
","""event"",""trial"",""time""
""focus"",""1"",""5627""
""focus"",""1"",""1093340""
","""event"",""trial"",""time""
""fullscreenenter"",""1"",""1094331""
","
","","","898.0999999940395","","","17","10880","5202","g","elianto","#f73b6a7A"," "," ","1","-10","[1750.699999988079]","1","2","","","10880","26","3","3","lose","go","1"
"pit-trial","148","2108765","0.0-31.0","battery-v0.2","","""event"",""trial"",""time""
""blur"",""1"",""1554""
""focus"",""1"",""5627""
""blur"",""1"",""6134""
""focus"",""1"",""1093340""
""fullscreenenter"",""1"",""1094331""
","""event"",""trial"",""time""
""blur"",""1"",""1554""
""blur"",""1"",""6134""
","""event"",""trial"",""time""
""focus"",""1"",""5627""
""focus"",""1"",""1093340""
","""event"",""trial"",""time""
""fullscreenenter"",""1"",""1094331""
","
","","","833.8999999761581","","","17","10880","5202","a","elianto","#f73b6a7A","-1"," ","0","-10","[1688.699999988079]","1","2","","","10880","27","2","4","lose","no-go","0"
"pit-trial","149","2113621","0.0-32.0","battery-v0.2","","""event"",""trial"",""time""
""blur"",""1"",""1554""
""focus"",""1"",""5627""
""blur"",""1"",""6134""
""focus"",""1"",""1093340""
""fullscreenenter"",""1"",""1094331""
","""event"",""trial"",""time""
""blur"",""1"",""1554""
""blur"",""1"",""6134""
","""event"",""trial"",""time""
""focus"",""1"",""5627""
""focus"",""1"",""1093340""
","""event"",""trial"",""time""
""fullscreenenter"",""1"",""1094331""
","
","","","-1","","","17","10880","5202","u","elianto","#f73b6a7A","-1","-1","1","0","[3565.4000000059605]","1","2","","","10880","28","0","4","lose","no-go","0"
"pit-trial","150","2118484","0.0-33.0","battery-v0.2","","""event"",""trial"",""time""
""blur"",""1"",""1554""
""focus"",""1"",""5627""
""blur"",""1"",""6134""
""focus"",""1"",""1093340""
""fullscreenenter"",""1"",""1094331""
","""event"",""trial"",""time""
""blur"",""1"",""1554""
""blur"",""1"",""6134""
","""event"",""trial"",""time""
""focus"",""1"",""5627""
""focus"",""1"",""1093340""
","""event"",""trial"",""time""
""fullscreenenter"",""1"",""1094331""
","
","","","-1","","","17","10880","5202","a","elianto","#f73b6a7A","-1","-1","1","0","[]","0","2","","","10880","29","2","4","lose","no-go","0"
"pit-trial","151","2123339","0.0-34.0","battery-v0.2","","""event"",""trial"",""time""
""blur"",""1"",""1554""
""focus"",""1"",""5627""
""blur"",""1"",""6134""
""focus"",""1"",""1093340""
""fullscreenenter"",""1"",""1094331""
