"trial_type","trial_index","time_elapsed","internal_node_id","task_version","subject_id","interactions","blur_events","focus_events","fullscreenenter_events","fullscreenexit_events","success","view_history","rt","responses","num_errors","age","subject","participantId","rune","rune_set","hex","correct","choice","accuracy","outcome","keys","total_keys","block","practice","value","sub","trial","stimulus","robot","valence","action","sham"
"pavlovia","0","8","0.0-0.0","battery-v0.2","","""event"",""trial"",""time""
""fullscreenenter"",""1"",""2505""
","
","
","""event"",""trial"",""time""
""fullscreenenter"",""1"",""2505""
","
","","","","","","","","","","","","","","","","","","","","","","","","","","",""
"fullscreen","1","3490","0.0-1.0","battery-v0.2","","""event"",""trial"",""time""
""fullscreenenter"",""1"",""2505""
","
","
","""event"",""trial"",""time""
""fullscreenenter"",""1"",""2505""
","
","true","","","","","","","","","","","","","","","","","","","","","","","","","",""
"pit-instructions","2","10689","0.0-2.0-0.0","battery-v0.2","","""event"",""trial"",""time""
""fullscreenenter"",""1"",""2505""
","
","
","""event"",""trial"",""time""
""fullscreenenter"",""1"",""2505""
","
","","[{""page_index"":0,""viewing_time"":7196}]","7196","","","","","","","","","","","","","","","","","","","","","","","",""
"pit-comprehension","3","13939","0.0-2.0-1.0-0.0","battery-v0.2","","""event"",""trial"",""time""
""fullscreenenter"",""1"",""2505""
","
","
","""event"",""trial"",""time""
""fullscreenenter"",""1"",""2505""
","
","","","3248","[""shark""]","0","20","8812","3956","","","","","","","","","","","","","","","","","","",""
"pit-instructions","4","15149","0.0-2.0-1.0-1.0","battery-v0.2","","""event"",""trial"",""time""
""fullscreenenter"",""1"",""2505""
","
","
","""event"",""trial"",""time""
""fullscreenenter"",""1"",""2505""
","
","","[{""page_index"":0,""viewing_time"":1203}]","1204","","","","","","","","","","","","","","","","","","","","","","","",""
"pit-comprehension","5","18006","0.0-2.0-2.0-0.0","battery-v0.2","","""event"",""trial"",""time""
""fullscreenenter"",""1"",""2505""
","
","
","""event"",""trial"",""time""
""fullscreenenter"",""1"",""2505""
","
","","","2855","[""tiger""]","0","20","8812","3956","","","","","","","","","","","","","","","","","","",""
"pit-instructions","6","18717","0.0-2.0-2.0-1.0","battery-v0.2","","""event"",""trial"",""time""
""fullscreenenter"",""1"",""2505""
","
","
","""event"",""trial"",""time""
""fullscreenenter"",""1"",""2505""
","
","","[{""page_index"":0,""viewing_time"":708}]","708","","","","","","","","","","","","","","","","","","","","","","","",""
"pit-instructions","7","112329","0.0-2.0-3.0","battery-v0.2","","""event"",""trial"",""time""
""fullscreenenter"",""1"",""2505""
","
","
","""event"",""trial"",""time""
""fullscreenenter"",""1"",""2505""
","
","","[{""page_index"":0,""viewing_time"":9801},{""page_index"":1,""viewing_time"":7991},{""page_index"":2,""viewing_time"":7631},{""page_index"":3,""viewing_time"":6372},{""page_index"":4,""viewing_time"":5676},{""page_index"":5,""viewing_time"":5417},{""page_index"":6,""viewing_time"":6496},{""page_index"":7,""viewing_time"":6154},{""page_index"":8,""viewing_time"":6464},{""page_index"":9,""viewing_time"":5260},{""page_index"":10,""viewing_time"":7611},{""page_index"":11,""viewing_time"":6917},{""page_index"":12,""viewing_time"":6649},{""page_index"":13,""viewing_time"":5171}]","93610","","","","","","","","","","","","","","","","","","","","","","","",""
"pit-trial","8","115664","0.0-2.0-4.0-0.0","battery-v0.2","","""event"",""trial"",""time""
""fullscreenenter"",""1"",""2505""
","
","
","""event"",""trial"",""time""
""fullscreenenter"",""1"",""2505""
","
","","","478","","","20","8812","3956","&#9784;","elianto","#FFFFF080"," "," ","1","&#10004","[1332]","1","0","0","","","","","","","",""
"pit-trial","9","119048","0.0-2.0-4.1-0.1","battery-v0.2","","""event"",""trial"",""time""
""fullscreenenter"",""1"",""2505""
","
","
","""event"",""trial"",""time""
""fullscreenenter"",""1"",""2505""
","
","","","527","","","20","8812","3956","&#9784;","elianto","#FFFFF080"," "," ","1","&#10004","[1383]","1","0","0","","","","","","","",""
"pit-trial","10","122472","0.0-2.0-4.2-0.2","battery-v0.2","","""event"",""trial"",""time""
""fullscreenenter"",""1"",""2505""
","
","
","""event"",""trial"",""time""
""fullscreenenter"",""1"",""2505""
","
","","","561","","","20","8812","3956","&#9784;","elianto","#FFFFF080"," "," ","1","&#10004","[1421]","1","0","0","","","","","","","",""
"pit-trial","11","125884","0.0-2.0-4.3-0.3","battery-v0.2","","""event"",""trial"",""time""
""fullscreenenter"",""1"",""2505""
","
","
","""event"",""trial"",""time""
""fullscreenenter"",""1"",""2505""
","
","","","555","","","20","8812","3956","&#9784;","elianto","#FFFFF080"," "," ","1","&#10004","[1405]","1","0","0","","","","","","","",""
"pit-trial","12","129282","0.0-2.0-4.4-0.4","battery-v0.2","","""event"",""trial"",""time""
""fullscreenenter"",""1"",""2505""
","
","
","""event"",""trial"",""time""
""fullscreenenter"",""1"",""2505""
","
","","","536","","","20","8812","3956","&#9784;","elianto","#FFFFF080"," "," ","1","&#10004","[1393]","1","0","0","","","","","","","",""
"pit-instructions","13","149699","0.0-2.0-5.0","battery-v0.2","","""event"",""trial"",""time""
""fullscreenenter"",""1"",""2505""
","
","
","""event"",""trial"",""time""
""fullscreenenter"",""1"",""2505""
","
","","[{""page_index"":0,""viewing_time"":4887},{""page_index"":1,""viewing_time"":5077},{""page_index"":2,""viewing_time"":4721},{""page_index"":3,""viewing_time"":5730}]","20415","","","","","","","","","","","","","","","","","","","","","","","",""
"pit-trial","14","154579","0.0-2.0-6.0-0.0","battery-v0.2","","""event"",""trial"",""time""
""fullscreenenter"",""1"",""2505""
","
","
","""event"",""trial"",""time""
""fullscreenenter"",""1"",""2505""
","
","","","-1","","","20","8812","3956","&#9854;","elianto","#FFFFF080","-1","-1","1","&#10004","[]","0","0","1","","","","","","","",""
"pit-trial","15","159457","0.0-2.0-6.1-0.1","battery-v0.2","","""event"",""trial"",""time""
""fullscreenenter"",""1"",""2505""
","
","
","""event"",""trial"",""time""
""fullscreenenter"",""1"",""2505""
","
","","","-1","","","20","8812","3956","&#9854;","elianto","#FFFFF080","-1","-1","1","&#10004","[]","0","0","1","","","","","","","",""
"pit-trial","16","164326","0.0-2.0-6.2-0.2","battery-v0.2","","""event"",""trial"",""time""
""fullscreenenter"",""1"",""2505""
","
","
","""event"",""trial"",""time""
""fullscreenenter"",""1"",""2505""
","
","","","-1","","","20","8812","3956","&#9854;","elianto","#FFFFF080","-1","-1","1","&#10004","[]","0","0","1","","","","","","","",""
"pit-trial","17","169201","0.0-2.0-6.3-0.3","battery-v0.2","","""event"",""trial"",""time""
""fullscreenenter"",""1"",""2505""
","
","
","""event"",""trial"",""time""
""fullscreenenter"",""1"",""2505""
","
","","","-1","","","20","8812","3956","&#9854;","elianto","#FFFFF080","-1","-1","1","&#10004","[]","0","0","1","","","","","","","",""
"pit-trial","18","174066","0.0-2.0-6.4-0.4","battery-v0.2","","""event"",""trial"",""time""
""fullscreenenter"",""1"",""2505""
""blur"",""19"",""339122""
""focus"",""19"",""354985""
","""event"",""trial"",""time""
""blur"",""19"",""339122""
","""event"",""trial"",""time""
""focus"",""19"",""354985""
","""event"",""trial"",""time""
""fullscreenenter"",""1"",""2505""
","
","","","-1","","","20","8812","3956","&#9854;","elianto","#FFFFF080","-1","-1","1","&#10004","[]","0","0","1","","","","","","","",""
"pit-instructions","19","487783","0.0-2.0-7.0","battery-v0.2","","""event"",""trial"",""time""
""fullscreenenter"",""1"",""2505""
""blur"",""19"",""339122""
""focus"",""19"",""354985""
","""event"",""trial"",""time""
""blur"",""19"",""339122""
","""event"",""trial"",""time""
""focus"",""19"",""354985""
","""event"",""trial"",""time""
""fullscreenenter"",""1"",""2505""
","
","","[{""page_index"":0,""viewing_time"":49931},{""page_index"":1,""viewing_time"":16780},{""page_index"":2,""viewing_time"":6286},{""page_index"":3,""viewing_time"":12178},{""page_index"":4,""viewing_time"":8086},{""page_index"":5,""viewing_time"":11530},{""page_index"":6,""viewing_time"":6657},{""page_index"":7,""viewing_time"":23679},{""page_index"":8,""viewing_time"":8028},{""page_index"":9,""viewing_time"":6153},{""page_index"":10,""viewing_time"":6292},{""page_index"":11,""viewing_time"":5174},{""page_index"":12,""viewing_time"":26686},{""page_index"":13,""viewing_time"":2233},{""page_index"":12,""viewing_time"":659},{""page_index"":11,""viewing_time"":678},{""page_index"":10,""viewing_time"":701},{""page_index"":9,""viewing_time"":840},{""page_index"":8,""viewing_time"":496},{""page_index"":7,""viewing_time"":1097},{""page_index"":8,""viewing_time"":6369},{""page_index"":9,""viewing_time"":5673},{""page_index"":10,""viewing_time"":14122},{""page_index"":11,""viewing_time"":7234},{""page_index"":12,""viewing_time"":8633},{""page_index"":13,""viewing_time"":7051},{""page_index"":14,""viewing_time"":27152},{""page_index"":15,""viewing_time"":6829},{""page_index"":16,""viewing_time"":28743},{""page_index"":17,""viewing_time"":7743}]","313713","","","","","","","","","","","","","","","","","","","","","","","",""
"pit-trial","20","491346","0.0-2.0-8.0-0.0","battery-v0.2","","""event"",""trial"",""time""
""fullscreenenter"",""1"",""2505""
""blur"",""19"",""339122""
""focus"",""19"",""354985""
","""event"",""trial"",""time""
""blur"",""19"",""339122""
","""event"",""trial"",""time""
""focus"",""19"",""354985""
","""event"",""trial"",""time""
""fullscreenenter"",""1"",""2505""
","
","","","705","","","20","8812","3956","&#9776;","elianto","#3366ff99"," "," ","1","+10","[1557]","1","0","1","","","","","","","",""
"pit-trial","21","494745","0.0-2.0-8.0-1.0","battery-v0.2","","""event"",""trial"",""time""
""fullscreenenter"",""1"",""2505""
""blur"",""19"",""339122""
""focus"",""19"",""354985""
","""event"",""trial"",""time""
""blur"",""19"",""339122""
","""event"",""trial"",""time""
""focus"",""19"",""354985""
","""event"",""trial"",""time""
""fullscreenenter"",""1"",""2505""
","
","","","534","","","20","8812","3956","&#9776;","elianto","#3366ff99"," "," ","1","+10","[1387]","1","0","1","","","","","","","",""
"pit-trial","22","498294","0.0-2.0-8.0-2.0","battery-v0.2","","""event"",""trial"",""time""
""fullscreenenter"",""1"",""2505""
""blur"",""19"",""339122""
""focus"",""19"",""354985""
","""event"",""trial"",""time""
""blur"",""19"",""339122""
","""event"",""trial"",""time""
""focus"",""19"",""354985""
","""event"",""trial"",""time""
""fullscreenenter"",""1"",""2505""
","
","","","686","","","20","8812","3956","&#9776;","elianto","#3366ff99"," "," ","1","+10","[1539]","1","0","1","","","","","","","",""
"pit-trial","23","502107","0.0-2.0-8.0-3.0","battery-v0.2","","""event"",""trial"",""time""
""fullscreenenter"",""1"",""2505""
""blur"",""19"",""339122""
""focus"",""19"",""354985""
","""event"",""trial"",""time""
""blur"",""19"",""339122""
","""event"",""trial"",""time""
""focus"",""19"",""354985""
","""event"",""trial"",""time""
""fullscreenenter"",""1"",""2505""
","
","","","948","","","20","8812","3956","&#9776;","elianto","#3366ff99"," "," ","1","0","[1800]","1","0","1","","","","","","","",""
"pit-trial","24","505531","0.0-2.0-8.0-4.0","battery-v0.2","","""event"",""trial"",""time""
""fullscreenenter"",""1"",""2505""
""blur"",""19"",""339122""
""focus"",""19"",""354985""
","""event"",""trial"",""time""
""blur"",""19"",""339122""
","""event"",""trial"",""time""
""focus"",""19"",""354985""
","""event"",""trial"",""time""
""fullscreenenter"",""1"",""2505""
","
","","","560","","","20","8812","3956","&#9776;","elianto","#3366ff99"," "," ","1","+10","[1411]","1","0","1","","","","","","","",""
"pit-trial","25","508955","0.0-2.0-8.1-0.1","battery-v0.2","","""event"",""trial"",""time""
""fullscreenenter"",""1"",""2505""
""blur"",""19"",""339122""
""focus"",""19"",""354985""
","""event"",""trial"",""time""
""blur"",""19"",""339122""
","""event"",""trial"",""time""
""focus"",""19"",""354985""
","""event"",""trial"",""time""
""fullscreenenter"",""1"",""2505""
","
","","","563","","","20","8812","3956","&#9776;","elianto","#3366ff99"," "," ","1","+10","[1413]","1","0","1","","","","","","","",""
"pit-trial","26","512321","0.0-2.0-8.1-1.1","battery-v0.2","","""event"",""trial"",""time""
""fullscreenenter"",""1"",""2505""
""blur"",""19"",""339122""
""focus"",""19"",""354985""
","""event"",""trial"",""time""
""blur"",""19"",""339122""
","""event"",""trial"",""time""
""focus"",""19"",""354985""
","""event"",""trial"",""time""
""fullscreenenter"",""1"",""2505""
","
","","","504","","","20","8812","3956","&#9776;","elianto","#3366ff99"," "," ","1","+10","[1355]","1","0","1","","","","","","","",""
"pit-trial","27","515900","0.0-2.0-8.1-2.1","battery-v0.2","","""event"",""trial"",""time""
""fullscreenenter"",""1"",""2505""
""blur"",""19"",""339122""
""focus"",""19"",""354985""
","""event"",""trial"",""time""
""blur"",""19"",""339122""
","""event"",""trial"",""time""
""focus"",""19"",""354985""
","""event"",""trial"",""time""
""fullscreenenter"",""1"",""2505""
","
","","","713","","","20","8812","3956","&#9776;","elianto","#3366ff99"," "," ","1","+10","[1567]","1","0","1","","","","","","","",""
"pit-trial","28","519416","0.0-2.0-8.1-3.1","battery-v0.2","","""event"",""trial"",""time""
""fullscreenenter"",""1"",""2505""
""blur"",""19"",""339122""
""focus"",""19"",""354985""
","""event"",""trial"",""time""
""blur"",""19"",""339122""
","""event"",""trial"",""time""
""focus"",""19"",""354985""
","""event"",""trial"",""time""
""fullscreenenter"",""1"",""2505""
","
","","","662","","","20","8812","3956","&#9776;","elianto","#3366ff99"," "," ","1","0","[1514]","1","0","1","","","","","","","",""
"pit-trial","29","522834","0.0-2.0-8.1-4.1","battery-v0.2","","""event"",""trial"",""time""
""fullscreenenter"",""1"",""2505""
""blur"",""19"",""339122""
""focus"",""19"",""354985""
","""event"",""trial"",""time""
""blur"",""19"",""339122""
","""event"",""trial"",""time""
""focus"",""19"",""354985""
","""event"",""trial"",""time""
""fullscreenenter"",""1"",""2505""
","
","","","565","","","20","8812","3956","&#9776;","elianto","#3366ff99"," "," ","1","+10","[1416]","1","0","1","","","","","","","",""
"pit-trial","30","526112","0.0-2.0-8.2-0.2","battery-v0.2","","""event"",""trial"",""time""
""fullscreenenter"",""1"",""2505""
""blur"",""19"",""339122""
""focus"",""19"",""354985""
","""event"",""trial"",""time""
""blur"",""19"",""339122""
","""event"",""trial"",""time""
""focus"",""19"",""354985""
","""event"",""trial"",""time""
""fullscreenenter"",""1"",""2505""
","
","","","425","","","20","8812","3956","&#9776;","elianto","#3366ff99"," "," ","1","+10","[1274]","1","0","1","","","","","","","",""
"pit-trial","31","529376","0.0-2.0-8.2-1.2","battery-v0.2","","""event"",""trial"",""time""
""fullscreenenter"",""1"",""2505""
""blur"",""19"",""339122""
""focus"",""19"",""354985""
","""event"",""trial"",""time""
""blur"",""19"",""339122""
","""event"",""trial"",""time""
""focus"",""19"",""354985""
","""event"",""trial"",""time""
""fullscreenenter"",""1"",""2505""
","
","","","408","","","20","8812","3956","&#9776;","elianto","#3366ff99"," "," ","1","+10","[1259]","1","0","1","","","","","","","",""
"pit-trial","32","532706","0.0-2.0-8.2-2.2","battery-v0.2","","""event"",""trial"",""time""
""fullscreenenter"",""1"",""2505""
""blur"",""19"",""339122""
""focus"",""19"",""354985""
","""event"",""trial"",""time""
""blur"",""19"",""339122""
","""event"",""trial"",""time""
""focus"",""19"",""354985""
","""event"",""trial"",""time""
""fullscreenenter"",""1"",""2505""
","
","","","478","","","20","8812","3956","&#9776;","elianto","#3366ff99"," "," ","1","+10","[1328]","1","0","1","","","","","","","",""
"pit-trial","33","536255","0.0-2.0-8.2-3.2","battery-v0.2","","""event"",""trial"",""time""
""fullscreenenter"",""1"",""2505""
""blur"",""19"",""339122""
""focus"",""19"",""354985""
","""event"",""trial"",""time""
""blur"",""19"",""339122""
","""event"",""trial"",""time""
""focus"",""19"",""354985""
","""event"",""trial"",""time""
""fullscreenenter"",""1"",""2505""
","
","","","697","","","20","8812","3956","&#9776;","elianto","#3366ff99"," "," ","1","0","[1547]","1","0","1","","","","","","","",""
"pit-trial","34","539506","0.0-2.0-8.2-4.2","battery-v0.2","","""event"",""trial"",""time""
""fullscreenenter"",""1"",""2505""
""blur"",""19"",""339122""
""focus"",""19"",""354985""
","""event"",""trial"",""time""
""blur"",""19"",""339122""
","""event"",""trial"",""time""
""focus"",""19"",""354985""
","""event"",""trial"",""time""
""fullscreenenter"",""1"",""2505""
","
","","","397","","","20","8812","3956","&#9776;","elianto","#3366ff99"," "," ","1","+10","[1248]","1","0","1","","","","","","","",""
"call-function","35","539510","0.0-2.0-9.0","battery-v0.2","","""event"",""trial"",""time""
""fullscreenenter"",""1"",""2505""
""blur"",""19"",""339122""
""focus"",""19"",""354985""
","""event"",""trial"",""time""
""blur"",""19"",""339122""
","""event"",""trial"",""time""
""focus"",""19"",""354985""
","""event"",""trial"",""time""
""fullscreenenter"",""1"",""2505""
","
","","","","","","","","","","","","","","","","","","","","","","","","","","",""
"pit-instructions","36","613169","0.0-2.0-10.0","battery-v0.2","","""event"",""trial"",""time""
""fullscreenenter"",""1"",""2505""
""blur"",""19"",""339122""
""focus"",""19"",""354985""
","""event"",""trial"",""time""
""blur"",""19"",""339122""
","""event"",""trial"",""time""
""focus"",""19"",""354985""
","""event"",""trial"",""time""
""fullscreenenter"",""1"",""2505""
","
","","[{""page_index"":0,""viewing_time"":28126},{""page_index"":1,""viewing_time"":6871},{""page_index"":2,""viewing_time"":9513},{""page_index"":3,""viewing_time"":21690},{""page_index"":4,""viewing_time"":7458}]","73659","","","","","","","","","","","","","","","","","","","","","","","",""
"pit-trial","37","618034","0.0-2.0-11.0-0.0","battery-v0.2","","""event"",""trial"",""time""
""fullscreenenter"",""1"",""2505""
""blur"",""19"",""339122""
""focus"",""19"",""354985""
","""event"",""trial"",""time""
""blur"",""19"",""339122""
","""event"",""trial"",""time""
""focus"",""19"",""354985""
","""event"",""trial"",""time""
""fullscreenenter"",""1"",""2505""
","
","","","-1","","","20","8812","3956","&#9761;","elianto","#3366ff99","-1","-1","1","+10","[]","0","0","2","","","","","","","",""
"pit-trial","38","622905","0.0-2.0-11.0-1.0","battery-v0.2","","""event"",""trial"",""time""
""fullscreenenter"",""1"",""2505""
""blur"",""19"",""339122""
""focus"",""19"",""354985""
","""event"",""trial"",""time""
""blur"",""19"",""339122""
","""event"",""trial"",""time""
""focus"",""19"",""354985""
","""event"",""trial"",""time""
""fullscreenenter"",""1"",""2505""
","
","","","-1","","","20","8812","3956","&#9761;","elianto","#3366ff99","-1","-1","1","+10","[]","0","0","2","","","","","","","",""
"pit-trial","39","627775","0.0-2.0-11.0-2.0","battery-v0.2","","""event"",""trial"",""time""
""fullscreenenter"",""1"",""2505""
""blur"",""19"",""339122""
""focus"",""19"",""354985""
","""event"",""trial"",""time""
""blur"",""19"",""339122""
","""event"",""trial"",""time""
""focus"",""19"",""354985""
","""event"",""trial"",""time""
""fullscreenenter"",""1"",""2505""
","
","","","-1","","","20","8812","3956","&#9761;","elianto","#3366ff99","-1","-1","1","+10","[]","0","0","2","","","","","","","",""
"pit-trial","40","632639","0.0-2.0-11.0-3.0","battery-v0.2","","""event"",""trial"",""time""
""fullscreenenter"",""1"",""2505""
""blur"",""19"",""339122""
""focus"",""19"",""354985""
","""event"",""trial"",""time""
""blur"",""19"",""339122""
","""event"",""trial"",""time""
""focus"",""19"",""354985""
","""event"",""trial"",""time""
""fullscreenenter"",""1"",""2505""
","
","","","-1","","","20","8812","3956","&#9761;","elianto","#3366ff99","-1","-1","1","0","[]","0","0","2","","","","","","","",""
"pit-trial","41","637513","0.0-2.0-11.0-4.0","battery-v0.2","","""event"",""trial"",""time""
""fullscreenenter"",""1"",""2505""
""blur"",""19"",""339122""
""focus"",""19"",""354985""
","""event"",""trial"",""time""
""blur"",""19"",""339122""
","""event"",""trial"",""time""
""focus"",""19"",""354985""
","""event"",""trial"",""time""
""fullscreenenter"",""1"",""2505""
","
","","","-1","","","20","8812","3956","&#9761;","elianto","#3366ff99","-1","-1","1","+10","[]","0","0","2","","","","","","","",""
"pit-trial","42","642381","0.0-2.0-11.1-0.1","battery-v0.2","","""event"",""trial"",""time""
""fullscreenenter"",""1"",""2505""
""blur"",""19"",""339122""
""focus"",""19"",""354985""
","""event"",""trial"",""time""
""blur"",""19"",""339122""
","""event"",""trial"",""time""
""focus"",""19"",""354985""
","""event"",""trial"",""time""
""fullscreenenter"",""1"",""2505""
","
","","","-1","","","20","8812","3956","&#9761;","elianto","#3366ff99","-1","-1","1","+10","[]","0","0","2","","","","","","","",""
"pit-trial","43","647233","0.0-2.0-11.1-1.1","battery-v0.2","","""event"",""trial"",""time""
""fullscreenenter"",""1"",""2505""
""blur"",""19"",""339122""
""focus"",""19"",""354985""
","""event"",""trial"",""time""
""blur"",""19"",""339122""
","""event"",""trial"",""time""
""focus"",""19"",""354985""
","""event"",""trial"",""time""
""fullscreenenter"",""1"",""2505""
","
","","","-1","","","20","8812","3956","&#9761;","elianto","#3366ff99","-1","-1","1","+10","[]","0","0","2","","","","","","","",""
"pit-trial","44","652086","0.0-2.0-11.1-2.1","battery-v0.2","","""event"",""trial"",""time""
""fullscreenenter"",""1"",""2505""
""blur"",""19"",""339122""
""focus"",""19"",""354985""
","""event"",""trial"",""time""
""blur"",""19"",""339122""
","""event"",""trial"",""time""
""focus"",""19"",""354985""
","""event"",""trial"",""time""
""fullscreenenter"",""1"",""2505""
","
","","","-1","","","20","8812","3956","&#9761;","elianto","#3366ff99","-1","-1","1","+10","[]","0","0","2","","","","","","","",""
"pit-trial","45","656939","0.0-2.0-11.1-3.1","battery-v0.2","","""event"",""trial"",""time""
""fullscreenenter"",""1"",""2505""
""blur"",""19"",""339122""
""focus"",""19"",""354985""
","""event"",""trial"",""time""
""blur"",""19"",""339122""
","""event"",""trial"",""time""
""focus"",""19"",""354985""
","""event"",""trial"",""time""
""fullscreenenter"",""1"",""2505""
","
","","","-1","","","20","8812","3956","&#9761;","elianto","#3366ff99","-1","-1","1","0","[]","0","0","2","","","","","","","",""
"pit-trial","46","661793","0.0-2.0-11.1-4.1","battery-v0.2","","""event"",""trial"",""time""
""fullscreenenter"",""1"",""2505""
""blur"",""19"",""339122""
""focus"",""19"",""354985""
","""event"",""trial"",""time""
""blur"",""19"",""339122""
","""event"",""trial"",""time""
""focus"",""19"",""354985""
","""event"",""trial"",""time""
""fullscreenenter"",""1"",""2505""
","
","","","-1","","","20","8812","3956","&#9761;","elianto","#3366ff99","-1","-1","1","+10","[]","0","0","2","","","","","","","",""
"pit-trial","47","666646","0.0-2.0-11.2-0.2","battery-v0.2","","""event"",""trial"",""time""
""fullscreenenter"",""1"",""2505""
""blur"",""19"",""339122""
""focus"",""19"",""354985""
","""event"",""trial"",""time""
""blur"",""19"",""339122""
","""event"",""trial"",""time""
""focus"",""19"",""354985""
","""event"",""trial"",""time""
""fullscreenenter"",""1"",""2505""
","
","","","-1","","","20","8812","3956","&#9761;","elianto","#3366ff99","-1","-1","1","+10","[]","0","0","2","","","","","","","",""
"pit-trial","48","671502","0.0-2.0-11.2-1.2","battery-v0.2","","""event"",""trial"",""time""
""fullscreenenter"",""1"",""2505""
""blur"",""19"",""339122""
""focus"",""19"",""354985""
","""event"",""trial"",""time""
""blur"",""19"",""339122""
","""event"",""trial"",""time""
""focus"",""19"",""354985""
","""event"",""trial"",""time""
""fullscreenenter"",""1"",""2505""
","
","","","-1","","","20","8812","3956","&#9761;","elianto","#3366ff99","-1","-1","1","+10","[]","0","0","2","","","","","","","",""
"pit-trial","49","676356","0.0-2.0-11.2-2.2","battery-v0.2","","""event"",""trial"",""time""
""fullscreenenter"",""1"",""2505""
""blur"",""19"",""339122""
""focus"",""19"",""354985""
","""event"",""trial"",""time""
""blur"",""19"",""339122""
","""event"",""trial"",""time""
""focus"",""19"",""354985""
","""event"",""trial"",""time""
""fullscreenenter"",""1"",""2505""
","
","","","-1","","","20","8812","3956","&#9761;","elianto","#3366ff99","-1","-1","1","+10","[]","0","0","2","","","","","","","",""
"pit-trial","50","681210","0.0-2.0-11.2-3.2","battery-v0.2","","""event"",""trial"",""time""
""fullscreenenter"",""1"",""2505""
""blur"",""19"",""339122""
""focus"",""19"",""354985""
","""event"",""trial"",""time""
""blur"",""19"",""339122""
","""event"",""trial"",""time""
""focus"",""19"",""354985""
","""event"",""trial"",""time""
""fullscreenenter"",""1"",""2505""
","
","","","-1","","","20","8812","3956","&#9761;","elianto","#3366ff99","-1","-1","1","0","[]","0","0","2","","","","","","","",""
"pit-trial","51","686064","0.0-2.0-11.2-4.2","battery-v0.2","","""event"",""trial"",""time""
""fullscreenenter"",""1"",""2505""
""blur"",""19"",""339122""
""focus"",""19"",""354985""
","""event"",""trial"",""time""
""blur"",""19"",""339122""
","""event"",""trial"",""time""
""focus"",""19"",""354985""
","""event"",""trial"",""time""
""fullscreenenter"",""1"",""2505""
","
","","","-1","","","20","8812","3956","&#9761;","elianto","#3366ff99","-1","-1","1","+10","[]","0","0","2","","","","","","","",""
"pit-trial","52","690919","0.0-2.0-11.3-0.3","battery-v0.2","","""event"",""trial"",""time""
""fullscreenenter"",""1"",""2505""
""blur"",""19"",""339122""
""focus"",""19"",""354985""
","""event"",""trial"",""time""
""blur"",""19"",""339122""
","""event"",""trial"",""time""
""focus"",""19"",""354985""
","""event"",""trial"",""time""
""fullscreenenter"",""1"",""2505""
","
","","","-1","","","20","8812","3956","&#9761;","elianto","#3366ff99","-1","-1","1","+10","[]","0","0","2","","","","","","","",""
"pit-trial","53","695772","0.0-2.0-11.3-1.3","battery-v0.2","","""event"",""trial"",""time""
""fullscreenenter"",""1"",""2505""
""blur"",""19"",""339122""
""focus"",""19"",""354985""
","""event"",""trial"",""time""
""blur"",""19"",""339122""
","""event"",""trial"",""time""
""focus"",""19"",""354985""
","""event"",""trial"",""time""
""fullscreenenter"",""1"",""2505""
","
","","","-1","","","20","8812","3956","&#9761;","elianto","#3366ff99","-1","-1","1","+10","[]","0","0","2","","","","","","","",""
"pit-trial","54","700628","0.0-2.0-11.3-2.3","battery-v0.2","","""event"",""trial"",""time""
""fullscreenenter"",""1"",""2505""
""blur"",""19"",""339122""
""focus"",""19"",""354985""
","""event"",""trial"",""time""
""blur"",""19"",""339122""
","""event"",""trial"",""time""
""focus"",""19"",""354985""
","""event"",""trial"",""time""
""fullscreenenter"",""1"",""2505""
","
","","","-1","","","20","8812","3956","&#9761;","elianto","#3366ff99","-1","-1","1","+10","[]","0","0","2","","","","","","","",""
"pit-trial","55","705482","0.0-2.0-11.3-3.3","battery-v0.2","","""event"",""trial"",""time""
""fullscreenenter"",""1"",""2505""
""blur"",""19"",""339122""
""focus"",""19"",""354985""
","""event"",""trial"",""time""
""blur"",""19"",""339122""
","""event"",""trial"",""time""
""focus"",""19"",""354985""
","""event"",""trial"",""time""
""fullscreenenter"",""1"",""2505""
","
","","","-1","","","20","8812","3956","&#9761;","elianto","#3366ff99","-1","-1","1","0","[]","0","0","2","","","","","","","",""
"pit-trial","56","710338","0.0-2.0-11.3-4.3","battery-v0.2","","""event"",""trial"",""time""
""fullscreenenter"",""1"",""2505""
""blur"",""19"",""339122""
""focus"",""19"",""354985""
","""event"",""trial"",""time""
""blur"",""19"",""339122""
","""event"",""trial"",""time""
""focus"",""19"",""354985""
","""event"",""trial"",""time""
""fullscreenenter"",""1"",""2505""
","
","","","-1","","","20","8812","3956","&#9761;","elianto","#3366ff99","-1","-1","1","+10","[]","0","0","2","","","","","","","",""
"call-function","57","710341","0.0-2.0-12.0","battery-v0.2","","""event"",""trial"",""time""
""fullscreenenter"",""1"",""2505""
""blur"",""19"",""339122""
""focus"",""19"",""354985""
","""event"",""trial"",""time""
""blur"",""19"",""339122""
","""event"",""trial"",""time""
""focus"",""19"",""354985""
","""event"",""trial"",""time""
""fullscreenenter"",""1"",""2505""
","
","","","","","","","","","","","","","","","","","","","","","","","","","","",""
"pit-instructions","58","768607","0.0-2.0-13.0","battery-v0.2","","""event"",""trial"",""time""
""fullscreenenter"",""1"",""2505""
""blur"",""19"",""339122""
""focus"",""19"",""354985""
","""event"",""trial"",""time""
""blur"",""19"",""339122""
","""event"",""trial"",""time""
""focus"",""19"",""354985""
","""event"",""trial"",""time""
""fullscreenenter"",""1"",""2505""
","
","","[{""page_index"":0,""viewing_time"":8224},{""page_index"":1,""viewing_time"":7811},{""page_index"":2,""viewing_time"":16364},{""page_index"":3,""viewing_time"":21418},{""page_index"":4,""viewing_time"":4448}]","58265","","","","","","","","","","","","","","","","","","","","","","","",""
"pit-trial","59","773477","0.0-2.0-14.0-0.0","battery-v0.2","","""event"",""trial"",""time""
""fullscreenenter"",""1"",""2505""
""blur"",""19"",""339122""
""focus"",""19"",""354985""
","""event"",""trial"",""time""
""blur"",""19"",""339122""
","""event"",""trial"",""time""
""focus"",""19"",""354985""
","""event"",""trial"",""time""
""fullscreenenter"",""1"",""2505""
","
","","","-1","","","20","8812","3956","&#9826;","elianto","#f73b6a7A","-1","-1","1","0","[]","0","0","3","","","","","","","",""
"pit-trial","60","778348","0.0-2.0-14.0-1.0","battery-v0.2","","""event"",""trial"",""time""
""fullscreenenter"",""1"",""2505""
""blur"",""19"",""339122""
""focus"",""19"",""354985""
","""event"",""trial"",""time""
""blur"",""19"",""339122""
","""event"",""trial"",""time""
""focus"",""19"",""354985""
","""event"",""trial"",""time""
""fullscreenenter"",""1"",""2505""
","
","","","-1","","","20","8812","3956","&#9826;","elianto","#f73b6a7A","-1","-1","1","0","[]","0","0","3","","","","","","","",""
"pit-trial","61","783208","0.0-2.0-14.0-2.0","battery-v0.2","","""event"",""trial"",""time""
""fullscreenenter"",""1"",""2505""
""blur"",""19"",""339122""
""focus"",""19"",""354985""
","""event"",""trial"",""time""
""blur"",""19"",""339122""
","""event"",""trial"",""time""
""focus"",""19"",""354985""
","""event"",""trial"",""time""
""fullscreenenter"",""1"",""2505""
","
","","","-1","","","20","8812","3956","&#9826;","elianto","#f73b6a7A","-1","-1","1","0","[]","0","0","3","","","","","","","",""
"pit-trial","62","788081","0.0-2.0-14.0-3.0","battery-v0.2","","""event"",""trial"",""time""
""fullscreenenter"",""1"",""2505""
""blur"",""19"",""339122""
""focus"",""19"",""354985""
","""event"",""trial"",""time""
""blur"",""19"",""339122""
","""event"",""trial"",""time""
""focus"",""19"",""354985""
","""event"",""trial"",""time""
""fullscreenenter"",""1"",""2505""
","
","","","-1","","","20","8812","3956","&#9826;","elianto","#f73b6a7A","-1","-1","1","-10","[]","0","0","3","","","","","","","",""
"pit-trial","63","792950","0.0-2.0-14.0-4.0","battery-v0.2","","""event"",""trial"",""time""
""fullscreenenter"",""1"",""2505""
""blur"",""19"",""339122""
""focus"",""19"",""354985""
","""event"",""trial"",""time""
""blur"",""19"",""339122""
","""event"",""trial"",""time""
""focus"",""19"",""354985""
","""event"",""trial"",""time""
""fullscreenenter"",""1"",""2505""
","
","","","-1","","","20","8812","3956","&#9826;","elianto","#f73b6a7A","-1","-1","1","0","[]","0","0","3","","","","","","","",""
"pit-trial","64","797826","0.0-2.0-14.1-0.1","battery-v0.2","","""event"",""trial"",""time""
""fullscreenenter"",""1"",""2505""
""blur"",""19"",""339122""
""focus"",""19"",""354985""
","""event"",""trial"",""time""
""blur"",""19"",""339122""
","""event"",""trial"",""time""
""focus"",""19"",""354985""
","""event"",""trial"",""time""
""fullscreenenter"",""1"",""2505""
","
","","","-1","","","20","8812","3956","&#9826;","elianto","#f73b6a7A","-1","-1","1","0","[]","0","0","3","","","","","","","",""
"pit-trial","65","802685","0.0-2.0-14.1-1.1","battery-v0.2","","""event"",""trial"",""time""
""fullscreenenter"",""1"",""2505""
""blur"",""19"",""339122""
""focus"",""19"",""354985""
","""event"",""trial"",""time""
""blur"",""19"",""339122""
","""event"",""trial"",""time""
""focus"",""19"",""354985""
","""event"",""trial"",""time""
""fullscreenenter"",""1"",""2505""
","
","","","-1","","","20","8812","3956","&#9826;","elianto","#f73b6a7A","-1","-1","1","0","[]","0","0","3","","","","","","","",""
"pit-trial","66","807554","0.0-2.0-14.1-2.1","battery-v0.2","","""event"",""trial"",""time""
""fullscreenenter"",""1"",""2505""
""blur"",""19"",""339122""
""focus"",""19"",""354985""
","""event"",""trial"",""time""
""blur"",""19"",""339122""
","""event"",""trial"",""time""
""focus"",""19"",""354985""
","""event"",""trial"",""time""
""fullscreenenter"",""1"",""2505""
","
","","","-1","","","20","8812","3956","&#9826;","elianto","#f73b6a7A","-1","-1","1","0","[]","0","0","3","","","","","","","",""
"pit-trial","67","812408","0.0-2.0-14.1-3.1","battery-v0.2","","""event"",""trial"",""time""
""fullscreenenter"",""1"",""2505""
""blur"",""19"",""339122""
""focus"",""19"",""354985""
","""event"",""trial"",""time""
""blur"",""19"",""339122""
","""event"",""trial"",""time""
""focus"",""19"",""354985""
","""event"",""trial"",""time""
""fullscreenenter"",""1"",""2505""
","
","","","-1","","","20","8812","3956","&#9826;","elianto","#f73b6a7A","-1","-1","1","-10","[]","0","0","3","","","","","","","",""
"pit-trial","68","817264","0.0-2.0-14.1-4.1","battery-v0.2","","""event"",""trial"",""time""
""fullscreenenter"",""1"",""2505""
""blur"",""19"",""339122""
""focus"",""19"",""354985""
","""event"",""trial"",""time""
""blur"",""19"",""339122""
","""event"",""trial"",""time""
""focus"",""19"",""354985""
","""event"",""trial"",""time""
""fullscreenenter"",""1"",""2505""
","
","","","-1","","","20","8812","3956","&#9826;","elianto","#f73b6a7A","-1","-1","1","0","[]","0","0","3","","","","","","","",""
"pit-trial","69","822118","0.0-2.0-14.2-0.2","battery-v0.2","","""event"",""trial"",""time""
""fullscreenenter"",""1"",""2505""
""blur"",""19"",""339122""
""focus"",""19"",""354985""
","""event"",""trial"",""time""
""blur"",""19"",""339122""
","""event"",""trial"",""time""
""focus"",""19"",""354985""
","""event"",""trial"",""time""
""fullscreenenter"",""1"",""2505""
","
","","","-1","","","20","8812","3956","&#9826;","elianto","#f73b6a7A","-1","-1","1","0","[]","0","0","3","","","","","","","",""
"pit-trial","70","826973","0.0-2.0-14.2-1.2","battery-v0.2","","""event"",""trial"",""time""
""fullscreenenter"",""1"",""2505""
""blur"",""19"",""339122""
""focus"",""19"",""354985""
","""event"",""trial"",""time""
""blur"",""19"",""339122""
","""event"",""trial"",""time""
""focus"",""19"",""354985""
","""event"",""trial"",""time""
""fullscreenenter"",""1"",""2505""
","
","","","-1","","","20","8812","3956","&#9826;","elianto","#f73b6a7A","-1","-1","1","0","[]","0","0","3","","","","","","","",""
"pit-trial","71","831828","0.0-2.0-14.2-2.2","battery-v0.2","","""event"",""trial"",""time""
""fullscreenenter"",""1"",""2505""
""blur"",""19"",""339122""
""focus"",""19"",""354985""
","""event"",""trial"",""time""
""blur"",""19"",""339122""
","""event"",""trial"",""time""
""focus"",""19"",""354985""
","""event"",""trial"",""time""
""fullscreenenter"",""1"",""2505""
","
","","","-1","","","20","8812","3956","&#9826;","elianto","#f73b6a7A","-1","-1","1","0","[]","0","0","3","","","","","","","",""
"pit-trial","72","836681","0.0-2.0-14.2-3.2","battery-v0.2","","""event"",""trial"",""time""
""fullscreenenter"",""1"",""2505""
""blur"",""19"",""339122""
""focus"",""19"",""354985""
","""event"",""trial"",""time""
""blur"",""19"",""339122""
","""event"",""trial"",""time""
""focus"",""19"",""354985""
","""event"",""trial"",""time""
""fullscreenenter"",""1"",""2505""
","
","","","-1","","","20","8812","3956","&#9826;","elianto","#f73b6a7A","-1","-1","1","-10","[]","0","0","3","","","","","","","",""
"pit-trial","73","841549","0.0-2.0-14.2-4.2","battery-v0.2","","""event"",""trial"",""time""
""fullscreenenter"",""1"",""2505""
""blur"",""19"",""339122""
""focus"",""19"",""354985""
","""event"",""trial"",""time""
""blur"",""19"",""339122""
","""event"",""trial"",""time""
""focus"",""19"",""354985""
","""event"",""trial"",""time""
""fullscreenenter"",""1"",""2505""
","
","","","-1","","","20","8812","3956","&#9826;","elianto","#f73b6a7A","-1","-1","1","0","[]","0","0","3","","","","","","","",""
"pit-trial","74","846401","0.0-2.0-14.3-0.3","battery-v0.2","","""event"",""trial"",""time""
""fullscreenenter"",""1"",""2505""
""blur"",""19"",""339122""
""focus"",""19"",""354985""
","""event"",""trial"",""time""
""blur"",""19"",""339122""
","""event"",""trial"",""time""
""focus"",""19"",""354985""
","""event"",""trial"",""time""
""fullscreenenter"",""1"",""2505""
","
","","","-1","","","20","8812","3956","&#9826;","elianto","#f73b6a7A","-1","-1","1","0","[]","0","0","3","","","","","","","",""
"pit-trial","75","851256","0.0-2.0-14.3-1.3","battery-v0.2","","""event"",""trial"",""time""
""fullscreenenter"",""1"",""2505""
""blur"",""19"",""339122""
""focus"",""19"",""354985""
","""event"",""trial"",""time""
""blur"",""19"",""339122""
","""event"",""trial"",""time""
""focus"",""19"",""354985""
","""event"",""trial"",""time""
""fullscreenenter"",""1"",""2505""
","
","","","-1","","","20","8812","3956","&#9826;","elianto","#f73b6a7A","-1","-1","1","0","[]","0","0","3","","","","","","","",""
"pit-trial","76","856109","0.0-2.0-14.3-2.3","battery-v0.2","","""event"",""trial"",""time""
""fullscreenenter"",""1"",""2505""
""blur"",""19"",""339122""
""focus"",""19"",""354985""
","""event"",""trial"",""time""
""blur"",""19"",""339122""
","""event"",""trial"",""time""
""focus"",""19"",""354985""
","""event"",""trial"",""time""
""fullscreenenter"",""1"",""2505""
","
","","","-1","","","20","8812","3956","&#9826;","elianto","#f73b6a7A","-1","-1","1","0","[]","0","0","3","","","","","","","",""
"pit-trial","77","860962","0.0-2.0-14.3-3.3","battery-v0.2","","""event"",""trial"",""time""
""fullscreenenter"",""1"",""2505""
""blur"",""19"",""339122""
""focus"",""19"",""354985""
","""event"",""trial"",""time""
""blur"",""19"",""339122""
","""event"",""trial"",""time""
""focus"",""19"",""354985""
","""event"",""trial"",""time""
""fullscreenenter"",""1"",""2505""
","
","","","-1","","","20","8812","3956","&#9826;","elianto","#f73b6a7A","-1","-1","1","-10","[]","0","0","3","","","","","","","",""
"pit-trial","78","865815","0.0-2.0-14.3-4.3","battery-v0.2","","""event"",""trial"",""time""
""fullscreenenter"",""1"",""2505""
""blur"",""19"",""339122""
""focus"",""19"",""354985""
","""event"",""trial"",""time""
""blur"",""19"",""339122""
","""event"",""trial"",""time""
""focus"",""19"",""354985""
","""event"",""trial"",""time""
""fullscreenenter"",""1"",""2505""
","
","","","-1","","","20","8812","3956","&#9826;","elianto","#f73b6a7A","-1","-1","1","0","[]","0","0","3","","","","","","","",""
"call-function","79","865817","0.0-2.0-15.0","battery-v0.2","","""event"",""trial"",""time""
""fullscreenenter"",""1"",""2505""
""blur"",""19"",""339122""
""focus"",""19"",""354985""
""blur"",""80"",""937732""
""focus"",""80"",""975218""
","""event"",""trial"",""time""
""blur"",""19"",""339122""
""blur"",""80"",""937732""
","""event"",""trial"",""time""
""focus"",""19"",""354985""
""focus"",""80"",""975218""
","""event"",""trial"",""time""
""fullscreenenter"",""1"",""2505""
","
","","","","","","","","","","","","","","","","","","","","","","","","","","",""
"pit-instructions","80","1204374","0.0-2.0-16.0","battery-v0.2","","""event"",""trial"",""time""
""fullscreenenter"",""1"",""2505""
""blur"",""19"",""339122""
""focus"",""19"",""354985""
""blur"",""80"",""937732""
""focus"",""80"",""975218""
","""event"",""trial"",""time""
""blur"",""19"",""339122""
""blur"",""80"",""937732""
","""event"",""trial"",""time""
""focus"",""19"",""354985""
""focus"",""80"",""975218""
","""event"",""trial"",""time""
""fullscreenenter"",""1"",""2505""
","
","","[{""page_index"":0,""viewing_time"":110897},{""page_index"":1,""viewing_time"":219012},{""page_index"":2,""viewing_time"":4059},{""page_index"":3,""viewing_time"":4588}]","338557","","","","","","","","","","","","","","","","","","","","","","","",""
"pit-trial","81","1207704","0.0-2.0-17.0-0.0","battery-v0.2","","""event"",""trial"",""time""
""fullscreenenter"",""1"",""2505""
""blur"",""19"",""339122""
""focus"",""19"",""354985""
""blur"",""80"",""937732""
""focus"",""80"",""975218""
","""event"",""trial"",""time""
""blur"",""19"",""339122""
""blur"",""80"",""937732""
","""event"",""trial"",""time""
""focus"",""19"",""354985""
""focus"",""80"",""975218""
","""event"",""trial"",""time""
""fullscreenenter"",""1"",""2505""
","
","","","470","","","20","8812","3956","&#9789;","elianto","#f73b6a7A"," "," ","1","0","[1326,3149]","2","0","4","","","","","","","",""
"pit-trial","82","1210713","0.0-2.0-17.0-1.0","battery-v0.2","","""event"",""trial"",""time""
""fullscreenenter"",""1"",""2505""
""blur"",""19"",""339122""
""focus"",""19"",""354985""
""blur"",""80"",""937732""
""focus"",""80"",""975218""
","""event"",""trial"",""time""
""blur"",""19"",""339122""
""blur"",""80"",""937732""
","""event"",""trial"",""time""
""focus"",""19"",""354985""
""focus"",""80"",""975218""
","""event"",""trial"",""time""
""fullscreenenter"",""1"",""2505""
","
","","","143","","","20","8812","3956","&#9789;","elianto","#f73b6a7A"," "," ","1","0","[57,269,445,640,828,1002,1207,1380,1544,1749,1931,2105,2273,2490,2666,2834]","16","0","4","","","","","","","",""
"pit-trial","83","1213812","0.0-2.0-17.0-2.0","battery-v0.2","","""event"",""trial"",""time""
""fullscreenenter"",""1"",""2505""
""blur"",""19"",""339122""
""focus"",""19"",""354985""
""blur"",""80"",""937732""
""focus"",""80"",""975218""
","""event"",""trial"",""time""
""blur"",""19"",""339122""
""blur"",""80"",""937732""
","""event"",""trial"",""time""
""focus"",""19"",""354985""
""focus"",""80"",""975218""
","""event"",""trial"",""time""
""fullscreenenter"",""1"",""2505""
","
","","","239","","","20","8812","3956","&#9789;","elianto","#f73b6a7A"," "," ","1","0","[8,193,378,576,844,1090,1323,1489,1713,2114,2475,2633,2867,3035]","14","0","4","","","","","","","",""
"pit-trial","84","1216714","0.0-2.0-17.0-3.0","battery-v0.2","","""event"",""trial"",""time""
""fullscreenenter"",""1"",""2505""
""blur"",""19"",""339122""
""focus"",""19"",""354985""
""blur"",""80"",""937732""
""focus"",""80"",""975218""
","""event"",""trial"",""time""
""blur"",""19"",""339122""
""blur"",""80"",""937732""
","""event"",""trial"",""time""
""focus"",""19"",""354985""
""focus"",""80"",""975218""
","""event"",""trial"",""time""
""fullscreenenter"",""1"",""2505""
","
","","","42","","","20","8812","3956","&#9789;","elianto","#f73b6a7A"," "," ","1","-10","[154,320,478,672,894,1074,1273,1455,1639,1832,2031,2217,2552,2786]","14","0","4","","","","","","","",""
"pit-trial","85","1219628","0.0-2.0-17.0-4.0","battery-v0.2","","""event"",""trial"",""time""
""fullscreenenter"",""1"",""2505""
""blur"",""19"",""339122""
""focus"",""19"",""354985""
""blur"",""80"",""937732""
""focus"",""80"",""975218""
","""event"",""trial"",""time""
""blur"",""19"",""339122""
""blur"",""80"",""937732""
","""event"",""trial"",""time""
""focus"",""19"",""354985""
""focus"",""80"",""975218""
","""event"",""trial"",""time""
""fullscreenenter"",""1"",""2505""
","
","","","57","","","20","8812","3956","&#9789;","elianto","#f73b6a7A"," "," ","1","0","[69,304,488,710,910,1128,1312,1513,1676,1873,2063,2270,2454,2655,2887]","15","0","4","","","","","","","",""
"pit-trial","86","1222721","0.0-2.0-17.1-0.1","battery-v0.2","","""event"",""trial"",""time""
""fullscreenenter"",""1"",""2505""
""blur"",""19"",""339122""
""focus"",""19"",""354985""
""blur"",""80"",""937732""
""focus"",""80"",""975218""
","""event"",""trial"",""time""
""blur"",""19"",""339122""
""blur"",""80"",""937732""
","""event"",""trial"",""time""
""focus"",""19"",""354985""
""focus"",""80"",""975218""
","""event"",""trial"",""time""
""fullscreenenter"",""1"",""2505""
","
","","","224","","","20","8812","3956","&#9789;","elianto","#f73b6a7A"," "," ","1","0","[147,347,564,778,1075,1290,1507,1686,1867,2035,2220,2403,2587,2790,2980]","15","0","4","","","","","","","",""
"pit-trial","87","1225799","0.0-2.0-17.1-1.1","battery-v0.2","","""event"",""trial"",""time""
""fullscreenenter"",""1"",""2505""
""blur"",""19"",""339122""
""focus"",""19"",""354985""
""blur"",""80"",""937732""
""focus"",""80"",""975218""
","""event"",""trial"",""time""
""blur"",""19"",""339122""
""blur"",""80"",""937732""
","""event"",""trial"",""time""
""focus"",""19"",""354985""
""focus"",""80"",""975218""
","""event"",""trial"",""time""
""fullscreenenter"",""1"",""2505""
","
","","","222","","","20","8812","3956","&#9789;","elianto","#f73b6a7A"," "," ","1","0","[97,256,457,649,849,1073,1261,1452,1645,2061,2274,2465,2683,2873]","14","0","4","","","","","","","",""
"pit-trial","88","1228962","0.0-2.0-17.1-2.1","battery-v0.2","","""event"",""trial"",""time""
""fullscreenenter"",""1"",""2505""
""blur"",""19"",""339122""
""focus"",""19"",""354985""
""blur"",""80"",""937732""
""focus"",""80"",""975218""
","""event"",""trial"",""time""
""blur"",""19"",""339122""
""blur"",""80"",""937732""
","""event"",""trial"",""time""
""focus"",""19"",""354985""
""focus"",""80"",""975218""
","""event"",""trial"",""time""
""fullscreenenter"",""1"",""2505""
","
","","","295","","","20","8812","3956","&#9789;","elianto","#f73b6a7A"," "," ","1","0","[28,301,507,821,1147,1406,1955,2229,2406,2604,2835,3138]","12","0","4","","","","","","","",""
"pit-trial","89","1232168","0.0-2.0-17.1-3.1","battery-v0.2","","""event"",""trial"",""time""
""fullscreenenter"",""1"",""2505""
""blur"",""19"",""339122""
""focus"",""19"",""354985""
""blur"",""80"",""937732""
""focus"",""80"",""975218""
","""event"",""trial"",""time""
""blur"",""19"",""339122""
""blur"",""80"",""937732""
","""event"",""trial"",""time""
""focus"",""19"",""354985""
""focus"",""80"",""975218""
","""event"",""trial"",""time""
""fullscreenenter"",""1"",""2505""
","
","","","337","","","20","8812","3956","&#9789;","elianto","#f73b6a7A"," "," ","1","-10","[350,638,1190,1864,2121,2399,2615,2810,3023]","9","0","4","","","","","","","",""
"pit-trial","90","1235101","0.0-2.0-17.1-4.1","battery-v0.2","","""event"",""trial"",""time""
""fullscreenenter"",""1"",""2505""
""blur"",""19"",""339122""
""focus"",""19"",""354985""
""blur"",""80"",""937732""
""focus"",""80"",""975218""
","""event"",""trial"",""time""
""blur"",""19"",""339122""
""blur"",""80"",""937732""
","""event"",""trial"",""time""
""focus"",""19"",""354985""
""focus"",""80"",""975218""
","""event"",""trial"",""time""
""fullscreenenter"",""1"",""2505""
","
","","","74","","","20","8812","3956","&#9789;","elianto","#f73b6a7A"," "," ","1","0","[16,256,530,735,928,1139,1339,1588,1784,2033,2251,2551,2808]","13","0","4","","","","","","","",""
"pit-trial","91","1238021","0.0-2.0-17.2-0.2","battery-v0.2","","""event"",""trial"",""time""
""fullscreenenter"",""1"",""2505""
""blur"",""19"",""339122""
""focus"",""19"",""354985""
""blur"",""80"",""937732""
""focus"",""80"",""975218""
","""event"",""trial"",""time""
""blur"",""19"",""339122""
""blur"",""80"",""937732""
","""event"",""trial"",""time""
""focus"",""19"",""354985""
""focus"",""80"",""975218""
","""event"",""trial"",""time""
""fullscreenenter"",""1"",""2505""
","
","","","67","","","20","8812","3956","&#9789;","elianto","#f73b6a7A"," "," ","1","0","[214,444,660,918,1180,1447,1668,1912,2166,2423,2648,2860]","12","0","4","","","","","","","",""
"pit-trial","92","1240963","0.0-2.0-17.2-1.2","battery-v0.2","","""event"",""trial"",""time""
""fullscreenenter"",""1"",""2505""
""blur"",""19"",""339122""
""focus"",""19"",""354985""
""blur"",""80"",""937732""
""focus"",""80"",""975218""
","""event"",""trial"",""time""
""blur"",""19"",""339122""
""blur"",""80"",""937732""
","""event"",""trial"",""time""
""focus"",""19"",""354985""
""focus"",""80"",""975218""
","""event"",""trial"",""time""
""fullscreenenter"",""1"",""2505""
","
","","","90","","","20","8812","3956","&#9789;","elianto","#f73b6a7A"," "," ","1","0","[180,412,672,941,1167,1484,1709,2020,2296,2613,2892]","11","0","4","","","","","","","",""
"pit-trial","93","1243876","0.0-2.0-17.2-2.2","battery-v0.2","","""event"",""trial"",""time""
""fullscreenenter"",""1"",""2505""
""blur"",""19"",""339122""
""focus"",""19"",""354985""
""blur"",""80"",""937732""
""focus"",""80"",""975218""
","""event"",""trial"",""time""
""blur"",""19"",""339122""
""blur"",""80"",""937732""
","""event"",""trial"",""time""
""focus"",""19"",""354985""
""focus"",""80"",""975218""
","""event"",""trial"",""time""
""fullscreenenter"",""1"",""2505""
","
","","","61","","","20","8812","3956","&#9789;","elianto","#f73b6a7A"," "," ","1","0","[222,486,687,911,1150,1449,1824,2075,2385,2618,2831]","11","0","4","","","","","","","",""
"pit-trial","94","1246795","0.0-2.0-17.2-3.2","battery-v0.2","","""event"",""trial"",""time""
""fullscreenenter"",""1"",""2505""
""blur"",""19"",""339122""
""focus"",""19"",""354985""
""blur"",""80"",""937732""
""focus"",""80"",""975218""
","""event"",""trial"",""time""
""blur"",""19"",""339122""
""blur"",""80"",""937732""
","""event"",""trial"",""time""
""focus"",""19"",""354985""
""focus"",""80"",""975218""
","""event"",""trial"",""time""
""fullscreenenter"",""1"",""2505""
","
","","","64","","","20","8812","3956","&#9789;","elianto","#f73b6a7A"," "," ","1","-10","[132,380,700,915,1140,1397,1608,1829,2048,2263,2461,2668,2876]","13","0","4","","","","","","","",""
"pit-trial","95","1249803","0.0-2.0-17.2-4.2","battery-v0.2","","""event"",""trial"",""time""
""fullscreenenter"",""1"",""2505""
""blur"",""19"",""339122""
""focus"",""19"",""354985""
""blur"",""80"",""937732""
""focus"",""80"",""975218""
","""event"",""trial"",""time""
""blur"",""19"",""339122""
""blur"",""80"",""937732""
","""event"",""trial"",""time""
""focus"",""19"",""354985""
""focus"",""80"",""975218""
","""event"",""trial"",""time""
""fullscreenenter"",""1"",""2505""
","
","","","156","","","20","8812","3956","&#9789;","elianto","#f73b6a7A"," "," ","1","0","[218,407,615,807,1007,1210,1575,1800,2007,2840]","10","0","4","","","","","","","",""
"pit-trial","96","1252756","0.0-2.0-17.3-0.3","battery-v0.2","","""event"",""trial"",""time""
""fullscreenenter"",""1"",""2505""
""blur"",""19"",""339122""
""focus"",""19"",""354985""
""blur"",""80"",""937732""
""focus"",""80"",""975218""
","""event"",""trial"",""time""
""blur"",""19"",""339122""
""blur"",""80"",""937732""
","""event"",""trial"",""time""
""focus"",""19"",""354985""
""focus"",""80"",""975218""
","""event"",""trial"",""time""
""fullscreenenter"",""1"",""2505""
","
","","","98","","","20","8812","3956","&#9789;","elianto","#f73b6a7A"," "," ","1","0","[84,299,724,949,1165,1404,1597,1820,2031,2271,2484,2710]","12","0","4","","","","","","","",""
"pit-trial","97","1255765","0.0-2.0-17.3-1.3","battery-v0.2","","""event"",""trial"",""time""
""fullscreenenter"",""1"",""2505""
""blur"",""19"",""339122""
""focus"",""19"",""354985""
""blur"",""80"",""937732""
""focus"",""80"",""975218""
","""event"",""trial"",""time""
""blur"",""19"",""339122""
""blur"",""80"",""937732""
","""event"",""trial"",""time""
""focus"",""19"",""354985""
""focus"",""80"",""975218""
","""event"",""trial"",""time""
""fullscreenenter"",""1"",""2505""
","
","","","154","","","20","8812","3956","&#9789;","elianto","#f73b6a7A"," "," ","1","0","[14,260,510,772,1005,1320,1549,1798,2110,2368,2606,2895]","12","0","4","","","","","","","",""
"pit-trial","98","1258709","0.0-2.0-17.3-2.3","battery-v0.2","","""event"",""trial"",""time""
""fullscreenenter"",""1"",""2505""
""blur"",""19"",""339122""
""focus"",""19"",""354985""
""blur"",""80"",""937732""
""focus"",""80"",""975218""
","""event"",""trial"",""time""
""blur"",""19"",""339122""
""blur"",""80"",""937732""
","""event"",""trial"",""time""
""focus"",""19"",""354985""
""focus"",""80"",""975218""
","""event"",""trial"",""time""
""fullscreenenter"",""1"",""2505""
","
","","","91","","","20","8812","3956","&#9789;","elianto","#f73b6a7A"," "," ","1","0","[102,358,701,942,1208,1541,2054,2396,2709]","9","0","4","","","","","","","",""
"pit-trial","99","1261709","0.0-2.0-17.3-3.3","battery-v0.2","","""event"",""trial"",""time""
""fullscreenenter"",""1"",""2505""
""blur"",""19"",""339122""
""focus"",""19"",""354985""
""blur"",""80"",""937732""
""focus"",""80"",""975218""
","""event"",""trial"",""time""
""blur"",""19"",""339122""
""blur"",""80"",""937732""
","""event"",""trial"",""time""
""focus"",""19"",""354985""
""focus"",""80"",""975218""
","""event"",""trial"",""time""
""fullscreenenter"",""1"",""2505""
","
","","","146","","","20","8812","3956","&#9789;","elianto","#f73b6a7A"," "," ","1","-10","[460,685,997,1406,1615,1845,2062,2317,2613,2862]","10","0","4","","","","","","","",""
"pit-trial","100","1264716","0.0-2.0-17.3-4.3","battery-v0.2","","""event"",""trial"",""time""
""fullscreenenter"",""1"",""2505""
""blur"",""19"",""339122""
""focus"",""19"",""354985""
""blur"",""80"",""937732""
""focus"",""80"",""975218""
","""event"",""trial"",""time""
""blur"",""19"",""339122""
""blur"",""80"",""937732""
","""event"",""trial"",""time""
""focus"",""19"",""354985""
""focus"",""80"",""975218""
","""event"",""trial"",""time""
""fullscreenenter"",""1"",""2505""
","
","","","152","","","20","8812","3956","&#9789;","elianto","#f73b6a7A"," "," ","1","0","[75,323,555,755,1003,1252,1478,1725,1942,2172,2420,2647,2876]","13","0","4","","","","","","","",""
"call-function","101","1264719","0.0-2.0-18.0","battery-v0.2","","""event"",""trial"",""time""
""fullscreenenter"",""1"",""2505""
""blur"",""19"",""339122""
""focus"",""19"",""354985""
""blur"",""80"",""937732""
""focus"",""80"",""975218""
","""event"",""trial"",""time""
""blur"",""19"",""339122""
""blur"",""80"",""937732""
","""event"",""trial"",""time""
""focus"",""19"",""354985""
""focus"",""80"",""975218""
","""event"",""trial"",""time""
""fullscreenenter"",""1"",""2505""
","
","","","","","","","","","","","","","","","","","","","","","","","","","","",""
"pit-instructions","102","1508162","0.0-2.0-19.0","battery-v0.2","","""event"",""trial"",""time""
""fullscreenenter"",""1"",""2505""
""blur"",""19"",""339122""
""focus"",""19"",""354985""
""blur"",""80"",""937732""
""focus"",""80"",""975218""
","""event"",""trial"",""time""
""blur"",""19"",""339122""
""blur"",""80"",""937732""
","""event"",""trial"",""time""
""focus"",""19"",""354985""
""focus"",""80"",""975218""
","""event"",""trial"",""time""
""fullscreenenter"",""1"",""2505""
","
","","[{""page_index"":0,""viewing_time"":68870},{""page_index"":1,""viewing_time"":117874},{""page_index"":2,""viewing_time"":13697},{""page_index"":3,""viewing_time"":8057},{""page_index"":4,""viewing_time"":8073},{""page_index"":5,""viewing_time"":8313},{""page_index"":6,""viewing_time"":8878},{""page_index"":7,""viewing_time"":5891},{""page_index"":8,""viewing_time"":3788}]","243442","","","","","","","","","","","","","","","","","","","","","","","",""
"pit-comprehension","103","1512564","0.0-2.0-20.0-0.0","battery-v0.2","","""event"",""trial"",""time""
""fullscreenenter"",""1"",""2505""
""blur"",""19"",""339122""
""focus"",""19"",""354985""
""blur"",""80"",""937732""
""focus"",""80"",""975218""
","""event"",""trial"",""time""
""blur"",""19"",""339122""
""blur"",""80"",""937732""
","""event"",""trial"",""time""
""focus"",""19"",""354985""
""focus"",""80"",""975218""
","""event"",""trial"",""time""
""fullscreenenter"",""1"",""2505""
","
","","","4401","[""SPACE""]","0","20","8812","3956","","","","","","","","","","","","","","","","","","",""
"pit-instructions","104","1515539","0.0-2.0-20.0-1.0","battery-v0.2","","""event"",""trial"",""time""
""fullscreenenter"",""1"",""2505""
""blur"",""19"",""339122""
""focus"",""19"",""354985""
""blur"",""80"",""937732""
""focus"",""80"",""975218""
","""event"",""trial"",""time""
""blur"",""19"",""339122""
""blur"",""80"",""937732""
","""event"",""trial"",""time""
""focus"",""19"",""354985""
""focus"",""80"",""975218""
","""event"",""trial"",""time""
""fullscreenenter"",""1"",""2505""
","
","","[{""page_index"":0,""viewing_time"":2939}]","2939","","","","","","","","","","","","","","","","","","","","","","","",""
"pit-comprehension","105","1523155","0.0-2.0-21.0-0.0","battery-v0.2","","""event"",""trial"",""time""
""fullscreenenter"",""1"",""2505""
""blur"",""19"",""339122""
""focus"",""19"",""354985""
""blur"",""80"",""937732""
""focus"",""80"",""975218""
","""event"",""trial"",""time""
""blur"",""19"",""339122""
""blur"",""80"",""937732""
","""event"",""trial"",""time""
""focus"",""19"",""354985""
""focus"",""80"",""975218""
","""event"",""trial"",""time""
""fullscreenenter"",""1"",""2505""
","
","","","7614","[""10""]","0","20","8812","3956","","","","","","","","","","","","","","","","","","",""
"pit-instructions","106","1524903","0.0-2.0-21.0-1.0","battery-v0.2","","""event"",""trial"",""time""
""fullscreenenter"",""1"",""2505""
""blur"",""19"",""339122""
""focus"",""19"",""354985""
""blur"",""80"",""937732""
""focus"",""80"",""975218""
","""event"",""trial"",""time""
""blur"",""19"",""339122""
""blur"",""80"",""937732""
","""event"",""trial"",""time""
""focus"",""19"",""354985""
""focus"",""80"",""975218""
","""event"",""trial"",""time""
""fullscreenenter"",""1"",""2505""
","
","","[{""page_index"":0,""viewing_time"":1711}]","1712","","","","","","","","","","","","","","","","","","","","","","","",""
"pit-comprehension","107","1533527","0.0-2.0-22.0-0.0","battery-v0.2","","""event"",""trial"",""time""
""fullscreenenter"",""1"",""2505""
""blur"",""19"",""339122""
""focus"",""19"",""354985""
""blur"",""80"",""937732""
""focus"",""80"",""975218""
","""event"",""trial"",""time""
""blur"",""19"",""339122""
""blur"",""80"",""937732""
","""event"",""trial"",""time""
""focus"",""19"",""354985""
""focus"",""80"",""975218""
","""event"",""trial"",""time""
""fullscreenenter"",""1"",""2505""
","
","","","8621","[""0""]","0","20","8812","3956","","","","","","","","","","","","","","","","","","",""
"pit-instructions","108","1535482","0.0-2.0-22.0-1.0","battery-v0.2","","""event"",""trial"",""time""
""fullscreenenter"",""1"",""2505""
""blur"",""19"",""339122""
""focus"",""19"",""354985""
""blur"",""80"",""937732""
""focus"",""80"",""975218""
","""event"",""trial"",""time""
""blur"",""19"",""339122""
""blur"",""80"",""937732""
","""event"",""trial"",""time""
""focus"",""19"",""354985""
""focus"",""80"",""975218""
","""event"",""trial"",""time""
""fullscreenenter"",""1"",""2505""
","
","","[{""page_index"":0,""viewing_time"":1921}]","1921","","","","","","","","","","","","","","","","","","","","","","","",""
"pit-comprehension","109","1546191","0.0-2.0-23.0-0.0","battery-v0.2","","""event"",""trial"",""time""
""fullscreenenter"",""1"",""2505""
""blur"",""19"",""339122""
""focus"",""19"",""354985""
""blur"",""80"",""937732""
""focus"",""80"",""975218""
","""event"",""trial"",""time""
""blur"",""19"",""339122""
""blur"",""80"",""937732""
","""event"",""trial"",""time""
""focus"",""19"",""354985""
""focus"",""80"",""975218""
","""event"",""trial"",""time""
""fullscreenenter"",""1"",""2505""
","
","","","10707","[""True""]","0","20","8812","3956","","","","","","","","","","","","","","","","","","",""
"pit-instructions","110","1548846","0.0-2.0-23.0-1.0","battery-v0.2","","""event"",""trial"",""time""
""fullscreenenter"",""1"",""2505""
""blur"",""19"",""339122""
""focus"",""19"",""354985""
""blur"",""80"",""937732""
""focus"",""80"",""975218""
","""event"",""trial"",""time""
""blur"",""19"",""339122""
""blur"",""80"",""937732""
","""event"",""trial"",""time""
""focus"",""19"",""354985""
""focus"",""80"",""975218""
","""event"",""trial"",""time""
""fullscreenenter"",""1"",""2505""
","
","","[{""page_index"":0,""viewing_time"":2617}]","2618","","","","","","","","","","","","","","","","","","","","","","","",""
"pit-comprehension","111","1556192","0.0-2.0-24.0-0.0","battery-v0.2","","""event"",""trial"",""time""
""fullscreenenter"",""1"",""2505""
""blur"",""19"",""339122""
""focus"",""19"",""354985""
""blur"",""80"",""937732""
""focus"",""80"",""975218""
","""event"",""trial"",""time""
""blur"",""19"",""339122""
""blur"",""80"",""937732""
","""event"",""trial"",""time""
""focus"",""19"",""354985""
""focus"",""80"",""975218""
","""event"",""trial"",""time""
""fullscreenenter"",""1"",""2505""
","
","","","7344","[""True""]","0","20","8812","3956","","","","","","","","","","","","","","","","","","",""
"pit-instructions","112","1558328","0.0-2.0-24.0-1.0","battery-v0.2","","""event"",""trial"",""time""
""fullscreenenter"",""1"",""2505""
""blur"",""19"",""339122""
""focus"",""19"",""354985""
""blur"",""80"",""937732""
""focus"",""80"",""975218""
","""event"",""trial"",""time""
""blur"",""19"",""339122""
""blur"",""80"",""937732""
","""event"",""trial"",""time""
""focus"",""19"",""354985""
""focus"",""80"",""975218""
","""event"",""trial"",""time""
""fullscreenenter"",""1"",""2505""
","
","","[{""page_index"":0,""viewing_time"":2102}]","2102","","","","","","","","","","","","","","","","","","","","","","","",""
"pit-comprehension","113","1564703","0.0-2.0-25.0-0.0","battery-v0.2","","""event"",""trial"",""time""
""fullscreenenter"",""1"",""2505""
""blur"",""19"",""339122""
""focus"",""19"",""354985""
""blur"",""80"",""937732""
""focus"",""80"",""975218""
","""event"",""trial"",""time""
""blur"",""19"",""339122""
""blur"",""80"",""937732""
","""event"",""trial"",""time""
""focus"",""19"",""354985""
""focus"",""80"",""975218""
","""event"",""trial"",""time""
""fullscreenenter"",""1"",""2505""
","
","","","6373","[""True""]","0","20","8812","3956","","","","","","","","","","","","","","","","","","",""
"pit-instructions","114","1566879","0.0-2.0-25.0-1.0","battery-v0.2","","""event"",""trial"",""time""
""fullscreenenter"",""1"",""2505""
""blur"",""19"",""339122""
""focus"",""19"",""354985""
""blur"",""80"",""937732""
""focus"",""80"",""975218""
","""event"",""trial"",""time""
""blur"",""19"",""339122""
""blur"",""80"",""937732""
","""event"",""trial"",""time""
""focus"",""19"",""354985""
""focus"",""80"",""975218""
","""event"",""trial"",""time""
""fullscreenenter"",""1"",""2505""
","
","","[{""page_index"":0,""viewing_time"":2137}]","2137","","","","","","","","","","","","","","","","","","","","","","","",""
"pit-comprehension","115","1571561","0.0-2.0-26.0-0.0","battery-v0.2","","""event"",""trial"",""time""
""fullscreenenter"",""1"",""2505""
""blur"",""19"",""339122""
""focus"",""19"",""354985""
""blur"",""80"",""937732""
""focus"",""80"",""975218""
","""event"",""trial"",""time""
""blur"",""19"",""339122""
""blur"",""80"",""937732""
","""event"",""trial"",""time""
""focus"",""19"",""354985""
""focus"",""80"",""975218""
","""event"",""trial"",""time""
""fullscreenenter"",""1"",""2505""
","
","","","4683","[""False""]","0","20","8812","3956","","","","","","","","","","","","","","","","","","",""
"pit-instructions","116","1573750","0.0-2.0-26.0-1.0","battery-v0.2","","""event"",""trial"",""time""
""fullscreenenter"",""1"",""2505""
""blur"",""19"",""339122""
""focus"",""19"",""354985""
""blur"",""80"",""937732""
""focus"",""80"",""975218""
","""event"",""trial"",""time""
""blur"",""19"",""339122""
""blur"",""80"",""937732""
","""event"",""trial"",""time""
""focus"",""19"",""354985""
""focus"",""80"",""975218""
","""event"",""trial"",""time""
""fullscreenenter"",""1"",""2505""
","
","","[{""page_index"":0,""viewing_time"":2153}]","2153","","","","","","","","","","","","","","","","","","","","","","","",""
"pit-instructions","117","1589722","0.0-3.0","battery-v0.2","","""event"",""trial"",""time""
""fullscreenenter"",""1"",""2505""
""blur"",""19"",""339122""
""focus"",""19"",""354985""
""blur"",""80"",""937732""
""focus"",""80"",""975218""
","""event"",""trial"",""time""
""blur"",""19"",""339122""
""blur"",""80"",""937732""
","""event"",""trial"",""time""
""focus"",""19"",""354985""
""focus"",""80"",""975218""
","""event"",""trial"",""time""
""fullscreenenter"",""1"",""2505""
","
","","[{""page_index"":0,""viewing_time"":3816},{""page_index"":1,""viewing_time"":5308},{""page_index"":2,""viewing_time"":6847}]","15971","","","","","","","","","","","","","","","","","","","","","","","",""
"pit-trial","118","1593408","0.0-4.0","battery-v0.2","","""event"",""trial"",""time""
""fullscreenenter"",""1"",""2505""
""blur"",""19"",""339122""
""focus"",""19"",""354985""
""blur"",""80"",""937732""
""focus"",""80"",""975218""
","""event"",""trial"",""time""
""blur"",""19"",""339122""
""blur"",""80"",""937732""
","""event"",""trial"",""time""
""focus"",""19"",""354985""
""focus"",""80"",""975218""
","""event"",""trial"",""time""
""fullscreenenter"",""1"",""2505""
","
","","","815","","","20","8812","3956","&#9728;","elianto","#f73b6a7A","-1"," ","0","-10","[1671]","1","1","","","8812","1","0","4","lose","no-go","0"
"pit-trial","119","1597020","0.0-5.0","battery-v0.2","","""event"",""trial"",""time""
""fullscreenenter"",""1"",""2505""
""blur"",""19"",""339122""
""focus"",""19"",""354985""
""blur"",""80"",""937732""
""focus"",""80"",""975218""
","""event"",""trial"",""time""
""blur"",""19"",""339122""
""blur"",""80"",""937732""
","""event"",""trial"",""time""
""focus"",""19"",""354985""
""focus"",""80"",""975218""
","""event"",""trial"",""time""
""fullscreenenter"",""1"",""2505""
","
","","","739","","","20","8812","3956","&#9752;","elianto","#f73b6a7A"," "," ","1","0","[1601]","1","1","","","8812","2","3","3","lose","go","0"
"pit-trial","120","1600825","0.0-6.0","battery-v0.2","","""event"",""trial"",""time""
""fullscreenenter"",""1"",""2505""
""blur"",""19"",""339122""
""focus"",""19"",""354985""
""blur"",""80"",""937732""
""focus"",""80"",""975218""
","""event"",""trial"",""time""
""blur"",""19"",""339122""
""blur"",""80"",""937732""
","""event"",""trial"",""time""
""focus"",""19"",""354985""
""focus"",""80"",""975218""
","""event"",""trial"",""time""
""fullscreenenter"",""1"",""2505""
","
","","","937","","","20","8812","3956","&#9733;","elianto","#3366ff99","-1"," ","0","0","[1789]","1","1","","","8812","3","2","2","win","no-go","0"
"pit-trial","121","1604583","0.0-7.0","battery-v0.2","","""event"",""trial"",""time""
""fullscreenenter"",""1"",""2505""
""blur"",""19"",""339122""
""focus"",""19"",""354985""
""blur"",""80"",""937732""
""focus"",""80"",""975218""
","""event"",""trial"",""time""
""blur"",""19"",""339122""
""blur"",""80"",""937732""
","""event"",""trial"",""time""
""focus"",""19"",""354985""
""focus"",""80"",""975218""
","""event"",""trial"",""time""
""fullscreenenter"",""1"",""2505""
","
","","","888","","","20","8812","3956","&#9730;","elianto","#3366ff99"," "," ","1","+10","[1746]","1","1","","","8812","4","1","1","win","go","0"
"pit-trial","122","1609460","0.0-8.0","battery-v0.2","","""event"",""trial"",""time""
""fullscreenenter"",""1"",""2505""
""blur"",""19"",""339122""
""focus"",""19"",""354985""
""blur"",""80"",""937732""
""focus"",""80"",""975218""
","""event"",""trial"",""time""
""blur"",""19"",""339122""
""blur"",""80"",""937732""
","""event"",""trial"",""time""
""focus"",""19"",""354985""
""focus"",""80"",""975218""
","""event"",""trial"",""time""
""fullscreenenter"",""1"",""2505""
","
","","","-1","","","20","8812","3956","&#9733;","elianto","#3366ff99","-1","-1","1","0","[]","0","1","","","8812","5","2","2","win","no-go","1"
"pit-trial","123","1614343","0.0-9.0","battery-v0.2","","""event"",""trial"",""time""
""fullscreenenter"",""1"",""2505""
""blur"",""19"",""339122""
""focus"",""19"",""354985""
""blur"",""80"",""937732""
""focus"",""80"",""975218""
","""event"",""trial"",""time""
""blur"",""19"",""339122""
""blur"",""80"",""937732""
","""event"",""trial"",""time""
""focus"",""19"",""354985""
""focus"",""80"",""975218""
","""event"",""trial"",""time""
""fullscreenenter"",""1"",""2505""
","
","","","-1","","","20","8812","3956","&#9728;","elianto","#f73b6a7A","-1","-1","1","-10","[]","0","1","","","8812","6","0","4","lose","no-go","1"
"pit-trial","124","1618518","0.0-10.0","battery-v0.2","","""event"",""trial"",""time""
""fullscreenenter"",""1"",""2505""
""blur"",""19"",""339122""
""focus"",""19"",""354985""
""blur"",""80"",""937732""
""focus"",""80"",""975218""
","""event"",""trial"",""time""
""blur"",""19"",""339122""
""blur"",""80"",""937732""
","""event"",""trial"",""time""
""focus"",""19"",""354985""
""focus"",""80"",""975218""
","""event"",""trial"",""time""
""fullscreenenter"",""1"",""2505""
","
","","","1321","","","20","8812","3956","&#9752;","elianto","#f73b6a7A"," "," ","1","0","[2171]","1","1","","","8812","7","3","3","lose","go","0"
"pit-trial","125","1622339","0.0-11.0","battery-v0.2","","""event"",""trial"",""time""
""fullscreenenter"",""1"",""2505""
""blur"",""19"",""339122""
""focus"",""19"",""354985""
""blur"",""80"",""937732""
""focus"",""80"",""975218""
","""event"",""trial"",""time""
""blur"",""19"",""339122""
""blur"",""80"",""937732""
","""event"",""trial"",""time""
""focus"",""19"",""354985""
""focus"",""80"",""975218""
","""event"",""trial"",""time""
""fullscreenenter"",""1"",""2505""
","
","","","964","","","20","8812","3956","&#9730;","elianto","#3366ff99"," "," ","1","+10","[1818]","1","1","","","8812","8","1","1","win","go","0"
"pit-trial","126","1627193","0.0-12.0","battery-v0.2","","""event"",""trial"",""time""
""fullscreenenter"",""1"",""2505""
""blur"",""19"",""339122""
""focus"",""19"",""354985""
""blur"",""80"",""937732""
""focus"",""80"",""975218""
","""event"",""trial"",""time""
""blur"",""19"",""339122""
""blur"",""80"",""937732""
","""event"",""trial"",""time""
""focus"",""19"",""354985""
""focus"",""80"",""975218""
","""event"",""trial"",""time""
""fullscreenenter"",""1"",""2505""
","
","","","-1","","","20","8812","3956","&#9752;","elianto","#f73b6a7A"," ","-1","0","-10","[]","0","1","","","8812","9","3","3","lose","go","0"
"pit-trial","127","1632049","0.0-13.0","battery-v0.2","","""event"",""trial"",""time""
""fullscreenenter"",""1"",""2505""
""blur"",""19"",""339122""
""focus"",""19"",""354985""
""blur"",""80"",""937732""
""focus"",""80"",""975218""
","""event"",""trial"",""time""
""blur"",""19"",""339122""
""blur"",""80"",""937732""
","""event"",""trial"",""time""
""focus"",""19"",""354985""
""focus"",""80"",""975218""
","""event"",""trial"",""time""
""fullscreenenter"",""1"",""2505""
","
","","","-1","","","20","8812","3956","&#9733;","elianto","#3366ff99","-1","-1","1","0","[]","0","1","","","8812","10","2","2","win","no-go","1"
"pit-trial","128","1635643","0.0-14.0","battery-v0.2","","""event"",""trial"",""time""
""fullscreenenter"",""1"",""2505""
""blur"",""19"",""339122""
""focus"",""19"",""354985""
""blur"",""80"",""937732""
""focus"",""80"",""975218""
","""event"",""trial"",""time""
""blur"",""19"",""339122""
""blur"",""80"",""937732""
","""event"",""trial"",""time""
""focus"",""19"",""354985""
""focus"",""80"",""975218""
","""event"",""trial"",""time""
""fullscreenenter"",""1"",""2505""
","
","","","741","","","20","8812","3956","&#9730;","elianto","#3366ff99"," "," ","1","+10","[1591]","1","1","","","8812","11","1","1","win","go","0"
"pit-trial","129","1639323","0.0-15.0","battery-v0.2","","""event"",""trial"",""time""
""fullscreenenter"",""1"",""2505""
""blur"",""19"",""339122""
""focus"",""19"",""354985""
""blur"",""80"",""937732""
""focus"",""80"",""975218""
","""event"",""trial"",""time""
""blur"",""19"",""339122""
""blur"",""80"",""937732""
","""event"",""trial"",""time""
""focus"",""19"",""354985""
""focus"",""80"",""975218""
","""event"",""trial"",""time""
""fullscreenenter"",""1"",""2505""
","
","","","826","","","20","8812","3956","&#9728;","elianto","#f73b6a7A","-1"," ","0","-10","[1676]","1","1","","","8812","12","0","4","lose","no-go","0"
"pit-trial","130","1643023","0.0-16.0","battery-v0.2","","""event"",""trial"",""time""
""fullscreenenter"",""1"",""2505""
""blur"",""19"",""339122""
""focus"",""19"",""354985""
""blur"",""80"",""937732""
""focus"",""80"",""975218""
","""event"",""trial"",""time""
""blur"",""19"",""339122""
""blur"",""80"",""937732""
","""event"",""trial"",""time""
""focus"",""19"",""354985""
""focus"",""80"",""975218""
","""event"",""trial"",""time""
""fullscreenenter"",""1"",""2505""
","
","","","847","","","20","8812","3956","&#9733;","elianto","#3366ff99","-1"," ","0","0","[1697]","1","1","","","8812","13","2","2","win","no-go","0"
"pit-trial","131","1647016","0.0-17.0","battery-v0.2","","""event"",""trial"",""time""
""fullscreenenter"",""1"",""2505""
""blur"",""19"",""339122""
""focus"",""19"",""354985""
""blur"",""80"",""937732""
""focus"",""80"",""975218""
","""event"",""trial"",""time""
""blur"",""19"",""339122""
""blur"",""80"",""937732""
","""event"",""trial"",""time""
""focus"",""19"",""354985""
""focus"",""80"",""975218""
","""event"",""trial"",""time""
""fullscreenenter"",""1"",""2505""
","
","","","1139","","","20","8812","3956","&#9752;","elianto","#f73b6a7A"," "," ","1","0","[1989]","1","1","","","8812","14","3","3","lose","go","0"
"pit-trial","132","1651871","0.0-18.0","battery-v0.2","","""event"",""trial"",""time""
""fullscreenenter"",""1"",""2505""
""blur"",""19"",""339122""
""focus"",""19"",""354985""
""blur"",""80"",""937732""
""focus"",""80"",""975218""
","""event"",""trial"",""time""
""blur"",""19"",""339122""
""blur"",""80"",""937732""
","""event"",""trial"",""time""
""focus"",""19"",""354985""
""focus"",""80"",""975218""
","""event"",""trial"",""time""
""fullscreenenter"",""1"",""2505""
","
","","","-1","","","20","8812","3956","&#9728;","elianto","#f73b6a7A","-1","-1","1","-10","[]","0","1","","","8812","15","0","4","lose","no-go","1"
"pit-trial","133","1655350","0.0-19.0","battery-v0.2","","""event"",""trial"",""time""
""fullscreenenter"",""1"",""2505""
""blur"",""19"",""339122""
""focus"",""19"",""354985""
""blur"",""80"",""937732""
""focus"",""80"",""975218""
","""event"",""trial"",""time""
""blur"",""19"",""339122""
""blur"",""80"",""937732""
","""event"",""trial"",""time""
""focus"",""19"",""354985""
""focus"",""80"",""975218""
","""event"",""trial"",""time""
""fullscreenenter"",""1"",""2505""
","
","","","624","","","20","8812","3956","&#9730;","elianto","#3366ff99"," "," ","1","0","[1475]","1","1","","","8812","16","1","1","win","go","1"
"pit-trial","134","1659069","0.0-20.0","battery-v0.2","","""event"",""trial"",""time""
""fullscreenenter"",""1"",""2505""
""blur"",""19"",""339122""
""focus"",""19"",""354985""
""blur"",""80"",""937732""
""focus"",""80"",""975218""
","""event"",""trial"",""time""
""blur"",""19"",""339122""
""blur"",""80"",""937732""
","""event"",""trial"",""time""
""focus"",""19"",""354985""
""focus"",""80"",""975218""
","""event"",""trial"",""time""
""fullscreenenter"",""1"",""2505""
","
","","","863","","","20","8812","3956","&#9728;","elianto","#f73b6a7A","-1"," ","0","-10","[1713]","1","1","","","8812","17","0","4","lose","no-go","0"
"pit-trial","135","1662737","0.0-21.0","battery-v0.2","","""event"",""trial"",""time""
""fullscreenenter"",""1"",""2505""
""blur"",""19"",""339122""
""focus"",""19"",""354985""
""blur"",""80"",""937732""
""focus"",""80"",""975218""
","""event"",""trial"",""time""
""blur"",""19"",""339122""
""blur"",""80"",""937732""
","""event"",""trial"",""time""
""focus"",""19"",""354985""
""focus"",""80"",""975218""
","""event"",""trial"",""time""
""fullscreenenter"",""1"",""2505""
","
","","","809","","","20","8812","3956","&#9752;","elianto","#f73b6a7A"," "," ","1","0","[1660]","1","1","","","8812","18","3","3","lose","go","0"
"pit-trial","136","1666250","0.0-22.0","battery-v0.2","","""event"",""trial"",""time""
""fullscreenenter"",""1"",""2505""
""blur"",""19"",""339122""
""focus"",""19"",""354985""
""blur"",""80"",""937732""
""focus"",""80"",""975218""
","""event"",""trial"",""time""
""blur"",""19"",""339122""
""blur"",""80"",""937732""
","""event"",""trial"",""time""
""focus"",""19"",""354985""
""focus"",""80"",""975218""
","""event"",""trial"",""time""
""fullscreenenter"",""1"",""2505""
","
","","","661","","","20","8812","3956","&#9730;","elianto","#3366ff99"," "," ","1","+10","[1511]","1","1","","","8812","19","1","1","win","go","0"
"pit-trial","137","1671106","0.0-23.0","battery-v0.2","","""event"",""trial"",""time""
""fullscreenenter"",""1"",""2505""
""blur"",""19"",""339122""
""focus"",""19"",""354985""
""blur"",""80"",""937732""
""focus"",""80"",""975218""
","""event"",""trial"",""time""
""blur"",""19"",""339122""
""blur"",""80"",""937732""
","""event"",""trial"",""time""
""focus"",""19"",""354985""
""focus"",""80"",""975218""
","""event"",""trial"",""time""
""fullscreenenter"",""1"",""2505""
","
","","","-1","","","20","8812","3956","&#9733;","elianto","#3366ff99","-1","-1","1","+10","[]","0","1","","","8812","20","2","2","win","no-go","0"
"pit-instructions","138","1683546","0.0-24.0","battery-v0.2","","""event"",""trial"",""time""
""fullscreenenter"",""1"",""2505""
""blur"",""19"",""339122""
""focus"",""19"",""354985""
""blur"",""80"",""937732""
""focus"",""80"",""975218""
","""event"",""trial"",""time""
""blur"",""19"",""339122""
""blur"",""80"",""937732""
","""event"",""trial"",""time""
""focus"",""19"",""354985""
""focus"",""80"",""975218""
","""event"",""trial"",""time""
""fullscreenenter"",""1"",""2505""
","
","","[{""page_index"":0,""viewing_time"":5602},{""page_index"":1,""viewing_time"":6834}]","12436","","","","","","","","","","","","","","","","","","","","","","","",""
"pit-trial","139","1687259","0.0-25.0","battery-v0.2","","""event"",""trial"",""time""
""fullscreenenter"",""1"",""2505""
""blur"",""19"",""339122""
""focus"",""19"",""354985""
""blur"",""80"",""937732""
""focus"",""80"",""975218""
","""event"",""trial"",""time""
""blur"",""19"",""339122""
""blur"",""80"",""937732""
","""event"",""trial"",""time""
""focus"",""19"",""354985""
""focus"",""80"",""975218""
","""event"",""trial"",""time""
""fullscreenenter"",""1"",""2505""
","
","","","846","","","20","8812","3956","b","elianto","#f73b6a7A","-1"," ","0","-10","[1696]","1","2","","","8812","21","3","4","lose","no-go","0"
"pit-trial","140","1690781","0.0-26.0","battery-v0.2","","""event"",""trial"",""time""
""fullscreenenter"",""1"",""2505""
""blur"",""19"",""339122""
""focus"",""19"",""354985""
""blur"",""80"",""937732""
""focus"",""80"",""975218""
","""event"",""trial"",""time""
""blur"",""19"",""339122""
""blur"",""80"",""937732""
","""event"",""trial"",""time""
""focus"",""19"",""354985""
""focus"",""80"",""975218""
","""event"",""trial"",""time""
""fullscreenenter"",""1"",""2505""
","
","","","658","","","20","8812","3956","f","elianto","#3366ff99","-1"," ","0","0","[1512]","1","2","","","8812","22","1","2","win","no-go","0"
"pit-trial","141","1694313","0.0-27.0","battery-v0.2","","""event"",""trial"",""time""
""fullscreenenter"",""1"",""2505""
""blur"",""19"",""339122""
""focus"",""19"",""354985""
""blur"",""80"",""937732""
""focus"",""80"",""975218""
","""event"",""trial"",""time""
""blur"",""19"",""339122""
""blur"",""80"",""937732""
","""event"",""trial"",""time""
""focus"",""19"",""354985""
""focus"",""80"",""975218""
","""event"",""trial"",""time""
""fullscreenenter"",""1"",""2505""
","
","","","667","","","20","8812","3956","n","elianto","#f73b6a7A"," "," ","1","-10","[1523]","1","2","","","8812","23","0","3","lose","go","1"
"pit-trial","142","1697844","0.0-28.0","battery-v0.2","","""event"",""trial"",""time""
""fullscreenenter"",""1"",""2505""
""blur"",""19"",""339122""
""focus"",""19"",""354985""
""blur"",""80"",""937732""
""focus"",""80"",""975218""
","""event"",""trial"",""time""
""blur"",""19"",""339122""
""blur"",""80"",""937732""
","""event"",""trial"",""time""
""focus"",""19"",""354985""
""focus"",""80"",""975218""
","""event"",""trial"",""time""
""fullscreenenter"",""1"",""2505""
","
","","","670","","","20","8812","3956","t","elianto","#f73b6a7A"," "," ","1","0","[1520]","1","2","","","8812","24","2","3","lose","go","0"
"pit-trial","143","1702703","0.0-29.0","battery-v0.2","","""event"",""trial"",""time""
""fullscreenenter"",""1"",""2505""
""blur"",""19"",""339122""
""focus"",""19"",""354985""
""blur"",""80"",""937732""
""focus"",""80"",""975218""
","""event"",""trial"",""time""
""blur"",""19"",""339122""
""blur"",""80"",""937732""
","""event"",""trial"",""time""
""focus"",""19"",""354985""
""focus"",""80"",""975218""
","""event"",""trial"",""time""
""fullscreenenter"",""1"",""2505""
","
","","","-1","","","20","8812","3956","f","elianto","#3366ff99","-1","-1","1","+10","[]","0","2","","","8812","25","1","2","win","no-go","0"
"pit-trial","144","1706756","0.0-30.0","battery-v0.2","","""event"",""trial"",""time""
""fullscreenenter"",""1"",""2505""
""blur"",""19"",""339122""
""focus"",""19"",""354985""
""blur"",""80"",""937732""
""focus"",""80"",""975218""
","""event"",""trial"",""time""
""blur"",""19"",""339122""
""blur"",""80"",""937732""
","""event"",""trial"",""time""
""focus"",""19"",""354985""
""focus"",""80"",""975218""
","""event"",""trial"",""time""
""fullscreenenter"",""1"",""2505""
","
","","","1183","","","20","8812","3956","t","elianto","#f73b6a7A"," "," ","1","0","[2037]","1","2","","","8812","26","2","3","lose","go","0"
"pit-trial","145","1711636","0.0-31.0","battery-v0.2","","""event"",""trial"",""time""
""fullscreenenter"",""1"",""2505""
""blur"",""19"",""339122""
""focus"",""19"",""354985""
""blur"",""80"",""937732""
""focus"",""80"",""975218""
","""event"",""trial"",""time""
""blur"",""19"",""339122""
""blur"",""80"",""937732""
","""event"",""trial"",""time""
""focus"",""19"",""354985""
""focus"",""80"",""975218""
","""event"",""trial"",""time""
""fullscreenenter"",""1"",""2505""
","
","","","-1","","","20","8812","3956","b","elianto","#f73b6a7A","-1","-1","1","0","[]","0","2","","","8812","27","3","4","lose","no-go","0"
"pit-trial","146","1716488","0.0-32.0","battery-v0.2","","""event"",""trial"",""time""
""fullscreenenter"",""1"",""2505""
""blur"",""19"",""339122""
""focus"",""19"",""354985""
""blur"",""80"",""937732""
""focus"",""80"",""975218""
","""event"",""trial"",""time""
""blur"",""19"",""339122""
""blur"",""80"",""937732""
","""event"",""trial"",""time""
""focus"",""19"",""354985""
""focus"",""80"",""975218""
","""event"",""trial"",""time""
""fullscreenenter"",""1"",""2505""
","
","","","-1","","","20","8812","3956","n","elianto","#f73b6a7A"," ","-1","0","-10","[]","0","2","","","8812","28","0","3","lose","go","0"
"pit-trial","147","1721341","0.0-33.0","battery-v0.2","","""event"",""trial"",""time""
""fullscreenenter"",""1"",""2505""
""blur"",""19"",""339122""
""focus"",""19"",""354985""
""blur"",""80"",""937732""
""focus"",""80"",""975218""
","""event"",""trial"",""time""
""blur"",""19"",""339122""
""blur"",""80"",""937732""
","""event"",""trial"",""time""
""focus"",""19"",""354985""
""focus"",""80"",""975218""
","""event"",""trial"",""time""
""fullscreenenter"",""1"",""2505""
","
","","","-1","","","20","8812","3956","f","elianto","#3366ff99","-1","-1","1","0","[]","0","2","","","8812","29","1","2","win","no-go","1"
"pit-trial","148","1726197","0.0-34.0","battery-v0.2","","""event"",""trial"",""time""
""fullscreenenter"",""1"",""2505""
""blur"",""19"",""339122""
""focus"",""19"",""354985""
""blur"",""80"",""937732""
""focus"",""80"",""975218""
","""event"",""trial"",""time""
""blur"",""19"",""339122""
""blur"",""80"",""937732""
","""event"",""trial"",""time""
""focus"",""19"",""354985""
""focus"",""80"",""975218""
","""event"",""trial"",""time""
""fullscreenenter"",""1"",""2505""
","
","","","-1","","","20","8812","3956","n","elianto","#f73b6a7A"," ","-1","0","-10","[]","0","2","","","8812","30","0","3","lose","go","0"
"pit-trial","149","1729765","0.0-35.0","battery-v0.2","","""event"",""trial"",""time""
""fullscreenenter"",""1"",""2505""
""blur"",""19"",""339122""
""focus"",""19"",""354985""
""blur"",""80"",""937732""
""focus"",""80"",""975218""
","""event"",""trial"",""time""
""blur"",""19"",""339122""
""blur"",""80"",""937732""
","""event"",""trial"",""time""
""focus"",""19"",""354985""
""focus"",""80"",""975218""
","""event"",""trial"",""time""
""fullscreenenter"",""1"",""2505""
","
","","","714","","","20","8812","3956","t","elianto","#f73b6a7A"," "," ","1","0","[1564]","1","2","","","8812","31","2","3","lose","go","0"
"pit-trial","150","1734621","0.0-36.0","battery-v0.2","","""event"",""trial"",""time""
""fullscreenenter"",""1"",""2505""
""blur"",""19"",""339122""
""focus"",""19"",""354985""
""blur"",""80"",""937732""
""focus"",""80"",""975218""
","""event"",""trial"",""time""
""blur"",""19"",""339122""
""blur"",""80"",""937732""
","""event"",""trial"",""time""
""focus"",""19"",""354985""
""focus"",""80"",""975218""
","""event"",""trial"",""time""
""fullscreenenter"",""1"",""2505""
","
","","","-1","","","20","8812","3956","b","elianto","#f73b6a7A","-1","-1","1","0","[]","0","2","","","8812","32","3","4","lose","no-go","0"
"pit-trial","151","1739477","0.0-37.0","battery-v0.2","","""event"",""trial"",""time""
""fullscreenenter"",""1"",""2505""
""blur"",""19"",""339122""
""focus"",""19"",""354985""
""blur"",""80"",""937732""
""focus"",""80"",""975218""
","""event"",""trial"",""time""
""blur"",""19"",""339122""
""blur"",""80"",""937732""
","""event"",""trial"",""time""
""focus"",""19"",""354985""
""focus"",""80"",""975218""
","""event"",""trial"",""time""
""fullscreenenter"",""1"",""2505""
","
","","","-1","","","20","8812","3956","f","elianto","#3366ff99","-1","-1","1","+10","[]","0","2","","","8812","33","1","2","win","no-go","0"
"pit-trial","152","1742923","0.0-38.0","battery-v0.2","","""event"",""trial"",""time""
""fullscreenenter"",""1"",""2505""
""blur"",""19"",""339122""
""focus"",""19"",""354985""
""blur"",""80"",""937732""
""focus"",""80"",""975218""
","""event"",""trial"",""time""
""blur"",""19"",""339122""
""blur"",""80"",""937732""
","""event"",""trial"",""time""
""focus"",""19"",""354985""
""focus"",""80"",""975218""
","""event"",""trial"",""time""
""fullscreenenter"",""1"",""2505""
","
","","","590","","","20","8812","3956","n","elianto","#f73b6a7A"," "," ","1","0","[1440]","1","2","","","8812","34","0","3","lose","go","0"
"pit-trial","153","1746380","0.0-39.0","battery-v0.2","","""event"",""trial"",""time""
""fullscreenenter"",""1"",""2505""
""blur"",""19"",""339122""
""focus"",""19"",""354985""
""blur"",""80"",""937732""
""focus"",""80"",""975218""
","""event"",""trial"",""time""
""blur"",""19"",""339122""
""blur"",""80"",""937732""
","""event"",""trial"",""time""
""focus"",""19"",""354985""
""focus"",""80"",""975218""
","""event"",""trial"",""time""
""fullscreenenter"",""1"",""2505""
","
","","","603","","","20","8812","3956","t","elianto","#f73b6a7A"," "," ","1","0","[1454]","1","2","","","8812","35","2","3","lose","go","0"
"pit-trial","154","1751235","0.0-40.0","battery-v0.2","","""event"",""trial"",""time""
""fullscreenenter"",""1"",""2505""
""blur"",""19"",""339122""
""focus"",""19"",""354985""
""blur"",""80"",""937732""
""focus"",""80"",""975218""
","""event"",""trial"",""time""
""blur"",""19"",""339122""
""blur"",""80"",""937732""
","""event"",""trial"",""time""
""focus"",""19"",""354985""
""focus"",""80"",""975218""
","""event"",""trial"",""time""
""fullscreenenter"",""1"",""2505""
","
","","","-1","","","20","8812","3956","b","elianto","#f73b6a7A","-1","-1","1","0","[]","0","2","","","8812","36","3","4","lose","no-go","0"
"pit-trial","155","1756088","0.0-41.0","battery-v0.2","","""event"",""trial"",""time""
""fullscreenenter"",""1"",""2505""
""blur"",""19"",""339122""
""focus"",""19"",""354985""
""blur"",""80"",""937732""
""focus"",""80"",""975218""
","""event"",""trial"",""time""
""blur"",""19"",""339122""
""blur"",""80"",""937732""
","""event"",""trial"",""time""
""focus"",""19"",""354985""
""focus"",""80"",""975218""
","""event"",""trial"",""time""
""fullscreenenter"",""1"",""2505""
","
","","","-1","","","20","8812","3956","b","elianto","#f73b6a7A","-1","-1","1","0","[]","0","2","","","8812","37","3","4","lose","no-go","0"
"pit-trial","156","1760942","0.0-42.0","battery-v0.2","","""event"",""trial"",""time""
""fullscreenenter"",""1"",""2505""
""blur"",""19"",""339122""
""focus"",""19"",""354985""
""blur"",""80"",""937732""
""focus"",""80"",""975218""
","""event"",""trial"",""time""
""blur"",""19"",""339122""
""blur"",""80"",""937732""
","""event"",""trial"",""time""
""focus"",""19"",""354985""
""focus"",""80"",""975218""
","""event"",""trial"",""time""
""fullscreenenter"",""1"",""2505""
","
","","","-1","","","20","8812","3956","f","elianto","#3366ff99","-1","-1","1","+10","[]","0","2","","","8812","38","1","2","win","no-go","0"
"pit-trial","157","1764435","0.0-43.0","battery-v0.2","","""event"",""trial"",""time""
""fullscreenenter"",""1"",""2505""
""blur"",""19"",""339122""
""focus"",""19"",""354985""
""blur"",""80"",""937732""
""focus"",""80"",""975218""
","""event"",""trial"",""time""
""blur"",""19"",""339122""
""blur"",""80"",""937732""
","""event"",""trial"",""time""
""focus"",""19"",""354985""
""focus"",""80"",""975218""
","""event"",""trial"",""time""
""fullscreenenter"",""1"",""2505""
","
","","","640","","","20","8812","3956","n","elianto","#f73b6a7A"," "," ","1","0","[1491]","1","2","","","8812","39","0","3","lose","go","0"
"pit-trial","158","1767843","0.0-44.0","battery-v0.2","","""event"",""trial"",""time""
""fullscreenenter"",""1"",""2505""
""blur"",""19"",""339122""
""focus"",""19"",""354985""
""blur"",""80"",""937732""
""focus"",""80"",""975218""
","""event"",""trial"",""time""
""blur"",""19"",""339122""
""blur"",""80"",""937732""
","""event"",""trial"",""time""
""focus"",""19"",""354985""
""focus"",""80"",""975218""
","""event"",""trial"",""time""
""fullscreenenter"",""1"",""2505""
","
","","","556","","","20","8812","3956","t","elianto","#f73b6a7A"," "," ","1","0","[1406]","1","2","","","8812","40","2","3","lose","go","0"
"pit-trial","159","1771591","0.0-45.0","battery-v0.2","","""event"",""trial"",""time""
""fullscreenenter"",""1"",""2505""
""blur"",""19"",""339122""
""focus"",""19"",""354985""
""blur"",""80"",""937732""
""focus"",""80"",""975218""
","""event"",""trial"",""time""
""blur"",""19"",""339122""
""blur"",""80"",""937732""
","""event"",""trial"",""time""
""focus"",""19"",""354985""
""focus"",""80"",""975218""
","""event"",""trial"",""time""
""fullscreenenter"",""1"",""2505""
","
","","","892","","","20","8812","3956","t","elianto","#f73b6a7A"," "," ","1","0","[1743]","1","2","","","8812","41","2","3","lose","go","0"
"pit-trial","160","1775132","0.0-46.0","battery-v0.2","","""event"",""trial"",""time""
""fullscreenenter"",""1"",""2505""
""blur"",""19"",""339122""
""focus"",""19"",""354985""
""blur"",""80"",""937732""
""focus"",""80"",""975218""
","""event"",""trial"",""time""
""blur"",""19"",""339122""
""blur"",""80"",""937732""
","""event"",""trial"",""time""
""focus"",""19"",""354985""
""focus"",""80"",""975218""
","""event"",""trial"",""time""
""fullscreenenter"",""1"",""2505""
","
","","","687","","","20","8812","3956","n","elianto","#f73b6a7A"," "," ","1","0","[1538]","1","2","","","8812","42","0","3","lose","go","0"
"pit-trial","161","1779986","0.0-47.0","battery-v0.2","","""event"",""trial"",""time""
""fullscreenenter"",""1"",""2505""
""blur"",""19"",""339122""
""focus"",""19"",""354985""
""blur"",""80"",""937732""
""focus"",""80"",""975218""
","""event"",""trial"",""time""
""blur"",""19"",""339122""
""blur"",""80"",""937732""
","""event"",""trial"",""time""
""focus"",""19"",""354985""
""focus"",""80"",""975218""
","""event"",""trial"",""time""
""fullscreenenter"",""1"",""2505""
","
","","","-1","","","20","8812","3956","b","elianto","#f73b6a7A","-1","-1","1","0","[]","0","2","","","8812","43","3","4","lose","no-go","0"
"pit-trial","162","1784842","0.0-48.0","battery-v0.2","","""event"",""trial"",""time""
""fullscreenenter"",""1"",""2505""
""blur"",""19"",""339122""
""focus"",""19"",""354985""
""blur"",""80"",""937732""
""focus"",""80"",""975218""
","""event"",""trial"",""time""
""blur"",""19"",""339122""
""blur"",""80"",""937732""
","""event"",""trial"",""time""
""focus"",""19"",""354985""
""focus"",""80"",""975218""
","""event"",""trial"",""time""
""fullscreenenter"",""1"",""2505""
","
","","","-1","","","20","8812","3956","f","elianto","#3366ff99","-1","-1","1","+10","[]","0","2","","","8812","44","1","2","win","no-go","0"
"pit-trial","163","1788279","0.0-49.0","battery-v0.2","","""event"",""trial"",""time""
""fullscreenenter"",""1"",""2505""
""blur"",""19"",""339122""
""focus"",""19"",""354985""
""blur"",""80"",""937732""
""focus"",""80"",""975218""
","""event"",""trial"",""time""
""blur"",""19"",""339122""
""blur"",""80"",""937732""
","""event"",""trial"",""time""
""focus"",""19"",""354985""
""focus"",""80"",""975218""
","""event"",""trial"",""time""
""fullscreenenter"",""1"",""2505""
","
","","","581","","","20","8812","3956","n","elianto","#f73b6a7A"," "," ","1","0","[1433]","1","2","","","8812","45","0","3","lose","go","0"
"pit-trial","164","1791657","0.0-50.0","battery-v0.2","","""event"",""trial"",""time""
""fullscreenenter"",""1"",""2505""
""blur"",""19"",""339122""
""focus"",""19"",""354985""
""blur"",""80"",""937732""
""focus"",""80"",""975218""
","""event"",""trial"",""time""
""blur"",""19"",""339122""
""blur"",""80"",""937732""
","""event"",""trial"",""time""
""focus"",""19"",""354985""
""focus"",""80"",""975218""
","""event"",""trial"",""time""
""fullscreenenter"",""1"",""2505""
","
","","","510","","","20","8812","3956","t","elianto","#f73b6a7A"," "," ","1","0","[1362]","1","2","","","8812","46","2","3","lose","go","0"
"pit-trial","165","1796511","0.0-51.0","battery-v0.2","","""event"",""trial"",""time""
""fullscreenenter"",""1"",""2505""
""blur"",""19"",""339122""
""focus"",""19"",""354985""
""blur"",""80"",""937732""
""focus"",""80"",""975218""
","""event"",""trial"",""time""
""blur"",""19"",""339122""
""blur"",""80"",""937732""
","""event"",""trial"",""time""
""focus"",""19"",""354985""
""focus"",""80"",""975218""
","""event"",""trial"",""time""
""fullscreenenter"",""1"",""2505""
","
","","","-1","","","20","8812","3956","f","elianto","#3366ff99","-1","-1","1","0","[]","0","2","","","8812","47","1","2","win","no-go","1"
"pit-trial","166","1801365","0.0-52.0","battery-v0.2","","""event"",""trial"",""time""
""fullscreenenter"",""1"",""2505""
""blur"",""19"",""339122""
""focus"",""19"",""354985""
""blur"",""80"",""937732""
""focus"",""80"",""975218""
","""event"",""trial"",""time""
""blur"",""19"",""339122""
""blur"",""80"",""937732""
","""event"",""trial"",""time""
""focus"",""19"",""354985""
""focus"",""80"",""975218""
","""event"",""trial"",""time""
""fullscreenenter"",""1"",""2505""
","
","","","-1","","","20","8812","3956","b","elianto","#f73b6a7A","-1","-1","1","0","[]","0","2","","","8812","48","3","4","lose","no-go","0"
"pit-trial","167","1806219","0.0-53.0","battery-v0.2","","""event"",""trial"",""time""
""fullscreenenter"",""1"",""2505""
""blur"",""19"",""339122""
""focus"",""19"",""354985""
""blur"",""80"",""937732""
""focus"",""80"",""975218""
","""event"",""trial"",""time""
""blur"",""19"",""339122""
""blur"",""80"",""937732""
","""event"",""trial"",""time""
""focus"",""19"",""354985""
""focus"",""80"",""975218""
","""event"",""trial"",""time""
""fullscreenenter"",""1"",""2505""
","
","","","-1","","","20","8812","3956","f","elianto","#3366ff99","-1","-1","1","+10","[]","0","2","","","8812","49","1","2","win","no-go","0"
"pit-trial","168","1811076","0.0-54.0","battery-v0.2","","""event"",""trial"",""time""
""fullscreenenter"",""1"",""2505""
""blur"",""19"",""339122""
""focus"",""19"",""354985""
""blur"",""80"",""937732""
""focus"",""80"",""975218""
","""event"",""trial"",""time""
""blur"",""19"",""339122""
""blur"",""80"",""937732""
","""event"",""trial"",""time""
""focus"",""19"",""354985""
""focus"",""80"",""975218""
","""event"",""trial"",""time""
""fullscreenenter"",""1"",""2505""
","
","","","-1","","","20","8812","3956","b","elianto","#f73b6a7A","-1","-1","1","0","[]","0","2","","","8812","50","3","4","lose","no-go","0"
"pit-trial","169","1814565","0.0-55.0","battery-v0.2","","""event"",""trial"",""time""
""fullscreenenter"",""1"",""2505""
""blur"",""19"",""339122""
""focus"",""19"",""354985""
""blur"",""80"",""937732""
""focus"",""80"",""975218""
","""event"",""trial"",""time""
""blur"",""19"",""339122""
""blur"",""80"",""937732""
","""event"",""trial"",""time""
""focus"",""19"",""354985""
""focus"",""80"",""975218""
","""event"",""trial"",""time""
""fullscreenenter"",""1"",""2505""
","
","","","633","","","20","8812","3956","n","elianto","#f73b6a7A"," "," ","1","0","[1485]","1","2","","","8812","51","0","3","lose","go","0"
"pit-trial","170","1818029","0.0-56.0","battery-v0.2","","""event"",""trial"",""time""
""fullscreenenter"",""1"",""2505""
""blur"",""19"",""339122""
""focus"",""19"",""354985""
""blur"",""80"",""937732""
""focus"",""80"",""975218""
","""event"",""trial"",""time""
""blur"",""19"",""339122""
""blur"",""80"",""937732""
","""event"",""trial"",""time""
""focus"",""19"",""354985""
""focus"",""80"",""975218""
","""event"",""trial"",""time""
""fullscreenenter"",""1"",""2505""
","
","","","609","","","20","8812","3956","t","elianto","#f73b6a7A"," "," ","1","0","[1460]","1","2","","","8812","52","2","3","lose","go","0"
"pit-trial","171","1821562","0.0-57.0","battery-v0.2","","""event"",""trial"",""time""
