"trial_type","trial_index","time_elapsed","internal_node_id","task_version","subject_id","interactions","blur_events","focus_events","fullscreenenter_events","fullscreenexit_events","success","view_history","rt","responses","num_errors","age","subject","participantId","rune","rune_set","hex","correct","choice","accuracy","outcome","keys","total_keys","block","practice","value","sub","trial","stimulus","robot","valence","action","sham"
"pavlovia","0","9","0.0-0.0","battery-v0.2","","""event"",""trial"",""time""
""focus"",""0"",""0""
""fullscreenenter"",""1"",""1955""
","
","""event"",""trial"",""time""
""focus"",""0"",""0""
","""event"",""trial"",""time""
""fullscreenenter"",""1"",""1955""
","
","","","","","","","","","","","","","","","","","","","","","","","","","","",""
"fullscreen","1","2914","0.0-1.0","battery-v0.2","","""event"",""trial"",""time""
""focus"",""0"",""0""
""fullscreenenter"",""1"",""1955""
","
","""event"",""trial"",""time""
""focus"",""0"",""0""
","""event"",""trial"",""time""
""fullscreenenter"",""1"",""1955""
","
","true","","","","","","","","","","","","","","","","","","","","","","","","","",""
"pit-instructions","2","7208","0.0-2.0-0.0","battery-v0.2","","""event"",""trial"",""time""
""focus"",""0"",""0""
""fullscreenenter"",""1"",""1955""
","
","""event"",""trial"",""time""
""focus"",""0"",""0""
","""event"",""trial"",""time""
""fullscreenenter"",""1"",""1955""
","
","","[{""page_index"":0,""viewing_time"":4290}]","4291","","","","","","","","","","","","","","","","","","","","","","","",""
"pit-comprehension","3","9843","0.0-2.0-1.0-0.0","battery-v0.2","","""event"",""trial"",""time""
""focus"",""0"",""0""
""fullscreenenter"",""1"",""1955""
","
","""event"",""trial"",""time""
""focus"",""0"",""0""
","""event"",""trial"",""time""
""fullscreenenter"",""1"",""1955""
","
","","","2626","[""shark""]","0","24","16590","6439","","","","","","","","","","","","","","","","","","",""
"pit-instructions","4","13276","0.0-2.0-1.0-1.0","battery-v0.2","","""event"",""trial"",""time""
""focus"",""0"",""0""
""fullscreenenter"",""1"",""1955""
","
","""event"",""trial"",""time""
""focus"",""0"",""0""
","""event"",""trial"",""time""
""fullscreenenter"",""1"",""1955""
","
","","[{""page_index"":0,""viewing_time"":3425}]","3426","","","","","","","","","","","","","","","","","","","","","","","",""
"pit-comprehension","5","15925","0.0-2.0-2.0-0.0","battery-v0.2","","""event"",""trial"",""time""
""focus"",""0"",""0""
""fullscreenenter"",""1"",""1955""
","
","""event"",""trial"",""time""
""focus"",""0"",""0""
","""event"",""trial"",""time""
""fullscreenenter"",""1"",""1955""
","
","","","2643","[""tiger""]","0","24","16590","6439","","","","","","","","","","","","","","","","","","",""
"pit-instructions","6","20093","0.0-2.0-2.0-1.0","battery-v0.2","","""event"",""trial"",""time""
""focus"",""0"",""0""
""fullscreenenter"",""1"",""1955""
","
","""event"",""trial"",""time""
""focus"",""0"",""0""
","""event"",""trial"",""time""
""fullscreenenter"",""1"",""1955""
","
","","[{""page_index"":0,""viewing_time"":4164}]","4165","","","","","","","","","","","","","","","","","","","","","","","",""
"pit-instructions","7","114727","0.0-2.0-3.0","battery-v0.2","","""event"",""trial"",""time""
""focus"",""0"",""0""
""fullscreenenter"",""1"",""1955""
","
","""event"",""trial"",""time""
""focus"",""0"",""0""
","""event"",""trial"",""time""
""fullscreenenter"",""1"",""1955""
","
","","[{""page_index"":0,""viewing_time"":8561},{""page_index"":1,""viewing_time"":5835},{""page_index"":2,""viewing_time"":8417},{""page_index"":3,""viewing_time"":5197},{""page_index"":4,""viewing_time"":5336},{""page_index"":5,""viewing_time"":5783},{""page_index"":6,""viewing_time"":6784},{""page_index"":7,""viewing_time"":6298},{""page_index"":8,""viewing_time"":7836},{""page_index"":9,""viewing_time"":7565},{""page_index"":10,""viewing_time"":7601},{""page_index"":11,""viewing_time"":7133},{""page_index"":12,""viewing_time"":6713},{""page_index"":13,""viewing_time"":5573}]","94632","","","","","","","","","","","","","","","","","","","","","","","",""
"pit-trial","8","118067","0.0-2.0-4.0-0.0","battery-v0.2","","""event"",""trial"",""time""
""focus"",""0"",""0""
""fullscreenenter"",""1"",""1955""
","
","""event"",""trial"",""time""
""focus"",""0"",""0""
","""event"",""trial"",""time""
""fullscreenenter"",""1"",""1955""
","
","","","475","","","24","16590","6439","&#9784;","elianto","#FFFFF080"," "," ","1","&#10004","[1326]","1","0","0","","","","","","","",""
"pit-trial","9","121424","0.0-2.0-4.1-0.1","battery-v0.2","","""event"",""trial"",""time""
""focus"",""0"",""0""
""fullscreenenter"",""1"",""1955""
","
","""event"",""trial"",""time""
""focus"",""0"",""0""
","""event"",""trial"",""time""
""fullscreenenter"",""1"",""1955""
","
","","","492","","","24","16590","6439","&#9784;","elianto","#FFFFF080"," "," ","1","&#10004","[1345]","1","0","0","","","","","","","",""
"pit-trial","10","124793","0.0-2.0-4.2-0.2","battery-v0.2","","""event"",""trial"",""time""
""focus"",""0"",""0""
""fullscreenenter"",""1"",""1955""
","
","""event"",""trial"",""time""
""focus"",""0"",""0""
","""event"",""trial"",""time""
""fullscreenenter"",""1"",""1955""
","
","","","501","","","24","16590","6439","&#9784;","elianto","#FFFFF080"," "," ","1","&#10004","[1352]","1","0","0","","","","","","","",""
"pit-trial","11","128173","0.0-2.0-4.3-0.3","battery-v0.2","","""event"",""trial"",""time""
""focus"",""0"",""0""
""fullscreenenter"",""1"",""1955""
","
","""event"",""trial"",""time""
""focus"",""0"",""0""
","""event"",""trial"",""time""
""fullscreenenter"",""1"",""1955""
","
","","","521","","","24","16590","6439","&#9784;","elianto","#FFFFF080"," "," ","1","&#10004","[1373]","1","0","0","","","","","","","",""
"pit-trial","12","131566","0.0-2.0-4.4-0.4","battery-v0.2","","""event"",""trial"",""time""
""focus"",""0"",""0""
""fullscreenenter"",""1"",""1955""
","
","""event"",""trial"",""time""
""focus"",""0"",""0""
","""event"",""trial"",""time""
""fullscreenenter"",""1"",""1955""
","
","","","533","","","24","16590","6439","&#9784;","elianto","#FFFFF080"," "," ","1","&#10004","[1389]","1","0","0","","","","","","","",""
"pit-instructions","13","154373","0.0-2.0-5.0","battery-v0.2","","""event"",""trial"",""time""
""focus"",""0"",""0""
""fullscreenenter"",""1"",""1955""
","
","""event"",""trial"",""time""
""focus"",""0"",""0""
","""event"",""trial"",""time""
""fullscreenenter"",""1"",""1955""
","
","","[{""page_index"":0,""viewing_time"":4933},{""page_index"":1,""viewing_time"":5200},{""page_index"":2,""viewing_time"":5400},{""page_index"":3,""viewing_time"":7266}]","22800","","","","","","","","","","","","","","","","","","","","","","","",""
"pit-trial","14","159235","0.0-2.0-6.0-0.0","battery-v0.2","","""event"",""trial"",""time""
""focus"",""0"",""0""
""fullscreenenter"",""1"",""1955""
","
","""event"",""trial"",""time""
""focus"",""0"",""0""
","""event"",""trial"",""time""
""fullscreenenter"",""1"",""1955""
","
","","","-1","","","24","16590","6439","&#9854;","elianto","#FFFFF080","-1","-1","1","&#10004","[]","0","0","1","","","","","","","",""
"pit-trial","15","164098","0.0-2.0-6.1-0.1","battery-v0.2","","""event"",""trial"",""time""
""focus"",""0"",""0""
""fullscreenenter"",""1"",""1955""
","
","""event"",""trial"",""time""
""focus"",""0"",""0""
","""event"",""trial"",""time""
""fullscreenenter"",""1"",""1955""
","
","","","-1","","","24","16590","6439","&#9854;","elianto","#FFFFF080","-1","-1","1","&#10004","[]","0","0","1","","","","","","","",""
"pit-trial","16","168963","0.0-2.0-6.2-0.2","battery-v0.2","","""event"",""trial"",""time""
""focus"",""0"",""0""
""fullscreenenter"",""1"",""1955""
","
","""event"",""trial"",""time""
""focus"",""0"",""0""
","""event"",""trial"",""time""
""fullscreenenter"",""1"",""1955""
","
","","","-1","","","24","16590","6439","&#9854;","elianto","#FFFFF080","-1","-1","1","&#10004","[]","0","0","1","","","","","","","",""
"pit-trial","17","173825","0.0-2.0-6.3-0.3","battery-v0.2","","""event"",""trial"",""time""
""focus"",""0"",""0""
""fullscreenenter"",""1"",""1955""
","
","""event"",""trial"",""time""
""focus"",""0"",""0""
","""event"",""trial"",""time""
""fullscreenenter"",""1"",""1955""
","
","","","-1","","","24","16590","6439","&#9854;","elianto","#FFFFF080","-1","-1","1","&#10004","[]","0","0","1","","","","","","","",""
"pit-trial","18","178690","0.0-2.0-6.4-0.4","battery-v0.2","","""event"",""trial"",""time""
""focus"",""0"",""0""
""fullscreenenter"",""1"",""1955""
","
","""event"",""trial"",""time""
""focus"",""0"",""0""
","""event"",""trial"",""time""
""fullscreenenter"",""1"",""1955""
","
","","","-1","","","24","16590","6439","&#9854;","elianto","#FFFFF080","-1","-1","1","&#10004","[]","0","0","1","","","","","","","",""
"pit-instructions","19","294862","0.0-2.0-7.0","battery-v0.2","","""event"",""trial"",""time""
""focus"",""0"",""0""
""fullscreenenter"",""1"",""1955""
","
","""event"",""trial"",""time""
""focus"",""0"",""0""
","""event"",""trial"",""time""
""fullscreenenter"",""1"",""1955""
","
","","[{""page_index"":0,""viewing_time"":5982},{""page_index"":1,""viewing_time"":6935},{""page_index"":2,""viewing_time"":5733},{""page_index"":3,""viewing_time"":6301},{""page_index"":4,""viewing_time"":5799},{""page_index"":5,""viewing_time"":5300},{""page_index"":6,""viewing_time"":6185},{""page_index"":7,""viewing_time"":7314},{""page_index"":8,""viewing_time"":6587},{""page_index"":9,""viewing_time"":5849},{""page_index"":10,""viewing_time"":8851},{""page_index"":11,""viewing_time"":4117},{""page_index"":12,""viewing_time"":6650},{""page_index"":13,""viewing_time"":6917},{""page_index"":14,""viewing_time"":6682},{""page_index"":15,""viewing_time"":6184},{""page_index"":16,""viewing_time"":7487},{""page_index"":17,""viewing_time"":7298}]","116174","","","","","","","","","","","","","","","","","","","","","","","",""
"pit-trial","20","298204","0.0-2.0-8.0-0.0","battery-v0.2","","""event"",""trial"",""time""
""focus"",""0"",""0""
""fullscreenenter"",""1"",""1955""
","
","""event"",""trial"",""time""
""focus"",""0"",""0""
","""event"",""trial"",""time""
""fullscreenenter"",""1"",""1955""
","
","","","471","","","24","16590","6439","&#9776;","elianto","#3366ff99"," "," ","1","+10","[1325]","1","0","1","","","","","","","",""
"pit-trial","21","301509","0.0-2.0-8.0-1.0","battery-v0.2","","""event"",""trial"",""time""
""focus"",""0"",""0""
""fullscreenenter"",""1"",""1955""
","
","""event"",""trial"",""time""
""focus"",""0"",""0""
","""event"",""trial"",""time""
""fullscreenenter"",""1"",""1955""
","
","","","447","","","24","16590","6439","&#9776;","elianto","#3366ff99"," "," ","1","+10","[1300]","1","0","1","","","","","","","",""
"pit-trial","22","304741","0.0-2.0-8.0-2.0","battery-v0.2","","""event"",""trial"",""time""
""focus"",""0"",""0""
""fullscreenenter"",""1"",""1955""
","
","""event"",""trial"",""time""
""focus"",""0"",""0""
","""event"",""trial"",""time""
""fullscreenenter"",""1"",""1955""
","
","","","372","","","24","16590","6439","&#9776;","elianto","#3366ff99"," "," ","1","+10","[1223]","1","0","1","","","","","","","",""
"pit-trial","23","308010","0.0-2.0-8.0-3.0","battery-v0.2","","""event"",""trial"",""time""
""focus"",""0"",""0""
""fullscreenenter"",""1"",""1955""
","
","""event"",""trial"",""time""
""focus"",""0"",""0""
","""event"",""trial"",""time""
""fullscreenenter"",""1"",""1955""
","
","","","409","","","24","16590","6439","&#9776;","elianto","#3366ff99"," "," ","1","0","[1260]","1","0","1","","","","","","","",""
"pit-trial","24","311275","0.0-2.0-8.0-4.0","battery-v0.2","","""event"",""trial"",""time""
""focus"",""0"",""0""
""fullscreenenter"",""1"",""1955""
","
","""event"",""trial"",""time""
""focus"",""0"",""0""
","""event"",""trial"",""time""
""fullscreenenter"",""1"",""1955""
","
","","","405","","","24","16590","6439","&#9776;","elianto","#3366ff99"," "," ","1","+10","[1258]","1","0","1","","","","","","","",""
"pit-trial","25","314419","0.0-2.0-8.1-0.1","battery-v0.2","","""event"",""trial"",""time""
""focus"",""0"",""0""
""fullscreenenter"",""1"",""1955""
","
","""event"",""trial"",""time""
""focus"",""0"",""0""
","""event"",""trial"",""time""
""fullscreenenter"",""1"",""1955""
","
","","","282","","","24","16590","6439","&#9776;","elianto","#3366ff99"," "," ","1","+10","[1136]","1","0","1","","","","","","","",""
"pit-trial","26","317750","0.0-2.0-8.1-1.1","battery-v0.2","","""event"",""trial"",""time""
""focus"",""0"",""0""
""fullscreenenter"",""1"",""1955""
","
","""event"",""trial"",""time""
""focus"",""0"",""0""
","""event"",""trial"",""time""
""fullscreenenter"",""1"",""1955""
","
","","","471","","","24","16590","6439","&#9776;","elianto","#3366ff99"," "," ","1","+10","[1322]","1","0","1","","","","","","","",""
"pit-trial","27","321068","0.0-2.0-8.1-2.1","battery-v0.2","","""event"",""trial"",""time""
""focus"",""0"",""0""
""fullscreenenter"",""1"",""1955""
","
","""event"",""trial"",""time""
""focus"",""0"",""0""
","""event"",""trial"",""time""
""fullscreenenter"",""1"",""1955""
","
","","","456","","","24","16590","6439","&#9776;","elianto","#3366ff99"," "," ","1","+10","[1311]","1","0","1","","","","","","","",""
"pit-trial","28","324387","0.0-2.0-8.1-3.1","battery-v0.2","","""event"",""trial"",""time""
""focus"",""0"",""0""
""fullscreenenter"",""1"",""1955""
","
","""event"",""trial"",""time""
""focus"",""0"",""0""
","""event"",""trial"",""time""
""fullscreenenter"",""1"",""1955""
","
","","","456","","","24","16590","6439","&#9776;","elianto","#3366ff99"," "," ","1","0","[1311]","1","0","1","","","","","","","",""
"pit-trial","29","327656","0.0-2.0-8.1-4.1","battery-v0.2","","""event"",""trial"",""time""
""focus"",""0"",""0""
""fullscreenenter"",""1"",""1955""
","
","""event"",""trial"",""time""
""focus"",""0"",""0""
","""event"",""trial"",""time""
""fullscreenenter"",""1"",""1955""
","
","","","409","","","24","16590","6439","&#9776;","elianto","#3366ff99"," "," ","1","+10","[1261]","1","0","1","","","","","","","",""
"pit-trial","30","331198","0.0-2.0-8.2-0.2","battery-v0.2","","""event"",""trial"",""time""
""focus"",""0"",""0""
""fullscreenenter"",""1"",""1955""
","
","""event"",""trial"",""time""
""focus"",""0"",""0""
","""event"",""trial"",""time""
""fullscreenenter"",""1"",""1955""
","
","","","684","","","24","16590","6439","&#9776;","elianto","#3366ff99"," "," ","1","+10","[1536]","1","0","1","","","","","","","",""
"pit-trial","31","334477","0.0-2.0-8.2-1.2","battery-v0.2","","""event"",""trial"",""time""
""focus"",""0"",""0""
""fullscreenenter"",""1"",""1955""
","
","""event"",""trial"",""time""
""focus"",""0"",""0""
","""event"",""trial"",""time""
""fullscreenenter"",""1"",""1955""
","
","","","417","","","24","16590","6439","&#9776;","elianto","#3366ff99"," "," ","1","+10","[1272]","1","0","1","","","","","","","",""
"pit-trial","32","337888","0.0-2.0-8.2-2.2","battery-v0.2","","""event"",""trial"",""time""
""focus"",""0"",""0""
""fullscreenenter"",""1"",""1955""
","
","""event"",""trial"",""time""
""focus"",""0"",""0""
","""event"",""trial"",""time""
""fullscreenenter"",""1"",""1955""
","
","","","548","","","24","16590","6439","&#9776;","elianto","#3366ff99"," "," ","1","+10","[1403]","1","0","1","","","","","","","",""
"pit-trial","33","341776","0.0-2.0-8.2-3.2","battery-v0.2","","""event"",""trial"",""time""
""focus"",""0"",""0""
""fullscreenenter"",""1"",""1955""
","
","""event"",""trial"",""time""
""focus"",""0"",""0""
","""event"",""trial"",""time""
""fullscreenenter"",""1"",""1955""
","
","","","1031","","","24","16590","6439","&#9776;","elianto","#3366ff99"," "," ","1","0","[1885]","1","0","1","","","","","","","",""
"pit-trial","34","345074","0.0-2.0-8.2-4.2","battery-v0.2","","""event"",""trial"",""time""
""focus"",""0"",""0""
""fullscreenenter"",""1"",""1955""
","
","""event"",""trial"",""time""
""focus"",""0"",""0""
","""event"",""trial"",""time""
""fullscreenenter"",""1"",""1955""
","
","","","444","","","24","16590","6439","&#9776;","elianto","#3366ff99"," "," ","1","+10","[1294]","1","0","1","","","","","","","",""
"call-function","35","345077","0.0-2.0-9.0","battery-v0.2","","""event"",""trial"",""time""
""focus"",""0"",""0""
""fullscreenenter"",""1"",""1955""
","
","""event"",""trial"",""time""
""focus"",""0"",""0""
","""event"",""trial"",""time""
""fullscreenenter"",""1"",""1955""
","
","","","","","","","","","","","","","","","","","","","","","","","","","","",""
"pit-instructions","36","384924","0.0-2.0-10.0","battery-v0.2","","""event"",""trial"",""time""
""focus"",""0"",""0""
""fullscreenenter"",""1"",""1955""
","
","""event"",""trial"",""time""
""focus"",""0"",""0""
","""event"",""trial"",""time""
""fullscreenenter"",""1"",""1955""
","
","","[{""page_index"":0,""viewing_time"":6746},{""page_index"":1,""viewing_time"":6818},{""page_index"":2,""viewing_time"":9134},{""page_index"":3,""viewing_time"":9032},{""page_index"":4,""viewing_time"":8117}]","39848","","","","","","","","","","","","","","","","","","","","","","","",""
"pit-trial","37","388221","0.0-2.0-11.0-0.0","battery-v0.2","","""event"",""trial"",""time""
""focus"",""0"",""0""
""fullscreenenter"",""1"",""1955""
","
","""event"",""trial"",""time""
""focus"",""0"",""0""
","""event"",""trial"",""time""
""fullscreenenter"",""1"",""1955""
","
","","","400","","","24","16590","6439","&#9761;","elianto","#3366ff99","-1"," ","0","0","[1286]","1","0","2","","","","","","","",""
"pit-trial","38","391318","0.0-2.0-11.0-1.0","battery-v0.2","","""event"",""trial"",""time""
""focus"",""0"",""0""
""fullscreenenter"",""1"",""1955""
","
","""event"",""trial"",""time""
""focus"",""0"",""0""
","""event"",""trial"",""time""
""fullscreenenter"",""1"",""1955""
","
","","","236","","","24","16590","6439","&#9761;","elianto","#3366ff99","-1"," ","0","0","[1089]","1","0","2","","","","","","","",""
"pit-trial","39","394380","0.0-2.0-11.0-2.0","battery-v0.2","","""event"",""trial"",""time""
""focus"",""0"",""0""
""fullscreenenter"",""1"",""1955""
","
","""event"",""trial"",""time""
""focus"",""0"",""0""
","""event"",""trial"",""time""
""fullscreenenter"",""1"",""1955""
","
","","","198","","","24","16590","6439","&#9761;","elianto","#3366ff99","-1"," ","0","0","[1052]","1","0","2","","","","","","","",""
"pit-trial","40","397411","0.0-2.0-11.0-3.0","battery-v0.2","","""event"",""trial"",""time""
""focus"",""0"",""0""
""fullscreenenter"",""1"",""1955""
","
","""event"",""trial"",""time""
""focus"",""0"",""0""
","""event"",""trial"",""time""
""fullscreenenter"",""1"",""1955""
","
","","","171","","","24","16590","6439","&#9761;","elianto","#3366ff99","-1"," ","0","+10","[1025]","1","0","2","","","","","","","",""
"pit-trial","41","400487","0.0-2.0-11.0-4.0","battery-v0.2","","""event"",""trial"",""time""
""focus"",""0"",""0""
""fullscreenenter"",""1"",""1955""
","
","""event"",""trial"",""time""
""focus"",""0"",""0""
","""event"",""trial"",""time""
""fullscreenenter"",""1"",""1955""
","
","","","217","","","24","16590","6439","&#9761;","elianto","#3366ff99","-1"," ","0","0","[1068]","1","0","2","","","","","","","",""
"pit-trial","42","405345","0.0-2.0-11.1-0.1","battery-v0.2","","""event"",""trial"",""time""
""focus"",""0"",""0""
""fullscreenenter"",""1"",""1955""
","
","""event"",""trial"",""time""
""focus"",""0"",""0""
","""event"",""trial"",""time""
""fullscreenenter"",""1"",""1955""
","
","","","-1","","","24","16590","6439","&#9761;","elianto","#3366ff99","-1","-1","1","+10","[]","0","0","2","","","","","","","",""
"pit-trial","43","410202","0.0-2.0-11.1-1.1","battery-v0.2","","""event"",""trial"",""time""
""focus"",""0"",""0""
""fullscreenenter"",""1"",""1955""
","
","""event"",""trial"",""time""
""focus"",""0"",""0""
","""event"",""trial"",""time""
""fullscreenenter"",""1"",""1955""
","
","","","-1","","","24","16590","6439","&#9761;","elianto","#3366ff99","-1","-1","1","+10","[]","0","0","2","","","","","","","",""
"pit-trial","44","415063","0.0-2.0-11.1-2.1","battery-v0.2","","""event"",""trial"",""time""
""focus"",""0"",""0""
""fullscreenenter"",""1"",""1955""
","
","""event"",""trial"",""time""
""focus"",""0"",""0""
","""event"",""trial"",""time""
""fullscreenenter"",""1"",""1955""
","
","","","-1","","","24","16590","6439","&#9761;","elianto","#3366ff99","-1","-1","1","+10","[]","0","0","2","","","","","","","",""
"pit-trial","45","419927","0.0-2.0-11.1-3.1","battery-v0.2","","""event"",""trial"",""time""
""focus"",""0"",""0""
""fullscreenenter"",""1"",""1955""
","
","""event"",""trial"",""time""
""focus"",""0"",""0""
","""event"",""trial"",""time""
""fullscreenenter"",""1"",""1955""
","
","","","-1","","","24","16590","6439","&#9761;","elianto","#3366ff99","-1","-1","1","0","[]","0","0","2","","","","","","","",""
"pit-trial","46","424787","0.0-2.0-11.1-4.1","battery-v0.2","","""event"",""trial"",""time""
""focus"",""0"",""0""
""fullscreenenter"",""1"",""1955""
","
","""event"",""trial"",""time""
""focus"",""0"",""0""
","""event"",""trial"",""time""
""fullscreenenter"",""1"",""1955""
","
","","","-1","","","24","16590","6439","&#9761;","elianto","#3366ff99","-1","-1","1","+10","[]","0","0","2","","","","","","","",""
"pit-trial","47","429651","0.0-2.0-11.2-0.2","battery-v0.2","","""event"",""trial"",""time""
""focus"",""0"",""0""
""fullscreenenter"",""1"",""1955""
","
","""event"",""trial"",""time""
""focus"",""0"",""0""
","""event"",""trial"",""time""
""fullscreenenter"",""1"",""1955""
","
","","","-1","","","24","16590","6439","&#9761;","elianto","#3366ff99","-1","-1","1","+10","[]","0","0","2","","","","","","","",""
"pit-trial","48","434510","0.0-2.0-11.2-1.2","battery-v0.2","","""event"",""trial"",""time""
""focus"",""0"",""0""
""fullscreenenter"",""1"",""1955""
","
","""event"",""trial"",""time""
""focus"",""0"",""0""
","""event"",""trial"",""time""
""fullscreenenter"",""1"",""1955""
","
","","","-1","","","24","16590","6439","&#9761;","elianto","#3366ff99","-1","-1","1","+10","[]","0","0","2","","","","","","","",""
"pit-trial","49","439373","0.0-2.0-11.2-2.2","battery-v0.2","","""event"",""trial"",""time""
""focus"",""0"",""0""
""fullscreenenter"",""1"",""1955""
","
","""event"",""trial"",""time""
""focus"",""0"",""0""
","""event"",""trial"",""time""
""fullscreenenter"",""1"",""1955""
","
","","","-1","","","24","16590","6439","&#9761;","elianto","#3366ff99","-1","-1","1","+10","[]","0","0","2","","","","","","","",""
"pit-trial","50","444235","0.0-2.0-11.2-3.2","battery-v0.2","","""event"",""trial"",""time""
""focus"",""0"",""0""
""fullscreenenter"",""1"",""1955""
","
","""event"",""trial"",""time""
""focus"",""0"",""0""
","""event"",""trial"",""time""
""fullscreenenter"",""1"",""1955""
","
","","","-1","","","24","16590","6439","&#9761;","elianto","#3366ff99","-1","-1","1","0","[]","0","0","2","","","","","","","",""
"pit-trial","51","449099","0.0-2.0-11.2-4.2","battery-v0.2","","""event"",""trial"",""time""
""focus"",""0"",""0""
""fullscreenenter"",""1"",""1955""
","
","""event"",""trial"",""time""
""focus"",""0"",""0""
","""event"",""trial"",""time""
""fullscreenenter"",""1"",""1955""
","
","","","-1","","","24","16590","6439","&#9761;","elianto","#3366ff99","-1","-1","1","+10","[]","0","0","2","","","","","","","",""
"pit-trial","52","453959","0.0-2.0-11.3-0.3","battery-v0.2","","""event"",""trial"",""time""
""focus"",""0"",""0""
""fullscreenenter"",""1"",""1955""
","
","""event"",""trial"",""time""
""focus"",""0"",""0""
","""event"",""trial"",""time""
""fullscreenenter"",""1"",""1955""
","
","","","-1","","","24","16590","6439","&#9761;","elianto","#3366ff99","-1","-1","1","+10","[]","0","0","2","","","","","","","",""
"pit-trial","53","458821","0.0-2.0-11.3-1.3","battery-v0.2","","""event"",""trial"",""time""
""focus"",""0"",""0""
""fullscreenenter"",""1"",""1955""
","
","""event"",""trial"",""time""
""focus"",""0"",""0""
","""event"",""trial"",""time""
""fullscreenenter"",""1"",""1955""
","
","","","-1","","","24","16590","6439","&#9761;","elianto","#3366ff99","-1","-1","1","+10","[]","0","0","2","","","","","","","",""
"pit-trial","54","463680","0.0-2.0-11.3-2.3","battery-v0.2","","""event"",""trial"",""time""
""focus"",""0"",""0""
""fullscreenenter"",""1"",""1955""
","
","""event"",""trial"",""time""
""focus"",""0"",""0""
","""event"",""trial"",""time""
""fullscreenenter"",""1"",""1955""
","
","","","-1","","","24","16590","6439","&#9761;","elianto","#3366ff99","-1","-1","1","+10","[]","0","0","2","","","","","","","",""
"pit-trial","55","468537","0.0-2.0-11.3-3.3","battery-v0.2","","""event"",""trial"",""time""
""focus"",""0"",""0""
""fullscreenenter"",""1"",""1955""
","
","""event"",""trial"",""time""
""focus"",""0"",""0""
","""event"",""trial"",""time""
""fullscreenenter"",""1"",""1955""
","
","","","-1","","","24","16590","6439","&#9761;","elianto","#3366ff99","-1","-1","1","0","[]","0","0","2","","","","","","","",""
"pit-trial","56","473395","0.0-2.0-11.3-4.3","battery-v0.2","","""event"",""trial"",""time""
""focus"",""0"",""0""
""fullscreenenter"",""1"",""1955""
","
","""event"",""trial"",""time""
""focus"",""0"",""0""
","""event"",""trial"",""time""
""fullscreenenter"",""1"",""1955""
","
","","","-1","","","24","16590","6439","&#9761;","elianto","#3366ff99","-1","-1","1","+10","[]","0","0","2","","","","","","","",""
"call-function","57","473398","0.0-2.0-12.0","battery-v0.2","","""event"",""trial"",""time""
""focus"",""0"",""0""
""fullscreenenter"",""1"",""1955""
","
","""event"",""trial"",""time""
""focus"",""0"",""0""
","""event"",""trial"",""time""
""fullscreenenter"",""1"",""1955""
","
","","","","","","","","","","","","","","","","","","","","","","","","","","",""
"pit-instructions","58","504108","0.0-2.0-13.0","battery-v0.2","","""event"",""trial"",""time""
""focus"",""0"",""0""
""fullscreenenter"",""1"",""1955""
","
","""event"",""trial"",""time""
""focus"",""0"",""0""
","""event"",""trial"",""time""
""fullscreenenter"",""1"",""1955""
","
","","[{""page_index"":0,""viewing_time"":5192},{""page_index"":1,""viewing_time"":6684},{""page_index"":2,""viewing_time"":3967},{""page_index"":3,""viewing_time"":10034},{""page_index"":4,""viewing_time"":4833}]","30710","","","","","","","","","","","","","","","","","","","","","","","",""
"pit-trial","59","507419","0.0-2.0-14.0-0.0","battery-v0.2","","""event"",""trial"",""time""
""focus"",""0"",""0""
""fullscreenenter"",""1"",""1955""
","
","""event"",""trial"",""time""
""focus"",""0"",""0""
","""event"",""trial"",""time""
""fullscreenenter"",""1"",""1955""
","
","","","449","","","24","16590","6439","&#9826;","elianto","#f73b6a7A","-1"," ","0","-10","[1303]","1","0","3","","","","","","","",""
"pit-trial","60","510666","0.0-2.0-14.0-1.0","battery-v0.2","","""event"",""trial"",""time""
""focus"",""0"",""0""
""fullscreenenter"",""1"",""1955""
","
","""event"",""trial"",""time""
""focus"",""0"",""0""
","""event"",""trial"",""time""
""fullscreenenter"",""1"",""1955""
","
","","","389","","","24","16590","6439","&#9826;","elianto","#f73b6a7A","-1"," ","0","-10","[1239]","1","0","3","","","","","","","",""
"pit-trial","61","513708","0.0-2.0-14.0-2.0","battery-v0.2","","""event"",""trial"",""time""
""focus"",""0"",""0""
""fullscreenenter"",""1"",""1955""
","
","""event"",""trial"",""time""
""focus"",""0"",""0""
","""event"",""trial"",""time""
""fullscreenenter"",""1"",""1955""
","
","","","180","","","24","16590","6439","&#9826;","elianto","#f73b6a7A","-1"," ","0","-10","[1033]","1","0","3","","","","","","","",""
"pit-trial","62","516764","0.0-2.0-14.0-3.0","battery-v0.2","","""event"",""trial"",""time""
""focus"",""0"",""0""
""fullscreenenter"",""1"",""1955""
","
","""event"",""trial"",""time""
""focus"",""0"",""0""
","""event"",""trial"",""time""
""fullscreenenter"",""1"",""1955""
","
","","","194","","","24","16590","6439","&#9826;","elianto","#f73b6a7A","-1"," ","0","0","[1049]","1","0","3","","","","","","","",""
"pit-trial","63","519748","0.0-2.0-14.0-4.0","battery-v0.2","","""event"",""trial"",""time""
""focus"",""0"",""0""
""fullscreenenter"",""1"",""1955""
","
","""event"",""trial"",""time""
""focus"",""0"",""0""
","""event"",""trial"",""time""
""fullscreenenter"",""1"",""1955""
","
","","","122","","","24","16590","6439","&#9826;","elianto","#f73b6a7A","-1"," ","0","-10","[975]","1","0","3","","","","","","","",""
"pit-trial","64","524612","0.0-2.0-14.1-0.1","battery-v0.2","","""event"",""trial"",""time""
""focus"",""0"",""0""
""fullscreenenter"",""1"",""1955""
","
","""event"",""trial"",""time""
""focus"",""0"",""0""
","""event"",""trial"",""time""
""fullscreenenter"",""1"",""1955""
","
","","","-1","","","24","16590","6439","&#9826;","elianto","#f73b6a7A","-1","-1","1","0","[]","0","0","3","","","","","","","",""
"pit-trial","65","529475","0.0-2.0-14.1-1.1","battery-v0.2","","""event"",""trial"",""time""
""focus"",""0"",""0""
""fullscreenenter"",""1"",""1955""
","
","""event"",""trial"",""time""
""focus"",""0"",""0""
","""event"",""trial"",""time""
""fullscreenenter"",""1"",""1955""
","
","","","-1","","","24","16590","6439","&#9826;","elianto","#f73b6a7A","-1","-1","1","0","[]","0","0","3","","","","","","","",""
"pit-trial","66","534359","0.0-2.0-14.1-2.1","battery-v0.2","","""event"",""trial"",""time""
""focus"",""0"",""0""
""fullscreenenter"",""1"",""1955""
","
","""event"",""trial"",""time""
""focus"",""0"",""0""
","""event"",""trial"",""time""
""fullscreenenter"",""1"",""1955""
","
","","","-1","","","24","16590","6439","&#9826;","elianto","#f73b6a7A","-1","-1","1","0","[]","0","0","3","","","","","","","",""
"pit-trial","67","539218","0.0-2.0-14.1-3.1","battery-v0.2","","""event"",""trial"",""time""
""focus"",""0"",""0""
""fullscreenenter"",""1"",""1955""
","
","""event"",""trial"",""time""
""focus"",""0"",""0""
","""event"",""trial"",""time""
""fullscreenenter"",""1"",""1955""
","
","","","-1","","","24","16590","6439","&#9826;","elianto","#f73b6a7A","-1","-1","1","-10","[]","0","0","3","","","","","","","",""
"pit-trial","68","544077","0.0-2.0-14.1-4.1","battery-v0.2","","""event"",""trial"",""time""
""focus"",""0"",""0""
""fullscreenenter"",""1"",""1955""
","
","""event"",""trial"",""time""
""focus"",""0"",""0""
","""event"",""trial"",""time""
""fullscreenenter"",""1"",""1955""
","
","","","-1","","","24","16590","6439","&#9826;","elianto","#f73b6a7A","-1","-1","1","0","[]","0","0","3","","","","","","","",""
"pit-trial","69","548940","0.0-2.0-14.2-0.2","battery-v0.2","","""event"",""trial"",""time""
""focus"",""0"",""0""
""fullscreenenter"",""1"",""1955""
","
","""event"",""trial"",""time""
""focus"",""0"",""0""
","""event"",""trial"",""time""
""fullscreenenter"",""1"",""1955""
","
","","","-1","","","24","16590","6439","&#9826;","elianto","#f73b6a7A","-1","-1","1","0","[]","0","0","3","","","","","","","",""
"pit-trial","70","553803","0.0-2.0-14.2-1.2","battery-v0.2","","""event"",""trial"",""time""
""focus"",""0"",""0""
""fullscreenenter"",""1"",""1955""
","
","""event"",""trial"",""time""
""focus"",""0"",""0""
","""event"",""trial"",""time""
""fullscreenenter"",""1"",""1955""
","
","","","-1","","","24","16590","6439","&#9826;","elianto","#f73b6a7A","-1","-1","1","0","[]","0","0","3","","","","","","","",""
"pit-trial","71","558661","0.0-2.0-14.2-2.2","battery-v0.2","","""event"",""trial"",""time""
""focus"",""0"",""0""
""fullscreenenter"",""1"",""1955""
","
","""event"",""trial"",""time""
""focus"",""0"",""0""
","""event"",""trial"",""time""
""fullscreenenter"",""1"",""1955""
","
","","","-1","","","24","16590","6439","&#9826;","elianto","#f73b6a7A","-1","-1","1","0","[]","0","0","3","","","","","","","",""
"pit-trial","72","563523","0.0-2.0-14.2-3.2","battery-v0.2","","""event"",""trial"",""time""
""focus"",""0"",""0""
""fullscreenenter"",""1"",""1955""
","
","""event"",""trial"",""time""
""focus"",""0"",""0""
","""event"",""trial"",""time""
""fullscreenenter"",""1"",""1955""
","
","","","-1","","","24","16590","6439","&#9826;","elianto","#f73b6a7A","-1","-1","1","-10","[]","0","0","3","","","","","","","",""
"pit-trial","73","568384","0.0-2.0-14.2-4.2","battery-v0.2","","""event"",""trial"",""time""
""focus"",""0"",""0""
""fullscreenenter"",""1"",""1955""
","
","""event"",""trial"",""time""
""focus"",""0"",""0""
","""event"",""trial"",""time""
""fullscreenenter"",""1"",""1955""
","
","","","-1","","","24","16590","6439","&#9826;","elianto","#f73b6a7A","-1","-1","1","0","[]","0","0","3","","","","","","","",""
"pit-trial","74","573244","0.0-2.0-14.3-0.3","battery-v0.2","","""event"",""trial"",""time""
""focus"",""0"",""0""
""fullscreenenter"",""1"",""1955""
","
","""event"",""trial"",""time""
""focus"",""0"",""0""
","""event"",""trial"",""time""
""fullscreenenter"",""1"",""1955""
","
","","","-1","","","24","16590","6439","&#9826;","elianto","#f73b6a7A","-1","-1","1","0","[]","0","0","3","","","","","","","",""
"pit-trial","75","578107","0.0-2.0-14.3-1.3","battery-v0.2","","""event"",""trial"",""time""
""focus"",""0"",""0""
""fullscreenenter"",""1"",""1955""
","
","""event"",""trial"",""time""
""focus"",""0"",""0""
","""event"",""trial"",""time""
""fullscreenenter"",""1"",""1955""
","
","","","-1","","","24","16590","6439","&#9826;","elianto","#f73b6a7A","-1","-1","1","0","[]","0","0","3","","","","","","","",""
"pit-trial","76","582970","0.0-2.0-14.3-2.3","battery-v0.2","","""event"",""trial"",""time""
""focus"",""0"",""0""
""fullscreenenter"",""1"",""1955""
","
","""event"",""trial"",""time""
""focus"",""0"",""0""
","""event"",""trial"",""time""
""fullscreenenter"",""1"",""1955""
","
","","","-1","","","24","16590","6439","&#9826;","elianto","#f73b6a7A","-1","-1","1","0","[]","0","0","3","","","","","","","",""
"pit-trial","77","587834","0.0-2.0-14.3-3.3","battery-v0.2","","""event"",""trial"",""time""
""focus"",""0"",""0""
""fullscreenenter"",""1"",""1955""
","
","""event"",""trial"",""time""
""focus"",""0"",""0""
","""event"",""trial"",""time""
""fullscreenenter"",""1"",""1955""
","
","","","-1","","","24","16590","6439","&#9826;","elianto","#f73b6a7A","-1","-1","1","-10","[]","0","0","3","","","","","","","",""
"pit-trial","78","592697","0.0-2.0-14.3-4.3","battery-v0.2","","""event"",""trial"",""time""
""focus"",""0"",""0""
""fullscreenenter"",""1"",""1955""
","
","""event"",""trial"",""time""
""focus"",""0"",""0""
","""event"",""trial"",""time""
""fullscreenenter"",""1"",""1955""
","
","","","-1","","","24","16590","6439","&#9826;","elianto","#f73b6a7A","-1","-1","1","0","[]","0","0","3","","","","","","","",""
"call-function","79","592701","0.0-2.0-15.0","battery-v0.2","","""event"",""trial"",""time""
""focus"",""0"",""0""
""fullscreenenter"",""1"",""1955""
","
","""event"",""trial"",""time""
""focus"",""0"",""0""
","""event"",""trial"",""time""
""fullscreenenter"",""1"",""1955""
","
","","","","","","","","","","","","","","","","","","","","","","","","","","",""
"pit-instructions","80","618358","0.0-2.0-16.0","battery-v0.2","","""event"",""trial"",""time""
""focus"",""0"",""0""
""fullscreenenter"",""1"",""1955""
","
","""event"",""trial"",""time""
""focus"",""0"",""0""
","""event"",""trial"",""time""
""fullscreenenter"",""1"",""1955""
","
","","[{""page_index"":0,""viewing_time"":6739},{""page_index"":1,""viewing_time"":8550},{""page_index"":2,""viewing_time"":4650},{""page_index"":3,""viewing_time"":5717}]","25657","","","","","","","","","","","","","","","","","","","","","","","",""
"pit-trial","81","621859","0.0-2.0-17.0-0.0","battery-v0.2","","""event"",""trial"",""time""
""focus"",""0"",""0""
""fullscreenenter"",""1"",""1955""
","
","""event"",""trial"",""time""
""focus"",""0"",""0""
","""event"",""trial"",""time""
""fullscreenenter"",""1"",""1955""
","
","","","639","","","24","16590","6439","&#9789;","elianto","#f73b6a7A"," "," ","1","0","[1494]","1","0","4","","","","","","","",""
"pit-trial","82","624747","0.0-2.0-17.0-1.0","battery-v0.2","","""event"",""trial"",""time""
""focus"",""0"",""0""
""fullscreenenter"",""1"",""1955""
","
","""event"",""trial"",""time""
""focus"",""0"",""0""
","""event"",""trial"",""time""
""fullscreenenter"",""1"",""1955""
","
","","","24","","","24","16590","6439","&#9789;","elianto","#f73b6a7A"," "," ","1","0","[879]","1","0","4","","","","","","","",""
"pit-trial","83","627635","0.0-2.0-17.0-2.0","battery-v0.2","","""event"",""trial"",""time""
""focus"",""0"",""0""
""fullscreenenter"",""1"",""1955""
","
","""event"",""trial"",""time""
""focus"",""0"",""0""
","""event"",""trial"",""time""
""fullscreenenter"",""1"",""1955""
","
","","","27","","","24","16590","6439","&#9789;","elianto","#f73b6a7A"," "," ","1","0","[883]","1","0","4","","","","","","","",""
"pit-trial","84","632497","0.0-2.0-17.0-3.0","battery-v0.2","","""event"",""trial"",""time""
""focus"",""0"",""0""
""fullscreenenter"",""1"",""1955""
","
","""event"",""trial"",""time""
""focus"",""0"",""0""
","""event"",""trial"",""time""
""fullscreenenter"",""1"",""1955""
","
","","","-1","","","24","16590","6439","&#9789;","elianto","#f73b6a7A"," ","-1","0","0","[813]","1","0","4","","","","","","","",""
"pit-trial","85","636109","0.0-2.0-17.0-4.0","battery-v0.2","","""event"",""trial"",""time""
""focus"",""0"",""0""
""fullscreenenter"",""1"",""1955""
","
","""event"",""trial"",""time""
""focus"",""0"",""0""
","""event"",""trial"",""time""
""fullscreenenter"",""1"",""1955""
","
","","","754","","","24","16590","6439","&#9789;","elianto","#f73b6a7A"," "," ","1","0","[1607]","1","0","4","","","","","","","",""
"pit-trial","86","639316","0.0-2.0-17.1-0.1","battery-v0.2","","""event"",""trial"",""time""
""focus"",""0"",""0""
""fullscreenenter"",""1"",""1955""
","
","""event"",""trial"",""time""
""focus"",""0"",""0""
","""event"",""trial"",""time""
""fullscreenenter"",""1"",""1955""
","
","","","349","","","24","16590","6439","&#9789;","elianto","#f73b6a7A"," "," ","1","0","[1199]","1","0","4","","","","","","","",""
"pit-trial","87","642477","0.0-2.0-17.1-1.1","battery-v0.2","","""event"",""trial"",""time""
""focus"",""0"",""0""
""fullscreenenter"",""1"",""1955""
","
","""event"",""trial"",""time""
""focus"",""0"",""0""
","""event"",""trial"",""time""
""fullscreenenter"",""1"",""1955""
","
","","","300","","","24","16590","6439","&#9789;","elianto","#f73b6a7A"," "," ","1","0","[1154]","1","0","4","","","","","","","",""
"pit-trial","88","645510","0.0-2.0-17.1-2.1","battery-v0.2","","""event"",""trial"",""time""
""focus"",""0"",""0""
""fullscreenenter"",""1"",""1955""
","
","""event"",""trial"",""time""
""focus"",""0"",""0""
","""event"",""trial"",""time""
""fullscreenenter"",""1"",""1955""
","
","","","179","","","24","16590","6439","&#9789;","elianto","#f73b6a7A"," "," ","1","0","[1030]","1","0","4","","","","","","","",""
"pit-trial","89","648547","0.0-2.0-17.1-3.1","battery-v0.2","","""event"",""trial"",""time""
""focus"",""0"",""0""
""fullscreenenter"",""1"",""1955""
","
","""event"",""trial"",""time""
""focus"",""0"",""0""
","""event"",""trial"",""time""
""fullscreenenter"",""1"",""1955""
","
","","","178","","","24","16590","6439","&#9789;","elianto","#f73b6a7A"," "," ","1","-10","[1030]","1","0","4","","","","","","","",""
"pit-trial","90","651593","0.0-2.0-17.1-4.1","battery-v0.2","","""event"",""trial"",""time""
""focus"",""0"",""0""
""fullscreenenter"",""1"",""1955""
","
","""event"",""trial"",""time""
""focus"",""0"",""0""
","""event"",""trial"",""time""
""fullscreenenter"",""1"",""1955""
","
","","","192","","","24","16590","6439","&#9789;","elianto","#f73b6a7A"," "," ","1","0","[1042]","1","0","4","","","","","","","",""
"pit-trial","91","654850","0.0-2.0-17.2-0.2","battery-v0.2","","""event"",""trial"",""time""
""focus"",""0"",""0""
""fullscreenenter"",""1"",""1955""
","
","""event"",""trial"",""time""
""focus"",""0"",""0""
","""event"",""trial"",""time""
""fullscreenenter"",""1"",""1955""
","
","","","394","","","24","16590","6439","&#9789;","elianto","#f73b6a7A"," "," ","1","0","[1247]","1","0","4","","","","","","","",""
"pit-trial","92","657764","0.0-2.0-17.2-1.2","battery-v0.2","","""event"",""trial"",""time""
""focus"",""0"",""0""
""fullscreenenter"",""1"",""1955""
","
","""event"",""trial"",""time""
""focus"",""0"",""0""
","""event"",""trial"",""time""
""fullscreenenter"",""1"",""1955""
","
","","","54","","","24","16590","6439","&#9789;","elianto","#f73b6a7A"," "," ","1","0","[906]","1","0","4","","","","","","","",""
"pit-trial","93","660940","0.0-2.0-17.2-2.2","battery-v0.2","","""event"",""trial"",""time""
""focus"",""0"",""0""
""fullscreenenter"",""1"",""1955""
","
","""event"",""trial"",""time""
""focus"",""0"",""0""
","""event"",""trial"",""time""
""fullscreenenter"",""1"",""1955""
","
","","","316","","","24","16590","6439","&#9789;","elianto","#f73b6a7A"," "," ","1","0","[1169]","1","0","4","","","","","","","",""
"pit-trial","94","664051","0.0-2.0-17.2-3.2","battery-v0.2","","""event"",""trial"",""time""
""focus"",""0"",""0""
""fullscreenenter"",""1"",""1955""
","
","""event"",""trial"",""time""
""focus"",""0"",""0""
","""event"",""trial"",""time""
""fullscreenenter"",""1"",""1955""
","
","","","250","","","24","16590","6439","&#9789;","elianto","#f73b6a7A"," "," ","1","-10","[1105]","1","0","4","","","","","","","",""
"pit-trial","95","667104","0.0-2.0-17.2-4.2","battery-v0.2","","""event"",""trial"",""time""
""focus"",""0"",""0""
""fullscreenenter"",""1"",""1955""
","
","""event"",""trial"",""time""
""focus"",""0"",""0""
","""event"",""trial"",""time""
""fullscreenenter"",""1"",""1955""
","
","","","192","","","24","16590","6439","&#9789;","elianto","#f73b6a7A"," "," ","1","0","[1046]","1","0","4","","","","","","","",""
"pit-trial","96","670167","0.0-2.0-17.3-0.3","battery-v0.2","","""event"",""trial"",""time""
""focus"",""0"",""0""
""fullscreenenter"",""1"",""1955""
","
","""event"",""trial"",""time""
""focus"",""0"",""0""
","""event"",""trial"",""time""
""fullscreenenter"",""1"",""1955""
","
","","","205","","","24","16590","6439","&#9789;","elianto","#f73b6a7A"," "," ","1","0","[1058]","1","0","4","","","","","","","",""
"pit-trial","97","673219","0.0-2.0-17.3-1.3","battery-v0.2","","""event"",""trial"",""time""
""focus"",""0"",""0""
""fullscreenenter"",""1"",""1955""
","
","""event"",""trial"",""time""
""focus"",""0"",""0""
","""event"",""trial"",""time""
""fullscreenenter"",""1"",""1955""
","
","","","192","","","24","16590","6439","&#9789;","elianto","#f73b6a7A"," "," ","1","0","[1045]","1","0","4","","","","","","","",""
"pit-trial","98","676267","0.0-2.0-17.3-2.3","battery-v0.2","","""event"",""trial"",""time""
""focus"",""0"",""0""
""fullscreenenter"",""1"",""1955""
","
","""event"",""trial"",""time""
""focus"",""0"",""0""
","""event"",""trial"",""time""
""fullscreenenter"",""1"",""1955""
","
","","","186","","","24","16590","6439","&#9789;","elianto","#f73b6a7A"," "," ","1","0","[1042]","1","0","4","","","","","","","",""
"pit-trial","99","679413","0.0-2.0-17.3-3.3","battery-v0.2","","""event"",""trial"",""time""
""focus"",""0"",""0""
""fullscreenenter"",""1"",""1955""
","
","""event"",""trial"",""time""
""focus"",""0"",""0""
","""event"",""trial"",""time""
""fullscreenenter"",""1"",""1955""
","
","","","285","","","24","16590","6439","&#9789;","elianto","#f73b6a7A"," "," ","1","-10","[1137]","1","0","4","","","","","","","",""
"pit-trial","100","682652","0.0-2.0-17.3-4.3","battery-v0.2","","""event"",""trial"",""time""
""focus"",""0"",""0""
""fullscreenenter"",""1"",""1955""
","
","""event"",""trial"",""time""
""focus"",""0"",""0""
","""event"",""trial"",""time""
""fullscreenenter"",""1"",""1955""
","
","","","378","","","24","16590","6439","&#9789;","elianto","#f73b6a7A"," "," ","1","0","[1230]","1","0","4","","","","","","","",""
"call-function","101","682655","0.0-2.0-18.0","battery-v0.2","","""event"",""trial"",""time""
""focus"",""0"",""0""
""fullscreenenter"",""1"",""1955""
","
","""event"",""trial"",""time""
""focus"",""0"",""0""
","""event"",""trial"",""time""
""fullscreenenter"",""1"",""1955""
","
","","","","","","","","","","","","","","","","","","","","","","","","","","",""
"pit-instructions","102","751275","0.0-2.0-19.0","battery-v0.2","","""event"",""trial"",""time""
""focus"",""0"",""0""
""fullscreenenter"",""1"",""1955""
","
","""event"",""trial"",""time""
""focus"",""0"",""0""
","""event"",""trial"",""time""
""fullscreenenter"",""1"",""1955""
","
","","[{""page_index"":0,""viewing_time"":6071},{""page_index"":1,""viewing_time"":6099},{""page_index"":2,""viewing_time"":13417},{""page_index"":3,""viewing_time"":7533},{""page_index"":4,""viewing_time"":8249},{""page_index"":5,""viewing_time"":9552},{""page_index"":6,""viewing_time"":7984},{""page_index"":7,""viewing_time"":5817},{""page_index"":8,""viewing_time"":3901}]","68623","","","","","","","","","","","","","","","","","","","","","","","",""
"pit-comprehension","103","756344","0.0-2.0-20.0-0.0","battery-v0.2","","""event"",""trial"",""time""
""focus"",""0"",""0""
""fullscreenenter"",""1"",""1955""
","
","""event"",""trial"",""time""
""focus"",""0"",""0""
","""event"",""trial"",""time""
""fullscreenenter"",""1"",""1955""
","
","","","5066","[""SPACE""]","0","24","16590","6439","","","","","","","","","","","","","","","","","","",""
"pit-instructions","104","759475","0.0-2.0-20.0-1.0","battery-v0.2","","""event"",""trial"",""time""
""focus"",""0"",""0""
""fullscreenenter"",""1"",""1955""
","
","""event"",""trial"",""time""
""focus"",""0"",""0""
","""event"",""trial"",""time""
""fullscreenenter"",""1"",""1955""
","
","","[{""page_index"":0,""viewing_time"":3105}]","3106","","","","","","","","","","","","","","","","","","","","","","","",""
"pit-comprehension","105","765477","0.0-2.0-21.0-0.0","battery-v0.2","","""event"",""trial"",""time""
""focus"",""0"",""0""
""fullscreenenter"",""1"",""1955""
","
","""event"",""trial"",""time""
""focus"",""0"",""0""
","""event"",""trial"",""time""
""fullscreenenter"",""1"",""1955""
","
","","","5997","[""10""]","0","24","16590","6439","","","","","","","","","","","","","","","","","","",""
"pit-instructions","106","767808","0.0-2.0-21.0-1.0","battery-v0.2","","""event"",""trial"",""time""
""focus"",""0"",""0""
""fullscreenenter"",""1"",""1955""
","
","""event"",""trial"",""time""
""focus"",""0"",""0""
","""event"",""trial"",""time""
""fullscreenenter"",""1"",""1955""
","
","","[{""page_index"":0,""viewing_time"":2303}]","2304","","","","","","","","","","","","","","","","","","","","","","","",""
"pit-comprehension","107","774492","0.0-2.0-22.0-0.0","battery-v0.2","","""event"",""trial"",""time""
""focus"",""0"",""0""
""fullscreenenter"",""1"",""1955""
","
","""event"",""trial"",""time""
""focus"",""0"",""0""
","""event"",""trial"",""time""
""fullscreenenter"",""1"",""1955""
","
","","","6681","[""0""]","0","24","16590","6439","","","","","","","","","","","","","","","","","","",""
"pit-instructions","108","779857","0.0-2.0-22.0-1.0","battery-v0.2","","""event"",""trial"",""time""
""focus"",""0"",""0""
""fullscreenenter"",""1"",""1955""
","
","""event"",""trial"",""time""
""focus"",""0"",""0""
","""event"",""trial"",""time""
""fullscreenenter"",""1"",""1955""
","
","","[{""page_index"":0,""viewing_time"":5342}]","5343","","","","","","","","","","","","","","","","","","","","","","","",""
"pit-comprehension","109","790644","0.0-2.0-23.0-0.0","battery-v0.2","","""event"",""trial"",""time""
""focus"",""0"",""0""
""fullscreenenter"",""1"",""1955""
","
","""event"",""trial"",""time""
""focus"",""0"",""0""
","""event"",""trial"",""time""
""fullscreenenter"",""1"",""1955""
","
","","","10785","[""True""]","0","24","16590","6439","","","","","","","","","","","","","","","","","","",""
"pit-instructions","110","795040","0.0-2.0-23.0-1.0","battery-v0.2","","""event"",""trial"",""time""
""focus"",""0"",""0""
""fullscreenenter"",""1"",""1955""
","
","""event"",""trial"",""time""
""focus"",""0"",""0""
","""event"",""trial"",""time""
""fullscreenenter"",""1"",""1955""
","
","","[{""page_index"":0,""viewing_time"":4371}]","4371","","","","","","","","","","","","","","","","","","","","","","","",""
"pit-comprehension","111","802626","0.0-2.0-24.0-0.0","battery-v0.2","","""event"",""trial"",""time""
""focus"",""0"",""0""
""fullscreenenter"",""1"",""1955""
","
","""event"",""trial"",""time""
""focus"",""0"",""0""
","""event"",""trial"",""time""
""fullscreenenter"",""1"",""1955""
","
","","","7582","[""True""]","0","24","16590","6439","","","","","","","","","","","","","","","","","","",""
"pit-instructions","112","805524","0.0-2.0-24.0-1.0","battery-v0.2","","""event"",""trial"",""time""
""focus"",""0"",""0""
""fullscreenenter"",""1"",""1955""
","
","""event"",""trial"",""time""
""focus"",""0"",""0""
","""event"",""trial"",""time""
""fullscreenenter"",""1"",""1955""
","
","","[{""page_index"":0,""viewing_time"":2872}]","2872","","","","","","","","","","","","","","","","","","","","","","","",""
"pit-comprehension","113","811712","0.0-2.0-25.0-0.0","battery-v0.2","","""event"",""trial"",""time""
""focus"",""0"",""0""
""fullscreenenter"",""1"",""1955""
","
","""event"",""trial"",""time""
""focus"",""0"",""0""
","""event"",""trial"",""time""
""fullscreenenter"",""1"",""1955""
","
","","","6183","[""True""]","0","24","16590","6439","","","","","","","","","","","","","","","","","","",""
"pit-instructions","114","814893","0.0-2.0-25.0-1.0","battery-v0.2","","""event"",""trial"",""time""
""focus"",""0"",""0""
""fullscreenenter"",""1"",""1955""
","
","""event"",""trial"",""time""
""focus"",""0"",""0""
","""event"",""trial"",""time""
""fullscreenenter"",""1"",""1955""
","
","","[{""page_index"":0,""viewing_time"":3158}]","3159","","","","","","","","","","","","","","","","","","","","","","","",""
"pit-comprehension","115","820009","0.0-2.0-26.0-0.0","battery-v0.2","","""event"",""trial"",""time""
""focus"",""0"",""0""
""fullscreenenter"",""1"",""1955""
","
","""event"",""trial"",""time""
""focus"",""0"",""0""
","""event"",""trial"",""time""
""fullscreenenter"",""1"",""1955""
","
","","","5110","[""False""]","0","24","16590","6439","","","","","","","","","","","","","","","","","","",""
"pit-instructions","116","822758","0.0-2.0-26.0-1.0","battery-v0.2","","""event"",""trial"",""time""
""focus"",""0"",""0""
""fullscreenenter"",""1"",""1955""
","
","""event"",""trial"",""time""
""focus"",""0"",""0""
","""event"",""trial"",""time""
""fullscreenenter"",""1"",""1955""
","
","","[{""page_index"":0,""viewing_time"":2728}]","2728","","","","","","","","","","","","","","","","","","","","","","","",""
"pit-instructions","117","839323","0.0-3.0","battery-v0.2","","""event"",""trial"",""time""
""focus"",""0"",""0""
""fullscreenenter"",""1"",""1955""
","
","""event"",""trial"",""time""
""focus"",""0"",""0""
","""event"",""trial"",""time""
""fullscreenenter"",""1"",""1955""
","
","","[{""page_index"":0,""viewing_time"":3664},{""page_index"":1,""viewing_time"":5649},{""page_index"":2,""viewing_time"":7250}]","16564","","","","","","","","","","","","","","","","","","","","","","","",""
"pit-trial","118","843066","0.0-4.0","battery-v0.2","","""event"",""trial"",""time""
""focus"",""0"",""0""
""fullscreenenter"",""1"",""1955""
","
","""event"",""trial"",""time""
""focus"",""0"",""0""
","""event"",""trial"",""time""
""fullscreenenter"",""1"",""1955""
","
","","","884","","","24","16590","6439","&#9752;","elianto","#f73b6a7A"," "," ","1","0","[1736]","1","1","","","16590","1","3","3","lose","go","0"
"pit-trial","119","846684","0.0-5.0","battery-v0.2","","""event"",""trial"",""time""
""focus"",""0"",""0""
""fullscreenenter"",""1"",""1955""
","
","""event"",""trial"",""time""
""focus"",""0"",""0""
","""event"",""trial"",""time""
""fullscreenenter"",""1"",""1955""
","
","","","757","","","24","16590","6439","&#9730;","elianto","#3366ff99"," "," ","1","+10","[1610]","1","1","","","16590","2","1","1","win","go","0"
"pit-trial","120","850261","0.0-6.0","battery-v0.2","","""event"",""trial"",""time""
""focus"",""0"",""0""
""fullscreenenter"",""1"",""1955""
","
","""event"",""trial"",""time""
""focus"",""0"",""0""
","""event"",""trial"",""time""
""fullscreenenter"",""1"",""1955""
","
","","","721","","","24","16590","6439","&#9728;","elianto","#f73b6a7A","-1"," ","0","-10","[1571]","1","1","","","16590","3","0","4","lose","no-go","0"
"pit-trial","121","853589","0.0-7.0","battery-v0.2","","""event"",""trial"",""time""
""focus"",""0"",""0""
""fullscreenenter"",""1"",""1955""
","
","""event"",""trial"",""time""
""focus"",""0"",""0""
","""event"",""trial"",""time""
""fullscreenenter"",""1"",""1955""
","
","","","465","","","24","16590","6439","&#9733;","elianto","#3366ff99","-1"," ","0","0","[1319]","1","1","","","16590","4","2","2","win","no-go","0"
"pit-trial","122","857215","0.0-8.0","battery-v0.2","","""event"",""trial"",""time""
""focus"",""0"",""0""
""fullscreenenter"",""1"",""1955""
","
","""event"",""trial"",""time""
""focus"",""0"",""0""
","""event"",""trial"",""time""
""fullscreenenter"",""1"",""1955""
","
","","","769","","","24","16590","6439","&#9752;","elianto","#f73b6a7A"," "," ","1","0","[1623]","1","1","","","16590","5","3","3","lose","go","0"
"pit-trial","123","860757","0.0-9.0","battery-v0.2","","""event"",""trial"",""time""
""focus"",""0"",""0""
""fullscreenenter"",""1"",""1955""
","
","""event"",""trial"",""time""
""focus"",""0"",""0""
","""event"",""trial"",""time""
""fullscreenenter"",""1"",""1955""
","
","","","657","","","24","16590","6439","&#9730;","elianto","#3366ff99"," "," ","1","+10","[1508]","1","1","","","16590","6","1","1","win","go","0"
"pit-trial","124","864303","0.0-10.0","battery-v0.2","","""event"",""trial"",""time""
""focus"",""0"",""0""
""fullscreenenter"",""1"",""1955""
","
","""event"",""trial"",""time""
""focus"",""0"",""0""
","""event"",""trial"",""time""
""fullscreenenter"",""1"",""1955""
","
","","","684","","","24","16590","6439","&#9733;","elianto","#3366ff99","-1"," ","0","0","[1539]","1","1","","","16590","7","2","2","win","no-go","0"
"pit-trial","125","867595","0.0-11.0","battery-v0.2","","""event"",""trial"",""time""
""focus"",""0"",""0""
""fullscreenenter"",""1"",""1955""
","
","""event"",""trial"",""time""
""focus"",""0"",""0""
","""event"",""trial"",""time""
""fullscreenenter"",""1"",""1955""
","
","","","433","","","24","16590","6439","&#9728;","elianto","#f73b6a7A","-1"," ","0","-10","[1285]","1","1","","","16590","8","0","4","lose","no-go","0"
"pit-trial","126","871091","0.0-12.0","battery-v0.2","","""event"",""trial"",""time""
""focus"",""0"",""0""
""fullscreenenter"",""1"",""1955""
","
","""event"",""trial"",""time""
""focus"",""0"",""0""
","""event"",""trial"",""time""
""fullscreenenter"",""1"",""1955""
","
","","","635","","","24","16590","6439","&#9730;","elianto","#3366ff99"," "," ","1","+10","[1487]","1","1","","","16590","9","1","1","win","go","0"
"pit-trial","127","875384","0.0-13.0","battery-v0.2","","""event"",""trial"",""time""
""focus"",""0"",""0""
""fullscreenenter"",""1"",""1955""
","
","""event"",""trial"",""time""
""focus"",""0"",""0""
","""event"",""trial"",""time""
""fullscreenenter"",""1"",""1955""
","
","","","1430","","","24","16590","6439","&#9733;","elianto","#3366ff99","-1"," ","0","0","[2285]","1","1","","","16590","10","2","2","win","no-go","0"
"pit-trial","128","879601","0.0-14.0","battery-v0.2","","""event"",""trial"",""time""
""focus"",""0"",""0""
""fullscreenenter"",""1"",""1955""
","
","""event"",""trial"",""time""
""focus"",""0"",""0""
","""event"",""trial"",""time""
""fullscreenenter"",""1"",""1955""
","
","","","1357","","","24","16590","6439","&#9752;","elianto","#f73b6a7A"," "," ","1","0","[2209]","1","1","","","16590","11","3","3","lose","go","0"
"pit-trial","129","884462","0.0-15.0","battery-v0.2","","""event"",""trial"",""time""
""focus"",""0"",""0""
""fullscreenenter"",""1"",""1955""
","
","""event"",""trial"",""time""
""focus"",""0"",""0""
","""event"",""trial"",""time""
""fullscreenenter"",""1"",""1955""
","
","","","-1","","","24","16590","6439","&#9728;","elianto","#f73b6a7A","-1","-1","1","0","[]","0","1","","","16590","12","0","4","lose","no-go","0"
"pit-trial","130","889326","0.0-16.0","battery-v0.2","","""event"",""trial"",""time""
""focus"",""0"",""0""
""fullscreenenter"",""1"",""1955""
","
","""event"",""trial"",""time""
""focus"",""0"",""0""
","""event"",""trial"",""time""
""fullscreenenter"",""1"",""1955""
","
","","","-1","","","24","16590","6439","&#9733;","elianto","#3366ff99","-1","-1","1","0","[]","0","1","","","16590","13","2","2","win","no-go","1"
"pit-trial","131","894189","0.0-17.0","battery-v0.2","","""event"",""trial"",""time""
""focus"",""0"",""0""
""fullscreenenter"",""1"",""1955""
","
","""event"",""trial"",""time""
""focus"",""0"",""0""
","""event"",""trial"",""time""
""fullscreenenter"",""1"",""1955""
","
","","","-1","","","24","16590","6439","&#9752;","elianto","#f73b6a7A"," ","-1","0","-10","[]","0","1","","","16590","14","3","3","lose","go","0"
"pit-trial","132","898218","0.0-18.0","battery-v0.2","","""event"",""trial"",""time""
""focus"",""0"",""0""
""fullscreenenter"",""1"",""1955""
","
","""event"",""trial"",""time""
""focus"",""0"",""0""
","""event"",""trial"",""time""
""fullscreenenter"",""1"",""1955""
","
","","","1169","","","24","16590","6439","&#9730;","elianto","#3366ff99"," "," ","1","+10","[2022]","1","1","","","16590","15","1","1","win","go","0"
"pit-trial","133","903079","0.0-19.0","battery-v0.2","","""event"",""trial"",""time""
""focus"",""0"",""0""
""fullscreenenter"",""1"",""1955""
","
","""event"",""trial"",""time""
""focus"",""0"",""0""
","""event"",""trial"",""time""
""fullscreenenter"",""1"",""1955""
","
","","","-1","","","24","16590","6439","&#9728;","elianto","#f73b6a7A","-1","-1","1","0","[]","0","1","","","16590","16","0","4","lose","no-go","0"
"pit-trial","134","906841","0.0-20.0","battery-v0.2","","""event"",""trial"",""time""
""focus"",""0"",""0""
""fullscreenenter"",""1"",""1955""
","
","""event"",""trial"",""time""
""focus"",""0"",""0""
","""event"",""trial"",""time""
""fullscreenenter"",""1"",""1955""
","
","","","902","","","24","16590","6439","&#9730;","elianto","#3366ff99"," "," ","1","+10","[1754]","1","1","","","16590","17","1","1","win","go","0"
"pit-trial","135","910910","0.0-21.0","battery-v0.2","","""event"",""trial"",""time""
""focus"",""0"",""0""
""fullscreenenter"",""1"",""1955""
","
","""event"",""trial"",""time""
""focus"",""0"",""0""
","""event"",""trial"",""time""
""fullscreenenter"",""1"",""1955""
","
","","","1207","","","24","16590","6439","&#9752;","elianto","#f73b6a7A"," "," ","1","0","[2062]","1","1","","","16590","18","3","3","lose","go","0"
"pit-trial","136","915773","0.0-22.0","battery-v0.2","","""event"",""trial"",""time""
""focus"",""0"",""0""
""fullscreenenter"",""1"",""1955""
","
","""event"",""trial"",""time""
""focus"",""0"",""0""
","""event"",""trial"",""time""
""fullscreenenter"",""1"",""1955""
","
","","","-1","","","24","16590","6439","&#9728;","elianto","#f73b6a7A","-1","-1","1","0","[]","0","1","","","16590","19","0","4","lose","no-go","0"
"pit-trial","137","920633","0.0-23.0","battery-v0.2","","""event"",""trial"",""time""
""focus"",""0"",""0""
""fullscreenenter"",""1"",""1955""
","
","""event"",""trial"",""time""
""focus"",""0"",""0""
","""event"",""trial"",""time""
""fullscreenenter"",""1"",""1955""
","
","","","-1","","","24","16590","6439","&#9733;","elianto","#3366ff99","-1","-1","1","+10","[]","0","1","","","16590","20","2","2","win","no-go","0"
"pit-instructions","138","933124","0.0-24.0","battery-v0.2","","""event"",""trial"",""time""
""focus"",""0"",""0""
""fullscreenenter"",""1"",""1955""
","
","""event"",""trial"",""time""
""focus"",""0"",""0""
","""event"",""trial"",""time""
""fullscreenenter"",""1"",""1955""
","
","","[{""page_index"":0,""viewing_time"":5872},{""page_index"":1,""viewing_time"":6617}]","12489","","","","","","","","","","","","","","","","","","","","","","","",""
"pit-trial","139","936831","0.0-25.0","battery-v0.2","","""event"",""trial"",""time""
""focus"",""0"",""0""
""fullscreenenter"",""1"",""1955""
","
","""event"",""trial"",""time""
""focus"",""0"",""0""
","""event"",""trial"",""time""
""fullscreenenter"",""1"",""1955""
","
","","","843","","","24","16590","6439","u","elianto","#f73b6a7A"," "," ","1","0","[1698]","1","2","","","16590","21","0","3","lose","go","0"
"pit-trial","140","940852","0.0-26.0","battery-v0.2","","""event"",""trial"",""time""
""focus"",""0"",""0""
""fullscreenenter"",""1"",""1955""
","
","""event"",""trial"",""time""
""focus"",""0"",""0""
","""event"",""trial"",""time""
""fullscreenenter"",""1"",""1955""
","
","","","1160","","","24","16590","6439","g","elianto","#f73b6a7A","-1"," ","0","-10","[2014]","1","2","","","16590","22","3","4","lose","no-go","0"
"pit-trial","141","944893","0.0-27.0","battery-v0.2","","""event"",""trial"",""time""
""focus"",""0"",""0""
""fullscreenenter"",""1"",""1955""
","
","""event"",""trial"",""time""
""focus"",""0"",""0""
","""event"",""trial"",""time""
""fullscreenenter"",""1"",""1955""
","
","","","1184","","","24","16590","6439","l","elianto","#3366ff99","-1"," ","0","+10","[2036]","1","2","","","16590","23","1","2","win","no-go","1"
"pit-trial","142","948819","0.0-28.0","battery-v0.2","","""event"",""trial"",""time""
""focus"",""0"",""0""
""fullscreenenter"",""1"",""1955""
","
","""event"",""trial"",""time""
""focus"",""0"",""0""
","""event"",""trial"",""time""
""fullscreenenter"",""1"",""1955""
","
","","","1067","","","24","16590","6439","a","elianto","#f73b6a7A"," "," ","1","0","[1922]","1","2","","","16590","24","2","3","lose","go","0"
"pit-trial","143","952580","0.0-29.0","battery-v0.2","","""event"",""trial"",""time""
""focus"",""0"",""0""
""fullscreenenter"",""1"",""1955""
","
","""event"",""trial"",""time""
""focus"",""0"",""0""
","""event"",""trial"",""time""
""fullscreenenter"",""1"",""1955""
","
","","","900","","","24","16590","6439","l","elianto","#3366ff99","-1"," ","0","0","[1755]","1","2","","","16590","25","1","2","win","no-go","0"
"pit-trial","144","956506","0.0-30.0","battery-v0.2","","""event"",""trial"",""time""
""focus"",""0"",""0""
""fullscreenenter"",""1"",""1955""
","
","""event"",""trial"",""time""
""focus"",""0"",""0""
","""event"",""trial"",""time""
""fullscreenenter"",""1"",""1955""
","
","","","1070","","","24","16590","6439","a","elianto","#f73b6a7A"," "," ","1","0","[1921]","1","2","","","16590","26","2","3","lose","go","0"
"pit-trial","145","960047","0.0-31.0","battery-v0.2","","""event"",""trial"",""time""
""focus"",""0"",""0""
""fullscreenenter"",""1"",""1955""
","
","""event"",""trial"",""time""
""focus"",""0"",""0""
","""event"",""trial"",""time""
""fullscreenenter"",""1"",""1955""
","
","","","683","","","24","16590","6439","u","elianto","#f73b6a7A"," "," ","1","0","[1538]","1","2","","","16590","27","0","3","lose","go","0"
"pit-trial","146","963714","0.0-32.0","battery-v0.2","","""event"",""trial"",""time""
""focus"",""0"",""0""
""fullscreenenter"",""1"",""1955""
","
","""event"",""trial"",""time""
""focus"",""0"",""0""
","""event"",""trial"",""time""
""fullscreenenter"",""1"",""1955""
","
","","","806","","","24","16590","6439","g","elianto","#f73b6a7A","-1"," ","0","-10","[1658]","1","2","","","16590","28","3","4","lose","no-go","0"
"pit-trial","147","968573","0.0-33.0","battery-v0.2","","""event"",""trial"",""time""
""focus"",""0"",""0""
""fullscreenenter"",""1"",""1955""
","
","""event"",""trial"",""time""
""focus"",""0"",""0""
","""event"",""trial"",""time""
""fullscreenenter"",""1"",""1955""
","
","","","-1","","","24","16590","6439","g","elianto","#f73b6a7A","-1","-1","1","0","[]","0","2","","","16590","29","3","4","lose","no-go","0"
"pit-trial","148","972280","0.0-34.0","battery-v0.2","","""event"",""trial"",""time""
""focus"",""0"",""0""
""fullscreenenter"",""1"",""1955""
","
","""event"",""trial"",""time""
""focus"",""0"",""0""
","""event"",""trial"",""time""
""fullscreenenter"",""1"",""1955""
","
","","","844","","","24","16590","6439","l","elianto","#3366ff99","-1"," ","0","+10","[1699]","1","2","","","16590","30","1","2","win","no-go","1"
"pit-trial","149","976301","0.0-35.0","battery-v0.2","","""event"",""trial"",""time""
""focus"",""0"",""0""
""fullscreenenter"",""1"",""1955""
","
","""event"",""trial"",""time""
""focus"",""0"",""0""
","""event"",""trial"",""time""
""fullscreenenter"",""1"",""1955""
","
","","","1161","","","24","16590","6439","a","elianto","#f73b6a7A"," "," ","1","-10","[2015]","1","2","","","16590","31","2","3","lose","go","1"
"pit-trial","150","980065","0.0-36.0","battery-v0.2","","""event"",""trial"",""time""
""focus"",""0"",""0""
""fullscreenenter"",""1"",""1955""
","
","""event"",""trial"",""time""
""focus"",""0"",""0""
","""event"",""trial"",""time""
""fullscreenenter"",""1"",""1955""
","
","","","900","","","24","16590","6439","u","elianto","#f73b6a7A"," "," ","1","0","[1755]","1","2","","","16590","32","0","3","lose","go","0"
"pit-trial","151","984928","0.0-37.0","battery-v0.2","","""event"",""trial"",""time""
""focus"",""0"",""0""
""fullscreenenter"",""1"",""1955""
","
","""event"",""trial"",""time""
""focus"",""0"",""0""
","""event"",""trial"",""time""
""fullscreenenter"",""1"",""1955""
","
","","","-1","","","24","16590","6439","g","elianto","#f73b6a7A","-1","-1","1","0","[]","0","2","","","16590","33","3","4","lose","no-go","0"
"pit-trial","152","988590","0.0-38.0","battery-v0.2","","""event"",""trial"",""time""
""focus"",""0"",""0""
""fullscreenenter"",""1"",""1955""
","
","""event"",""trial"",""time""
""focus"",""0"",""0""
","""event"",""trial"",""time""
""fullscreenenter"",""1"",""1955""
","
","","","801","","","24","16590","6439","a","elianto","#f73b6a7A"," "," ","1","0","[1655]","1","2","","","16590","34","2","3","lose","go","0"
"pit-trial","153","992609","0.0-39.0","battery-v0.2","","""event"",""trial"",""time""
""focus"",""0"",""0""
""fullscreenenter"",""1"",""1955""
","
","""event"",""trial"",""time""
""focus"",""0"",""0""
","""event"",""trial"",""time""
""fullscreenenter"",""1"",""1955""
","
","","","1160","","","24","16590","6439","l","elianto","#3366ff99","-1"," ","0","0","[2011]","1","2","","","16590","35","1","2","win","no-go","0"
"pit-trial","154","997466","0.0-40.0","battery-v0.2","","""event"",""trial"",""time""
""focus"",""0"",""0""
""fullscreenenter"",""1"",""1955""
","
","""event"",""trial"",""time""
""focus"",""0"",""0""
","""event"",""trial"",""time""
""fullscreenenter"",""1"",""1955""
","
","","","-1","","","24","16590","6439","u","elianto","#f73b6a7A"," ","-1","0","-10","[]","0","2","","","16590","36","0","3","lose","go","0"
"pit-trial","155","1001256","0.0-41.0","battery-v0.2","","""event"",""trial"",""time""
""focus"",""0"",""0""
""fullscreenenter"",""1"",""1955""
","
","""event"",""trial"",""time""
""focus"",""0"",""0""
","""event"",""trial"",""time""
""fullscreenenter"",""1"",""1955""
","
","","","930","","","24","16590","6439","g","elianto","#f73b6a7A","-1"," ","0","-10","[1782]","1","2","","","16590","37","3","4","lose","no-go","0"
"pit-trial","156","1005899","0.0-42.0","battery-v0.2","","""event"",""trial"",""time""
""focus"",""0"",""0""
""fullscreenenter"",""1"",""1955""
","
","""event"",""trial"",""time""
""focus"",""0"",""0""
","""event"",""trial"",""time""
""fullscreenenter"",""1"",""1955""
","
","","","1782","","","24","16590","6439","a","elianto","#f73b6a7A"," "," ","1","0","[2637]","1","2","","","16590","38","2","3","lose","go","0"
"pit-trial","157","1010759","0.0-43.0","battery-v0.2","","""event"",""trial"",""time""
""focus"",""0"",""0""
""fullscreenenter"",""1"",""1955""
","
","""event"",""trial"",""time""
""focus"",""0"",""0""
","""event"",""trial"",""time""
""fullscreenenter"",""1"",""1955""
","
","","","-1","","","24","16590","6439","u","elianto","#f73b6a7A"," ","-1","0","-10","[]","0","2","","","16590","39","0","3","lose","go","0"
"pit-trial","158","1014677","0.0-44.0","battery-v0.2","","""event"",""trial"",""time""
""focus"",""0"",""0""
""fullscreenenter"",""1"",""1955""
","
","""event"",""trial"",""time""
""focus"",""0"",""0""
","""event"",""trial"",""time""
""fullscreenenter"",""1"",""1955""
","
","","","1055","","","24","16590","6439","l","elianto","#3366ff99","-1"," ","0","+10","[1910]","1","2","","","16590","40","1","2","win","no-go","1"
"pit-trial","159","1018612","0.0-45.0","battery-v0.2","","""event"",""trial"",""time""
""focus"",""0"",""0""
""fullscreenenter"",""1"",""1955""
","
","""event"",""trial"",""time""
""focus"",""0"",""0""
","""event"",""trial"",""time""
""fullscreenenter"",""1"",""1955""
","
","","","1079","","","24","16590","6439","l","elianto","#3366ff99","-1"," ","0","+10","[1931]","1","2","","","16590","41","1","2","win","no-go","1"
"pit-trial","160","1023469","0.0-46.0","battery-v0.2","","""event"",""trial"",""time""
""focus"",""0"",""0""
""fullscreenenter"",""1"",""1955""
","
","""event"",""trial"",""time""
""focus"",""0"",""0""
","""event"",""trial"",""time""
""fullscreenenter"",""1"",""1955""
","
","","","-1","","","24","16590","6439","u","elianto","#f73b6a7A"," ","-1","0","-10","[3196]","1","2","","","16590","42","0","3","lose","go","0"
"pit-trial","161","1028330","0.0-47.0","battery-v0.2","","""event"",""trial"",""time""
""focus"",""0"",""0""
""fullscreenenter"",""1"",""1955""
","
","""event"",""trial"",""time""
""focus"",""0"",""0""
","""event"",""trial"",""time""
""fullscreenenter"",""1"",""1955""
","
","","","-1","","","24","16590","6439","g","elianto","#f73b6a7A","-1","-1","1","0","[]","0","2","","","16590","43","3","4","lose","no-go","0"
"pit-trial","162","1032001","0.0-48.0","battery-v0.2","","""event"",""trial"",""time""
""focus"",""0"",""0""
""fullscreenenter"",""1"",""1955""
","
","""event"",""trial"",""time""
""focus"",""0"",""0""
","""event"",""trial"",""time""
""fullscreenenter"",""1"",""1955""
","
","","","815","","","24","16590","6439","a","elianto","#f73b6a7A"," "," ","1","0","[1665]","1","2","","","16590","44","2","3","lose","go","0"
"pit-trial","163","1035592","0.0-49.0","battery-v0.2","","""event"",""trial"",""time""
""focus"",""0"",""0""
""fullscreenenter"",""1"",""1955""
","
","""event"",""trial"",""time""
""focus"",""0"",""0""
","""event"",""trial"",""time""
""fullscreenenter"",""1"",""1955""
","
","","","729","","","24","16590","6439","l","elianto","#3366ff99","-1"," ","0","0","[1583]","1","2","","","16590","45","1","2","win","no-go","0"
"pit-trial","164","1040102","0.0-50.0","battery-v0.2","","""event"",""trial"",""time""
""focus"",""0"",""0""
""fullscreenenter"",""1"",""1955""
","
","""event"",""trial"",""time""
""focus"",""0"",""0""
","""event"",""trial"",""time""
""fullscreenenter"",""1"",""1955""
","
","","","1651","","","24","16590","6439","u","elianto","#f73b6a7A"," "," ","1","0","[2505]","1","2","","","16590","46","0","3","lose","go","0"
"pit-trial","165","1044962","0.0-51.0","battery-v0.2","","""event"",""trial"",""time""
""focus"",""0"",""0""
""fullscreenenter"",""1"",""1955""
","
","""event"",""trial"",""time""
""focus"",""0"",""0""
","""event"",""trial"",""time""
""fullscreenenter"",""1"",""1955""
","
","","","-1","","","24","16590","6439","g","elianto","#f73b6a7A","-1","-1","1","-10","[]","0","2","","","16590","47","3","4","lose","no-go","1"
"pit-trial","166","1048801","0.0-52.0","battery-v0.2","","""event"",""trial"",""time""
""focus"",""0"",""0""
""fullscreenenter"",""1"",""1955""
","
","""event"",""trial"",""time""
""focus"",""0"",""0""
","""event"",""trial"",""time""
""fullscreenenter"",""1"",""1955""
","
","","","977","","","24","16590","6439","a","elianto","#f73b6a7A"," "," ","1","0","[1830]","1","2","","","16590","48","2","3","lose","go","0"
"pit-trial","167","1052429","0.0-53.0","battery-v0.2","","""event"",""trial"",""time""
""focus"",""0"",""0""
""fullscreenenter"",""1"",""1955""
","
","""event"",""trial"",""time""
""focus"",""0"",""0""
","""event"",""trial"",""time""
""fullscreenenter"",""1"",""1955""
","
","","","767","","","24","16590","6439","g","elianto","#f73b6a7A","-1"," ","0","-10","[1621]","1","2","","","16590","49","3","4","lose","no-go","0"
"pit-trial","168","1056113","0.0-54.0","battery-v0.2","","""event"",""trial"",""time""
""focus"",""0"",""0""
""fullscreenenter"",""1"",""1955""
","
","""event"",""trial"",""time""
""focus"",""0"",""0""
","""event"",""trial"",""time""
""fullscreenenter"",""1"",""1955""
","
","","","826","","","24","16590","6439","a","elianto","#f73b6a7A"," "," ","1","0","[1677]","1","2","","","16590","50","2","3","lose","go","0"
"pit-trial","169","1059565","0.0-55.0","battery-v0.2","","""event"",""trial"",""time""
""focus"",""0"",""0""
""fullscreenenter"",""1"",""1955""
","
","""event"",""trial"",""time""
""focus"",""0"",""0""
","""event"",""trial"",""time""
""fullscreenenter"",""1"",""1955""
","
","","","590","","","24","16590","6439","l","elianto","#3366ff99","-1"," ","0","0","[1445]","1","2","","","16590","51","1","2","win","no-go","0"
"pit-trial","170","1063219","0.0-56.0","battery-v0.2","","""event"",""trial"",""time""
""focus"",""0"",""0""
""fullscreenenter"",""1"",""1955""
","
","""event"",""trial"",""time""
""focus"",""0"",""0""
","""event"",""trial"",""time""
""fullscreenenter"",""1"",""1955""
","
","","","794","","","24","16590","6439","u","elianto","#f73b6a7A"," "," ","1","-10","[1645]","1","2","","","16590","52","0","3","lose","go","1"
"pit-trial","171","1066823","0.0-57.0","battery-v0.2","","""event"",""trial"",""time""
""focus"",""0"",""0""
""fullscreenenter"",""1"",""1955""
","
","""event"",""trial"",""time""
""focus"",""0"",""0""
","""event"",""trial"",""time""
""fullscreenenter"",""1"",""1955""
","
","","","740","","","24","16590","6439","l","elianto","#3366ff99","-1"," ","0","0","[1597]","1","2","","","16590","53","1","2","win","no-go","0"
"pit-trial","172","1071682","0.0-58.0","battery-v0.2","","""event"",""trial"",""time""
""focus"",""0"",""0""
""fullscreenenter"",""1"",""1955""
","
","""event"",""trial"",""time""
""focus"",""0"",""0""
","""event"",""trial"",""time""
""fullscreenenter"",""1"",""1955""
","
","","","-1","","","24","16590","6439","g","elianto","#f73b6a7A","-1","-1","1","0","[]","0","2","","","16590","54","3","4","lose","no-go","0"
"pit-trial","173","1075884","0.0-59.0","battery-v0.2","","""event"",""trial"",""time""
""focus"",""0"",""0""
""fullscreenenter"",""1"",""1955""
","
","""event"",""trial"",""time""
""focus"",""0"",""0""
","""event"",""trial"",""time""
""fullscreenenter"",""1"",""1955""
","
","","","1338","","","24","16590","6439","a","elianto","#f73b6a7A"," "," ","1","-10","[2194]","1","2","","","16590","55","2","3","lose","go","1"
"pit-trial","174","1080748","0.0-60.0","battery-v0.2","","""event"",""trial"",""time""
""focus"",""0"",""0""
""fullscreenenter"",""1"",""1955""
","
","""event"",""trial"",""time""
""focus"",""0"",""0""
","""event"",""trial"",""time""
""fullscreenenter"",""1"",""1955""
","
","","","-1","","","24","16590","6439","u","elianto","#f73b6a7A"," ","-1","0","0","[]","0","2","","","16590","56","0","3","lose","go","1"
"pit-trial","175","1085611","0.0-61.0","battery-v0.2","","""event"",""trial"",""time""
""focus"",""0"",""0""
""fullscreenenter"",""1"",""1955""
","
","""event"",""trial"",""time""
""focus"",""0"",""0""
","""event"",""trial"",""time""
""fullscreenenter"",""1"",""1955""
","
","","","-1","","","24","16590","6439","g","elianto","#f73b6a7A","-1","-1","1","0","[]","0","2","","","16590","57","3","4","lose","no-go","0"
"pit-trial","176","1090467","0.0-62.0","battery-v0.2","","""event"",""trial"",""time""
""focus"",""0"",""0""
""fullscreenenter"",""1"",""1955""
","
","""event"",""trial"",""time""
""focus"",""0"",""0""
","""event"",""trial"",""time""
""fullscreenenter"",""1"",""1955""
","
","","","-1","","","24","16590","6439","u","elianto","#f73b6a7A"," ","-1","0","-10","[]","0","2","","","16590","58","0","3","lose","go","0"
"pit-trial","177","1093922","0.0-63.0","battery-v0.2","","""event"",""trial"",""time""
""focus"",""0"",""0""
""fullscreenenter"",""1"",""1955""
","
","""event"",""trial"",""time""
""focus"",""0"",""0""
","""event"",""trial"",""time""
""fullscreenenter"",""1"",""1955""
","
","","","591","","","24","16590","6439","p","elianto","#3366ff99"," "," ","1","0","[1446]","1","2","","","16590","59","4","1","win","go","1"
"pit-trial","178","1098550","0.0-64.0","battery-v0.2","","""event"",""trial"",""time""
""focus"",""0"",""0""
""fullscreenenter"",""1"",""1955""
","
","""event"",""trial"",""time""
""focus"",""0"",""0""
","""event"",""trial"",""time""
""fullscreenenter"",""1"",""1955""
","
","","","1765","","","24","16590","6439","a","elianto","#f73b6a7A"," "," ","1","0","[2621]","1","2","","","16590","60","2","3","lose","go","0"
"pit-trial","179","1102466","0.0-65.0","battery-v0.2","","""event"",""trial"",""time""
""focus"",""0"",""0""
""fullscreenenter"",""1"",""1955""
","
","""event"",""trial"",""time""
""focus"",""0"",""0""
","""event"",""trial"",""time""
""fullscreenenter"",""1"",""1955""
","
","","","1055","","","24","16590","6439","p","elianto","#3366ff99"," "," ","1","+10","[1907]","1","2","","","16590","61","4","1","win","go","0"
"pit-trial","180","1107331","0.0-66.0","battery-v0.2","","""event"",""trial"",""time""
""focus"",""0"",""0""
""fullscreenenter"",""1"",""1955""
","
","""event"",""trial"",""time""
""focus"",""0"",""0""
","""event"",""trial"",""time""
""fullscreenenter"",""1"",""1955""
","
","","","-1","","","24","16590","6439","g","elianto","#f73b6a7A","-1","-1","1","0","[]","0","2","","","16590","62","3","4","lose","no-go","0"
"pit-trial","181","1111700","0.0-67.0","battery-v0.2","","""event"",""trial"",""time""
""focus"",""0"",""0""
""fullscreenenter"",""1"",""1955""
","
","""event"",""trial"",""time""
""focus"",""0"",""0""
","""event"",""trial"",""time""
""fullscreenenter"",""1"",""1955""
","
","","","1505","","","24","16590","6439","a","elianto","#f73b6a7A"," "," ","1","-10","[2359]","1","2","","","16590","63","2","3","lose","go","1"
"pit-trial","182","1115317","0.0-68.0","battery-v0.2","","""event"",""trial"",""time""
""focus"",""0"",""0""
""fullscreenenter"",""1"",""1955""
","
","""event"",""trial"",""time""
""focus"",""0"",""0""
","""event"",""trial"",""time""
""fullscreenenter"",""1"",""1955""
","
","","","755","","","24","16590","6439","l","elianto","#3366ff99","-1"," ","0","0","[1609]","1","2","","","16590","64","1","2","win","no-go","0"
"pit-trial","183","1118974","0.0-69.0","battery-v0.2","","""event"",""trial"",""time""
""focus"",""0"",""0""
""fullscreenenter"",""1"",""1955""
","
","""event"",""trial"",""time""
""focus"",""0"",""0""
","""event"",""trial"",""time""
""fullscreenenter"",""1"",""1955""
","
","","","798","","","24","16590","6439","p","elianto","#3366ff99"," "," ","1","+10","[1650]","1","2","","","16590","65","4","1","win","go","0"
"pit-trial","184","1123837","0.0-70.0","battery-v0.2","","""event"",""trial"",""time""
""focus"",""0"",""0""
""fullscreenenter"",""1"",""1955""
","
","""event"",""trial"",""time""
""focus"",""0"",""0""
","""event"",""trial"",""time""
""fullscreenenter"",""1"",""1955""
","
","","","-1","","","24","16590","6439","g","elianto","#f73b6a7A","-1","-1","1","0","[]","0","2","","","16590","66","3","4","lose","no-go","0"
"pit-trial","185","1127608","0.0-71.0","battery-v0.2","","""event"",""trial"",""time""
""focus"",""0"",""0""
""fullscreenenter"",""1"",""1955""
","
","""event"",""trial"",""time""
""focus"",""0"",""0""
","""event"",""trial"",""time""
""fullscreenenter"",""1"",""1955""
","
","","","919","","","24","16590","6439","l","elianto","#3366ff99","-1"," ","0","0","[1770]","1","2","","","16590","67","1","2","win","no-go","0"
"pit-trial","186","1131400","0.0-72.0","battery-v0.2","","""event"",""trial"",""time""
""focus"",""0"",""0""
""fullscreenenter"",""1"",""1955""
","
","""event"",""trial"",""time""
""focus"",""0"",""0""
","""event"",""trial"",""time""
""fullscreenenter"",""1"",""1955""
","
","","","932","","","24","16590","6439","s","elianto","#3366ff99","-1"," ","0","0","[1784]","1","2","","","16590","68","5","2","win","no-go","0"
"pit-trial","187","1135102","0.0-73.0","battery-v0.2","","""event"",""trial"",""time""
""focus"",""0"",""0""
""fullscreenenter"",""1"",""1955""
","
","""event"",""trial"",""time""
""focus"",""0"",""0""
","""event"",""trial"",""time""
""fullscreenenter"",""1"",""1955""
","
","","","841","","","24","16590","6439","l","elianto","#3366ff99","-1"," ","0","0","[1694]","1","2","","","16590","69","1","2","win","no-go","0"
"pit-trial","188","1138567","0.0-74.0","battery-v0.2","","""event"",""trial"",""time""
""focus"",""0"",""0""
""fullscreenenter"",""1"",""1955""
","
","""event"",""trial"",""time""
""focus"",""0"",""0""
","""event"",""trial"",""time""
""fullscreenenter"",""1"",""1955""
","
","","","604","","","24","16590","6439","s","elianto","#3366ff99","-1"," ","0","0","[1458]","1","2","","","16590","70","5","2","win","no-go","0"
"pit-trial","189","1141975","0.0-75.0","battery-v0.2","","""event"",""trial"",""time""
""focus"",""0"",""0""
""fullscreenenter"",""1"",""1955""
","
","""event"",""trial"",""time""
""focus"",""0"",""0""
","""event"",""trial"",""time""
""fullscreenenter"",""1"",""1955""
","
","","","547","","","24","16590","6439","p","elianto","#3366ff99"," "," ","1","+10","[1398]","1","2","","","16590","71","4","1","win","go","0"
"pit-trial","190","1146264","0.0-76.0","battery-v0.2","","""event"",""trial"",""time""
""focus"",""0"",""0""
""fullscreenenter"",""1"",""1955""
","
","""event"",""trial"",""time""
""focus"",""0"",""0""
","""event"",""trial"",""time""
""fullscreenenter"",""1"",""1955""
","
","","","1432","","","24","16590","6439","a","elianto","#f73b6a7A"," "," ","1","0","[2283]","1","2","","","16590","72","2","3","lose","go","0"
"pit-trial","191","1151127","0.0-77.0","battery-v0.2","","""event"",""trial"",""time""
""focus"",""0"",""0""
""fullscreenenter"",""1"",""1955""
","
","""event"",""trial"",""time""
""focus"",""0"",""0""
","""event"",""trial"",""time""
""fullscreenenter"",""1"",""1955""
","
","","","-1","","","24","16590","6439","g","elianto","#f73b6a7A","-1","-1","1","0","[]","0","2","","","16590","73","3","4","lose","no-go","0"
"pit-trial","192","1154568","0.0-78.0","battery-v0.2","","""event"",""trial"",""time""
""focus"",""0"",""0""
""fullscreenenter"",""1"",""1955""
","
","""event"",""trial"",""time""
""focus"",""0"",""0""
","""event"",""trial"",""time""
""fullscreenenter"",""1"",""1955""
","
","","","583","","","24","16590","6439","p","elianto","#3366ff99"," "," ","1","+10","[1439]","1","2","","","16590","74","4","1","win","go","0"
"pit-trial","193","1158082","0.0-79.0","battery-v0.2","","""event"",""trial"",""time""
""focus"",""0"",""0""
""fullscreenenter"",""1"",""1955""
","
","""event"",""trial"",""time""
""focus"",""0"",""0""
","""event"",""trial"",""time""
""fullscreenenter"",""1"",""1955""
","
","","","657","","","24","16590","6439","s","elianto","#3366ff99","-1"," ","0","0","[1507]","1","2","","","16590","75","5","2","win","no-go","0"
"pit-trial","194","1161456","0.0-80.0","battery-v0.2","","""event"",""trial"",""time""
""focus"",""0"",""0""
""fullscreenenter"",""1"",""1955""
","
","""event"",""trial"",""time""
""focus"",""0"",""0""
","""event"",""trial"",""time""
""fullscreenenter"",""1"",""1955""
","
","","","515","","","24","16590","6439","l","elianto","#3366ff99","-1"," ","0","0","[1366]","1","2","","","16590","76","1","2","win","no-go","0"
"pit-trial","195","1166316","0.0-81.0","battery-v0.2","","""event"",""trial"",""time""
""focus"",""0"",""0""
""fullscreenenter"",""1"",""1955""
","
","""event"",""trial"",""time""
""focus"",""0"",""0""
","""event"",""trial"",""time""
""fullscreenenter"",""1"",""1955""
","
","","","-1","","","24","16590","6439","g","elianto","#f73b6a7A","-1","-1","1","0","[]","0","2","","","16590","77","3","4","lose","no-go","0"
"pit-trial","196","1169841","0.0-82.0","battery-v0.2","","""event"",""trial"",""time""
""focus"",""0"",""0""
""fullscreenenter"",""1"",""1955""
","
","""event"",""trial"",""time""
""focus"",""0"",""0""
","""event"",""trial"",""time""
""fullscreenenter"",""1"",""1955""
","
","","","663","","","24","16590","6439","s","elianto","#3366ff99","-1"," ","0","0","[1519]","1","2","","","16590","78","5","2","win","no-go","0"
"pit-trial","197","1173219","0.0-83.0","battery-v0.2","","""event"",""trial"",""time""
""focus"",""0"",""0""
""fullscreenenter"",""1"",""1955""
","
","""event"",""trial"",""time""
""focus"",""0"",""0""
","""event"",""trial"",""time""
""fullscreenenter"",""1"",""1955""
","
","","","516","","","24","16590","6439","p","elianto","#3366ff99"," "," ","1","+10","[1368]","1","2","","","16590","79","4","1","win","go","0"
"pit-trial","198","1176759","0.0-84.0","battery-v0.2","","""event"",""trial"",""time""
""focus"",""0"",""0""
""fullscreenenter"",""1"",""1955""
","
","""event"",""trial"",""time""
""focus"",""0"",""0""
","""event"",""trial"",""time""
""fullscreenenter"",""1"",""1955""
","
","","","677","","","24","16590","6439","p","elianto","#3366ff99"," "," ","1","+10","[1532]","1","2","","","16590","80","4","1","win","go","0"
"pit-trial","199","1180349","0.0-85.0","battery-v0.2","","""event"",""trial"",""time""
""focus"",""0"",""0""
""fullscreenenter"",""1"",""1955""
","
","""event"",""trial"",""time""
""focus"",""0"",""0""
","""event"",""trial"",""time""
""fullscreenenter"",""1"",""1955""
","
","","","732","","","24","16590","6439","p","elianto","#3366ff99"," "," ","1","+10","[1582]","1","2","","","16590","81","4","1","win","go","0"
"pit-trial","200","1184323","0.0-86.0","battery-v0.2","","""event"",""trial"",""time""
""focus"",""0"",""0""
""fullscreenenter"",""1"",""1955""
","
","""event"",""trial"",""time""
""focus"",""0"",""0""
","""event"",""trial"",""time""
""fullscreenenter"",""1"",""1955""
","
","","","1102","","","24","16590","6439","e","elianto","#f73b6a7A","-1"," ","0","-10","[1956]","1","2","","","16590","82","7","4","lose","no-go","0"
"pit-trial","201","1189183","0.0-87.0","battery-v0.2","","""event"",""trial"",""time""
""focus"",""0"",""0""
""fullscreenenter"",""1"",""1955""
","
","""event"",""trial"",""time""
""focus"",""0"",""0""
","""event"",""trial"",""time""
""fullscreenenter"",""1"",""1955""
","
","","","-1","","","24","16590","6439","g","elianto","#f73b6a7A","-1","-1","1","0","[]","0","2","","","16590","83","3","4","lose","no-go","0"
"pit-trial","202","1192723","0.0-88.0","battery-v0.2","","""event"",""trial"",""time""
""focus"",""0"",""0""
""fullscreenenter"",""1"",""1955""
","
","""event"",""trial"",""time""
""focus"",""0"",""0""
","""event"",""trial"",""time""
""fullscreenenter"",""1"",""1955""
","
","","","680","","","24","16590","6439","s","elianto","#3366ff99","-1"," ","0","0","[1536]","1","2","","","16590","84","5","2","win","no-go","0"
"pit-trial","203","1196423","0.0-89.0","battery-v0.2","","""event"",""trial"",""time""
""focus"",""0"",""0""
""fullscreenenter"",""1"",""1955""
","
","""event"",""trial"",""time""
""focus"",""0"",""0""
","""event"",""trial"",""time""
""fullscreenenter"",""1"",""1955""
","
","","","839","","","24","16590","6439","w","elianto","#f73b6a7A"," "," ","1","0","[1690]","1","2","","","16590","85","6","3","lose","go","0"
"pit-trial","204","1200613","0.0-90.0","battery-v0.2","","""event"",""trial"",""time""
""focus"",""0"",""0""
""fullscreenenter"",""1"",""1955""
","
","""event"",""trial"",""time""
""focus"",""0"",""0""
","""event"",""trial"",""time""
""fullscreenenter"",""1"",""1955""
","
","","","1331","","","24","16590","6439","e","elianto","#f73b6a7A","-1"," ","0","0","[2183]","1","2","","","16590","86","7","4","lose","no-go","1"
"pit-trial","205","1204226","0.0-91.0","battery-v0.2","","""event"",""trial"",""time""
""focus"",""0"",""0""
""fullscreenenter"",""1"",""1955""
","
","""event"",""trial"",""time""
""focus"",""0"",""0""
","""event"",""trial"",""time""
""fullscreenenter"",""1"",""1955""
","
","","","750","","","24","16590","6439","s","elianto","#3366ff99","-1"," ","0","0","[1605]","1","2","","","16590","87","5","2","win","no-go","0"
"pit-trial","206","1207616","0.0-92.0","battery-v0.2","","""event"",""trial"",""time""
""focus"",""0"",""0""
""fullscreenenter"",""1"",""1955""
","
","""event"",""trial"",""time""
""focus"",""0"",""0""
","""event"",""trial"",""time""
""fullscreenenter"",""1"",""1955""
","
","","","532","","","24","16590","6439","p","elianto","#3366ff99"," "," ","1","+10","[1386]","1","2","","","16590","88","4","1","win","go","0"
"pit-trial","207","1211196","0.0-93.0","battery-v0.2","","""event"",""trial"",""time""
""focus"",""0"",""0""
""fullscreenenter"",""1"",""1955""
","
","""event"",""trial"",""time""
""focus"",""0"",""0""
","""event"",""trial"",""time""
""fullscreenenter"",""1"",""1955""
","
","","","718","","","24","16590","6439","e","elianto","#f73b6a7A","-1"," ","0","-10","[1574]","1","2","","","16590","89","7","4","lose","no-go","0"
"pit-trial","208","1214939","0.0-94.0","battery-v0.2","","""event"",""trial"",""time""
""focus"",""0"",""0""
""fullscreenenter"",""1"",""1955""
","
","""event"",""trial"",""time""
""focus"",""0"",""0""
","""event"",""trial"",""time""
""fullscreenenter"",""1"",""1955""
","
","","","886","","","24","16590","6439","w","elianto","#f73b6a7A"," "," ","1","0","[1738]","1","2","","","16590","90","6","3","lose","go","0"
"pit-trial","209","1218498","0.0-95.0","battery-v0.2","","""event"",""trial"",""time""
""focus"",""0"",""0""
""fullscreenenter"",""1"",""1955""
","
","""event"",""trial"",""time""
""focus"",""0"",""0""
","""event"",""trial"",""time""
""fullscreenenter"",""1"",""1955""
","
","","","698","","","24","16590","6439","p","elianto","#3366ff99"," "," ","1","0","[1553]","1","2","","","16590","91","4","1","win","go","1"
"pit-trial","210","1222042","0.0-96.0","battery-v0.2","","""event"",""trial"",""time""
""focus"",""0"",""0""
""fullscreenenter"",""1"",""1955""
","
","""event"",""trial"",""time""
""focus"",""0"",""0""
","""event"",""trial"",""time""
""fullscreenenter"",""1"",""1955""
","
","","","681","","","24","16590","6439","s","elianto","#3366ff99","-1"," ","0","0","[1535]","1","2","","","16590","92","5","2","win","no-go","0"
"pit-trial","211","1226220","0.0-97.0","battery-v0.2","","""event"",""trial"",""time""
""focus"",""0"",""0""
""fullscreenenter"",""1"",""1955""
","
","""event"",""trial"",""time""
""focus"",""0"",""0""
","""event"",""trial"",""time""
""fullscreenenter"",""1"",""1955""
","
","","","1315","","","24","16590","6439","w","elianto","#f73b6a7A"," "," ","1","0","[2168]","1","2","","","16590","93","6","3","lose","go","0"
"pit-trial","212","1231085","0.0-98.0","battery-v0.2","","""event"",""trial"",""time""
""focus"",""0"",""0""
""fullscreenenter"",""1"",""1955""
","
","""event"",""trial"",""time""
""focus"",""0"",""0""
","""event"",""trial"",""time""
""fullscreenenter"",""1"",""1955""
","
","","","-1","","","24","16590","6439","e","elianto","#f73b6a7A","-1","-1","1","0","[]","0","2","","","16590","94","7","4","lose","no-go","0"
"pit-trial","213","1234805","0.0-99.0","battery-v0.2","","""event"",""trial"",""time""
""focus"",""0"",""0""
""fullscreenenter"",""1"",""1955""
","
","""event"",""trial"",""time""
""focus"",""0"",""0""
","""event"",""trial"",""time""
""fullscreenenter"",""1"",""1955""
","
","","","857","","","24","16590","6439","d","elianto","#3366ff99"," "," ","1","+10","[1709]","1","2","","","16590","95","8","1","win","go","0"
"pit-trial","214","1238304","0.0-100.0","battery-v0.2","","""event"",""trial"",""time""
""focus"",""0"",""0""
""fullscreenenter"",""1"",""1955""
","
","""event"",""trial"",""time""
""focus"",""0"",""0""
","""event"",""trial"",""time""
""fullscreenenter"",""1"",""1955""
","
","","","635","","","24","16590","6439","s","elianto","#3366ff99","-1"," ","0","0","[1490]","1","2","","","16590","96","5","2","win","no-go","0"
"pit-trial","215","1241673","0.0-101.0","battery-v0.2","","""event"",""trial"",""time""
""focus"",""0"",""0""
""fullscreenenter"",""1"",""1955""
","
","""event"",""trial"",""time""
""focus"",""0"",""0""
","""event"",""trial"",""time""
""fullscreenenter"",""1"",""1955""
","
","","","508","","","24","16590","6439","d","elianto","#3366ff99"," "," ","1","+10","[1362]","1","2","","","16590","97","8","1","win","go","0"
"pit-trial","216","1245357","0.0-102.0","battery-v0.2","","""event"",""trial"",""time""
""focus"",""0"",""0""
""fullscreenenter"",""1"",""1955""
","
","""event"",""trial"",""time""
""focus"",""0"",""0""
","""event"",""trial"",""time""
""fullscreenenter"",""1"",""1955""
","
","","","825","","","24","16590","6439","w","elianto","#f73b6a7A"," "," ","1","0","[1677]","1","2","","","16590","98","6","3","lose","go","0"
"pit-trial","217","1250230","0.0-103.0","battery-v0.2","","""event"",""trial"",""time""
""focus"",""0"",""0""
""fullscreenenter"",""1"",""1955""
","
","""event"",""trial"",""time""
""focus"",""0"",""0""
","""event"",""trial"",""time""
""fullscreenenter"",""1"",""1955""
","
","","","-1","","","24","16590","6439","e","elianto","#f73b6a7A","-1","-1","1","0","[]","0","2","","","16590","99","7","4","lose","no-go","0"
"pit-trial","218","1253608","0.0-104.0","battery-v0.2","","""event"",""trial"",""time""
""focus"",""0"",""0""
""fullscreenenter"",""1"",""1955""
","
","""event"",""trial"",""time""
""focus"",""0"",""0""
","""event"",""trial"",""time""
""fullscreenenter"",""1"",""1955""
","
","","","523","","","24","16590","6439","s","elianto","#3366ff99","-1"," ","0","0","[1373]","1","2","","","16590","100","5","2","win","no-go","0"
"pit-trial","219","1257188","0.0-105.0","battery-v0.2","","""event"",""trial"",""time""
""focus"",""0"",""0""
""fullscreenenter"",""1"",""1955""
","
","""event"",""trial"",""time""
""focus"",""0"",""0""
","""event"",""trial"",""time""
""fullscreenenter"",""1"",""1955""
","
","","","717","","","24","16590","6439","d","elianto","#3366ff99"," "," ","1","0","[1572]","1","2","","","16590","101","8","1","win","go","1"
"pit-trial","220","1260660","0.0-106.0","battery-v0.2","","""event"",""trial"",""time""
""focus"",""0"",""0""
""fullscreenenter"",""1"",""1955""
","
","""event"",""trial"",""time""
""focus"",""0"",""0""
","""event"",""trial"",""time""
""fullscreenenter"",""1"",""1955""
","
","","","615","","","24","16590","6439","s","elianto","#3366ff99","-1"," ","0","0","[1465]","1","2","","","16590","102","5","2","win","no-go","0"
"pit-trial","221","1264098","0.0-107.0","battery-v0.2","","""event"",""trial"",""time""
""focus"",""0"",""0""
""fullscreenenter"",""1"",""1955""
","
","""event"",""trial"",""time""
""focus"",""0"",""0""
","""event"",""trial"",""time""
""fullscreenenter"",""1"",""1955""
","
","","","576","","","24","16590","6439","j","elianto","#3366ff99"," "," ","1","+10","[1430]","1","2","","","16590","103","9","1","win","go","0"
"pit-trial","222","1268952","0.0-108.0","battery-v0.2","","""event"",""trial"",""time""
""focus"",""0"",""0""
""fullscreenenter"",""1"",""1955""
","
","""event"",""trial"",""time""
""focus"",""0"",""0""
","""event"",""trial"",""time""
""fullscreenenter"",""1"",""1955""
","
","","","-1","","","24","16590","6439","e","elianto","#f73b6a7A","-1","-1","1","0","[]","0","2","","","16590","104","7","4","lose","no-go","0"
"pit-trial","223","1272287","0.0-109.0","battery-v0.2","","""event"",""trial"",""time""
""focus"",""0"",""0""
""fullscreenenter"",""1"",""1955""
","
","""event"",""trial"",""time""
""focus"",""0"",""0""
","""event"",""trial"",""time""
""fullscreenenter"",""1"",""1955""
","
","","","479","","","24","16590","6439","p","elianto","#3366ff99"," "," ","1","+10","[1332]","1","2","","","16590","105","4","1","win","go","0"
"pit-trial","224","1276008","0.0-110.0","battery-v0.2","","""event"",""trial"",""time""
""focus"",""0"",""0""
""fullscreenenter"",""1"",""1955""
","
","""event"",""trial"",""time""
""focus"",""0"",""0""
","""event"",""trial"",""time""
""fullscreenenter"",""1"",""1955""
","
","","","861","","","24","16590","6439","w","elianto","#f73b6a7A"," "," ","1","0","[1713]","1","2","","","16590","106","6","3","lose","go","0"
"pit-trial","225","1279533","0.0-111.0","battery-v0.2","","""event"",""trial"",""time""
""focus"",""0"",""0""
""fullscreenenter"",""1"",""1955""
","
","""event"",""trial"",""time""
""focus"",""0"",""0""
","""event"",""trial"",""time""
""fullscreenenter"",""1"",""1955""
","
","","","662","","","24","16590","6439","d","elianto","#3366ff99"," "," ","1","+10","[1517]","1","2","","","16590","107","8","1","win","go","0"
"pit-trial","226","1282866","0.0-112.0","battery-v0.2","","""event"",""trial"",""time""
""focus"",""0"",""0""
""fullscreenenter"",""1"",""1955""
","
","""event"",""trial"",""time""
""focus"",""0"",""0""
","""event"",""trial"",""time""
""fullscreenenter"",""1"",""1955""
","
","","","472","","","24","16590","6439","j","elianto","#3366ff99"," "," ","1","+10","[1326]","1","2","","","16590","108","9","1","win","go","0"
"pit-trial","227","1286260","0.0-113.0","battery-v0.2","","""event"",""trial"",""time""
""focus"",""0"",""0""
""fullscreenenter"",""1"",""1955""
","
","""event"",""trial"",""time""
""focus"",""0"",""0""
","""event"",""trial"",""time""
""fullscreenenter"",""1"",""1955""
","
","","","533","","","24","16590","6439","w","elianto","#f73b6a7A"," "," ","1","0","[1385]","1","2","","","16590","109","6","3","lose","go","0"
"pit-trial","228","1289662","0.0-114.0","battery-v0.2","","""event"",""trial"",""time""
""focus"",""0"",""0""
""fullscreenenter"",""1"",""1955""
","
","""event"",""trial"",""time""
""focus"",""0"",""0""
","""event"",""trial"",""time""
""fullscreenenter"",""1"",""1955""
","
","","","538","","","24","16590","6439","s","elianto","#3366ff99","-1"," ","0","0","[1391]","1","2","","","16590","110","5","2","win","no-go","0"
"pit-trial","229","1293182","0.0-115.0","battery-v0.2","","""event"",""trial"",""time""
""focus"",""0"",""0""
""fullscreenenter"",""1"",""1955""
","
","""event"",""trial"",""time""
""focus"",""0"",""0""
","""event"",""trial"",""time""
""fullscreenenter"",""1"",""1955""
","
","","","656","","","24","16590","6439","j","elianto","#3366ff99"," "," ","1","+10","[1510]","1","2","","","16590","111","9","1","win","go","0"
