"trial_type","trial_index","time_elapsed","internal_node_id","task_version","subject_id","interactions","blur_events","focus_events","fullscreenenter_events","fullscreenexit_events","success","view_history","rt","responses","num_errors","age","subject","participantId","rune","rune_set","hex","correct","choice","accuracy","outcome","keys","total_keys","block","practice","value","sub","trial","stimulus","robot","valence","action","sham"
"pavlovia","0","14","0.0-0.0","battery-v0.2","","""event"",""trial"",""time""
""fullscreenenter"",""1"",""2057""
","
","
","""event"",""trial"",""time""
""fullscreenenter"",""1"",""2057""
","
","","","","","","","","","","","","","","","","","","","","","","","","","","",""
"fullscreen","1","3052","0.0-1.0","battery-v0.2","","""event"",""trial"",""time""
""fullscreenenter"",""1"",""2057""
","
","
","""event"",""trial"",""time""
""fullscreenenter"",""1"",""2057""
","
","true","","","","","","","","","","","","","","","","","","","","","","","","","",""
"pit-instructions","2","9369","0.0-2.0-0.0","battery-v0.2","","""event"",""trial"",""time""
""fullscreenenter"",""1"",""2057""
""fullscreenexit"",""3"",""27619""
","
","
","""event"",""trial"",""time""
""fullscreenenter"",""1"",""2057""
","""event"",""trial"",""time""
""fullscreenexit"",""3"",""27619""
","","[{""page_index"":0,""viewing_time"":6300.700000000186}]","6302.0999999996275","","","","","","","","","","","","","","","","","","","","","","","",""
"pit-comprehension","3","44563","0.0-2.0-1.0-0.0","battery-v0.2","","""event"",""trial"",""time""
""fullscreenenter"",""1"",""2057""
""fullscreenexit"",""3"",""27619""
","
","
","""event"",""trial"",""time""
""fullscreenenter"",""1"",""2057""
","""event"",""trial"",""time""
""fullscreenexit"",""3"",""27619""
","","","35180.59999999963","[""tiger""]","1","19","5389","3118","","","","","","","","","","","","","","","","","","",""
"pit-instructions","4","46575","0.0-2.0-1.0-1.0","battery-v0.2","","""event"",""trial"",""time""
""fullscreenenter"",""1"",""2057""
""fullscreenexit"",""3"",""27619""
","
","
","""event"",""trial"",""time""
""fullscreenenter"",""1"",""2057""
","""event"",""trial"",""time""
""fullscreenexit"",""3"",""27619""
","","[{""page_index"":0,""viewing_time"":1989.199999999255}]","1990.5999999996275","","","","","","","","","","","","","","","","","","","","","","","",""
"pit-instructions","5","49612","0.0-2.0-1.0-2.0-0.0","battery-v0.2","","""event"",""trial"",""time""
""fullscreenenter"",""1"",""2057""
""fullscreenexit"",""3"",""27619""
","
","
","""event"",""trial"",""time""
""fullscreenenter"",""1"",""2057""
","""event"",""trial"",""time""
""fullscreenexit"",""3"",""27619""
","","[{""page_index"":0,""viewing_time"":3029.5}]","3030.5999999996275","","","","","","","","","","","","","","","","","","","","","","","",""
"pit-comprehension","6","56963","0.0-2.0-1.1-0.1","battery-v0.2","","""event"",""trial"",""time""
""fullscreenenter"",""1"",""2057""
""fullscreenexit"",""3"",""27619""
","
","
","""event"",""trial"",""time""
""fullscreenenter"",""1"",""2057""
","""event"",""trial"",""time""
""fullscreenexit"",""3"",""27619""
","","","7339.0999999996275","[""shark""]","0","19","5389","3118","","","","","","","","","","","","","","","","","","",""
"pit-instructions","7","58265","0.0-2.0-1.1-1.1","battery-v0.2","","""event"",""trial"",""time""
""fullscreenenter"",""1"",""2057""
""fullscreenexit"",""3"",""27619""
","
","
","""event"",""trial"",""time""
""fullscreenenter"",""1"",""2057""
","""event"",""trial"",""time""
""fullscreenexit"",""3"",""27619""
","","[{""page_index"":0,""viewing_time"":1286.2999999998137}]","1287.7999999998137","","","","","","","","","","","","","","","","","","","","","","","",""
"pit-comprehension","8","62168","0.0-2.0-2.0-0.0","battery-v0.2","","""event"",""trial"",""time""
""fullscreenenter"",""1"",""2057""
""fullscreenexit"",""3"",""27619""
","
","
","""event"",""trial"",""time""
""fullscreenenter"",""1"",""2057""
","""event"",""trial"",""time""
""fullscreenexit"",""3"",""27619""
","","","3890.5","[""tiger""]","0","19","5389","3118","","","","","","","","","","","","","","","","","","",""
"pit-instructions","9","63966","0.0-2.0-2.0-1.0","battery-v0.2","","""event"",""trial"",""time""
""fullscreenenter"",""1"",""2057""
""fullscreenexit"",""3"",""27619""
","
","
","""event"",""trial"",""time""
""fullscreenenter"",""1"",""2057""
","""event"",""trial"",""time""
""fullscreenexit"",""3"",""27619""
","","[{""page_index"":0,""viewing_time"":1783.0999999996275}]","1785","","","","","","","","","","","","","","","","","","","","","","","",""
"pit-instructions","10","191607","0.0-2.0-3.0","battery-v0.2","","""event"",""trial"",""time""
""fullscreenenter"",""1"",""2057""
""fullscreenexit"",""3"",""27619""
","
","
","""event"",""trial"",""time""
""fullscreenenter"",""1"",""2057""
","""event"",""trial"",""time""
""fullscreenexit"",""3"",""27619""
","","[{""page_index"":0,""viewing_time"":8503.5},{""page_index"":1,""viewing_time"":5781.199999999255},{""page_index"":2,""viewing_time"":9571.100000000559},{""page_index"":3,""viewing_time"":6180.5999999996275},{""page_index"":4,""viewing_time"":6069.5},{""page_index"":5,""viewing_time"":5981.4000000003725},{""page_index"":6,""viewing_time"":6996},{""page_index"":7,""viewing_time"":11962},{""page_index"":8,""viewing_time"":26147.39999999944},{""page_index"":9,""viewing_time"":10570.400000000373},{""page_index"":10,""viewing_time"":7292.5},{""page_index"":11,""viewing_time"":7124.299999999814},{""page_index"":12,""viewing_time"":10107},{""page_index"":13,""viewing_time"":5341.299999999814}]","127630.69999999925","","","","","","","","","","","","","","","","","","","","","","","",""
"pit-trial","11","194526","0.0-2.0-4.0-0.0","battery-v0.2","","""event"",""trial"",""time""
""fullscreenenter"",""1"",""2057""
""fullscreenexit"",""3"",""27619""
","
","
","""event"",""trial"",""time""
""fullscreenenter"",""1"",""2057""
","""event"",""trial"",""time""
""fullscreenexit"",""3"",""27619""
","","","53.69999999925494","","","19","5389","3118","&#9784;","elianto","#FFFFF080"," "," ","1","&#10004","[907.7000000001863]","1","0","0","","","","","","","",""
"pit-trial","12","197877","0.0-2.0-4.1-0.1","battery-v0.2","","""event"",""trial"",""time""
""fullscreenenter"",""1"",""2057""
""fullscreenexit"",""3"",""27619""
","
","
","""event"",""trial"",""time""
""fullscreenenter"",""1"",""2057""
","""event"",""trial"",""time""
""fullscreenexit"",""3"",""27619""
","","","479.5","","","19","5389","3118","&#9784;","elianto","#FFFFF080"," "," ","1","&#10004","[1334.2000000001863]","1","0","0","","","","","","","",""
"pit-trial","13","201141","0.0-2.0-4.2-0.2","battery-v0.2","","""event"",""trial"",""time""
""fullscreenenter"",""1"",""2057""
""fullscreenexit"",""3"",""27619""
","
","
","""event"",""trial"",""time""
""fullscreenenter"",""1"",""2057""
","""event"",""trial"",""time""
""fullscreenexit"",""3"",""27619""
","","","404.5","","","19","5389","3118","&#9784;","elianto","#FFFFF080"," "," ","1","&#10004","[1254.699999999255]","1","0","0","","","","","","","",""
"pit-trial","14","204469","0.0-2.0-4.3-0.3","battery-v0.2","","""event"",""trial"",""time""
""fullscreenenter"",""1"",""2057""
""fullscreenexit"",""3"",""27619""
","
","
","""event"",""trial"",""time""
""fullscreenenter"",""1"",""2057""
","""event"",""trial"",""time""
""fullscreenexit"",""3"",""27619""
","","","466.6000000005588","","","19","5389","3118","&#9784;","elianto","#FFFFF080"," "," ","1","&#10004","[1317.2000000001863]","1","0","0","","","","","","","",""
"pit-trial","15","207686","0.0-2.0-4.4-0.4","battery-v0.2","","""event"",""trial"",""time""
""fullscreenenter"",""1"",""2057""
""fullscreenexit"",""3"",""27619""
","
","
","""event"",""trial"",""time""
""fullscreenenter"",""1"",""2057""
","""event"",""trial"",""time""
""fullscreenexit"",""3"",""27619""
","","","353","","","19","5389","3118","&#9784;","elianto","#FFFFF080"," "," ","1","&#10004","[1203.4000000003725]","1","0","0","","","","","","","",""
"pit-instructions","16","230427","0.0-2.0-5.0","battery-v0.2","","""event"",""trial"",""time""
""fullscreenenter"",""1"",""2057""
""fullscreenexit"",""3"",""27619""
","
","
","""event"",""trial"",""time""
""fullscreenenter"",""1"",""2057""
","""event"",""trial"",""time""
""fullscreenexit"",""3"",""27619""
","","[{""page_index"":0,""viewing_time"":5102},{""page_index"":1,""viewing_time"":6445.100000000559},{""page_index"":2,""viewing_time"":5205.699999999255},{""page_index"":3,""viewing_time"":5981.100000000559}]","22736.200000000186","","","","","","","","","","","","","","","","","","","","","","","",""
"pit-trial","17","235293","0.0-2.0-6.0-0.0","battery-v0.2","","""event"",""trial"",""time""
""fullscreenenter"",""1"",""2057""
""fullscreenexit"",""3"",""27619""
","
","
","""event"",""trial"",""time""
""fullscreenenter"",""1"",""2057""
","""event"",""trial"",""time""
""fullscreenexit"",""3"",""27619""
","","","-1","","","19","5389","3118","&#9854;","elianto","#FFFFF080","-1","-1","1","&#10004","[]","0","0","1","","","","","","","",""
"pit-trial","18","240157","0.0-2.0-6.1-0.1","battery-v0.2","","""event"",""trial"",""time""
""fullscreenenter"",""1"",""2057""
""fullscreenexit"",""3"",""27619""
","
","
","""event"",""trial"",""time""
""fullscreenenter"",""1"",""2057""
","""event"",""trial"",""time""
""fullscreenexit"",""3"",""27619""
","","","-1","","","19","5389","3118","&#9854;","elianto","#FFFFF080","-1","-1","1","&#10004","[]","0","0","1","","","","","","","",""
"pit-trial","19","245028","0.0-2.0-6.2-0.2","battery-v0.2","","""event"",""trial"",""time""
""fullscreenenter"",""1"",""2057""
""fullscreenexit"",""3"",""27619""
","
","
","""event"",""trial"",""time""
""fullscreenenter"",""1"",""2057""
","""event"",""trial"",""time""
""fullscreenexit"",""3"",""27619""
","","","-1","","","19","5389","3118","&#9854;","elianto","#FFFFF080","-1","-1","1","&#10004","[]","0","0","1","","","","","","","",""
"pit-trial","20","249893","0.0-2.0-6.3-0.3","battery-v0.2","","""event"",""trial"",""time""
""fullscreenenter"",""1"",""2057""
""fullscreenexit"",""3"",""27619""
","
","
","""event"",""trial"",""time""
""fullscreenenter"",""1"",""2057""
","""event"",""trial"",""time""
""fullscreenexit"",""3"",""27619""
","","","-1","","","19","5389","3118","&#9854;","elianto","#FFFFF080","-1","-1","1","&#10004","[]","0","0","1","","","","","","","",""
"pit-trial","21","254758","0.0-2.0-6.4-0.4","battery-v0.2","","""event"",""trial"",""time""
""fullscreenenter"",""1"",""2057""
""fullscreenexit"",""3"",""27619""
","
","
","""event"",""trial"",""time""
""fullscreenenter"",""1"",""2057""
","""event"",""trial"",""time""
""fullscreenexit"",""3"",""27619""
","","","-1","","","19","5389","3118","&#9854;","elianto","#FFFFF080","-1","-1","1","&#10004","[]","0","0","1","","","","","","","",""
"pit-instructions","22","375867","0.0-2.0-7.0","battery-v0.2","","""event"",""trial"",""time""
""fullscreenenter"",""1"",""2057""
""fullscreenexit"",""3"",""27619""
","
","
","""event"",""trial"",""time""
""fullscreenenter"",""1"",""2057""
","""event"",""trial"",""time""
""fullscreenexit"",""3"",""27619""
","","[{""page_index"":0,""viewing_time"":5702},{""page_index"":1,""viewing_time"":11539.100000000559},{""page_index"":2,""viewing_time"":5668.299999999814},{""page_index"":3,""viewing_time"":6573.0999999996275},{""page_index"":4,""viewing_time"":5212.9000000003725},{""page_index"":5,""viewing_time"":5446.0999999996275},{""page_index"":6,""viewing_time"":4573.600000000559},{""page_index"":7,""viewing_time"":7244.5},{""page_index"":8,""viewing_time"":8994.899999999441},{""page_index"":9,""viewing_time"":7972.100000000559},{""page_index"":10,""viewing_time"":6493.0999999996275},{""page_index"":11,""viewing_time"":4429.600000000559},{""page_index"":12,""viewing_time"":6756.199999999255},{""page_index"":13,""viewing_time"":6965.100000000559},{""page_index"":14,""viewing_time"":6988.799999999814},{""page_index"":15,""viewing_time"":6332.700000000186},{""page_index"":16,""viewing_time"":6988.200000000186},{""page_index"":17,""viewing_time"":7220.5999999996275}]","121103","","","","","","","","","","","","","","","","","","","","","","","",""
"pit-trial","23","379413","0.0-2.0-8.0-0.0","battery-v0.2","","""event"",""trial"",""time""
""fullscreenenter"",""1"",""2057""
""fullscreenexit"",""3"",""27619""
","
","
","""event"",""trial"",""time""
""fullscreenenter"",""1"",""2057""
","""event"",""trial"",""time""
""fullscreenexit"",""3"",""27619""
","","","685","","","19","5389","3118","&#9776;","elianto","#3366ff99"," "," ","1","+10","[1538.6000000005588]","1","0","1","","","","","","","",""
"pit-trial","24","383165","0.0-2.0-8.0-1.0","battery-v0.2","","""event"",""trial"",""time""
""fullscreenenter"",""1"",""2057""
""fullscreenexit"",""3"",""27619""
","
","
","""event"",""trial"",""time""
""fullscreenenter"",""1"",""2057""
","""event"",""trial"",""time""
""fullscreenexit"",""3"",""27619""
","","","885.8999999994412","","","19","5389","3118","&#9776;","elianto","#3366ff99"," "," ","1","+10","[1740.2000000001863]","1","0","1","","","","","","","",""
"pit-trial","25","386661","0.0-2.0-8.0-2.0","battery-v0.2","","""event"",""trial"",""time""
""fullscreenenter"",""1"",""2057""
""fullscreenexit"",""3"",""27619""
","
","
","""event"",""trial"",""time""
""fullscreenenter"",""1"",""2057""
","""event"",""trial"",""time""
""fullscreenexit"",""3"",""27619""
","","","632","","","19","5389","3118","&#9776;","elianto","#3366ff99"," "," ","1","+10","[1483.5]","1","0","1","","","","","","","",""
"pit-trial","26","390093","0.0-2.0-8.0-3.0","battery-v0.2","","""event"",""trial"",""time""
""fullscreenenter"",""1"",""2057""
""fullscreenexit"",""3"",""27619""
","
","
","""event"",""trial"",""time""
""fullscreenenter"",""1"",""2057""
","""event"",""trial"",""time""
""fullscreenexit"",""3"",""27619""
","","","565.5","","","19","5389","3118","&#9776;","elianto","#3366ff99"," "," ","1","0","[1418.300000000745]","1","0","1","","","","","","","",""
"pit-trial","27","393293","0.0-2.0-8.0-4.0","battery-v0.2","","""event"",""trial"",""time""
""fullscreenenter"",""1"",""2057""
""fullscreenexit"",""3"",""27619""
","
","
","""event"",""trial"",""time""
""fullscreenenter"",""1"",""2057""
","""event"",""trial"",""time""
""fullscreenexit"",""3"",""27619""
","","","339.79999999981374","","","19","5389","3118","&#9776;","elianto","#3366ff99"," "," ","1","+10","[1190.5999999996275]","1","0","1","","","","","","","",""
"pit-trial","28","396589","0.0-2.0-8.1-0.1","battery-v0.2","","""event"",""trial"",""time""
""fullscreenenter"",""1"",""2057""
""fullscreenexit"",""3"",""27619""
","
","
","""event"",""trial"",""time""
""fullscreenenter"",""1"",""2057""
","""event"",""trial"",""time""
""fullscreenexit"",""3"",""27619""
","","","426.90000000037253","","","19","5389","3118","&#9776;","elianto","#3366ff99"," "," ","1","+10","[1284]","1","0","1","","","","","","","",""
"pit-trial","29","399884","0.0-2.0-8.1-1.1","battery-v0.2","","""event"",""trial"",""time""
""fullscreenenter"",""1"",""2057""
""fullscreenexit"",""3"",""27619""
","
","
","""event"",""trial"",""time""
""fullscreenenter"",""1"",""2057""
","""event"",""trial"",""time""
""fullscreenexit"",""3"",""27619""
","","","430.8999999994412","","","19","5389","3118","&#9776;","elianto","#3366ff99"," "," ","1","+10","[1284.7999999998137]","1","0","1","","","","","","","",""
"pit-trial","30","403221","0.0-2.0-8.1-2.1","battery-v0.2","","""event"",""trial"",""time""
""fullscreenenter"",""1"",""2057""
""fullscreenexit"",""3"",""27619""
","
","
","""event"",""trial"",""time""
""fullscreenenter"",""1"",""2057""
","""event"",""trial"",""time""
""fullscreenexit"",""3"",""27619""
","","","472.6000000005588","","","19","5389","3118","&#9776;","elianto","#3366ff99"," "," ","1","+10","[1324.1000000005588]","1","0","1","","","","","","","",""
"pit-trial","31","407149","0.0-2.0-8.1-3.1","battery-v0.2","","""event"",""trial"",""time""
""fullscreenenter"",""1"",""2057""
""fullscreenexit"",""3"",""27619""
","
","
","""event"",""trial"",""time""
""fullscreenenter"",""1"",""2057""
","""event"",""trial"",""time""
""fullscreenexit"",""3"",""27619""
","","","1069.7999999998137","","","19","5389","3118","&#9776;","elianto","#3366ff99"," "," ","1","0","[1921.5999999996275]","1","0","1","","","","","","","",""
"pit-trial","32","410541","0.0-2.0-8.1-4.1","battery-v0.2","","""event"",""trial"",""time""
""fullscreenenter"",""1"",""2057""
""fullscreenexit"",""3"",""27619""
","
","
","""event"",""trial"",""time""
""fullscreenenter"",""1"",""2057""
","""event"",""trial"",""time""
""fullscreenexit"",""3"",""27619""
","","","529.4000000003725","","","19","5389","3118","&#9776;","elianto","#3366ff99"," "," ","1","+10","[1384.4000000003725]","1","0","1","","","","","","","",""
"pit-trial","33","413733","0.0-2.0-8.2-0.2","battery-v0.2","","""event"",""trial"",""time""
""fullscreenenter"",""1"",""2057""
""fullscreenexit"",""3"",""27619""
","
","
","""event"",""trial"",""time""
""fullscreenenter"",""1"",""2057""
","""event"",""trial"",""time""
""fullscreenexit"",""3"",""27619""
","","","331.59999999962747","","","19","5389","3118","&#9776;","elianto","#3366ff99"," "," ","1","+10","[1182]","1","0","1","","","","","","","",""
"pit-trial","34","416932","0.0-2.0-8.2-1.2","battery-v0.2","","""event"",""trial"",""time""
""fullscreenenter"",""1"",""2057""
""fullscreenexit"",""3"",""27619""
","
","
","""event"",""trial"",""time""
""fullscreenenter"",""1"",""2057""
","""event"",""trial"",""time""
""fullscreenexit"",""3"",""27619""
","","","336.59999999962747","","","19","5389","3118","&#9776;","elianto","#3366ff99"," "," ","1","+10","[1188.5999999996275]","1","0","1","","","","","","","",""
"pit-trial","35","419981","0.0-2.0-8.2-2.2","battery-v0.2","","""event"",""trial"",""time""
""fullscreenenter"",""1"",""2057""
""fullscreenexit"",""3"",""27619""
","
","
","""event"",""trial"",""time""
""fullscreenenter"",""1"",""2057""
","""event"",""trial"",""time""
""fullscreenexit"",""3"",""27619""
","","","191","","","19","5389","3118","&#9776;","elianto","#3366ff99"," "," ","1","+10","[1043]","1","0","1","","","","","","","",""
"pit-trial","36","423189","0.0-2.0-8.2-3.2","battery-v0.2","","""event"",""trial"",""time""
""fullscreenenter"",""1"",""2057""
""fullscreenexit"",""3"",""27619""
","
","
","""event"",""trial"",""time""
""fullscreenenter"",""1"",""2057""
","""event"",""trial"",""time""
""fullscreenexit"",""3"",""27619""
","","","351.20000000018626","","","19","5389","3118","&#9776;","elianto","#3366ff99"," "," ","1","0","[1202.1000000005588]","1","0","1","","","","","","","",""
"pit-trial","37","426109","0.0-2.0-8.2-4.2","battery-v0.2","","""event"",""trial"",""time""
""fullscreenenter"",""1"",""2057""
""fullscreenexit"",""3"",""27619""
","
","
","""event"",""trial"",""time""
""fullscreenenter"",""1"",""2057""
","""event"",""trial"",""time""
""fullscreenexit"",""3"",""27619""
","","","60.60000000055879","","","19","5389","3118","&#9776;","elianto","#3366ff99"," "," ","1","+10","[912.2999999998137]","1","0","1","","","","","","","",""
"call-function","38","426113","0.0-2.0-9.0","battery-v0.2","","""event"",""trial"",""time""
""fullscreenenter"",""1"",""2057""
""fullscreenexit"",""3"",""27619""
","
","
","""event"",""trial"",""time""
""fullscreenenter"",""1"",""2057""
","""event"",""trial"",""time""
""fullscreenexit"",""3"",""27619""
","","","","","","","","","","","","","","","","","","","","","","","","","","",""
"pit-instructions","39","480086","0.0-2.0-10.0","battery-v0.2","","""event"",""trial"",""time""
""fullscreenenter"",""1"",""2057""
""fullscreenexit"",""3"",""27619""
","
","
","""event"",""trial"",""time""
""fullscreenenter"",""1"",""2057""
","""event"",""trial"",""time""
""fullscreenexit"",""3"",""27619""
","","[{""page_index"":0,""viewing_time"":15853.5},{""page_index"":1,""viewing_time"":6772.899999999441},{""page_index"":2,""viewing_time"":12377.700000000186},{""page_index"":3,""viewing_time"":10810.299999999814},{""page_index"":4,""viewing_time"":8156.300000000745}]","53972.59999999963","","","","","","","","","","","","","","","","","","","","","","","",""
"pit-trial","40","484957","0.0-2.0-11.0-0.0","battery-v0.2","","""event"",""trial"",""time""
""fullscreenenter"",""1"",""2057""
""fullscreenexit"",""3"",""27619""
","
","
","""event"",""trial"",""time""
""fullscreenenter"",""1"",""2057""
","""event"",""trial"",""time""
""fullscreenexit"",""3"",""27619""
","","","-1","","","19","5389","3118","&#9761;","elianto","#3366ff99","-1","-1","1","+10","[3136.7000000001863]","1","0","2","","","","","","","",""
"pit-trial","41","488445","0.0-2.0-11.0-1.0","battery-v0.2","","""event"",""trial"",""time""
""fullscreenenter"",""1"",""2057""
""fullscreenexit"",""3"",""27619""
","
","
","""event"",""trial"",""time""
""fullscreenenter"",""1"",""2057""
","""event"",""trial"",""time""
""fullscreenexit"",""3"",""27619""
","","","629.8999999994412","","","19","5389","3118","&#9761;","elianto","#3366ff99","-1"," ","0","0","[1481.3999999994412]","1","0","2","","","","","","","",""
"pit-trial","42","491853","0.0-2.0-11.0-2.0","battery-v0.2","","""event"",""trial"",""time""
""fullscreenenter"",""1"",""2057""
""fullscreenexit"",""3"",""27619""
","
","
","""event"",""trial"",""time""
""fullscreenenter"",""1"",""2057""
","""event"",""trial"",""time""
""fullscreenexit"",""3"",""27619""
","","","549.2000000001863","","","19","5389","3118","&#9761;","elianto","#3366ff99","-1"," ","0","0","[1399.300000000745]","1","0","2","","","","","","","",""
"pit-trial","43","495221","0.0-2.0-11.0-3.0","battery-v0.2","","""event"",""trial"",""time""
""fullscreenenter"",""1"",""2057""
""fullscreenexit"",""3"",""27619""
","
","
","""event"",""trial"",""time""
""fullscreenenter"",""1"",""2057""
","""event"",""trial"",""time""
""fullscreenexit"",""3"",""27619""
","","","505.8999999994412","","","19","5389","3118","&#9761;","elianto","#3366ff99","-1"," ","0","+10","[1357.199999999255]","1","0","2","","","","","","","",""
"pit-trial","44","498693","0.0-2.0-11.0-4.0","battery-v0.2","","""event"",""trial"",""time""
""fullscreenenter"",""1"",""2057""
""fullscreenexit"",""3"",""27619""
","
","
","""event"",""trial"",""time""
""fullscreenenter"",""1"",""2057""
","""event"",""trial"",""time""
""fullscreenexit"",""3"",""27619""
","","","605.6999999992549","","","19","5389","3118","&#9761;","elianto","#3366ff99","-1"," ","0","0","[1459.4000000003725]","1","0","2","","","","","","","",""
"pit-trial","45","501909","0.0-2.0-11.1-0.1","battery-v0.2","","""event"",""trial"",""time""
""fullscreenenter"",""1"",""2057""
""fullscreenexit"",""3"",""27619""
","
","
","""event"",""trial"",""time""
""fullscreenenter"",""1"",""2057""
","""event"",""trial"",""time""
""fullscreenexit"",""3"",""27619""
","","","342.90000000037253","","","19","5389","3118","&#9761;","elianto","#3366ff99","-1"," ","0","0","[1200.7000000001863]","1","0","2","","","","","","","",""
"pit-trial","46","505141","0.0-2.0-11.1-1.1","battery-v0.2","","""event"",""trial"",""time""
""fullscreenenter"",""1"",""2057""
""fullscreenexit"",""3"",""27619""
","
","
","""event"",""trial"",""time""
""fullscreenenter"",""1"",""2057""
","""event"",""trial"",""time""
""fullscreenexit"",""3"",""27619""
","","","374","","","19","5389","3118","&#9761;","elianto","#3366ff99","-1"," ","0","0","[1225]","1","0","2","","","","","","","",""
"pit-trial","47","508398","0.0-2.0-11.1-2.1","battery-v0.2","","""event"",""trial"",""time""
""fullscreenenter"",""1"",""2057""
""fullscreenexit"",""3"",""27619""
","
","
","""event"",""trial"",""time""
""fullscreenenter"",""1"",""2057""
","""event"",""trial"",""time""
""fullscreenexit"",""3"",""27619""
","","","396","","","19","5389","3118","&#9761;","elianto","#3366ff99","-1"," ","0","0","[1247.4000000003725]","1","0","2","","","","","","","",""
"pit-trial","48","513268","0.0-2.0-11.1-3.1","battery-v0.2","","""event"",""trial"",""time""
""fullscreenenter"",""1"",""2057""
""fullscreenexit"",""3"",""27619""
","
","
","""event"",""trial"",""time""
""fullscreenenter"",""1"",""2057""
","""event"",""trial"",""time""
""fullscreenexit"",""3"",""27619""
","","","-1","","","19","5389","3118","&#9761;","elianto","#3366ff99","-1","-1","1","0","[]","0","0","2","","","","","","","",""
"pit-trial","49","518133","0.0-2.0-11.1-4.1","battery-v0.2","","""event"",""trial"",""time""
""fullscreenenter"",""1"",""2057""
""fullscreenexit"",""3"",""27619""
","
","
","""event"",""trial"",""time""
""fullscreenenter"",""1"",""2057""
","""event"",""trial"",""time""
""fullscreenexit"",""3"",""27619""
","","","-1","","","19","5389","3118","&#9761;","elianto","#3366ff99","-1","-1","1","+10","[]","0","0","2","","","","","","","",""
"pit-trial","50","522996","0.0-2.0-11.2-0.2","battery-v0.2","","""event"",""trial"",""time""
""fullscreenenter"",""1"",""2057""
""fullscreenexit"",""3"",""27619""
","
","
","""event"",""trial"",""time""
""fullscreenenter"",""1"",""2057""
","""event"",""trial"",""time""
""fullscreenexit"",""3"",""27619""
","","","-1","","","19","5389","3118","&#9761;","elianto","#3366ff99","-1","-1","1","+10","[]","0","0","2","","","","","","","",""
"pit-trial","51","527861","0.0-2.0-11.2-1.2","battery-v0.2","","""event"",""trial"",""time""
""fullscreenenter"",""1"",""2057""
""fullscreenexit"",""3"",""27619""
","
","
","""event"",""trial"",""time""
""fullscreenenter"",""1"",""2057""
","""event"",""trial"",""time""
""fullscreenexit"",""3"",""27619""
","","","-1","","","19","5389","3118","&#9761;","elianto","#3366ff99","-1","-1","1","+10","[]","0","0","2","","","","","","","",""
"pit-trial","52","532724","0.0-2.0-11.2-2.2","battery-v0.2","","""event"",""trial"",""time""
""fullscreenenter"",""1"",""2057""
""fullscreenexit"",""3"",""27619""
","
","
","""event"",""trial"",""time""
""fullscreenenter"",""1"",""2057""
","""event"",""trial"",""time""
""fullscreenexit"",""3"",""27619""
","","","-1","","","19","5389","3118","&#9761;","elianto","#3366ff99","-1","-1","1","+10","[]","0","0","2","","","","","","","",""
"pit-trial","53","537589","0.0-2.0-11.2-3.2","battery-v0.2","","""event"",""trial"",""time""
""fullscreenenter"",""1"",""2057""
""fullscreenexit"",""3"",""27619""
","
","
","""event"",""trial"",""time""
""fullscreenenter"",""1"",""2057""
","""event"",""trial"",""time""
""fullscreenexit"",""3"",""27619""
","","","-1","","","19","5389","3118","&#9761;","elianto","#3366ff99","-1","-1","1","0","[]","0","0","2","","","","","","","",""
"pit-trial","54","542453","0.0-2.0-11.2-4.2","battery-v0.2","","""event"",""trial"",""time""
""fullscreenenter"",""1"",""2057""
""fullscreenexit"",""3"",""27619""
","
","
","""event"",""trial"",""time""
""fullscreenenter"",""1"",""2057""
","""event"",""trial"",""time""
""fullscreenexit"",""3"",""27619""
","","","-1","","","19","5389","3118","&#9761;","elianto","#3366ff99","-1","-1","1","+10","[]","0","0","2","","","","","","","",""
"pit-trial","55","547317","0.0-2.0-11.3-0.3","battery-v0.2","","""event"",""trial"",""time""
""fullscreenenter"",""1"",""2057""
""fullscreenexit"",""3"",""27619""
","
","
","""event"",""trial"",""time""
""fullscreenenter"",""1"",""2057""
","""event"",""trial"",""time""
""fullscreenexit"",""3"",""27619""
","","","-1","","","19","5389","3118","&#9761;","elianto","#3366ff99","-1","-1","1","+10","[]","0","0","2","","","","","","","",""
"pit-trial","56","552181","0.0-2.0-11.3-1.3","battery-v0.2","","""event"",""trial"",""time""
""fullscreenenter"",""1"",""2057""
""fullscreenexit"",""3"",""27619""
","
","
","""event"",""trial"",""time""
""fullscreenenter"",""1"",""2057""
","""event"",""trial"",""time""
""fullscreenexit"",""3"",""27619""
","","","-1","","","19","5389","3118","&#9761;","elianto","#3366ff99","-1","-1","1","+10","[]","0","0","2","","","","","","","",""
"pit-trial","57","557046","0.0-2.0-11.3-2.3","battery-v0.2","","""event"",""trial"",""time""
""fullscreenenter"",""1"",""2057""
""fullscreenexit"",""3"",""27619""
","
","
","""event"",""trial"",""time""
""fullscreenenter"",""1"",""2057""
","""event"",""trial"",""time""
""fullscreenexit"",""3"",""27619""
","","","-1","","","19","5389","3118","&#9761;","elianto","#3366ff99","-1","-1","1","+10","[]","0","0","2","","","","","","","",""
"pit-trial","58","561909","0.0-2.0-11.3-3.3","battery-v0.2","","""event"",""trial"",""time""
""fullscreenenter"",""1"",""2057""
""fullscreenexit"",""3"",""27619""
","
","
","""event"",""trial"",""time""
""fullscreenenter"",""1"",""2057""
","""event"",""trial"",""time""
""fullscreenexit"",""3"",""27619""
","","","-1","","","19","5389","3118","&#9761;","elianto","#3366ff99","-1","-1","1","0","[]","0","0","2","","","","","","","",""
"pit-trial","59","566773","0.0-2.0-11.3-4.3","battery-v0.2","","""event"",""trial"",""time""
""fullscreenenter"",""1"",""2057""
""fullscreenexit"",""3"",""27619""
","
","
","""event"",""trial"",""time""
""fullscreenenter"",""1"",""2057""
","""event"",""trial"",""time""
""fullscreenexit"",""3"",""27619""
","","","-1","","","19","5389","3118","&#9761;","elianto","#3366ff99","-1","-1","1","+10","[]","0","0","2","","","","","","","",""
"call-function","60","566780","0.0-2.0-12.0","battery-v0.2","","""event"",""trial"",""time""
""fullscreenenter"",""1"",""2057""
""fullscreenexit"",""3"",""27619""
","
","
","""event"",""trial"",""time""
""fullscreenenter"",""1"",""2057""
","""event"",""trial"",""time""
""fullscreenexit"",""3"",""27619""
","","","","","","","","","","","","","","","","","","","","","","","","","","",""
"pit-instructions","61","600795","0.0-2.0-13.0","battery-v0.2","","""event"",""trial"",""time""
""fullscreenenter"",""1"",""2057""
""fullscreenexit"",""3"",""27619""
","
","
","""event"",""trial"",""time""
""fullscreenenter"",""1"",""2057""
","""event"",""trial"",""time""
""fullscreenexit"",""3"",""27619""
","","[{""page_index"":0,""viewing_time"":7016.5999999996275},{""page_index"":1,""viewing_time"":6956.5},{""page_index"":2,""viewing_time"":4229.9000000003725},{""page_index"":3,""viewing_time"":10986.699999999255},{""page_index"":4,""viewing_time"":4821.700000000186}]","34013.699999999255","","","","","","","","","","","","","","","","","","","","","","","",""
"pit-trial","62","604157","0.0-2.0-14.0-0.0","battery-v0.2","","""event"",""trial"",""time""
""fullscreenenter"",""1"",""2057""
""fullscreenexit"",""3"",""27619""
","
","
","""event"",""trial"",""time""
""fullscreenenter"",""1"",""2057""
","""event"",""trial"",""time""
""fullscreenexit"",""3"",""27619""
","","","500.5","","","19","5389","3118","&#9826;","elianto","#f73b6a7A","-1"," ","0","-10","[1352.9000000003725]","1","0","3","","","","","","","",""
"pit-trial","63","609021","0.0-2.0-14.0-1.0","battery-v0.2","","""event"",""trial"",""time""
""fullscreenenter"",""1"",""2057""
""fullscreenexit"",""3"",""27619""
","
","
","""event"",""trial"",""time""
""fullscreenenter"",""1"",""2057""
","""event"",""trial"",""time""
""fullscreenexit"",""3"",""27619""
","","","-1","","","19","5389","3118","&#9826;","elianto","#f73b6a7A","-1","-1","1","0","[]","0","0","3","","","","","","","",""
"pit-trial","64","613885","0.0-2.0-14.0-2.0","battery-v0.2","","""event"",""trial"",""time""
""fullscreenenter"",""1"",""2057""
""fullscreenexit"",""3"",""27619""
","
","
","""event"",""trial"",""time""
""fullscreenenter"",""1"",""2057""
","""event"",""trial"",""time""
""fullscreenexit"",""3"",""27619""
","","","-1","","","19","5389","3118","&#9826;","elianto","#f73b6a7A","-1","-1","1","0","[]","0","0","3","","","","","","","",""
"pit-trial","65","618749","0.0-2.0-14.0-3.0","battery-v0.2","","""event"",""trial"",""time""
""fullscreenenter"",""1"",""2057""
""fullscreenexit"",""3"",""27619""
","
","
","""event"",""trial"",""time""
""fullscreenenter"",""1"",""2057""
","""event"",""trial"",""time""
""fullscreenexit"",""3"",""27619""
","","","-1","","","19","5389","3118","&#9826;","elianto","#f73b6a7A","-1","-1","1","-10","[]","0","0","3","","","","","","","",""
"pit-trial","66","623614","0.0-2.0-14.0-4.0","battery-v0.2","","""event"",""trial"",""time""
""fullscreenenter"",""1"",""2057""
""fullscreenexit"",""3"",""27619""
","
","
","""event"",""trial"",""time""
""fullscreenenter"",""1"",""2057""
","""event"",""trial"",""time""
""fullscreenexit"",""3"",""27619""
","","","-1","","","19","5389","3118","&#9826;","elianto","#f73b6a7A","-1","-1","1","0","[]","0","0","3","","","","","","","",""
"pit-trial","67","628485","0.0-2.0-14.1-0.1","battery-v0.2","","""event"",""trial"",""time""
""fullscreenenter"",""1"",""2057""
""fullscreenexit"",""3"",""27619""
","
","
","""event"",""trial"",""time""
""fullscreenenter"",""1"",""2057""
","""event"",""trial"",""time""
""fullscreenexit"",""3"",""27619""
","","","-1","","","19","5389","3118","&#9826;","elianto","#f73b6a7A","-1","-1","1","0","[]","0","0","3","","","","","","","",""
"pit-trial","68","633349","0.0-2.0-14.1-1.1","battery-v0.2","","""event"",""trial"",""time""
""fullscreenenter"",""1"",""2057""
""fullscreenexit"",""3"",""27619""
","
","
","""event"",""trial"",""time""
""fullscreenenter"",""1"",""2057""
","""event"",""trial"",""time""
""fullscreenexit"",""3"",""27619""
","","","-1","","","19","5389","3118","&#9826;","elianto","#f73b6a7A","-1","-1","1","0","[]","0","0","3","","","","","","","",""
"pit-trial","69","638212","0.0-2.0-14.1-2.1","battery-v0.2","","""event"",""trial"",""time""
""fullscreenenter"",""1"",""2057""
""fullscreenexit"",""3"",""27619""
","
","
","""event"",""trial"",""time""
""fullscreenenter"",""1"",""2057""
","""event"",""trial"",""time""
""fullscreenexit"",""3"",""27619""
","","","-1","","","19","5389","3118","&#9826;","elianto","#f73b6a7A","-1","-1","1","0","[]","0","0","3","","","","","","","",""
"pit-trial","70","643077","0.0-2.0-14.1-3.1","battery-v0.2","","""event"",""trial"",""time""
""fullscreenenter"",""1"",""2057""
""fullscreenexit"",""3"",""27619""
","
","
","""event"",""trial"",""time""
""fullscreenenter"",""1"",""2057""
","""event"",""trial"",""time""
""fullscreenexit"",""3"",""27619""
","","","-1","","","19","5389","3118","&#9826;","elianto","#f73b6a7A","-1","-1","1","-10","[]","0","0","3","","","","","","","",""
"pit-trial","71","647941","0.0-2.0-14.1-4.1","battery-v0.2","","""event"",""trial"",""time""
""fullscreenenter"",""1"",""2057""
""fullscreenexit"",""3"",""27619""
","
","
","""event"",""trial"",""time""
""fullscreenenter"",""1"",""2057""
","""event"",""trial"",""time""
""fullscreenexit"",""3"",""27619""
","","","-1","","","19","5389","3118","&#9826;","elianto","#f73b6a7A","-1","-1","1","0","[]","0","0","3","","","","","","","",""
"pit-trial","72","652805","0.0-2.0-14.2-0.2","battery-v0.2","","""event"",""trial"",""time""
""fullscreenenter"",""1"",""2057""
""fullscreenexit"",""3"",""27619""
","
","
","""event"",""trial"",""time""
""fullscreenenter"",""1"",""2057""
","""event"",""trial"",""time""
""fullscreenexit"",""3"",""27619""
","","","-1","","","19","5389","3118","&#9826;","elianto","#f73b6a7A","-1","-1","1","0","[]","0","0","3","","","","","","","",""
"pit-trial","73","657668","0.0-2.0-14.2-1.2","battery-v0.2","","""event"",""trial"",""time""
""fullscreenenter"",""1"",""2057""
""fullscreenexit"",""3"",""27619""
","
","
","""event"",""trial"",""time""
""fullscreenenter"",""1"",""2057""
","""event"",""trial"",""time""
""fullscreenexit"",""3"",""27619""
","","","-1","","","19","5389","3118","&#9826;","elianto","#f73b6a7A","-1","-1","1","0","[]","0","0","3","","","","","","","",""
"pit-trial","74","662533","0.0-2.0-14.2-2.2","battery-v0.2","","""event"",""trial"",""time""
""fullscreenenter"",""1"",""2057""
""fullscreenexit"",""3"",""27619""
","
","
","""event"",""trial"",""time""
""fullscreenenter"",""1"",""2057""
","""event"",""trial"",""time""
""fullscreenexit"",""3"",""27619""
","","","-1","","","19","5389","3118","&#9826;","elianto","#f73b6a7A","-1","-1","1","0","[]","0","0","3","","","","","","","",""
"pit-trial","75","667397","0.0-2.0-14.2-3.2","battery-v0.2","","""event"",""trial"",""time""
""fullscreenenter"",""1"",""2057""
""fullscreenexit"",""3"",""27619""
","
","
","""event"",""trial"",""time""
""fullscreenenter"",""1"",""2057""
","""event"",""trial"",""time""
""fullscreenexit"",""3"",""27619""
","","","-1","","","19","5389","3118","&#9826;","elianto","#f73b6a7A","-1","-1","1","-10","[]","0","0","3","","","","","","","",""
"pit-trial","76","672261","0.0-2.0-14.2-4.2","battery-v0.2","","""event"",""trial"",""time""
""fullscreenenter"",""1"",""2057""
""fullscreenexit"",""3"",""27619""
","
","
","""event"",""trial"",""time""
""fullscreenenter"",""1"",""2057""
","""event"",""trial"",""time""
""fullscreenexit"",""3"",""27619""
","","","-1","","","19","5389","3118","&#9826;","elianto","#f73b6a7A","-1","-1","1","0","[]","0","0","3","","","","","","","",""
"pit-trial","77","677125","0.0-2.0-14.3-0.3","battery-v0.2","","""event"",""trial"",""time""
""fullscreenenter"",""1"",""2057""
""fullscreenexit"",""3"",""27619""
","
","
","""event"",""trial"",""time""
""fullscreenenter"",""1"",""2057""
","""event"",""trial"",""time""
""fullscreenexit"",""3"",""27619""
","","","-1","","","19","5389","3118","&#9826;","elianto","#f73b6a7A","-1","-1","1","0","[]","0","0","3","","","","","","","",""
"pit-trial","78","681989","0.0-2.0-14.3-1.3","battery-v0.2","","""event"",""trial"",""time""
""fullscreenenter"",""1"",""2057""
""fullscreenexit"",""3"",""27619""
","
","
","""event"",""trial"",""time""
""fullscreenenter"",""1"",""2057""
","""event"",""trial"",""time""
""fullscreenexit"",""3"",""27619""
","","","-1","","","19","5389","3118","&#9826;","elianto","#f73b6a7A","-1","-1","1","0","[]","0","0","3","","","","","","","",""
"pit-trial","79","686852","0.0-2.0-14.3-2.3","battery-v0.2","","""event"",""trial"",""time""
""fullscreenenter"",""1"",""2057""
""fullscreenexit"",""3"",""27619""
","
","
","""event"",""trial"",""time""
""fullscreenenter"",""1"",""2057""
","""event"",""trial"",""time""
""fullscreenexit"",""3"",""27619""
","","","-1","","","19","5389","3118","&#9826;","elianto","#f73b6a7A","-1","-1","1","0","[]","0","0","3","","","","","","","",""
"pit-trial","80","691716","0.0-2.0-14.3-3.3","battery-v0.2","","""event"",""trial"",""time""
""fullscreenenter"",""1"",""2057""
""fullscreenexit"",""3"",""27619""
","
","
","""event"",""trial"",""time""
""fullscreenenter"",""1"",""2057""
","""event"",""trial"",""time""
""fullscreenexit"",""3"",""27619""
","","","-1","","","19","5389","3118","&#9826;","elianto","#f73b6a7A","-1","-1","1","-10","[]","0","0","3","","","","","","","",""
"pit-trial","81","696581","0.0-2.0-14.3-4.3","battery-v0.2","","""event"",""trial"",""time""
""fullscreenenter"",""1"",""2057""
""fullscreenexit"",""3"",""27619""
","
","
","""event"",""trial"",""time""
""fullscreenenter"",""1"",""2057""
","""event"",""trial"",""time""
""fullscreenexit"",""3"",""27619""
","","","-1","","","19","5389","3118","&#9826;","elianto","#f73b6a7A","-1","-1","1","0","[]","0","0","3","","","","","","","",""
"call-function","82","696585","0.0-2.0-15.0","battery-v0.2","","""event"",""trial"",""time""
""fullscreenenter"",""1"",""2057""
""fullscreenexit"",""3"",""27619""
","
","
","""event"",""trial"",""time""
""fullscreenenter"",""1"",""2057""
","""event"",""trial"",""time""
""fullscreenexit"",""3"",""27619""
","","","","","","","","","","","","","","","","","","","","","","","","","","",""
"pit-instructions","83","729761","0.0-2.0-16.0","battery-v0.2","","""event"",""trial"",""time""
""fullscreenenter"",""1"",""2057""
""fullscreenexit"",""3"",""27619""
","
","
","""event"",""trial"",""time""
""fullscreenenter"",""1"",""2057""
","""event"",""trial"",""time""
""fullscreenexit"",""3"",""27619""
","","[{""page_index"":0,""viewing_time"":6707.200000000186},{""page_index"":1,""viewing_time"":9196},{""page_index"":2,""viewing_time"":10634.199999999255},{""page_index"":3,""viewing_time"":6636.600000000559}]","33175.59999999963","","","","","","","","","","","","","","","","","","","","","","","",""
"pit-trial","84","734629","0.0-2.0-17.0-0.0","battery-v0.2","","""event"",""trial"",""time""
""fullscreenenter"",""1"",""2057""
""fullscreenexit"",""3"",""27619""
","
","
","""event"",""trial"",""time""
""fullscreenenter"",""1"",""2057""
","""event"",""trial"",""time""
""fullscreenexit"",""3"",""27619""
","","","-1","","","19","5389","3118","&#9789;","elianto","#f73b6a7A"," ","-1","0","-10","[]","0","0","4","","","","","","","",""
"pit-trial","85","737749","0.0-2.0-17.0-1.0","battery-v0.2","","""event"",""trial"",""time""
""fullscreenenter"",""1"",""2057""
""fullscreenexit"",""3"",""27619""
","
","
","""event"",""trial"",""time""
""fullscreenenter"",""1"",""2057""
","""event"",""trial"",""time""
""fullscreenexit"",""3"",""27619""
","","","257.3999999994412","","","19","5389","3118","&#9789;","elianto","#f73b6a7A"," "," ","1","0","[1108.2999999998137]","1","0","4","","","","","","","",""
"pit-trial","86","740893","0.0-2.0-17.0-2.0","battery-v0.2","","""event"",""trial"",""time""
""fullscreenenter"",""1"",""2057""
""fullscreenexit"",""3"",""27619""
","
","
","""event"",""trial"",""time""
""fullscreenenter"",""1"",""2057""
","""event"",""trial"",""time""
""fullscreenexit"",""3"",""27619""
","","","280.1000000005588","","","19","5389","3118","&#9789;","elianto","#f73b6a7A"," "," ","1","0","[1130.5999999996275]","1","0","4","","","","","","","",""
"pit-trial","87","744182","0.0-2.0-17.0-3.0","battery-v0.2","","""event"",""trial"",""time""
""fullscreenenter"",""1"",""2057""
""fullscreenexit"",""3"",""27619""
","
","
","""event"",""trial"",""time""
""fullscreenenter"",""1"",""2057""
","""event"",""trial"",""time""
""fullscreenexit"",""3"",""27619""
","","","422.8999999994412","","","19","5389","3118","&#9789;","elianto","#f73b6a7A"," "," ","1","-10","[1274]","1","0","4","","","","","","","",""
"pit-trial","88","747157","0.0-2.0-17.0-4.0","battery-v0.2","","""event"",""trial"",""time""
""fullscreenenter"",""1"",""2057""
""fullscreenexit"",""3"",""27619""
","
","
","""event"",""trial"",""time""
""fullscreenenter"",""1"",""2057""
","""event"",""trial"",""time""
""fullscreenexit"",""3"",""27619""
","","","114.1000000005588","","","19","5389","3118","&#9789;","elianto","#f73b6a7A"," "," ","1","0","[968.6000000005588]","1","0","4","","","","","","","",""
"pit-trial","89","750885","0.0-2.0-17.1-0.1","battery-v0.2","","""event"",""trial"",""time""
""fullscreenenter"",""1"",""2057""
""fullscreenexit"",""3"",""27619""
","
","
","""event"",""trial"",""time""
""fullscreenenter"",""1"",""2057""
","""event"",""trial"",""time""
""fullscreenexit"",""3"",""27619""
","","","856.5999999996275","","","19","5389","3118","&#9789;","elianto","#f73b6a7A"," "," ","1","0","[1716.7999999998137]","1","0","4","","","","","","","",""
"pit-trial","90","754541","0.0-2.0-17.1-1.1","battery-v0.2","","""event"",""trial"",""time""
""fullscreenenter"",""1"",""2057""
""fullscreenexit"",""3"",""27619""
","
","
","""event"",""trial"",""time""
""fullscreenenter"",""1"",""2057""
","""event"",""trial"",""time""
""fullscreenexit"",""3"",""27619""
","","","793.0999999996275","","","19","5389","3118","&#9789;","elianto","#f73b6a7A"," "," ","1","0","[1644]","1","0","4","","","","","","","",""
"pit-trial","91","757628","0.0-2.0-17.1-2.1","battery-v0.2","","""event"",""trial"",""time""
""fullscreenenter"",""1"",""2057""
""fullscreenexit"",""3"",""27619""
","
","
","""event"",""trial"",""time""
""fullscreenenter"",""1"",""2057""
","""event"",""trial"",""time""
""fullscreenexit"",""3"",""27619""
","","","223.29999999981374","","","19","5389","3118","&#9789;","elianto","#f73b6a7A"," "," ","1","0","[1074.3999999994412]","1","0","4","","","","","","","",""
"pit-trial","92","760957","0.0-2.0-17.1-3.1","battery-v0.2","","""event"",""trial"",""time""
""fullscreenenter"",""1"",""2057""
""fullscreenexit"",""3"",""27619""
","
","
","""event"",""trial"",""time""
""fullscreenenter"",""1"",""2057""
","""event"",""trial"",""time""
""fullscreenexit"",""3"",""27619""
","","","471.5","","","19","5389","3118","&#9789;","elianto","#f73b6a7A"," "," ","1","-10","[1322.2999999998137]","1","0","4","","","","","","","",""
"pit-trial","93","764101","0.0-2.0-17.1-4.1","battery-v0.2","","""event"",""trial"",""time""
""fullscreenenter"",""1"",""2057""
""fullscreenexit"",""3"",""27619""
","
","
","""event"",""trial"",""time""
""fullscreenenter"",""1"",""2057""
","""event"",""trial"",""time""
""fullscreenexit"",""3"",""27619""
","","","286.20000000018626","","","19","5389","3118","&#9789;","elianto","#f73b6a7A"," "," ","1","0","[1136.7000000001863]","1","0","4","","","","","","","",""
"pit-trial","94","767148","0.0-2.0-17.2-0.2","battery-v0.2","","""event"",""trial"",""time""
""fullscreenenter"",""1"",""2057""
""fullscreenexit"",""3"",""27619""
","
","
","""event"",""trial"",""time""
""fullscreenenter"",""1"",""2057""
","""event"",""trial"",""time""
""fullscreenexit"",""3"",""27619""
","","","185.8999999994412","","","19","5389","3118","&#9789;","elianto","#f73b6a7A"," "," ","1","0","[1036.5999999996275]","1","0","4","","","","","","","",""
"pit-trial","95","770269","0.0-2.0-17.2-1.2","battery-v0.2","","""event"",""trial"",""time""
""fullscreenenter"",""1"",""2057""
""fullscreenexit"",""3"",""27619""
","
","
","""event"",""trial"",""time""
""fullscreenenter"",""1"",""2057""
","""event"",""trial"",""time""
""fullscreenexit"",""3"",""27619""
","","","256.69999999925494","","","19","5389","3118","&#9789;","elianto","#f73b6a7A"," "," ","1","0","[1109.0999999996275]","1","0","4","","","","","","","",""
"pit-trial","96","773205","0.0-2.0-17.2-2.2","battery-v0.2","","""event"",""trial"",""time""
""fullscreenenter"",""1"",""2057""
""fullscreenexit"",""3"",""27619""
","
","
","""event"",""trial"",""time""
""fullscreenenter"",""1"",""2057""
","""event"",""trial"",""time""
""fullscreenexit"",""3"",""27619""
","","","74.3999999994412","","","19","5389","3118","&#9789;","elianto","#f73b6a7A"," "," ","1","0","[924.5]","1","0","4","","","","","","","",""
"pit-trial","97","776892","0.0-2.0-17.2-3.2","battery-v0.2","","""event"",""trial"",""time""
""fullscreenenter"",""1"",""2057""
""fullscreenexit"",""3"",""27619""
","
","
","""event"",""trial"",""time""
""fullscreenenter"",""1"",""2057""
","""event"",""trial"",""time""
""fullscreenexit"",""3"",""27619""
","","","829.8999999994412","","","19","5389","3118","&#9789;","elianto","#f73b6a7A"," "," ","1","-10","[825.4000000003725,1681.7999999998137]","2","0","4","","","","","","","",""
"pit-trial","98","780037","0.0-2.0-17.2-4.2","battery-v0.2","","""event"",""trial"",""time""
""fullscreenenter"",""1"",""2057""
""fullscreenexit"",""3"",""27619""
","
","
","""event"",""trial"",""time""
""fullscreenenter"",""1"",""2057""
","""event"",""trial"",""time""
""fullscreenexit"",""3"",""27619""
","","","284.59999999962747","","","19","5389","3118","&#9789;","elianto","#f73b6a7A"," "," ","1","0","[1136.9000000003725]","1","0","4","","","","","","","",""
"pit-trial","99","783461","0.0-2.0-17.3-0.3","battery-v0.2","","""event"",""trial"",""time""
""fullscreenenter"",""1"",""2057""
""fullscreenexit"",""3"",""27619""
","
","
","""event"",""trial"",""time""
""fullscreenenter"",""1"",""2057""
","""event"",""trial"",""time""
""fullscreenexit"",""3"",""27619""
","","","558.9000000003725","","","19","5389","3118","&#9789;","elianto","#f73b6a7A"," "," ","1","0","[855.4000000003725,1415]","2","0","4","","","","","","","",""
"pit-trial","100","786492","0.0-2.0-17.3-1.3","battery-v0.2","","""event"",""trial"",""time""
""fullscreenenter"",""1"",""2057""
""fullscreenexit"",""3"",""27619""
","
","
","""event"",""trial"",""time""
""fullscreenenter"",""1"",""2057""
","""event"",""trial"",""time""
""fullscreenexit"",""3"",""27619""
","","","173.20000000018626","","","19","5389","3118","&#9789;","elianto","#f73b6a7A"," "," ","1","0","[1024.3999999994412]","1","0","4","","","","","","","",""
"pit-trial","101","789461","0.0-2.0-17.3-2.3","battery-v0.2","","""event"",""trial"",""time""
""fullscreenenter"",""1"",""2057""
""fullscreenexit"",""3"",""27619""
","
","
","""event"",""trial"",""time""
""fullscreenenter"",""1"",""2057""
","""event"",""trial"",""time""
""fullscreenexit"",""3"",""27619""
","","","106.5","","","19","5389","3118","&#9789;","elianto","#f73b6a7A"," "," ","1","0","[958.2000000001863]","1","0","4","","","","","","","",""
"pit-trial","102","792437","0.0-2.0-17.3-3.3","battery-v0.2","","""event"",""trial"",""time""
""fullscreenenter"",""1"",""2057""
""fullscreenexit"",""3"",""27619""
","
","
","""event"",""trial"",""time""
""fullscreenenter"",""1"",""2057""
","""event"",""trial"",""time""
""fullscreenexit"",""3"",""27619""
","","","117.90000000037253","","","19","5389","3118","&#9789;","elianto","#f73b6a7A"," "," ","1","-10","[970]","1","0","4","","","","","","","",""
"pit-trial","103","795349","0.0-2.0-17.3-4.3","battery-v0.2","","""event"",""trial"",""time""
""fullscreenenter"",""1"",""2057""
""fullscreenexit"",""3"",""27619""
","
","
","""event"",""trial"",""time""
""fullscreenenter"",""1"",""2057""
","""event"",""trial"",""time""
""fullscreenexit"",""3"",""27619""
","","","54.299999999813735","","","19","5389","3118","&#9789;","elianto","#f73b6a7A"," "," ","1","0","[906.2000000001863]","1","0","4","","","","","","","",""
"call-function","104","795352","0.0-2.0-18.0","battery-v0.2","","""event"",""trial"",""time""
""fullscreenenter"",""1"",""2057""
""fullscreenexit"",""3"",""27619""
","
","
","""event"",""trial"",""time""
""fullscreenenter"",""1"",""2057""
","""event"",""trial"",""time""
""fullscreenexit"",""3"",""27619""
","","","","","","","","","","","","","","","","","","","","","","","","","","",""
"pit-instructions","105","866079","0.0-2.0-19.0","battery-v0.2","","""event"",""trial"",""time""
""fullscreenenter"",""1"",""2057""
""fullscreenexit"",""3"",""27619""
","
","
","""event"",""trial"",""time""
""fullscreenenter"",""1"",""2057""
","""event"",""trial"",""time""
""fullscreenexit"",""3"",""27619""
","","[{""page_index"":0,""viewing_time"":6410.699999999255},{""page_index"":1,""viewing_time"":5901.100000000559},{""page_index"":2,""viewing_time"":14656.5},{""page_index"":3,""viewing_time"":8036},{""page_index"":4,""viewing_time"":7564.700000000186},{""page_index"":5,""viewing_time"":9506.599999999627},{""page_index"":6,""viewing_time"":8270.299999999814},{""page_index"":7,""viewing_time"":6234.600000000559},{""page_index"":8,""viewing_time"":4144}]","70726","","","","","","","","","","","","","","","","","","","","","","","",""
"pit-comprehension","106","872414","0.0-2.0-20.0-0.0","battery-v0.2","","""event"",""trial"",""time""
""fullscreenenter"",""1"",""2057""
""fullscreenexit"",""3"",""27619""
","
","
","""event"",""trial"",""time""
""fullscreenenter"",""1"",""2057""
","""event"",""trial"",""time""
""fullscreenexit"",""3"",""27619""
","","","6321.5999999996275","[""SPACE""]","0","19","5389","3118","","","","","","","","","","","","","","","","","","",""
"pit-instructions","107","875810","0.0-2.0-20.0-1.0","battery-v0.2","","""event"",""trial"",""time""
""fullscreenenter"",""1"",""2057""
""fullscreenexit"",""3"",""27619""
","
","
","""event"",""trial"",""time""
""fullscreenenter"",""1"",""2057""
","""event"",""trial"",""time""
""fullscreenexit"",""3"",""27619""
","","[{""page_index"":0,""viewing_time"":3312}]","3313.600000000559","","","","","","","","","","","","","","","","","","","","","","","",""
"pit-comprehension","108","882942","0.0-2.0-21.0-0.0","battery-v0.2","","""event"",""trial"",""time""
""fullscreenenter"",""1"",""2057""
""fullscreenexit"",""3"",""27619""
","
","
","""event"",""trial"",""time""
""fullscreenenter"",""1"",""2057""
","""event"",""trial"",""time""
""fullscreenexit"",""3"",""27619""
","","","7117.9000000003725","[""10""]","0","19","5389","3118","","","","","","","","","","","","","","","","","","",""
"pit-instructions","109","885276","0.0-2.0-21.0-1.0","battery-v0.2","","""event"",""trial"",""time""
""fullscreenenter"",""1"",""2057""
""fullscreenexit"",""3"",""27619""
","
","
","""event"",""trial"",""time""
""fullscreenenter"",""1"",""2057""
","""event"",""trial"",""time""
""fullscreenexit"",""3"",""27619""
","","[{""page_index"":0,""viewing_time"":2277.600000000559}]","2278.9000000003725","","","","","","","","","","","","","","","","","","","","","","","",""
"pit-comprehension","110","892026","0.0-2.0-22.0-0.0","battery-v0.2","","""event"",""trial"",""time""
""fullscreenenter"",""1"",""2057""
""fullscreenexit"",""3"",""27619""
","
","
","""event"",""trial"",""time""
""fullscreenenter"",""1"",""2057""
","""event"",""trial"",""time""
""fullscreenexit"",""3"",""27619""
","","","6735.299999999814","[""0""]","0","19","5389","3118","","","","","","","","","","","","","","","","","","",""
"pit-instructions","111","894335","0.0-2.0-22.0-1.0","battery-v0.2","","""event"",""trial"",""time""
""fullscreenenter"",""1"",""2057""
""fullscreenexit"",""3"",""27619""
","
","
","""event"",""trial"",""time""
""fullscreenenter"",""1"",""2057""
","""event"",""trial"",""time""
""fullscreenexit"",""3"",""27619""
","","[{""page_index"":0,""viewing_time"":2235.7000000001863}]","2237.300000000745","","","","","","","","","","","","","","","","","","","","","","","",""
"pit-comprehension","112","904868","0.0-2.0-23.0-0.0","battery-v0.2","","""event"",""trial"",""time""
""fullscreenenter"",""1"",""2057""
""fullscreenexit"",""3"",""27619""
","
","
","""event"",""trial"",""time""
""fullscreenenter"",""1"",""2057""
","""event"",""trial"",""time""
""fullscreenexit"",""3"",""27619""
","","","10521.600000000559","[""True""]","0","19","5389","3118","","","","","","","","","","","","","","","","","","",""
"pit-instructions","113","908688","0.0-2.0-23.0-1.0","battery-v0.2","","""event"",""trial"",""time""
""fullscreenenter"",""1"",""2057""
""fullscreenexit"",""3"",""27619""
","
","
","""event"",""trial"",""time""
""fullscreenenter"",""1"",""2057""
","""event"",""trial"",""time""
""fullscreenexit"",""3"",""27619""
","","[{""page_index"":0,""viewing_time"":3750.4000000003725}]","3751.2000000001863","","","","","","","","","","","","","","","","","","","","","","","",""
"pit-comprehension","114","916542","0.0-2.0-24.0-0.0","battery-v0.2","","""event"",""trial"",""time""
""fullscreenenter"",""1"",""2057""
""fullscreenexit"",""3"",""27619""
","
","
","""event"",""trial"",""time""
""fullscreenenter"",""1"",""2057""
","""event"",""trial"",""time""
""fullscreenexit"",""3"",""27619""
","","","7843.5","[""True""]","0","19","5389","3118","","","","","","","","","","","","","","","","","","",""
"pit-instructions","115","918179","0.0-2.0-24.0-1.0","battery-v0.2","","""event"",""trial"",""time""
""fullscreenenter"",""1"",""2057""
""fullscreenexit"",""3"",""27619""
","
","
","""event"",""trial"",""time""
""fullscreenenter"",""1"",""2057""
","""event"",""trial"",""time""
""fullscreenexit"",""3"",""27619""
","","[{""page_index"":0,""viewing_time"":1576.4000000003725}]","1577.5","","","","","","","","","","","","","","","","","","","","","","","",""
"pit-comprehension","116","924659","0.0-2.0-25.0-0.0","battery-v0.2","","""event"",""trial"",""time""
""fullscreenenter"",""1"",""2057""
""fullscreenexit"",""3"",""27619""
","
","
","""event"",""trial"",""time""
""fullscreenenter"",""1"",""2057""
","""event"",""trial"",""time""
""fullscreenexit"",""3"",""27619""
","","","6465.4000000003725","[""True""]","0","19","5389","3118","","","","","","","","","","","","","","","","","","",""
"pit-instructions","117","926495","0.0-2.0-25.0-1.0","battery-v0.2","","""event"",""trial"",""time""
""fullscreenenter"",""1"",""2057""
""fullscreenexit"",""3"",""27619""
","
","
","""event"",""trial"",""time""
""fullscreenenter"",""1"",""2057""
","""event"",""trial"",""time""
""fullscreenexit"",""3"",""27619""
","","[{""page_index"":0,""viewing_time"":1770.6000000005588}]","1771.6000000005588","","","","","","","","","","","","","","","","","","","","","","","",""
"pit-comprehension","118","938580","0.0-2.0-26.0-0.0","battery-v0.2","","""event"",""trial"",""time""
""fullscreenenter"",""1"",""2057""
""fullscreenexit"",""3"",""27619""
","
","
","""event"",""trial"",""time""
""fullscreenenter"",""1"",""2057""
","""event"",""trial"",""time""
""fullscreenexit"",""3"",""27619""
","","","12074.700000000186","[""False""]","0","19","5389","3118","","","","","","","","","","","","","","","","","","",""
"pit-instructions","119","940144","0.0-2.0-26.0-1.0","battery-v0.2","","""event"",""trial"",""time""
""fullscreenenter"",""1"",""2057""
""fullscreenexit"",""3"",""27619""
","
","
","""event"",""trial"",""time""
""fullscreenenter"",""1"",""2057""
","""event"",""trial"",""time""
""fullscreenexit"",""3"",""27619""
","","[{""page_index"":0,""viewing_time"":1505.2000000001863}]","1506.2999999998137","","","","","","","","","","","","","","","","","","","","","","","",""
"pit-instructions","120","956968","0.0-3.0","battery-v0.2","","""event"",""trial"",""time""
""fullscreenenter"",""1"",""2057""
""fullscreenexit"",""3"",""27619""
","
","
","""event"",""trial"",""time""
""fullscreenenter"",""1"",""2057""
","""event"",""trial"",""time""
""fullscreenexit"",""3"",""27619""
","","[{""page_index"":0,""viewing_time"":3703.7000000001863},{""page_index"":1,""viewing_time"":5085.5},{""page_index"":2,""viewing_time"":8028.4000000003725}]","16818.700000000186","","","","","","","","","","","","","","","","","","","","","","","",""
"pit-trial","121","961332","0.0-4.0","battery-v0.2","","""event"",""trial"",""time""
""fullscreenenter"",""1"",""2057""
""fullscreenexit"",""3"",""27619""
","
","
","""event"",""trial"",""time""
""fullscreenenter"",""1"",""2057""
","""event"",""trial"",""time""
""fullscreenexit"",""3"",""27619""
","","","1499.5999999996275","","","19","5389","3118","&#9728;","elianto","#f73b6a7A","-1"," ","0","-10","[2351.5]","1","1","","","5389","1","0","4","lose","no-go","0"
"pit-trial","122","964868","0.0-5.0","battery-v0.2","","""event"",""trial"",""time""
""fullscreenenter"",""1"",""2057""
""fullscreenexit"",""3"",""27619""
","
","
","""event"",""trial"",""time""
""fullscreenenter"",""1"",""2057""
","""event"",""trial"",""time""
""fullscreenexit"",""3"",""27619""
","","","672","","","19","5389","3118","&#9733;","elianto","#3366ff99","-1"," ","0","0","[1523.8999999994412]","1","1","","","5389","2","2","2","win","no-go","0"
"pit-trial","123","968701","0.0-6.0","battery-v0.2","","""event"",""trial"",""time""
""fullscreenenter"",""1"",""2057""
""fullscreenexit"",""3"",""27619""
","
","
","""event"",""trial"",""time""
""fullscreenenter"",""1"",""2057""
","""event"",""trial"",""time""
""fullscreenexit"",""3"",""27619""
","","","974","","","19","5389","3118","&#9730;","elianto","#3366ff99"," "," ","1","+10","[1825.7999999998137]","1","1","","","5389","3","1","1","win","go","0"
"pit-trial","124","972277","0.0-7.0","battery-v0.2","","""event"",""trial"",""time""
""fullscreenenter"",""1"",""2057""
""fullscreenexit"",""3"",""27619""
","
","
","""event"",""trial"",""time""
""fullscreenenter"",""1"",""2057""
","""event"",""trial"",""time""
""fullscreenexit"",""3"",""27619""
","","","717.0999999996275","","","19","5389","3118","&#9752;","elianto","#f73b6a7A"," "," ","1","0","[1568.5]","1","1","","","5389","4","3","3","lose","go","0"
"pit-trial","125","977141","0.0-8.0","battery-v0.2","","""event"",""trial"",""time""
""fullscreenenter"",""1"",""2057""
""fullscreenexit"",""3"",""27619""
","
","
","""event"",""trial"",""time""
""fullscreenenter"",""1"",""2057""
","""event"",""trial"",""time""
""fullscreenexit"",""3"",""27619""
","","","-1","","","19","5389","3118","&#9752;","elianto","#f73b6a7A"," ","-1","0","-10","[2852.899999999441]","1","1","","","5389","5","3","3","lose","go","0"
"pit-trial","126","982004","0.0-9.0","battery-v0.2","","""event"",""trial"",""time""
""fullscreenenter"",""1"",""2057""
""fullscreenexit"",""3"",""27619""
","
","
","""event"",""trial"",""time""
""fullscreenenter"",""1"",""2057""
","""event"",""trial"",""time""
""fullscreenexit"",""3"",""27619""
","","","-1","","","19","5389","3118","&#9728;","elianto","#f73b6a7A","-1","-1","1","0","[]","0","1","","","5389","6","0","4","lose","no-go","0"
"pit-trial","127","985829","0.0-10.0","battery-v0.2","","""event"",""trial"",""time""
""fullscreenenter"",""1"",""2057""
""fullscreenexit"",""3"",""27619""
","
","
","""event"",""trial"",""time""
""fullscreenenter"",""1"",""2057""
","""event"",""trial"",""time""
""fullscreenexit"",""3"",""27619""
","","","966.0999999996275","","","19","5389","3118","&#9733;","elianto","#3366ff99","-1"," ","0","0","[1818.0999999996275]","1","1","","","5389","7","2","2","win","no-go","0"
"pit-trial","128","990693","0.0-11.0","battery-v0.2","","""event"",""trial"",""time""
""fullscreenenter"",""1"",""2057""
""fullscreenexit"",""3"",""27619""
","
","
","""event"",""trial"",""time""
""fullscreenenter"",""1"",""2057""
","""event"",""trial"",""time""
""fullscreenexit"",""3"",""27619""
","","","-1","","","19","5389","3118","&#9730;","elianto","#3366ff99"," ","-1","0","0","[]","0","1","","","5389","8","1","1","win","go","0"
"pit-trial","129","994245","0.0-12.0","battery-v0.2","","""event"",""trial"",""time""
""fullscreenenter"",""1"",""2057""
""fullscreenexit"",""3"",""27619""
","
","
","""event"",""trial"",""time""
""fullscreenenter"",""1"",""2057""
","""event"",""trial"",""time""
""fullscreenexit"",""3"",""27619""
","","","687.2000000001863","","","19","5389","3118","&#9733;","elianto","#3366ff99","-1"," ","0","+10","[1541.9000000003725]","1","1","","","5389","9","2","2","win","no-go","1"
"pit-trial","130","999109","0.0-13.0","battery-v0.2","","""event"",""trial"",""time""
""fullscreenenter"",""1"",""2057""
""fullscreenexit"",""3"",""27619""
","
","
","""event"",""trial"",""time""
""fullscreenenter"",""1"",""2057""
","""event"",""trial"",""time""
""fullscreenexit"",""3"",""27619""
","","","-1","","","19","5389","3118","&#9752;","elianto","#f73b6a7A"," ","-1","0","-10","[]","0","1","","","5389","10","3","3","lose","go","0"
"pit-trial","131","1002949","0.0-14.0","battery-v0.2","","""event"",""trial"",""time""
""fullscreenenter"",""1"",""2057""
""fullscreenexit"",""3"",""27619""
","
","
","""event"",""trial"",""time""
""fullscreenenter"",""1"",""2057""
","""event"",""trial"",""time""
""fullscreenexit"",""3"",""27619""
","","","982","","","19","5389","3118","&#9730;","elianto","#3366ff99"," "," ","1","+10","[1833.7000000001863]","1","1","","","5389","11","1","1","win","go","0"
"pit-trial","132","1007813","0.0-15.0","battery-v0.2","","""event"",""trial"",""time""
""fullscreenenter"",""1"",""2057""
""fullscreenexit"",""3"",""27619""
","
","
","""event"",""trial"",""time""
""fullscreenenter"",""1"",""2057""
","""event"",""trial"",""time""
""fullscreenexit"",""3"",""27619""
","","","-1","","","19","5389","3118","&#9728;","elianto","#f73b6a7A","-1","-1","1","0","[]","0","1","","","5389","12","0","4","lose","no-go","0"
"pit-trial","133","1012677","0.0-16.0","battery-v0.2","","""event"",""trial"",""time""
""fullscreenenter"",""1"",""2057""
""fullscreenexit"",""3"",""27619""
","
","
","""event"",""trial"",""time""
""fullscreenenter"",""1"",""2057""
","""event"",""trial"",""time""
""fullscreenexit"",""3"",""27619""
","","","-1","","","19","5389","3118","&#9733;","elianto","#3366ff99","-1","-1","1","+10","[]","0","1","","","5389","13","2","2","win","no-go","0"
"pit-trial","134","1017542","0.0-17.0","battery-v0.2","","""event"",""trial"",""time""
""fullscreenenter"",""1"",""2057""
""fullscreenexit"",""3"",""27619""
","
","
","""event"",""trial"",""time""
""fullscreenenter"",""1"",""2057""
","""event"",""trial"",""time""
""fullscreenexit"",""3"",""27619""
","","","-1","","","19","5389","3118","&#9752;","elianto","#f73b6a7A"," ","-1","0","0","[3137.4000000003725]","1","1","","","5389","14","3","3","lose","go","1"
"pit-trial","135","1022405","0.0-18.0","battery-v0.2","","""event"",""trial"",""time""
""fullscreenenter"",""1"",""2057""
""fullscreenexit"",""3"",""27619""
","
","
","""event"",""trial"",""time""
""fullscreenenter"",""1"",""2057""
","""event"",""trial"",""time""
""fullscreenexit"",""3"",""27619""
","","","-1","","","19","5389","3118","&#9730;","elianto","#3366ff99"," ","-1","0","+10","[]","0","1","","","5389","15","1","1","win","go","1"
"pit-trial","136","1027269","0.0-19.0","battery-v0.2","","""event"",""trial"",""time""
""fullscreenenter"",""1"",""2057""
""fullscreenexit"",""3"",""27619""
","
","
","""event"",""trial"",""time""
""fullscreenenter"",""1"",""2057""
","""event"",""trial"",""time""
""fullscreenexit"",""3"",""27619""
","","","-1","","","19","5389","3118","&#9728;","elianto","#f73b6a7A","-1","-1","1","0","[]","0","1","","","5389","16","0","4","lose","no-go","0"
"pit-trial","137","1032133","0.0-20.0","battery-v0.2","","""event"",""trial"",""time""
""fullscreenenter"",""1"",""2057""
""fullscreenexit"",""3"",""27619""
","
","
","""event"",""trial"",""time""
""fullscreenenter"",""1"",""2057""
","""event"",""trial"",""time""
""fullscreenexit"",""3"",""27619""
","","","-1","","","19","5389","3118","&#9733;","elianto","#3366ff99","-1","-1","1","+10","[]","0","1","","","5389","17","2","2","win","no-go","0"
"pit-trial","138","1036997","0.0-21.0","battery-v0.2","","""event"",""trial"",""time""
""fullscreenenter"",""1"",""2057""
""fullscreenexit"",""3"",""27619""
","
","
","""event"",""trial"",""time""
""fullscreenenter"",""1"",""2057""
","""event"",""trial"",""time""
""fullscreenexit"",""3"",""27619""
","","","-1","","","19","5389","3118","&#9752;","elianto","#f73b6a7A"," ","-1","0","-10","[]","0","1","","","5389","18","3","3","lose","go","0"
"pit-trial","139","1041861","0.0-22.0","battery-v0.2","","""event"",""trial"",""time""
""fullscreenenter"",""1"",""2057""
""fullscreenexit"",""3"",""27619""
","
","
","""event"",""trial"",""time""
""fullscreenenter"",""1"",""2057""
","""event"",""trial"",""time""
""fullscreenexit"",""3"",""27619""
","","","-1","","","19","5389","3118","&#9730;","elianto","#3366ff99"," ","-1","0","0","[]","0","1","","","5389","19","1","1","win","go","0"
"pit-trial","140","1046726","0.0-23.0","battery-v0.2","","""event"",""trial"",""time""
""fullscreenenter"",""1"",""2057""
""fullscreenexit"",""3"",""27619""
","
","
","""event"",""trial"",""time""
""fullscreenenter"",""1"",""2057""
","""event"",""trial"",""time""
""fullscreenexit"",""3"",""27619""
","","","-1","","","19","5389","3118","&#9728;","elianto","#f73b6a7A","-1","-1","1","0","[]","0","1","","","5389","20","0","4","lose","no-go","0"
"pit-instructions","141","1060389","0.0-24.0","battery-v0.2","","""event"",""trial"",""time""
""fullscreenenter"",""1"",""2057""
""fullscreenexit"",""3"",""27619""
","
","
","""event"",""trial"",""time""
""fullscreenenter"",""1"",""2057""
","""event"",""trial"",""time""
""fullscreenexit"",""3"",""27619""
","","[{""page_index"":0,""viewing_time"":6684.699999999255},{""page_index"":1,""viewing_time"":6972.800000000745}]","13659.5","","","","","","","","","","","","","","","","","","","","","","","",""
"pit-trial","142","1065260","0.0-25.0","battery-v0.2","","""event"",""trial"",""time""
""fullscreenenter"",""1"",""2057""
""fullscreenexit"",""3"",""27619""
","
","
","""event"",""trial"",""time""
""fullscreenenter"",""1"",""2057""
","""event"",""trial"",""time""
""fullscreenexit"",""3"",""27619""
","","","-1","","","19","5389","3118","m","elianto","#f73b6a7A"," ","-1","0","-10","[]","0","2","","","5389","21","0","3","lose","go","0"
"pit-trial","143","1070021","0.0-26.0","battery-v0.2","","""event"",""trial"",""time""
""fullscreenenter"",""1"",""2057""
""fullscreenexit"",""3"",""27619""
","
","
","""event"",""trial"",""time""
""fullscreenenter"",""1"",""2057""
","""event"",""trial"",""time""
""fullscreenexit"",""3"",""27619""
","","","1902.1000000005588","","","19","5389","3118","r","elianto","#3366ff99","-1"," ","0","+10","[2753.899999999441]","1","2","","","5389","22","1","2","win","no-go","1"
"pit-trial","144","1073732","0.0-27.0","battery-v0.2","","""event"",""trial"",""time""
""fullscreenenter"",""1"",""2057""
""fullscreenexit"",""3"",""27619""
","
","
","""event"",""trial"",""time""
""fullscreenenter"",""1"",""2057""
","""event"",""trial"",""time""
""fullscreenexit"",""3"",""27619""
","","","848.9000000003725","","","19","5389","3118","y","elianto","#f73b6a7A"," "," ","1","-10","[1701.5]","1","2","","","5389","23","2","3","lose","go","1"
"pit-trial","145","1077501","0.0-28.0","battery-v0.2","","""event"",""trial"",""time""
""fullscreenenter"",""1"",""2057""
""fullscreenexit"",""3"",""27619""
","
","
","""event"",""trial"",""time""
""fullscreenenter"",""1"",""2057""
","""event"",""trial"",""time""
""fullscreenexit"",""3"",""27619""
","","","904.8000000007451","","","19","5389","3118","h","elianto","#f73b6a7A","-1"," ","0","0","[1757.1000000005588]","1","2","","","5389","24","3","4","lose","no-go","1"
"pit-trial","146","1081573","0.0-29.0","battery-v0.2","","""event"",""trial"",""time""
""fullscreenenter"",""1"",""2057""
""fullscreenexit"",""3"",""27619""
","
","
","""event"",""trial"",""time""
""fullscreenenter"",""1"",""2057""
","""event"",""trial"",""time""
""fullscreenexit"",""3"",""27619""
","","","1213.7000000001863","","","19","5389","3118","m","elianto","#f73b6a7A"," "," ","1","0","[2065.7000000001863]","1","2","","","5389","25","0","3","lose","go","0"
"pit-trial","147","1086437","0.0-30.0","battery-v0.2","","""event"",""trial"",""time""
""fullscreenenter"",""1"",""2057""
""fullscreenexit"",""3"",""27619""
","
","
","""event"",""trial"",""time""
""fullscreenenter"",""1"",""2057""
","""event"",""trial"",""time""
""fullscreenexit"",""3"",""27619""
","","","-1","","","19","5389","3118","y","elianto","#f73b6a7A"," ","-1","0","-10","[]","0","2","","","5389","26","2","3","lose","go","0"
"pit-trial","148","1090069","0.0-31.0","battery-v0.2","","""event"",""trial"",""time""
""fullscreenenter"",""1"",""2057""
""fullscreenexit"",""3"",""27619""
","
","
","""event"",""trial"",""time""
""fullscreenenter"",""1"",""2057""
","""event"",""trial"",""time""
""fullscreenexit"",""3"",""27619""
","","","770.0999999996275","","","19","5389","3118","h","elianto","#f73b6a7A","-1"," ","0","-10","[1621.5999999996275]","1","2","","","5389","27","3","4","lose","no-go","0"
"pit-trial","149","1094413","0.0-32.0","battery-v0.2","","""event"",""trial"",""time""
""fullscreenenter"",""1"",""2057""
""fullscreenexit"",""3"",""27619""
","
","
","""event"",""trial"",""time""
""fullscreenenter"",""1"",""2057""
","""event"",""trial"",""time""
""fullscreenexit"",""3"",""27619""
","","","1480.2000000001863","","","19","5389","3118","r","elianto","#3366ff99","-1"," ","0","+10","[2332.100000000559]","1","2","","","5389","28","1","2","win","no-go","1"
"pit-trial","150","1099277","0.0-33.0","battery-v0.2","","""event"",""trial"",""time""
""fullscreenenter"",""1"",""2057""
""fullscreenexit"",""3"",""27619""
","
","
","""event"",""trial"",""time""
""fullscreenenter"",""1"",""2057""
","""event"",""trial"",""time""
""fullscreenexit"",""3"",""27619""
","","","-1","","","19","5389","3118","h","elianto","#f73b6a7A","-1","-1","1","0","[]","0","2","","","5389","29","3","4","lose","no-go","0"
"pit-trial","151","1103653","0.0-34.0","battery-v0.2","","""event"",""trial"",""time""
""fullscreenenter"",""1"",""2057""
""fullscreenexit"",""3"",""27619""
","
","
","""event"",""trial"",""time""
""fullscreenenter"",""1"",""2057""
","""event"",""trial"",""time""
""fullscreenexit"",""3"",""27619""
","","","1516.2999999998137","","","19","5389","3118","m","elianto","#f73b6a7A"," "," ","1","0","[2366.7999999998137]","1","2","","","5389","30","0","3","lose","go","0"
"pit-trial","152","1108517","0.0-35.0","battery-v0.2","","""event"",""trial"",""time""
""fullscreenenter"",""1"",""2057""
""fullscreenexit"",""3"",""27619""
","
","
","""event"",""trial"",""time""
""fullscreenenter"",""1"",""2057""
","""event"",""trial"",""time""
""fullscreenexit"",""3"",""27619""
","","","-1","","","19","5389","3118","y","elianto","#f73b6a7A"," ","-1","0","-10","[]","0","2","","","5389","31","2","3","lose","go","0"
"pit-trial","153","1112405","0.0-36.0","battery-v0.2","","""event"",""trial"",""time""
""fullscreenenter"",""1"",""2057""
""fullscreenexit"",""3"",""27619""
","
","
","""event"",""trial"",""time""
""fullscreenenter"",""1"",""2057""
","""event"",""trial"",""time""
""fullscreenexit"",""3"",""27619""
","","","1025.7999999998137","","","19","5389","3118","r","elianto","#3366ff99","-1"," ","0","+10","[1875.6000000005588]","1","2","","","5389","32","1","2","win","no-go","1"
"pit-trial","154","1116005","0.0-37.0","battery-v0.2","","""event"",""trial"",""time""
""fullscreenenter"",""1"",""2057""
""fullscreenexit"",""3"",""27619""
","
","
","""event"",""trial"",""time""
""fullscreenenter"",""1"",""2057""
","""event"",""trial"",""time""
""fullscreenexit"",""3"",""27619""
","","","741.0999999996275","","","19","5389","3118","r","elianto","#3366ff99","-1"," ","0","0","[1592.5]","1","2","","","5389","33","1","2","win","no-go","0"
"pit-trial","155","1119765","0.0-38.0","battery-v0.2","","""event"",""trial"",""time""
""fullscreenenter"",""1"",""2057""
""fullscreenexit"",""3"",""27619""
","
","
","""event"",""trial"",""time""
""fullscreenenter"",""1"",""2057""
","""event"",""trial"",""time""
""fullscreenexit"",""3"",""27619""
","","","900","","","19","5389","3118","y","elianto","#f73b6a7A"," "," ","1","0","[1751.3999999994412]","1","2","","","5389","34","2","3","lose","go","0"
"pit-trial","156","1123429","0.0-39.0","battery-v0.2","","""event"",""trial"",""time""
""fullscreenenter"",""1"",""2057""
""fullscreenexit"",""3"",""27619""
","
","
","""event"",""trial"",""time""
""fullscreenenter"",""1"",""2057""
","""event"",""trial"",""time""
""fullscreenexit"",""3"",""27619""
","","","801.6999999992549","","","19","5389","3118","m","elianto","#f73b6a7A"," "," ","1","0","[1652.5999999996275]","1","2","","","5389","35","0","3","lose","go","0"
"pit-trial","157","1128293","0.0-40.0","battery-v0.2","","""event"",""trial"",""time""
""fullscreenenter"",""1"",""2057""
""fullscreenexit"",""3"",""27619""
","
","
","""event"",""trial"",""time""
""fullscreenenter"",""1"",""2057""
","""event"",""trial"",""time""
""fullscreenexit"",""3"",""27619""
","","","-1","","","19","5389","3118","h","elianto","#f73b6a7A","-1","-1","1","0","[]","0","2","","","5389","36","3","4","lose","no-go","0"
"pit-trial","158","1132005","0.0-41.0","battery-v0.2","","""event"",""trial"",""time""
""fullscreenenter"",""1"",""2057""
""fullscreenexit"",""3"",""27619""
","
","
","""event"",""trial"",""time""
""fullscreenenter"",""1"",""2057""
","""event"",""trial"",""time""
""fullscreenexit"",""3"",""27619""
","","","854.6999999992549","","","19","5389","3118","r","elianto","#3366ff99","-1"," ","0","0","[1704.7999999998137]","1","2","","","5389","37","1","2","win","no-go","0"
"pit-trial","159","1135501","0.0-42.0","battery-v0.2","","""event"",""trial"",""time""
""fullscreenenter"",""1"",""2057""
""fullscreenexit"",""3"",""27619""
","
","
","""event"",""trial"",""time""
""fullscreenenter"",""1"",""2057""
","""event"",""trial"",""time""
""fullscreenexit"",""3"",""27619""
","","","636.2999999998137","","","19","5389","3118","m","elianto","#f73b6a7A"," "," ","1","0","[1486.4000000003725]","1","2","","","5389","38","0","3","lose","go","0"
"pit-trial","160","1140365","0.0-43.0","battery-v0.2","","""event"",""trial"",""time""
""fullscreenenter"",""1"",""2057""
""fullscreenexit"",""3"",""27619""
","
","
","""event"",""trial"",""time""
""fullscreenenter"",""1"",""2057""
","""event"",""trial"",""time""
""fullscreenexit"",""3"",""27619""
","","","-1","","","19","5389","3118","h","elianto","#f73b6a7A","-1","-1","1","0","[]","0","2","","","5389","39","3","4","lose","no-go","0"
"pit-trial","161","1144709","0.0-44.0","battery-v0.2","","""event"",""trial"",""time""
""fullscreenenter"",""1"",""2057""
""fullscreenexit"",""3"",""27619""
","
","
","""event"",""trial"",""time""
""fullscreenenter"",""1"",""2057""
","""event"",""trial"",""time""
""fullscreenexit"",""3"",""27619""
","","","1479.0999999996275","","","19","5389","3118","y","elianto","#f73b6a7A"," "," ","1","0","[2330.2000000001863]","1","2","","","5389","40","2","3","lose","go","0"
"pit-trial","162","1149021","0.0-45.0","battery-v0.2","","""event"",""trial"",""time""
""fullscreenenter"",""1"",""2057""
""fullscreenexit"",""3"",""27619""
","
","
","""event"",""trial"",""time""
""fullscreenenter"",""1"",""2057""
","""event"",""trial"",""time""
""fullscreenexit"",""3"",""27619""
","","","1453.8999999994412","","","19","5389","3118","y","elianto","#f73b6a7A"," "," ","1","0","[2305.7000000001863]","1","2","","","5389","41","2","3","lose","go","0"
"pit-trial","163","1152749","0.0-46.0","battery-v0.2","","""event"",""trial"",""time""
""fullscreenenter"",""1"",""2057""
""fullscreenexit"",""3"",""27619""
","
","
","""event"",""trial"",""time""
""fullscreenenter"",""1"",""2057""
","""event"",""trial"",""time""
""fullscreenexit"",""3"",""27619""
","","","867.2999999998137","","","19","5389","3118","m","elianto","#f73b6a7A"," "," ","1","0","[1718.5]","1","2","","","5389","42","0","3","lose","go","0"
"pit-trial","164","1157613","0.0-47.0","battery-v0.2","","""event"",""trial"",""time""
""fullscreenenter"",""1"",""2057""
""fullscreenexit"",""3"",""27619""
","
","
","""event"",""trial"",""time""
""fullscreenenter"",""1"",""2057""
","""event"",""trial"",""time""
""fullscreenexit"",""3"",""27619""
","","","-1","","","19","5389","3118","r","elianto","#3366ff99","-1","-1","1","+10","[]","0","2","","","5389","43","1","2","win","no-go","0"
"pit-trial","165","1161829","0.0-48.0","battery-v0.2","","""event"",""trial"",""time""
""fullscreenenter"",""1"",""2057""
""fullscreenexit"",""3"",""27619""
","
","
","""event"",""trial"",""time""
""fullscreenenter"",""1"",""2057""
","""event"",""trial"",""time""
""fullscreenexit"",""3"",""27619""
","","","1350.1000000005588","","","19","5389","3118","h","elianto","#f73b6a7A","-1"," ","0","-10","[2200.600000000559]","1","2","","","5389","44","3","4","lose","no-go","0"
"pit-trial","166","1166693","0.0-49.0","battery-v0.2","","""event"",""trial"",""time""
""fullscreenenter"",""1"",""2057""
""fullscreenexit"",""3"",""27619""
","
","
","""event"",""trial"",""time""
""fullscreenenter"",""1"",""2057""
","""event"",""trial"",""time""
""fullscreenexit"",""3"",""27619""
","","","-1","","","19","5389","3118","r","elianto","#3366ff99","-1","-1","1","+10","[]","0","2","","","5389","45","1","2","win","no-go","0"
"pit-trial","167","1170533","0.0-50.0","battery-v0.2","","""event"",""trial"",""time""
""fullscreenenter"",""1"",""2057""
""fullscreenexit"",""3"",""27619""
","
","
","""event"",""trial"",""time""
""fullscreenenter"",""1"",""2057""
","""event"",""trial"",""time""
""fullscreenexit"",""3"",""27619""
","","","978.5","","","19","5389","3118","y","elianto","#f73b6a7A"," "," ","1","0","[1829.2000000001863]","1","2","","","5389","46","2","3","lose","go","0"
"pit-trial","168","1175397","0.0-51.0","battery-v0.2","","""event"",""trial"",""time""
""fullscreenenter"",""1"",""2057""
""fullscreenexit"",""3"",""27619""
","
","
","""event"",""trial"",""time""
""fullscreenenter"",""1"",""2057""
","""event"",""trial"",""time""
""fullscreenexit"",""3"",""27619""
","","","-1","","","19","5389","3118","h","elianto","#f73b6a7A","-1","-1","1","0","[]","0","2","","","5389","47","3","4","lose","no-go","0"
"pit-trial","169","1179150","0.0-52.0","battery-v0.2","","""event"",""trial"",""time""
""fullscreenenter"",""1"",""2057""
""fullscreenexit"",""3"",""27619""
","
","
","""event"",""trial"",""time""
""fullscreenenter"",""1"",""2057""
","""event"",""trial"",""time""
""fullscreenexit"",""3"",""27619""
","","","886.8999999994412","","","19","5389","3118","m","elianto","#f73b6a7A"," "," ","1","0","[1737.5]","1","2","","","5389","48","0","3","lose","go","0"
"pit-trial","170","1184020","0.0-53.0","battery-v0.2","","""event"",""trial"",""time""
""fullscreenenter"",""1"",""2057""
""fullscreenexit"",""3"",""27619""
","
","
","""event"",""trial"",""time""
""fullscreenenter"",""1"",""2057""
","""event"",""trial"",""time""
""fullscreenexit"",""3"",""27619""
","","","-1","","","19","5389","3118","h","elianto","#f73b6a7A","-1","-1","1","0","[]","0","2","","","5389","49","3","4","lose","no-go","0"
"pit-trial","171","1188884","0.0-54.0","battery-v0.2","","""event"",""trial"",""time""
""fullscreenenter"",""1"",""2057""
""fullscreenexit"",""3"",""27619""
","
","
","""event"",""trial"",""time""
""fullscreenenter"",""1"",""2057""
","""event"",""trial"",""time""
""fullscreenexit"",""3"",""27619""
","","","-1","","","19","5389","3118","r","elianto","#3366ff99","-1","-1","1","+10","[]","0","2","","","5389","50","1","2","win","no-go","0"
"pit-trial","172","1193749","0.0-55.0","battery-v0.2","","""event"",""trial"",""time""
""fullscreenenter"",""1"",""2057""
""fullscreenexit"",""3"",""27619""
","
","
","""event"",""trial"",""time""
""fullscreenenter"",""1"",""2057""
","""event"",""trial"",""time""
""fullscreenexit"",""3"",""27619""
","","","-1","","","19","5389","3118","y","elianto","#f73b6a7A"," ","-1","0","-10","[]","0","2","","","5389","51","2","3","lose","go","0"
"pit-trial","173","1198445","0.0-56.0","battery-v0.2","","""event"",""trial"",""time""
""fullscreenenter"",""1"",""2057""
""fullscreenexit"",""3"",""27619""
","
","
","""event"",""trial"",""time""
""fullscreenenter"",""1"",""2057""
","""event"",""trial"",""time""
""fullscreenexit"",""3"",""27619""
","","","1836.7999999998137","","","19","5389","3118","m","elianto","#f73b6a7A"," "," ","1","0","[2688.0999999996275]","1","2","","","5389","52","0","3","lose","go","0"
"pit-trial","174","1203309","0.0-57.0","battery-v0.2","","""event"",""trial"",""time""
""fullscreenenter"",""1"",""2057""
""fullscreenexit"",""3"",""27619""
","
","
","""event"",""trial"",""time""
""fullscreenenter"",""1"",""2057""
","""event"",""trial"",""time""
""fullscreenexit"",""3"",""27619""
","","","-1","","","19","5389","3118","h","elianto","#f73b6a7A","-1","-1","1","0","[]","0","2","","","5389","53","3","4","lose","no-go","0"
"pit-trial","175","1206749","0.0-58.0","battery-v0.2","","""event"",""trial"",""time""
""fullscreenenter"",""1"",""2057""
""fullscreenexit"",""3"",""27619""
","
","
","""event"",""trial"",""time""
""fullscreenenter"",""1"",""2057""
","""event"",""trial"",""time""
""fullscreenexit"",""3"",""27619""
","","","577.4000000003725","","","19","5389","3118","y","elianto","#f73b6a7A"," "," ","1","0","[1427.4000000003725]","1","2","","","5389","54","2","3","lose","go","0"
"pit-trial","176","1210797","0.0-59.0","battery-v0.2","","""event"",""trial"",""time""
""fullscreenenter"",""1"",""2057""
""fullscreenexit"",""3"",""27619""
","
","
","""event"",""trial"",""time""
""fullscreenenter"",""1"",""2057""
","""event"",""trial"",""time""
""fullscreenexit"",""3"",""27619""
","","","1189","","","19","5389","3118","m","elianto","#f73b6a7A"," "," ","1","-10","[2042.5]","1","2","","","5389","55","0","3","lose","go","1"
"pit-trial","177","1215661","0.0-60.0","battery-v0.2","","""event"",""trial"",""time""
""fullscreenenter"",""1"",""2057""
""fullscreenexit"",""3"",""27619""
","
","
","""event"",""trial"",""time""
""fullscreenenter"",""1"",""2057""
","""event"",""trial"",""time""
""fullscreenexit"",""3"",""27619""
","","","-1","","","19","5389","3118","r","elianto","#3366ff99","-1","-1","1","0","[]","0","2","","","5389","56","1","2","win","no-go","1"
"pit-trial","178","1219461","0.0-61.0","battery-v0.2","","""event"",""trial"",""time""
""fullscreenenter"",""1"",""2057""
""fullscreenexit"",""3"",""27619""
","
","
","""event"",""trial"",""time""
""fullscreenenter"",""1"",""2057""
","""event"",""trial"",""time""
""fullscreenexit"",""3"",""27619""
","","","937.7999999998137","","","19","5389","3118","z","elianto","#3366ff99"," "," ","1","+10","[1789.5999999996275]","1","2","","","5389","57","4","1","win","go","0"
"pit-trial","179","1223469","0.0-62.0","battery-v0.2","","""event"",""trial"",""time""
""fullscreenenter"",""1"",""2057""
""fullscreenexit"",""3"",""27619""
","
","
","""event"",""trial"",""time""
""fullscreenenter"",""1"",""2057""
","""event"",""trial"",""time""
""fullscreenexit"",""3"",""27619""
","","","1139.8999999994412","","","19","5389","3118","y","elianto","#f73b6a7A"," "," ","1","-10","[1994.5999999996275]","1","2","","","5389","58","2","3","lose","go","1"
"pit-trial","180","1228333","0.0-63.0","battery-v0.2","","""event"",""trial"",""time""
""fullscreenenter"",""1"",""2057""
""fullscreenexit"",""3"",""27619""
","
","
","""event"",""trial"",""time""
""fullscreenenter"",""1"",""2057""
","""event"",""trial"",""time""
""fullscreenexit"",""3"",""27619""
","","","-1","","","19","5389","3118","h","elianto","#f73b6a7A","-1","-1","1","0","[]","0","2","","","5389","59","3","4","lose","no-go","0"
"pit-trial","181","1232229","0.0-64.0","battery-v0.2","","""event"",""trial"",""time""
""fullscreenenter"",""1"",""2057""
""fullscreenexit"",""3"",""27619""
","
","
","""event"",""trial"",""time""
""fullscreenenter"",""1"",""2057""
","""event"",""trial"",""time""
""fullscreenexit"",""3"",""27619""
","","","1036","","","19","5389","3118","m","elianto","#f73b6a7A"," "," ","1","0","[1887.7999999998137]","1","2","","","5389","60","0","3","lose","go","0"
"pit-trial","182","1237093","0.0-65.0","battery-v0.2","","""event"",""trial"",""time""
""fullscreenenter"",""1"",""2057""
""fullscreenexit"",""3"",""27619""
","
","
","""event"",""trial"",""time""
""fullscreenenter"",""1"",""2057""
","""event"",""trial"",""time""
""fullscreenexit"",""3"",""27619""
","","","-1","","","19","5389","3118","r","elianto","#3366ff99","-1","-1","1","0","[]","0","2","","","5389","61","1","2","win","no-go","1"
"pit-trial","183","1241509","0.0-66.0","battery-v0.2","","""event"",""trial"",""time""
""fullscreenenter"",""1"",""2057""
""fullscreenexit"",""3"",""27619""
","
","
","""event"",""trial"",""time""
""fullscreenenter"",""1"",""2057""
","""event"",""trial"",""time""
""fullscreenexit"",""3"",""27619""
","","","1551.2000000001863","","","19","5389","3118","z","elianto","#3366ff99"," "," ","1","+10","[2402.7000000001863]","1","2","","","5389","62","4","1","win","go","0"
"pit-trial","184","1245149","0.0-67.0","battery-v0.2","","""event"",""trial"",""time""
""fullscreenenter"",""1"",""2057""
""fullscreenexit"",""3"",""27619""
","
","
","""event"",""trial"",""time""
""fullscreenenter"",""1"",""2057""
","""event"",""trial"",""time""
""fullscreenexit"",""3"",""27619""
","","","780.7999999998137","","","19","5389","3118","y","elianto","#f73b6a7A"," "," ","1","0","[1632.2000000001863]","1","2","","","5389","63","2","3","lose","go","0"
"pit-trial","185","1250013","0.0-68.0","battery-v0.2","","""event"",""trial"",""time""
""fullscreenenter"",""1"",""2057""
""fullscreenexit"",""3"",""27619""
","
","
","""event"",""trial"",""time""
""fullscreenenter"",""1"",""2057""
","""event"",""trial"",""time""
""fullscreenexit"",""3"",""27619""
","","","-1","","","19","5389","3118","h","elianto","#f73b6a7A","-1","-1","1","0","[]","0","2","","","5389","64","3","4","lose","no-go","0"
"pit-trial","186","1254877","0.0-69.0","battery-v0.2","","""event"",""trial"",""time""
""fullscreenenter"",""1"",""2057""
""fullscreenexit"",""3"",""27619""
","
","
","""event"",""trial"",""time""
""fullscreenenter"",""1"",""2057""
","""event"",""trial"",""time""
""fullscreenexit"",""3"",""27619""
","","","-1","","","19","5389","3118","h","elianto","#f73b6a7A","-1","-1","1","0","[]","0","2","","","5389","65","3","4","lose","no-go","0"
"pit-trial","187","1259741","0.0-70.0","battery-v0.2","","""event"",""trial"",""time""
""fullscreenenter"",""1"",""2057""
""fullscreenexit"",""3"",""27619""
","
","
","""event"",""trial"",""time""
""fullscreenenter"",""1"",""2057""
","""event"",""trial"",""time""
""fullscreenexit"",""3"",""27619""
","","","-1","","","19","5389","3118","r","elianto","#3366ff99","-1","-1","1","+10","[]","0","2","","","5389","66","1","2","win","no-go","0"
"pit-trial","188","1263557","0.0-71.0","battery-v0.2","","""event"",""trial"",""time""
""fullscreenenter"",""1"",""2057""
""fullscreenexit"",""3"",""27619""
","
","
","""event"",""trial"",""time""
""fullscreenenter"",""1"",""2057""
","""event"",""trial"",""time""
""fullscreenexit"",""3"",""27619""
","","","956.2000000001863","","","19","5389","3118","c","elianto","#3366ff99","-1"," ","0","0","[1806.6000000005588]","1","2","","","5389","67","5","2","win","no-go","0"
"pit-trial","189","1267725","0.0-72.0","battery-v0.2","","""event"",""trial"",""time""
""fullscreenenter"",""1"",""2057""
""fullscreenexit"",""3"",""27619""
","
","
","""event"",""trial"",""time""
""fullscreenenter"",""1"",""2057""
","""event"",""trial"",""time""
""fullscreenexit"",""3"",""27619""
","","","1301.7999999998137","","","19","5389","3118","z","elianto","#3366ff99"," "," ","1","+10","[2156.5999999996275]","1","2","","","5389","68","4","1","win","go","0"
"pit-trial","190","1271173","0.0-73.0","battery-v0.2","","""event"",""trial"",""time""
""fullscreenenter"",""1"",""2057""
""fullscreenexit"",""3"",""27619""
","
","
","""event"",""trial"",""time""
""fullscreenenter"",""1"",""2057""
","""event"",""trial"",""time""
""fullscreenexit"",""3"",""27619""
","","","584.9000000003725","","","19","5389","3118","z","elianto","#3366ff99"," "," ","1","+10","[1435.7000000001863]","1","2","","","5389","69","4","1","win","go","0"
"pit-trial","191","1276037","0.0-74.0","battery-v0.2","","""event"",""trial"",""time""
""fullscreenenter"",""1"",""2057""
""fullscreenexit"",""3"",""27619""
","
","
","""event"",""trial"",""time""
""fullscreenenter"",""1"",""2057""
","""event"",""trial"",""time""
""fullscreenexit"",""3"",""27619""
","","","-1","","","19","5389","3118","r","elianto","#3366ff99","-1","-1","1","+10","[]","0","2","","","5389","70","1","2","win","no-go","0"
"pit-trial","192","1279629","0.0-75.0","battery-v0.2","","""event"",""trial"",""time""
""fullscreenenter"",""1"",""2057""
""fullscreenexit"",""3"",""27619""
","
","
","""event"",""trial"",""time""
""fullscreenenter"",""1"",""2057""
","""event"",""trial"",""time""
""fullscreenexit"",""3"",""27619""
","","","732","","","19","5389","3118","c","elianto","#3366ff99","-1"," ","0","+10","[1582.8999999994412]","1","2","","","5389","71","5","2","win","no-go","1"
"pit-trial","193","1284453","0.0-76.0","battery-v0.2","","""event"",""trial"",""time""
""fullscreenenter"",""1"",""2057""
""fullscreenexit"",""3"",""27619""
","
","
","""event"",""trial"",""time""
""fullscreenenter"",""1"",""2057""
","""event"",""trial"",""time""
""fullscreenexit"",""3"",""27619""
","","","1960.7999999998137","","","19","5389","3118","y","elianto","#f73b6a7A"," "," ","1","0","[2811.800000000745]","1","2","","","5389","72","2","3","lose","go","0"
"pit-trial","194","1289317","0.0-77.0","battery-v0.2","","""event"",""trial"",""time""
""fullscreenenter"",""1"",""2057""
""fullscreenexit"",""3"",""27619""
","
","
","""event"",""trial"",""time""
""fullscreenenter"",""1"",""2057""
","""event"",""trial"",""time""
""fullscreenexit"",""3"",""27619""
","","","-1","","","19","5389","3118","h","elianto","#f73b6a7A","-1","-1","1","0","[]","0","2","","","5389","73","3","4","lose","no-go","0"
"pit-trial","195","1292926","0.0-78.0","battery-v0.2","","""event"",""trial"",""time""
""fullscreenenter"",""1"",""2057""
""fullscreenexit"",""3"",""27619""
","
","
","""event"",""trial"",""time""
""fullscreenenter"",""1"",""2057""
","""event"",""trial"",""time""
""fullscreenexit"",""3"",""27619""
","","","750.2000000001863","","","19","5389","3118","z","elianto","#3366ff99"," "," ","1","+10","[1600.800000000745]","1","2","","","5389","74","4","1","win","go","0"
"pit-trial","196","1296437","0.0-79.0","battery-v0.2","","""event"",""trial"",""time""
""fullscreenenter"",""1"",""2057""
""fullscreenexit"",""3"",""27619""
","
","
","""event"",""trial"",""time""
""fullscreenenter"",""1"",""2057""
","""event"",""trial"",""time""
""fullscreenexit"",""3"",""27619""
","","","648.7999999998137","","","19","5389","3118","c","elianto","#3366ff99","-1"," ","0","0","[1501.7999999998137]","1","2","","","5389","75","5","2","win","no-go","0"
"pit-trial","197","1301302","0.0-80.0","battery-v0.2","","""event"",""trial"",""time""
""fullscreenenter"",""1"",""2057""
""fullscreenexit"",""3"",""27619""
","
","
","""event"",""trial"",""time""
""fullscreenenter"",""1"",""2057""
","""event"",""trial"",""time""
""fullscreenexit"",""3"",""27619""
","","","-1","","","19","5389","3118","r","elianto","#3366ff99","-1","-1","1","0","[]","0","2","","","5389","76","1","2","win","no-go","1"
"pit-trial","198","1305236","0.0-81.0","battery-v0.2","","""event"",""trial"",""time""
""fullscreenenter"",""1"",""2057""
""fullscreenexit"",""3"",""27619""
","
","
","""event"",""trial"",""time""
""fullscreenenter"",""1"",""2057""
","""event"",""trial"",""time""
""fullscreenexit"",""3"",""27619""
","","","1071.2999999998137","","","19","5389","3118","z","elianto","#3366ff99"," "," ","1","+10","[1921.4000000003725]","1","2","","","5389","77","4","1","win","go","0"
"pit-trial","199","1308693","0.0-82.0","battery-v0.2","","""event"",""trial"",""time""
""fullscreenenter"",""1"",""2057""
""fullscreenexit"",""3"",""27619""
","
","
","""event"",""trial"",""time""
""fullscreenenter"",""1"",""2057""
","""event"",""trial"",""time""
""fullscreenexit"",""3"",""27619""
","","","594.8000000007451","","","19","5389","3118","z","elianto","#3366ff99"," "," ","1","+10","[1448]","1","2","","","5389","78","4","1","win","go","0"
"pit-trial","200","1312100","0.0-83.0","battery-v0.2","","""event"",""trial"",""time""
""fullscreenenter"",""1"",""2057""
""fullscreenexit"",""3"",""27619""
","
","
","""event"",""trial"",""time""
""fullscreenenter"",""1"",""2057""
","""event"",""trial"",""time""
""fullscreenexit"",""3"",""27619""
","","","547.1000000005588","","","19","5389","3118","c","elianto","#3366ff99","-1"," ","0","0","[1399]","1","2","","","5389","79","5","2","win","no-go","0"
"pit-trial","201","1316964","0.0-84.0","battery-v0.2","","""event"",""trial"",""time""
""fullscreenenter"",""1"",""2057""
""fullscreenexit"",""3"",""27619""
","
","
","""event"",""trial"",""time""
""fullscreenenter"",""1"",""2057""
","""event"",""trial"",""time""
""fullscreenexit"",""3"",""27619""
","","","-1","","","19","5389","3118","h","elianto","#f73b6a7A","-1","-1","1","0","[]","0","2","","","5389","80","3","4","lose","no-go","0"
"pit-trial","202","1321829","0.0-85.0","battery-v0.2","","""event"",""trial"",""time""
""fullscreenenter"",""1"",""2057""
""fullscreenexit"",""3"",""27619""
","
","
","""event"",""trial"",""time""
""fullscreenenter"",""1"",""2057""
","""event"",""trial"",""time""
""fullscreenexit"",""3"",""27619""
","","","-1","","","19","5389","3118","h","elianto","#f73b6a7A","-1","-1","1","-10","[]","0","2","","","5389","81","3","4","lose","no-go","1"
"pit-trial","203","1325397","0.0-86.0","battery-v0.2","","""event"",""trial"",""time""
""fullscreenenter"",""1"",""2057""
""fullscreenexit"",""3"",""27619""
","
","
","""event"",""trial"",""time""
""fullscreenenter"",""1"",""2057""
","""event"",""trial"",""time""
""fullscreenexit"",""3"",""27619""
","","","707.6000000005588","","","19","5389","3118","c","elianto","#3366ff99","-1"," ","0","+10","[1560.9000000003725]","1","2","","","5389","82","5","2","win","no-go","1"
"pit-trial","204","1329356","0.0-87.0","battery-v0.2","","""event"",""trial"",""time""
""fullscreenenter"",""1"",""2057""
""fullscreenexit"",""3"",""27619""
","
","
","""event"",""trial"",""time""
""fullscreenenter"",""1"",""2057""
","""event"",""trial"",""time""
""fullscreenexit"",""3"",""27619""
","","","1098.8999999994412","","","19","5389","3118","t","elianto","#f73b6a7A","-1"," ","0","-10","[1950.4000000003725]","1","2","","","5389","83","7","4","lose","no-go","0"
"pit-trial","205","1332917","0.0-88.0","battery-v0.2","","""event"",""trial"",""time""
""fullscreenenter"",""1"",""2057""
""fullscreenexit"",""3"",""27619""
","
","
","""event"",""trial"",""time""
""fullscreenenter"",""1"",""2057""
","""event"",""trial"",""time""
""fullscreenexit"",""3"",""27619""
","","","698.3000000007451","","","19","5389","3118","z","elianto","#3366ff99"," "," ","1","+10","[1549]","1","2","","","5389","84","4","1","win","go","0"
"pit-trial","206","1336429","0.0-89.0","battery-v0.2","","""event"",""trial"",""time""
""fullscreenenter"",""1"",""2057""
""fullscreenexit"",""3"",""27619""
","
","
","""event"",""trial"",""time""
""fullscreenenter"",""1"",""2057""
","""event"",""trial"",""time""
""fullscreenexit"",""3"",""27619""
","","","647.6000000005588","","","19","5389","3118","c","elianto","#3366ff99","-1"," ","0","0","[1499.2000000001863]","1","2","","","5389","85","5","2","win","no-go","0"
"pit-trial","207","1340045","0.0-90.0","battery-v0.2","","""event"",""trial"",""time""
""fullscreenenter"",""1"",""2057""
""fullscreenexit"",""3"",""27619""
","
","
","""event"",""trial"",""time""
""fullscreenenter"",""1"",""2057""
","""event"",""trial"",""time""
""fullscreenexit"",""3"",""27619""
","","","758.5","","","19","5389","3118","b","elianto","#f73b6a7A"," "," ","1","-10","[1610]","1","2","","","5389","86","6","3","lose","go","1"
"pit-trial","208","1344909","0.0-91.0","battery-v0.2","","""event"",""trial"",""time""
""fullscreenenter"",""1"",""2057""
""fullscreenexit"",""3"",""27619""
","
","
","""event"",""trial"",""time""
""fullscreenenter"",""1"",""2057""
","""event"",""trial"",""time""
""fullscreenexit"",""3"",""27619""
","","","-1","","","19","5389","3118","t","elianto","#f73b6a7A","-1","-1","1","0","[]","0","2","","","5389","87","7","4","lose","no-go","0"
"pit-trial","209","1348605","0.0-92.0","battery-v0.2","","""event"",""trial"",""time""
""fullscreenenter"",""1"",""2057""
""fullscreenexit"",""3"",""27619""
","
","
","""event"",""trial"",""time""
""fullscreenenter"",""1"",""2057""
","""event"",""trial"",""time""
""fullscreenexit"",""3"",""27619""
","","","833.0999999996275","","","19","5389","3118","z","elianto","#3366ff99"," "," ","1","+10","[1684.7000000001863]","1","2","","","5389","88","4","1","win","go","0"
"pit-trial","210","1353469","0.0-93.0","battery-v0.2","","""event"",""trial"",""time""
""fullscreenenter"",""1"",""2057""
""fullscreenexit"",""3"",""27619""
","
","
","""event"",""trial"",""time""
""fullscreenenter"",""1"",""2057""
","""event"",""trial"",""time""
""fullscreenexit"",""3"",""27619""
