"trial_type","trial_index","time_elapsed","internal_node_id","task_version","subject_id","interactions","blur_events","focus_events","fullscreenenter_events","fullscreenexit_events","success","view_history","rt","responses","num_errors","age","subject","participantId","rune","rune_set","hex","correct","choice","accuracy","outcome","keys","total_keys","block","practice","value","sub","trial","stimulus","robot","valence","action","sham"
"pavlovia","0","11","0.0-0.0","battery-v0.2","","""event"",""trial"",""time""
""fullscreenenter"",""1"",""4745""
","
","
","""event"",""trial"",""time""
""fullscreenenter"",""1"",""4745""
","
","","","","","","","","","","","","","","","","","","","","","","","","","","",""
"fullscreen","1","5707","0.0-1.0","battery-v0.2","","""event"",""trial"",""time""
""fullscreenenter"",""1"",""4745""
","
","
","""event"",""trial"",""time""
""fullscreenenter"",""1"",""4745""
","
","true","","","","","","","","","","","","","","","","","","","","","","","","","",""
"pit-instructions","2","11231","0.0-2.0-0.0","battery-v0.2","","""event"",""trial"",""time""
""fullscreenenter"",""1"",""4745""
","
","
","""event"",""trial"",""time""
""fullscreenenter"",""1"",""4745""
","
","","[{""page_index"":0,""viewing_time"":5516.39999961853}]","5516.89999961853","","","","","","","","","","","","","","","","","","","","","","","",""
"pit-comprehension","3","14408","0.0-2.0-1.0-0.0","battery-v0.2","","""event"",""trial"",""time""
""fullscreenenter"",""1"",""4745""
","
","
","""event"",""trial"",""time""
""fullscreenenter"",""1"",""4745""
","
","","","3169.699998855591","[""shark""]","0","18","16362","6127","","","","","","","","","","","","","","","","","","",""
"pit-instructions","4","16139","0.0-2.0-1.0-1.0","battery-v0.2","","""event"",""trial"",""time""
""fullscreenenter"",""1"",""4745""
","
","
","""event"",""trial"",""time""
""fullscreenenter"",""1"",""4745""
","
","","[{""page_index"":0,""viewing_time"":1651.8999996185303}]","1653","","","","","","","","","","","","","","","","","","","","","","","",""
"pit-comprehension","5","18553","0.0-2.0-2.0-0.0","battery-v0.2","","""event"",""trial"",""time""
""fullscreenenter"",""1"",""4745""
","
","
","""event"",""trial"",""time""
""fullscreenenter"",""1"",""4745""
","
","","","2406.7999992370605","[""tiger""]","0","18","16362","6127","","","","","","","","","","","","","","","","","","",""
"pit-instructions","6","20665","0.0-2.0-2.0-1.0","battery-v0.2","","""event"",""trial"",""time""
""fullscreenenter"",""1"",""4745""
","
","
","""event"",""trial"",""time""
""fullscreenenter"",""1"",""4745""
","
","","[{""page_index"":0,""viewing_time"":2105}]","2105.800001144409","","","","","","","","","","","","","","","","","","","","","","","",""
"pit-instructions","7","144024","0.0-2.0-3.0","battery-v0.2","","""event"",""trial"",""time""
""fullscreenenter"",""1"",""4745""
","
","
","""event"",""trial"",""time""
""fullscreenenter"",""1"",""4745""
","
","","[{""page_index"":0,""viewing_time"":10254.29999923706},{""page_index"":1,""viewing_time"":24592},{""page_index"":2,""viewing_time"":7101.60000038147},{""page_index"":3,""viewing_time"":6607.5},{""page_index"":4,""viewing_time"":5299.60000038147},{""page_index"":5,""viewing_time"":6053.10000038147},{""page_index"":6,""viewing_time"":9044.79999923706},{""page_index"":7,""viewing_time"":7467.60000038147},{""page_index"":8,""viewing_time"":8683.60000038147},{""page_index"":9,""viewing_time"":8699.29999923706},{""page_index"":10,""viewing_time"":8262.39999961853},{""page_index"":11,""viewing_time"":8138.10000038147},{""page_index"":12,""viewing_time"":6712.60000038147},{""page_index"":13,""viewing_time"":6437.699998855591}]","123355.19999885559","","","","","","","","","","","","","","","","","","","","","","","",""
"pit-trial","8","147802","0.0-2.0-4.0-0.0","battery-v0.2","","""event"",""trial"",""time""
""fullscreenenter"",""1"",""4745""
","
","
","""event"",""trial"",""time""
""fullscreenenter"",""1"",""4745""
","
","","","901.8999996185303","","","18","16362","6127","&#9784;","elianto","#FFFFF080"," "," ","1","&#10004","[1758.5]","1","0","0","","","","","","","",""
"pit-trial","9","151697","0.0-2.0-4.1-0.1","battery-v0.2","","""event"",""trial"",""time""
""fullscreenenter"",""1"",""4745""
","
","
","""event"",""trial"",""time""
""fullscreenenter"",""1"",""4745""
","
","","","1027.5","","","18","16362","6127","&#9784;","elianto","#FFFFF080"," "," ","1","&#10004","[1884.2000007629395]","1","0","0","","","","","","","",""
"pit-trial","10","155405","0.0-2.0-4.2-0.2","battery-v0.2","","""event"",""trial"",""time""
""fullscreenenter"",""1"",""4745""
","
","
","""event"",""trial"",""time""
""fullscreenenter"",""1"",""4745""
","
","","","826.6000003814697","","","18","16362","6127","&#9784;","elianto","#FFFFF080"," "," ","1","&#10004","[1685.2999992370605]","1","0","0","","","","","","","",""
"pit-trial","11","159417","0.0-2.0-4.3-0.3","battery-v0.2","","""event"",""trial"",""time""
""fullscreenenter"",""1"",""4745""
","
","
","""event"",""trial"",""time""
""fullscreenenter"",""1"",""4745""
","
","","","1145.599998474121","","","18","16362","6127","&#9784;","elianto","#FFFFF080"," "," ","1","&#10004","[1998.400001525879]","1","0","0","","","","","","","",""
"pit-trial","12","163266","0.0-2.0-4.4-0.4","battery-v0.2","","""event"",""trial"",""time""
""fullscreenenter"",""1"",""4745""
","
","
","""event"",""trial"",""time""
""fullscreenenter"",""1"",""4745""
","
","","","973.7999992370605","","","18","16362","6127","&#9784;","elianto","#FFFFF080"," "," ","1","&#10004","[1837.3000011444092]","1","0","0","","","","","","","",""
"pit-instructions","13","198508","0.0-2.0-5.0","battery-v0.2","","""event"",""trial"",""time""
""fullscreenenter"",""1"",""4745""
","
","
","""event"",""trial"",""time""
""fullscreenenter"",""1"",""4745""
","
","","[{""page_index"":0,""viewing_time"":8375.19999885559},{""page_index"":1,""viewing_time"":13957.10000038147},{""page_index"":2,""viewing_time"":5909.89999961853},{""page_index"":3,""viewing_time"":6986.900001525879}]","35230","","","","","","","","","","","","","","","","","","","","","","","",""
"pit-trial","14","203377","0.0-2.0-6.0-0.0","battery-v0.2","","""event"",""trial"",""time""
""fullscreenenter"",""1"",""4745""
","
","
","""event"",""trial"",""time""
""fullscreenenter"",""1"",""4745""
","
","","","-1","","","18","16362","6127","&#9854;","elianto","#FFFFF080","-1","-1","1","&#10004","[]","0","0","1","","","","","","","",""
"pit-trial","15","208258","0.0-2.0-6.1-0.1","battery-v0.2","","""event"",""trial"",""time""
""fullscreenenter"",""1"",""4745""
","
","
","""event"",""trial"",""time""
""fullscreenenter"",""1"",""4745""
","
","","","-1","","","18","16362","6127","&#9854;","elianto","#FFFFF080","-1","-1","1","&#10004","[]","0","0","1","","","","","","","",""
"pit-trial","16","213132","0.0-2.0-6.2-0.2","battery-v0.2","","""event"",""trial"",""time""
""fullscreenenter"",""1"",""4745""
","
","
","""event"",""trial"",""time""
""fullscreenenter"",""1"",""4745""
","
","","","-1","","","18","16362","6127","&#9854;","elianto","#FFFFF080","-1","-1","1","&#10004","[]","0","0","1","","","","","","","",""
"pit-trial","17","218007","0.0-2.0-6.3-0.3","battery-v0.2","","""event"",""trial"",""time""
""fullscreenenter"",""1"",""4745""
","
","
","""event"",""trial"",""time""
""fullscreenenter"",""1"",""4745""
","
","","","-1","","","18","16362","6127","&#9854;","elianto","#FFFFF080","-1","-1","1","&#10004","[]","0","0","1","","","","","","","",""
"pit-trial","18","222885","0.0-2.0-6.4-0.4","battery-v0.2","","""event"",""trial"",""time""
""fullscreenenter"",""1"",""4745""
","
","
","""event"",""trial"",""time""
""fullscreenenter"",""1"",""4745""
","
","","","-1","","","18","16362","6127","&#9854;","elianto","#FFFFF080","-1","-1","1","&#10004","[]","0","0","1","","","","","","","",""
"pit-instructions","19","396623","0.0-2.0-7.0","battery-v0.2","","""event"",""trial"",""time""
""fullscreenenter"",""1"",""4745""
","
","
","""event"",""trial"",""time""
""fullscreenenter"",""1"",""4745""
","
","","[{""page_index"":0,""viewing_time"":6770.800001144409},{""page_index"":1,""viewing_time"":9675.5},{""page_index"":2,""viewing_time"":8211},{""page_index"":3,""viewing_time"":10354.10000038147},{""page_index"":4,""viewing_time"":8709.69999885559},{""page_index"":5,""viewing_time"":9941},{""page_index"":6,""viewing_time"":6999.800001144409},{""page_index"":7,""viewing_time"":18593.59999847412},{""page_index"":8,""viewing_time"":10837.30000114441},{""page_index"":9,""viewing_time"":12198.69999885559},{""page_index"":10,""viewing_time"":10100.60000038147},{""page_index"":11,""viewing_time"":6457.300001144409},{""page_index"":12,""viewing_time"":8722.5},{""page_index"":13,""viewing_time"":9951.5},{""page_index"":14,""viewing_time"":9657},{""page_index"":15,""viewing_time"":9717.19999885559},{""page_index"":16,""viewing_time"":7835.700000762939},{""page_index"":17,""viewing_time"":8998.60000038147}]","173733.10000038147","","","","","","","","","","","","","","","","","","","","","","","",""
"pit-trial","20","400403","0.0-2.0-8.0-0.0","battery-v0.2","","""event"",""trial"",""time""
""fullscreenenter"",""1"",""4745""
","
","
","""event"",""trial"",""time""
""fullscreenenter"",""1"",""4745""
","
","","","910.3999996185303","","","18","16362","6127","&#9776;","elianto","#3366ff99"," "," ","1","+10","[1764.5]","1","0","1","","","","","","","",""
"pit-trial","21","404160","0.0-2.0-8.0-1.0","battery-v0.2","","""event"",""trial"",""time""
""fullscreenenter"",""1"",""4745""
","
","
","""event"",""trial"",""time""
""fullscreenenter"",""1"",""4745""
","
","","","876.7000007629395","","","18","16362","6127","&#9776;","elianto","#3366ff99"," "," ","1","+10","[1738.2999992370605]","1","0","1","","","","","","","",""
"pit-trial","22","407760","0.0-2.0-8.0-2.0","battery-v0.2","","""event"",""trial"",""time""
""fullscreenenter"",""1"",""4745""
","
","
","""event"",""trial"",""time""
""fullscreenenter"",""1"",""4745""
","
","","","730.7000007629395","","","18","16362","6127","&#9776;","elianto","#3366ff99"," "," ","1","+10","[1581.7000007629395]","1","0","1","","","","","","","",""
"pit-trial","23","411625","0.0-2.0-8.0-3.0","battery-v0.2","","""event"",""trial"",""time""
""fullscreenenter"",""1"",""4745""
","
","
","""event"",""trial"",""time""
""fullscreenenter"",""1"",""4745""
","
","","","991.2000007629395","","","18","16362","6127","&#9776;","elianto","#3366ff99"," "," ","1","0","[1847.6000003814697]","1","0","1","","","","","","","",""
"pit-trial","24","415450","0.0-2.0-8.0-4.0","battery-v0.2","","""event"",""trial"",""time""
""fullscreenenter"",""1"",""4745""
","
","
","""event"",""trial"",""time""
""fullscreenenter"",""1"",""4745""
","
","","","964.2999992370605","","","18","16362","6127","&#9776;","elianto","#3366ff99"," "," ","1","+10","[1818.7999992370605]","1","0","1","","","","","","","",""
"pit-trial","25","420310","0.0-2.0-8.1-0.1","battery-v0.2","","""event"",""trial"",""time""
""fullscreenenter"",""1"",""4745""
","
","
","""event"",""trial"",""time""
""fullscreenenter"",""1"",""4745""
","
","","","-1","","","18","16362","6127","&#9776;","elianto","#3366ff99"," ","-1","0","0","[3047.5]","1","0","1","","","","","","","",""
"pit-trial","26","424135","0.0-2.0-8.1-1.1","battery-v0.2","","""event"",""trial"",""time""
""fullscreenenter"",""1"",""4745""
","
","
","""event"",""trial"",""time""
""fullscreenenter"",""1"",""4745""
","
","","","953.6999988555908","","","18","16362","6127","&#9776;","elianto","#3366ff99"," "," ","1","+10","[1808.6000003814697]","1","0","1","","","","","","","",""
"pit-trial","27","428957","0.0-2.0-8.1-2.1","battery-v0.2","","""event"",""trial"",""time""
""fullscreenenter"",""1"",""4745""
","
","
","""event"",""trial"",""time""
""fullscreenenter"",""1"",""4745""
","
","","","1961.6000003814697","","","18","16362","6127","&#9776;","elianto","#3366ff99"," "," ","1","+10","[2813.3999996185303]","1","0","1","","","","","","","",""
"pit-trial","28","433200","0.0-2.0-8.1-3.1","battery-v0.2","","""event"",""trial"",""time""
""fullscreenenter"",""1"",""4745""
","
","
","""event"",""trial"",""time""
""fullscreenenter"",""1"",""4745""
","
","","","1378.6000003814697","","","18","16362","6127","&#9776;","elianto","#3366ff99"," "," ","1","0","[2232.400001525879]","1","0","1","","","","","","","",""
"pit-trial","29","436747","0.0-2.0-8.1-4.1","battery-v0.2","","""event"",""trial"",""time""
""fullscreenenter"",""1"",""4745""
","
","
","""event"",""trial"",""time""
""fullscreenenter"",""1"",""4745""
","
","","","686.6999988555908","","","18","16362","6127","&#9776;","elianto","#3366ff99"," "," ","1","+10","[1537.2999992370605]","1","0","1","","","","","","","",""
"pit-trial","30","440153","0.0-2.0-8.2-0.2","battery-v0.2","","""event"",""trial"",""time""
""fullscreenenter"",""1"",""4745""
","
","
","""event"",""trial"",""time""
""fullscreenenter"",""1"",""4745""
","
","","","542.1999988555908","","","18","16362","6127","&#9776;","elianto","#3366ff99"," "," ","1","+10","[1393]","1","0","1","","","","","","","",""
"pit-trial","31","444360","0.0-2.0-8.2-1.2","battery-v0.2","","""event"",""trial"",""time""
""fullscreenenter"",""1"",""4745""
","
","
","""event"",""trial"",""time""
""fullscreenenter"",""1"",""4745""
","
","","","1338.599998474121","","","18","16362","6127","&#9776;","elianto","#3366ff99"," "," ","1","+10","[2198.8999996185303]","1","0","1","","","","","","","",""
"pit-trial","32","448158","0.0-2.0-8.2-2.2","battery-v0.2","","""event"",""trial"",""time""
""fullscreenenter"",""1"",""4745""
","
","
","""event"",""trial"",""time""
""fullscreenenter"",""1"",""4745""
","
","","","934.4000015258789","","","18","16362","6127","&#9776;","elianto","#3366ff99"," "," ","1","+10","[1787.1000003814697]","1","0","1","","","","","","","",""
"pit-trial","33","451597","0.0-2.0-8.2-3.2","battery-v0.2","","""event"",""trial"",""time""
""fullscreenenter"",""1"",""4745""
","
","
","""event"",""trial"",""time""
""fullscreenenter"",""1"",""4745""
","
","","","579.1000003814697","","","18","16362","6127","&#9776;","elianto","#3366ff99"," "," ","1","0","[1433.3999996185303]","1","0","1","","","","","","","",""
"pit-trial","34","454969","0.0-2.0-8.2-4.2","battery-v0.2","","""event"",""trial"",""time""
""fullscreenenter"",""1"",""4745""
","
","
","""event"",""trial"",""time""
""fullscreenenter"",""1"",""4745""
","
","","","510.6000003814697","","","18","16362","6127","&#9776;","elianto","#3366ff99"," "," ","1","+10","[1362]","1","0","1","","","","","","","",""
"call-function","35","454973","0.0-2.0-9.0","battery-v0.2","","""event"",""trial"",""time""
""fullscreenenter"",""1"",""4745""
","
","
","""event"",""trial"",""time""
""fullscreenenter"",""1"",""4745""
","
","","","","","","","","","","","","","","","","","","","","","","","","","","",""
"pit-instructions","36","508436","0.0-2.0-10.0","battery-v0.2","","""event"",""trial"",""time""
""fullscreenenter"",""1"",""4745""
","
","
","""event"",""trial"",""time""
""fullscreenenter"",""1"",""4745""
","
","","[{""page_index"":0,""viewing_time"":10325.89999961853},{""page_index"":1,""viewing_time"":8987.89999961853},{""page_index"":2,""viewing_time"":13604.5},{""page_index"":3,""viewing_time"":11617.89999961853},{""page_index"":4,""viewing_time"":8923.39999961853}]","53460.79999923706","","","","","","","","","","","","","","","","","","","","","","","",""
"pit-trial","37","512252","0.0-2.0-11.0-0.0","battery-v0.2","","""event"",""trial"",""time""
""fullscreenenter"",""1"",""4745""
","
","
","""event"",""trial"",""time""
""fullscreenenter"",""1"",""4745""
","
","","","940.6999988555908","","","18","16362","6127","&#9761;","elianto","#3366ff99","-1"," ","0","0","[1797.8000011444092]","1","0","2","","","","","","","",""
"pit-trial","38","515957","0.0-2.0-11.0-1.0","battery-v0.2","","""event"",""trial"",""time""
""fullscreenenter"",""1"",""4745""
","
","
","""event"",""trial"",""time""
""fullscreenenter"",""1"",""4745""
","
","","","835.5","","","18","16362","6127","&#9761;","elianto","#3366ff99","-1"," ","0","0","[1691.6000003814697]","1","0","2","","","","","","","",""
"pit-trial","39","519736","0.0-2.0-11.0-2.0","battery-v0.2","","""event"",""trial"",""time""
""fullscreenenter"",""1"",""4745""
","
","
","""event"",""trial"",""time""
""fullscreenenter"",""1"",""4745""
","
","","","914.8999996185303","","","18","16362","6127","&#9761;","elianto","#3366ff99","-1"," ","0","0","[1771.5]","1","0","2","","","","","","","",""
"pit-trial","40","524608","0.0-2.0-11.0-3.0","battery-v0.2","","""event"",""trial"",""time""
""fullscreenenter"",""1"",""4745""
","
","
","""event"",""trial"",""time""
""fullscreenenter"",""1"",""4745""
","
","","","-1","","","18","16362","6127","&#9761;","elianto","#3366ff99","-1","-1","1","0","[]","0","0","2","","","","","","","",""
"pit-trial","41","529491","0.0-2.0-11.0-4.0","battery-v0.2","","""event"",""trial"",""time""
""fullscreenenter"",""1"",""4745""
","
","
","""event"",""trial"",""time""
""fullscreenenter"",""1"",""4745""
","
","","","-1","","","18","16362","6127","&#9761;","elianto","#3366ff99","-1","-1","1","+10","[]","0","0","2","","","","","","","",""
"pit-trial","42","534368","0.0-2.0-11.1-0.1","battery-v0.2","","""event"",""trial"",""time""
""fullscreenenter"",""1"",""4745""
","
","
","""event"",""trial"",""time""
""fullscreenenter"",""1"",""4745""
","
","","","-1","","","18","16362","6127","&#9761;","elianto","#3366ff99","-1","-1","1","+10","[]","0","0","2","","","","","","","",""
"pit-trial","43","538123","0.0-2.0-11.1-1.1","battery-v0.2","","""event"",""trial"",""time""
""fullscreenenter"",""1"",""4745""
","
","
","""event"",""trial"",""time""
""fullscreenenter"",""1"",""4745""
","
","","","898.3999996185303","","","18","16362","6127","&#9761;","elianto","#3366ff99","-1"," ","0","0","[1748.5]","1","0","2","","","","","","","",""
"pit-trial","44","541775","0.0-2.0-11.1-2.1","battery-v0.2","","""event"",""trial"",""time""
""fullscreenenter"",""1"",""4745""
","
","
","""event"",""trial"",""time""
""fullscreenenter"",""1"",""4745""
","
","","","787.5","","","18","16362","6127","&#9761;","elianto","#3366ff99","-1"," ","0","0","[1643.2999992370605]","1","0","2","","","","","","","",""
"pit-trial","45","545896","0.0-2.0-11.1-3.1","battery-v0.2","","""event"",""trial"",""time""
""fullscreenenter"",""1"",""4745""
","
","
","""event"",""trial"",""time""
""fullscreenenter"",""1"",""4745""
","
","","","1262.5","","","18","16362","6127","&#9761;","elianto","#3366ff99","-1"," ","0","+10","[2116]","1","0","2","","","","","","","",""
"pit-trial","46","549407","0.0-2.0-11.1-4.1","battery-v0.2","","""event"",""trial"",""time""
""fullscreenenter"",""1"",""4745""
","
","
","""event"",""trial"",""time""
""fullscreenenter"",""1"",""4745""
","
","","","637.6000003814697","","","18","16362","6127","&#9761;","elianto","#3366ff99","-1"," ","0","0","[1492]","1","0","2","","","","","","","",""
"pit-trial","47","552916","0.0-2.0-11.2-0.2","battery-v0.2","","""event"",""trial"",""time""
""fullscreenenter"",""1"",""4745""
","
","
","""event"",""trial"",""time""
""fullscreenenter"",""1"",""4745""
","
","","","637","","","18","16362","6127","&#9761;","elianto","#3366ff99","-1"," ","0","0","[1495.3999996185303]","1","0","2","","","","","","","",""
"pit-trial","48","556502","0.0-2.0-11.2-1.2","battery-v0.2","","""event"",""trial"",""time""
""fullscreenenter"",""1"",""4745""
","
","
","""event"",""trial"",""time""
""fullscreenenter"",""1"",""4745""
","
","","","717.5","","","18","16362","6127","&#9761;","elianto","#3366ff99","-1"," ","0","0","[1568.7000007629395]","1","0","2","","","","","","","",""
"pit-trial","49","560108","0.0-2.0-11.2-2.2","battery-v0.2","","""event"",""trial"",""time""
""fullscreenenter"",""1"",""4745""
","
","
","""event"",""trial"",""time""
""fullscreenenter"",""1"",""4745""
","
","","","742.5","","","18","16362","6127","&#9761;","elianto","#3366ff99","-1"," ","0","0","[1601.3999996185303]","1","0","2","","","","","","","",""
"pit-trial","50","564492","0.0-2.0-11.2-3.2","battery-v0.2","","""event"",""trial"",""time""
""fullscreenenter"",""1"",""4745""
","
","
","""event"",""trial"",""time""
""fullscreenenter"",""1"",""4745""
","
","","","1515.6000003814697","","","18","16362","6127","&#9761;","elianto","#3366ff99","-1"," ","0","+10","[2374.300001144409]","1","0","2","","","","","","","",""
"pit-trial","51","568040","0.0-2.0-11.2-4.2","battery-v0.2","","""event"",""trial"",""time""
""fullscreenenter"",""1"",""4745""
","
","
","""event"",""trial"",""time""
""fullscreenenter"",""1"",""4745""
","
","","","691.7000007629395","","","18","16362","6127","&#9761;","elianto","#3366ff99","-1"," ","0","0","[1543]","1","0","2","","","","","","","",""
"pit-trial","52","572509","0.0-2.0-11.3-0.3","battery-v0.2","","""event"",""trial"",""time""
""fullscreenenter"",""1"",""4745""
","
","
","""event"",""trial"",""time""
""fullscreenenter"",""1"",""4745""
","
","","","1598.1000003814697","","","18","16362","6127","&#9761;","elianto","#3366ff99","-1"," ","0","0","[2450.800001144409]","1","0","2","","","","","","","",""
"pit-trial","53","575949","0.0-2.0-11.3-1.3","battery-v0.2","","""event"",""trial"",""time""
""fullscreenenter"",""1"",""4745""
","
","
","""event"",""trial"",""time""
""fullscreenenter"",""1"",""4745""
","
","","","575.5","","","18","16362","6127","&#9761;","elianto","#3366ff99","-1"," ","0","0","[1428.6000003814697]","1","0","2","","","","","","","",""
"pit-trial","54","580815","0.0-2.0-11.3-2.3","battery-v0.2","","""event"",""trial"",""time""
""fullscreenenter"",""1"",""4745""
","
","
","""event"",""trial"",""time""
""fullscreenenter"",""1"",""4745""
","
","","","-1","","","18","16362","6127","&#9761;","elianto","#3366ff99","-1","-1","1","+10","[]","0","0","2","","","","","","","",""
"pit-trial","55","585135","0.0-2.0-11.3-3.3","battery-v0.2","","""event"",""trial"",""time""
""fullscreenenter"",""1"",""4745""
","
","
","""event"",""trial"",""time""
""fullscreenenter"",""1"",""4745""
","
","","","1456.1999988555908","","","18","16362","6127","&#9761;","elianto","#3366ff99","-1"," ","0","+10","[2306.8999996185303]","1","0","2","","","","","","","",""
"pit-trial","56","589999","0.0-2.0-11.3-4.3","battery-v0.2","","""event"",""trial"",""time""
""fullscreenenter"",""1"",""4745""
","
","
","""event"",""trial"",""time""
""fullscreenenter"",""1"",""4745""
","
","","","-1","","","18","16362","6127","&#9761;","elianto","#3366ff99","-1","-1","1","+10","[3317.6000003814697]","1","0","2","","","","","","","",""
"call-function","57","590003","0.0-2.0-12.0","battery-v0.2","","""event"",""trial"",""time""
""fullscreenenter"",""1"",""4745""
","
","
","""event"",""trial"",""time""
""fullscreenenter"",""1"",""4745""
","
","","","","","","","","","","","","","","","","","","","","","","","","","","",""
"pit-instructions","58","633244","0.0-2.0-13.0","battery-v0.2","","""event"",""trial"",""time""
""fullscreenenter"",""1"",""4745""
","
","
","""event"",""trial"",""time""
""fullscreenenter"",""1"",""4745""
","
","","[{""page_index"":0,""viewing_time"":4929.39999961853},{""page_index"":1,""viewing_time"":8395.60000038147},{""page_index"":2,""viewing_time"":8485.19999885559},{""page_index"":3,""viewing_time"":14368.39999961853},{""page_index"":4,""viewing_time"":7060.700000762939}]","43239.79999923706","","","","","","","","","","","","","","","","","","","","","","","",""
"pit-trial","59","638123","0.0-2.0-14.0-0.0","battery-v0.2","","""event"",""trial"",""time""
""fullscreenenter"",""1"",""4745""
","
","
","""event"",""trial"",""time""
""fullscreenenter"",""1"",""4745""
","
","","","-1","","","18","16362","6127","&#9826;","elianto","#f73b6a7A","-1","-1","1","0","[]","0","0","3","","","","","","","",""
"pit-trial","60","642994","0.0-2.0-14.0-1.0","battery-v0.2","","""event"",""trial"",""time""
""fullscreenenter"",""1"",""4745""
","
","
","""event"",""trial"",""time""
""fullscreenenter"",""1"",""4745""
","
","","","-1","","","18","16362","6127","&#9826;","elianto","#f73b6a7A","-1","-1","1","0","[]","0","0","3","","","","","","","",""
"pit-trial","61","647880","0.0-2.0-14.0-2.0","battery-v0.2","","""event"",""trial"",""time""
""fullscreenenter"",""1"",""4745""
","
","
","""event"",""trial"",""time""
""fullscreenenter"",""1"",""4745""
","
","","","-1","","","18","16362","6127","&#9826;","elianto","#f73b6a7A","-1","-1","1","0","[]","0","0","3","","","","","","","",""
"pit-trial","62","652757","0.0-2.0-14.0-3.0","battery-v0.2","","""event"",""trial"",""time""
""fullscreenenter"",""1"",""4745""
","
","
","""event"",""trial"",""time""
""fullscreenenter"",""1"",""4745""
","
","","","-1","","","18","16362","6127","&#9826;","elianto","#f73b6a7A","-1","-1","1","-10","[]","0","0","3","","","","","","","",""
"pit-trial","63","657616","0.0-2.0-14.0-4.0","battery-v0.2","","""event"",""trial"",""time""
""fullscreenenter"",""1"",""4745""
","
","
","""event"",""trial"",""time""
""fullscreenenter"",""1"",""4745""
","
","","","-1","","","18","16362","6127","&#9826;","elianto","#f73b6a7A","-1","-1","1","0","[]","0","0","3","","","","","","","",""
"pit-trial","64","662472","0.0-2.0-14.1-0.1","battery-v0.2","","""event"",""trial"",""time""
""fullscreenenter"",""1"",""4745""
","
","
","""event"",""trial"",""time""
""fullscreenenter"",""1"",""4745""
","
","","","-1","","","18","16362","6127","&#9826;","elianto","#f73b6a7A","-1","-1","1","0","[]","0","0","3","","","","","","","",""
"pit-trial","65","667336","0.0-2.0-14.1-1.1","battery-v0.2","","""event"",""trial"",""time""
""fullscreenenter"",""1"",""4745""
","
","
","""event"",""trial"",""time""
""fullscreenenter"",""1"",""4745""
","
","","","-1","","","18","16362","6127","&#9826;","elianto","#f73b6a7A","-1","-1","1","0","[]","0","0","3","","","","","","","",""
"pit-trial","66","672226","0.0-2.0-14.1-2.1","battery-v0.2","","""event"",""trial"",""time""
""fullscreenenter"",""1"",""4745""
","
","
","""event"",""trial"",""time""
""fullscreenenter"",""1"",""4745""
","
","","","-1","","","18","16362","6127","&#9826;","elianto","#f73b6a7A","-1","-1","1","0","[]","0","0","3","","","","","","","",""
"pit-trial","67","677098","0.0-2.0-14.1-3.1","battery-v0.2","","""event"",""trial"",""time""
""fullscreenenter"",""1"",""4745""
","
","
","""event"",""trial"",""time""
""fullscreenenter"",""1"",""4745""
","
","","","-1","","","18","16362","6127","&#9826;","elianto","#f73b6a7A","-1","-1","1","-10","[]","0","0","3","","","","","","","",""
"pit-trial","68","681968","0.0-2.0-14.1-4.1","battery-v0.2","","""event"",""trial"",""time""
""fullscreenenter"",""1"",""4745""
","
","
","""event"",""trial"",""time""
""fullscreenenter"",""1"",""4745""
","
","","","-1","","","18","16362","6127","&#9826;","elianto","#f73b6a7A","-1","-1","1","0","[]","0","0","3","","","","","","","",""
"pit-trial","69","686842","0.0-2.0-14.2-0.2","battery-v0.2","","""event"",""trial"",""time""
""fullscreenenter"",""1"",""4745""
","
","
","""event"",""trial"",""time""
""fullscreenenter"",""1"",""4745""
","
","","","-1","","","18","16362","6127","&#9826;","elianto","#f73b6a7A","-1","-1","1","0","[]","0","0","3","","","","","","","",""
"pit-trial","70","691703","0.0-2.0-14.2-1.2","battery-v0.2","","""event"",""trial"",""time""
""fullscreenenter"",""1"",""4745""
","
","
","""event"",""trial"",""time""
""fullscreenenter"",""1"",""4745""
","
","","","-1","","","18","16362","6127","&#9826;","elianto","#f73b6a7A","-1","-1","1","0","[]","0","0","3","","","","","","","",""
"pit-trial","71","696572","0.0-2.0-14.2-2.2","battery-v0.2","","""event"",""trial"",""time""
""fullscreenenter"",""1"",""4745""
","
","
","""event"",""trial"",""time""
""fullscreenenter"",""1"",""4745""
","
","","","-1","","","18","16362","6127","&#9826;","elianto","#f73b6a7A","-1","-1","1","0","[]","0","0","3","","","","","","","",""
"pit-trial","72","701437","0.0-2.0-14.2-3.2","battery-v0.2","","""event"",""trial"",""time""
""fullscreenenter"",""1"",""4745""
","
","
","""event"",""trial"",""time""
""fullscreenenter"",""1"",""4745""
","
","","","-1","","","18","16362","6127","&#9826;","elianto","#f73b6a7A","-1","-1","1","-10","[]","0","0","3","","","","","","","",""
"pit-trial","73","706316","0.0-2.0-14.2-4.2","battery-v0.2","","""event"",""trial"",""time""
""fullscreenenter"",""1"",""4745""
","
","
","""event"",""trial"",""time""
""fullscreenenter"",""1"",""4745""
","
","","","-1","","","18","16362","6127","&#9826;","elianto","#f73b6a7A","-1","-1","1","0","[]","0","0","3","","","","","","","",""
"pit-trial","74","711191","0.0-2.0-14.3-0.3","battery-v0.2","","""event"",""trial"",""time""
""fullscreenenter"",""1"",""4745""
","
","
","""event"",""trial"",""time""
""fullscreenenter"",""1"",""4745""
","
","","","-1","","","18","16362","6127","&#9826;","elianto","#f73b6a7A","-1","-1","1","0","[]","0","0","3","","","","","","","",""
"pit-trial","75","716080","0.0-2.0-14.3-1.3","battery-v0.2","","""event"",""trial"",""time""
""fullscreenenter"",""1"",""4745""
","
","
","""event"",""trial"",""time""
""fullscreenenter"",""1"",""4745""
","
","","","-1","","","18","16362","6127","&#9826;","elianto","#f73b6a7A","-1","-1","1","0","[]","0","0","3","","","","","","","",""
"pit-trial","76","720950","0.0-2.0-14.3-2.3","battery-v0.2","","""event"",""trial"",""time""
""fullscreenenter"",""1"",""4745""
","
","
","""event"",""trial"",""time""
""fullscreenenter"",""1"",""4745""
","
","","","-1","","","18","16362","6127","&#9826;","elianto","#f73b6a7A","-1","-1","1","0","[]","0","0","3","","","","","","","",""
"pit-trial","77","725830","0.0-2.0-14.3-3.3","battery-v0.2","","""event"",""trial"",""time""
""fullscreenenter"",""1"",""4745""
","
","
","""event"",""trial"",""time""
""fullscreenenter"",""1"",""4745""
","
","","","-1","","","18","16362","6127","&#9826;","elianto","#f73b6a7A","-1","-1","1","-10","[]","0","0","3","","","","","","","",""
"pit-trial","78","730694","0.0-2.0-14.3-4.3","battery-v0.2","","""event"",""trial"",""time""
""fullscreenenter"",""1"",""4745""
","
","
","""event"",""trial"",""time""
""fullscreenenter"",""1"",""4745""
","
","","","-1","","","18","16362","6127","&#9826;","elianto","#f73b6a7A","-1","-1","1","0","[]","0","0","3","","","","","","","",""
"call-function","79","730697","0.0-2.0-15.0","battery-v0.2","","""event"",""trial"",""time""
""fullscreenenter"",""1"",""4745""
","
","
","""event"",""trial"",""time""
""fullscreenenter"",""1"",""4745""
","
","","","","","","","","","","","","","","","","","","","","","","","","","","",""
"pit-instructions","80","762841","0.0-2.0-16.0","battery-v0.2","","""event"",""trial"",""time""
""fullscreenenter"",""1"",""4745""
","
","
","""event"",""trial"",""time""
""fullscreenenter"",""1"",""4745""
","
","","[{""page_index"":0,""viewing_time"":8006.60000038147},{""page_index"":1,""viewing_time"":11566.60000038147},{""page_index"":2,""viewing_time"":5855.200000762939},{""page_index"":3,""viewing_time"":6714.099998474121}]","32143.10000038147","","","","","","","","","","","","","","","","","","","","","","","",""
"pit-trial","81","767706","0.0-2.0-17.0-0.0","battery-v0.2","","""event"",""trial"",""time""
""fullscreenenter"",""1"",""4745""
","
","
","""event"",""trial"",""time""
""fullscreenenter"",""1"",""4745""
","
","","","-1","","","18","16362","6127","&#9789;","elianto","#f73b6a7A"," ","-1","0","-10","[]","0","0","4","","","","","","","",""
"pit-trial","82","772585","0.0-2.0-17.0-1.0","battery-v0.2","","""event"",""trial"",""time""
""fullscreenenter"",""1"",""4745""
","
","
","""event"",""trial"",""time""
""fullscreenenter"",""1"",""4745""
","
","","","-1","","","18","16362","6127","&#9789;","elianto","#f73b6a7A"," ","-1","0","-10","[]","0","0","4","","","","","","","",""
"pit-trial","83","777463","0.0-2.0-17.0-2.0","battery-v0.2","","""event"",""trial"",""time""
""fullscreenenter"",""1"",""4745""
","
","
","""event"",""trial"",""time""
""fullscreenenter"",""1"",""4745""
","
","","","-1","","","18","16362","6127","&#9789;","elianto","#f73b6a7A"," ","-1","0","-10","[]","0","0","4","","","","","","","",""
"pit-trial","84","782340","0.0-2.0-17.0-3.0","battery-v0.2","","""event"",""trial"",""time""
""fullscreenenter"",""1"",""4745""
","
","
","""event"",""trial"",""time""
""fullscreenenter"",""1"",""4745""
","
","","","-1","","","18","16362","6127","&#9789;","elianto","#f73b6a7A"," ","-1","0","0","[]","0","0","4","","","","","","","",""
"pit-trial","85","787206","0.0-2.0-17.0-4.0","battery-v0.2","","""event"",""trial"",""time""
""fullscreenenter"",""1"",""4745""
","
","
","""event"",""trial"",""time""
""fullscreenenter"",""1"",""4745""
","
","","","-1","","","18","16362","6127","&#9789;","elianto","#f73b6a7A"," ","-1","0","-10","[]","0","0","4","","","","","","","",""
"pit-trial","86","792068","0.0-2.0-17.1-0.1","battery-v0.2","","""event"",""trial"",""time""
""fullscreenenter"",""1"",""4745""
","
","
","""event"",""trial"",""time""
""fullscreenenter"",""1"",""4745""
","
","","","-1","","","18","16362","6127","&#9789;","elianto","#f73b6a7A"," ","-1","0","-10","[]","0","0","4","","","","","","","",""
"pit-trial","87","796942","0.0-2.0-17.1-1.1","battery-v0.2","","""event"",""trial"",""time""
""fullscreenenter"",""1"",""4745""
","
","
","""event"",""trial"",""time""
""fullscreenenter"",""1"",""4745""
","
","","","-1","","","18","16362","6127","&#9789;","elianto","#f73b6a7A"," ","-1","0","-10","[]","0","0","4","","","","","","","",""
"pit-trial","88","801816","0.0-2.0-17.1-2.1","battery-v0.2","","""event"",""trial"",""time""
""fullscreenenter"",""1"",""4745""
","
","
","""event"",""trial"",""time""
""fullscreenenter"",""1"",""4745""
","
","","","-1","","","18","16362","6127","&#9789;","elianto","#f73b6a7A"," ","-1","0","-10","[]","0","0","4","","","","","","","",""
"pit-trial","89","806686","0.0-2.0-17.1-3.1","battery-v0.2","","""event"",""trial"",""time""
""fullscreenenter"",""1"",""4745""
","
","
","""event"",""trial"",""time""
""fullscreenenter"",""1"",""4745""
","
","","","-1","","","18","16362","6127","&#9789;","elianto","#f73b6a7A"," ","-1","0","0","[]","0","0","4","","","","","","","",""
"pit-trial","90","811546","0.0-2.0-17.1-4.1","battery-v0.2","","""event"",""trial"",""time""
""fullscreenenter"",""1"",""4745""
","
","
","""event"",""trial"",""time""
""fullscreenenter"",""1"",""4745""
","
","","","-1","","","18","16362","6127","&#9789;","elianto","#f73b6a7A"," ","-1","0","-10","[]","0","0","4","","","","","","","",""
"pit-trial","91","816406","0.0-2.0-17.2-0.2","battery-v0.2","","""event"",""trial"",""time""
""fullscreenenter"",""1"",""4745""
","
","
","""event"",""trial"",""time""
""fullscreenenter"",""1"",""4745""
","
","","","-1","","","18","16362","6127","&#9789;","elianto","#f73b6a7A"," ","-1","0","-10","[]","0","0","4","","","","","","","",""
"pit-trial","92","821264","0.0-2.0-17.2-1.2","battery-v0.2","","""event"",""trial"",""time""
""fullscreenenter"",""1"",""4745""
","
","
","""event"",""trial"",""time""
""fullscreenenter"",""1"",""4745""
","
","","","-1","","","18","16362","6127","&#9789;","elianto","#f73b6a7A"," ","-1","0","-10","[]","0","0","4","","","","","","","",""
"pit-trial","93","826124","0.0-2.0-17.2-2.2","battery-v0.2","","""event"",""trial"",""time""
""fullscreenenter"",""1"",""4745""
","
","
","""event"",""trial"",""time""
""fullscreenenter"",""1"",""4745""
","
","","","-1","","","18","16362","6127","&#9789;","elianto","#f73b6a7A"," ","-1","0","-10","[]","0","0","4","","","","","","","",""
"pit-trial","94","830995","0.0-2.0-17.2-3.2","battery-v0.2","","""event"",""trial"",""time""
""fullscreenenter"",""1"",""4745""
","
","
","""event"",""trial"",""time""
""fullscreenenter"",""1"",""4745""
","
","","","-1","","","18","16362","6127","&#9789;","elianto","#f73b6a7A"," ","-1","0","0","[]","0","0","4","","","","","","","",""
"pit-trial","95","835861","0.0-2.0-17.2-4.2","battery-v0.2","","""event"",""trial"",""time""
""fullscreenenter"",""1"",""4745""
","
","
","""event"",""trial"",""time""
""fullscreenenter"",""1"",""4745""
","
","","","-1","","","18","16362","6127","&#9789;","elianto","#f73b6a7A"," ","-1","0","-10","[]","0","0","4","","","","","","","",""
"pit-trial","96","840716","0.0-2.0-17.3-0.3","battery-v0.2","","""event"",""trial"",""time""
""fullscreenenter"",""1"",""4745""
","
","
","""event"",""trial"",""time""
""fullscreenenter"",""1"",""4745""
","
","","","-1","","","18","16362","6127","&#9789;","elianto","#f73b6a7A"," ","-1","0","-10","[]","0","0","4","","","","","","","",""
"pit-trial","97","845594","0.0-2.0-17.3-1.3","battery-v0.2","","""event"",""trial"",""time""
""fullscreenenter"",""1"",""4745""
","
","
","""event"",""trial"",""time""
""fullscreenenter"",""1"",""4745""
","
","","","-1","","","18","16362","6127","&#9789;","elianto","#f73b6a7A"," ","-1","0","-10","[]","0","0","4","","","","","","","",""
"pit-trial","98","850467","0.0-2.0-17.3-2.3","battery-v0.2","","""event"",""trial"",""time""
""fullscreenenter"",""1"",""4745""
","
","
","""event"",""trial"",""time""
""fullscreenenter"",""1"",""4745""
","
","","","-1","","","18","16362","6127","&#9789;","elianto","#f73b6a7A"," ","-1","0","-10","[]","0","0","4","","","","","","","",""
"pit-trial","99","855347","0.0-2.0-17.3-3.3","battery-v0.2","","""event"",""trial"",""time""
""fullscreenenter"",""1"",""4745""
","
","
","""event"",""trial"",""time""
""fullscreenenter"",""1"",""4745""
","
","","","-1","","","18","16362","6127","&#9789;","elianto","#f73b6a7A"," ","-1","0","0","[]","0","0","4","","","","","","","",""
"pit-trial","100","860218","0.0-2.0-17.3-4.3","battery-v0.2","","""event"",""trial"",""time""
""fullscreenenter"",""1"",""4745""
","
","
","""event"",""trial"",""time""
""fullscreenenter"",""1"",""4745""
","
","","","-1","","","18","16362","6127","&#9789;","elianto","#f73b6a7A"," ","-1","0","-10","[]","0","0","4","","","","","","","",""
"call-function","101","860224","0.0-2.0-18.0","battery-v0.2","","""event"",""trial"",""time""
""fullscreenenter"",""1"",""4745""
","
","
","""event"",""trial"",""time""
""fullscreenenter"",""1"",""4745""
","
","","","","","","","","","","","","","","","","","","","","","","","","","","",""
"pit-instructions","102","945275","0.0-2.0-19.0","battery-v0.2","","""event"",""trial"",""time""
""fullscreenenter"",""1"",""4745""
","
","
","""event"",""trial"",""time""
""fullscreenenter"",""1"",""4745""
","
","","[{""page_index"":0,""viewing_time"":7982.799999237061},{""page_index"":1,""viewing_time"":9985},{""page_index"":2,""viewing_time"":10806.70000076294},{""page_index"":3,""viewing_time"":9946.39999961853},{""page_index"":4,""viewing_time"":10093.39999961853},{""page_index"":5,""viewing_time"":9825.5},{""page_index"":6,""viewing_time"":10663.5},{""page_index"":7,""viewing_time"":8236.10000038147},{""page_index"":8,""viewing_time"":7514.10000038147}]","85054.29999923706","","","","","","","","","","","","","","","","","","","","","","","",""
"pit-comprehension","103","957341","0.0-2.0-20.0-0.0","battery-v0.2","","""event"",""trial"",""time""
""fullscreenenter"",""1"",""4745""
","
","
","""event"",""trial"",""time""
""fullscreenenter"",""1"",""4745""
","
","","","12055.29999923706","[""SPACE""]","0","18","16362","6127","","","","","","","","","","","","","","","","","","",""
"pit-instructions","104","963587","0.0-2.0-20.0-1.0","battery-v0.2","","""event"",""trial"",""time""
""fullscreenenter"",""1"",""4745""
","
","
","""event"",""trial"",""time""
""fullscreenenter"",""1"",""4745""
","
","","[{""page_index"":0,""viewing_time"":6149.10000038147}]","6149.800001144409","","","","","","","","","","","","","","","","","","","","","","","",""
"pit-comprehension","105","970718","0.0-2.0-21.0-0.0","battery-v0.2","","""event"",""trial"",""time""
""fullscreenenter"",""1"",""4745""
","
","
","""event"",""trial"",""time""
""fullscreenenter"",""1"",""4745""
","
","","","7122.200000762939","[""10""]","0","18","16362","6127","","","","","","","","","","","","","","","","","","",""
"pit-instructions","106","976350","0.0-2.0-21.0-1.0","battery-v0.2","","""event"",""trial"",""time""
""fullscreenenter"",""1"",""4745""
","
","
","""event"",""trial"",""time""
""fullscreenenter"",""1"",""4745""
","
","","[{""page_index"":0,""viewing_time"":5590.299999237061}]","5591.10000038147","","","","","","","","","","","","","","","","","","","","","","","",""
"pit-comprehension","107","984483","0.0-2.0-22.0-0.0","battery-v0.2","","""event"",""trial"",""time""
""fullscreenenter"",""1"",""4745""
","
","
","""event"",""trial"",""time""
""fullscreenenter"",""1"",""4745""
","
","","","8125.39999961853","[""-10""]","1","18","16362","6127","","","","","","","","","","","","","","","","","","",""
"pit-instructions","108","991778","0.0-2.0-22.0-1.0","battery-v0.2","","""event"",""trial"",""time""
""fullscreenenter"",""1"",""4745""
","
","
","""event"",""trial"",""time""
""fullscreenenter"",""1"",""4745""
","
","","[{""page_index"":0,""viewing_time"":7264.39999961853}]","7265.39999961853","","","","","","","","","","","","","","","","","","","","","","","",""
"pit-instructions","109","1000301","0.0-2.0-22.0-2.0-0.0","battery-v0.2","","""event"",""trial"",""time""
""fullscreenenter"",""1"",""4745""
","
","
","""event"",""trial"",""time""
""fullscreenenter"",""1"",""4745""
","
","","[{""page_index"":0,""viewing_time"":8512.29999923706}]","8513.39999961853","","","","","","","","","","","","","","","","","","","","","","","",""
"pit-comprehension","110","1007075","0.0-2.0-22.1-0.1","battery-v0.2","","""event"",""trial"",""time""
""fullscreenenter"",""1"",""4745""
","
","
","""event"",""trial"",""time""
""fullscreenenter"",""1"",""4745""
","
","","","6767.60000038147","[""0""]","0","18","16362","6127","","","","","","","","","","","","","","","","","","",""
"pit-instructions","111","1023308","0.0-2.0-22.1-1.1","battery-v0.2","","""event"",""trial"",""time""
""fullscreenenter"",""1"",""4745""
","
","
","""event"",""trial"",""time""
""fullscreenenter"",""1"",""4745""
","
","","[{""page_index"":0,""viewing_time"":16202}]","16202.69999885559","","","","","","","","","","","","","","","","","","","","","","","",""
"pit-comprehension","112","1033518","0.0-2.0-23.0-0.0","battery-v0.2","","""event"",""trial"",""time""
""fullscreenenter"",""1"",""4745""
","
","
","""event"",""trial"",""time""
""fullscreenenter"",""1"",""4745""
","
","","","10200.89999961853","[""False""]","1","18","16362","6127","","","","","","","","","","","","","","","","","","",""
"pit-instructions","113","1036417","0.0-2.0-23.0-1.0","battery-v0.2","","""event"",""trial"",""time""
""fullscreenenter"",""1"",""4745""
","
","
","""event"",""trial"",""time""
""fullscreenenter"",""1"",""4745""
","
","","[{""page_index"":0,""viewing_time"":2856.699998855591}]","2857.3999996185303","","","","","","","","","","","","","","","","","","","","","","","",""
"pit-instructions","114","1036909","0.0-2.0-23.0-2.0-0.0","battery-v0.2","","""event"",""trial"",""time""
""fullscreenenter"",""1"",""4745""
","
","
","""event"",""trial"",""time""
""fullscreenenter"",""1"",""4745""
","
","","[{""page_index"":0,""viewing_time"":486.8999996185303}]","487.8999996185303","","","","","","","","","","","","","","","","","","","","","","","",""
"pit-comprehension","115","1048336","0.0-2.0-23.1-0.1","battery-v0.2","","""event"",""trial"",""time""
""fullscreenenter"",""1"",""4745""
","
","
","""event"",""trial"",""time""
""fullscreenenter"",""1"",""4745""
","
","","","11418.20000076294","[""True""]","0","18","16362","6127","","","","","","","","","","","","","","","","","","",""
"pit-instructions","116","1055467","0.0-2.0-23.1-1.1","battery-v0.2","","""event"",""trial"",""time""
""fullscreenenter"",""1"",""4745""
","
","
","""event"",""trial"",""time""
""fullscreenenter"",""1"",""4745""
","
","","[{""page_index"":0,""viewing_time"":7098.5}]","7099.700000762939","","","","","","","","","","","","","","","","","","","","","","","",""
"pit-comprehension","117","1067455","0.0-2.0-24.0-0.0","battery-v0.2","","""event"",""trial"",""time""
""fullscreenenter"",""1"",""4745""
","
","
","""event"",""trial"",""time""
""fullscreenenter"",""1"",""4745""
","
","","","11982.20000076294","[""True""]","0","18","16362","6127","","","","","","","","","","","","","","","","","","",""
"pit-instructions","118","1074055","0.0-2.0-24.0-1.0","battery-v0.2","","""event"",""trial"",""time""
""fullscreenenter"",""1"",""4745""
","
","
","""event"",""trial"",""time""
""fullscreenenter"",""1"",""4745""
","
","","[{""page_index"":0,""viewing_time"":6570.39999961853}]","6571","","","","","","","","","","","","","","","","","","","","","","","",""
"pit-comprehension","119","1082330","0.0-2.0-25.0-0.0","battery-v0.2","","""event"",""trial"",""time""
""fullscreenenter"",""1"",""4745""
","
","
","""event"",""trial"",""time""
""fullscreenenter"",""1"",""4745""
","
","","","8266.60000038147","[""True""]","0","18","16362","6127","","","","","","","","","","","","","","","","","","",""
"pit-instructions","120","1088445","0.0-2.0-25.0-1.0","battery-v0.2","","""event"",""trial"",""time""
""fullscreenenter"",""1"",""4745""
","
","
","""event"",""trial"",""time""
""fullscreenenter"",""1"",""4745""
","
","","[{""page_index"":0,""viewing_time"":6065}]","6065.699998855591","","","","","","","","","","","","","","","","","","","","","","","",""
"pit-comprehension","121","1093197","0.0-2.0-26.0-0.0","battery-v0.2","","""event"",""trial"",""time""
""fullscreenenter"",""1"",""4745""
","
","
","""event"",""trial"",""time""
""fullscreenenter"",""1"",""4745""
","
","","","4744.10000038147","[""True""]","1","18","16362","6127","","","","","","","","","","","","","","","","","","",""
"pit-instructions","122","1095390","0.0-2.0-26.0-1.0","battery-v0.2","","""event"",""trial"",""time""
""fullscreenenter"",""1"",""4745""
","
","
","""event"",""trial"",""time""
""fullscreenenter"",""1"",""4745""
","
","","[{""page_index"":0,""viewing_time"":2162.400001525879}]","2163","","","","","","","","","","","","","","","","","","","","","","","",""
"pit-instructions","123","1095945","0.0-2.0-26.0-2.0-0.0","battery-v0.2","","""event"",""trial"",""time""
""fullscreenenter"",""1"",""4745""
","
","
","""event"",""trial"",""time""
""fullscreenenter"",""1"",""4745""
","
","","[{""page_index"":0,""viewing_time"":551.3000011444092}]","552.1000003814697","","","","","","","","","","","","","","","","","","","","","","","",""
"pit-comprehension","124","1101020","0.0-2.0-26.1-0.1","battery-v0.2","","""event"",""trial"",""time""
""fullscreenenter"",""1"",""4745""
","
","
","""event"",""trial"",""time""
""fullscreenenter"",""1"",""4745""
","
","","","5068.700000762939","[""False""]","0","18","16362","6127","","","","","","","","","","","","","","","","","","",""
"pit-instructions","125","1103161","0.0-2.0-26.1-1.1","battery-v0.2","","""event"",""trial"",""time""
""fullscreenenter"",""1"",""4745""
","
","
","""event"",""trial"",""time""
""fullscreenenter"",""1"",""4745""
","
","","[{""page_index"":0,""viewing_time"":2110.2999992370605}]","2110.8999996185303","","","","","","","","","","","","","","","","","","","","","","","",""
"pit-instructions","126","1119711","0.0-3.0","battery-v0.2","","""event"",""trial"",""time""
""fullscreenenter"",""1"",""4745""
","
","
","""event"",""trial"",""time""
""fullscreenenter"",""1"",""4745""
","
","","[{""page_index"":0,""viewing_time"":3862.6000003814697},{""page_index"":1,""viewing_time"":6042.199998855591},{""page_index"":2,""viewing_time"":6640.89999961853}]","16546.29999923706","","","","","","","","","","","","","","","","","","","","","","","",""
"pit-trial","127","1123501","0.0-4.0","battery-v0.2","","""event"",""trial"",""time""
""fullscreenenter"",""1"",""4745""
","
","
","""event"",""trial"",""time""
""fullscreenenter"",""1"",""4745""
","
","","","919.5","","","18","16362","6127","&#9733;","elianto","#3366ff99","-1"," ","0","0","[1778.2999992370605]","1","1","","","16362","1","2","2","win","no-go","0"
"pit-trial","128","1127766","0.0-5.0","battery-v0.2","","""event"",""trial"",""time""
""fullscreenenter"",""1"",""4745""
","
","
","""event"",""trial"",""time""
""fullscreenenter"",""1"",""4745""
","
","","","1392.8999996185303","","","18","16362","6127","&#9730;","elianto","#3366ff99"," "," ","1","+10","[2250.7999992370605]","1","1","","","16362","2","1","1","win","go","0"
"pit-trial","129","1132628","0.0-6.0","battery-v0.2","","""event"",""trial"",""time""
""fullscreenenter"",""1"",""4745""
","
","
","""event"",""trial"",""time""
""fullscreenenter"",""1"",""4745""
","
","","","-1","","","18","16362","6127","&#9752;","elianto","#f73b6a7A"," ","-1","0","-10","[]","0","1","","","16362","3","3","3","lose","go","0"
"pit-trial","130","1137501","0.0-7.0","battery-v0.2","","""event"",""trial"",""time""
""fullscreenenter"",""1"",""4745""
","
","
","""event"",""trial"",""time""
""fullscreenenter"",""1"",""4745""
","
","","","-1","","","18","16362","6127","&#9728;","elianto","#f73b6a7A","-1","-1","1","-10","[]","0","1","","","16362","4","0","4","lose","no-go","1"
"pit-trial","131","1141188","0.0-8.0","battery-v0.2","","""event"",""trial"",""time""
""fullscreenenter"",""1"",""4745""
","
","
","""event"",""trial"",""time""
""fullscreenenter"",""1"",""4745""
","
","","","809.6000003814697","","","18","16362","6127","&#9733;","elianto","#3366ff99","-1"," ","0","0","[1664.2999992370605]","1","1","","","16362","5","2","2","win","no-go","0"
"pit-trial","132","1146062","0.0-9.0","battery-v0.2","","""event"",""trial"",""time""
""fullscreenenter"",""1"",""4745""
","
","
","""event"",""trial"",""time""
""fullscreenenter"",""1"",""4745""
","
","","","-1","","","18","16362","6127","&#9752;","elianto","#f73b6a7A"," ","-1","0","-10","[]","0","1","","","16362","6","3","3","lose","go","0"
"pit-trial","133","1150935","0.0-10.0","battery-v0.2","","""event"",""trial"",""time""
""fullscreenenter"",""1"",""4745""
","
","
","""event"",""trial"",""time""
""fullscreenenter"",""1"",""4745""
","
","","","-1","","","18","16362","6127","&#9728;","elianto","#f73b6a7A","-1","-1","1","0","[]","0","1","","","16362","7","0","4","lose","no-go","0"
"pit-trial","134","1155795","0.0-11.0","battery-v0.2","","""event"",""trial"",""time""
""fullscreenenter"",""1"",""4745""
","
","
","""event"",""trial"",""time""
""fullscreenenter"",""1"",""4745""
","
","","","-1","","","18","16362","6127","&#9730;","elianto","#3366ff99"," ","-1","0","+10","[]","0","1","","","16362","8","1","1","win","go","1"
"pit-trial","135","1159233","0.0-12.0","battery-v0.2","","""event"",""trial"",""time""
""fullscreenenter"",""1"",""4745""
","
","
","""event"",""trial"",""time""
""fullscreenenter"",""1"",""4745""
","
","","","570.1999988555908","","","18","16362","6127","&#9730;","elianto","#3366ff99"," "," ","1","+10","[1427.2999992370605]","1","1","","","16362","9","1","1","win","go","0"
"pit-trial","136","1164095","0.0-13.0","battery-v0.2","","""event"",""trial"",""time""
""fullscreenenter"",""1"",""4745""
","
","
","""event"",""trial"",""time""
""fullscreenenter"",""1"",""4745""
","
","","","-1","","","18","16362","6127","&#9752;","elianto","#f73b6a7A"," ","-1","0","-10","[]","0","1","","","16362","10","3","3","lose","go","0"
"pit-trial","137","1167675","0.0-14.0","battery-v0.2","","""event"",""trial"",""time""
""fullscreenenter"",""1"",""4745""
","
","
","""event"",""trial"",""time""
""fullscreenenter"",""1"",""4745""
","
","","","713.1000003814697","","","18","16362","6127","&#9733;","elianto","#3366ff99","-1"," ","0","0","[1569.2999992370605]","1","1","","","16362","11","2","2","win","no-go","0"
"pit-trial","138","1172549","0.0-15.0","battery-v0.2","","""event"",""trial"",""time""
""fullscreenenter"",""1"",""4745""
","
","
","""event"",""trial"",""time""
""fullscreenenter"",""1"",""4745""
","
","","","-1","","","18","16362","6127","&#9728;","elianto","#f73b6a7A","-1","-1","1","0","[]","0","1","","","16362","12","0","4","lose","no-go","0"
"pit-trial","139","1177414","0.0-16.0","battery-v0.2","","""event"",""trial"",""time""
""fullscreenenter"",""1"",""4745""
","
","
","""event"",""trial"",""time""
""fullscreenenter"",""1"",""4745""
","
","","","-1","","","18","16362","6127","&#9728;","elianto","#f73b6a7A","-1","-1","1","0","[]","0","1","","","16362","13","0","4","lose","no-go","0"
"pit-trial","140","1182280","0.0-17.0","battery-v0.2","","""event"",""trial"",""time""
""fullscreenenter"",""1"",""4745""
","
","
","""event"",""trial"",""time""
""fullscreenenter"",""1"",""4745""
","
","","","-1","","","18","16362","6127","&#9752;","elianto","#f73b6a7A"," ","-1","0","-10","[]","0","1","","","16362","14","3","3","lose","go","0"
"pit-trial","141","1185757","0.0-18.0","battery-v0.2","","""event"",""trial"",""time""
""fullscreenenter"",""1"",""4745""
","
","
","""event"",""trial"",""time""
""fullscreenenter"",""1"",""4745""
","
","","","611.5999984741211","","","18","16362","6127","&#9730;","elianto","#3366ff99"," "," ","1","+10","[1465.6999988555908]","1","1","","","16362","15","1","1","win","go","0"
"pit-trial","142","1189429","0.0-19.0","battery-v0.2","","""event"",""trial"",""time""
""fullscreenenter"",""1"",""4745""
","
","
","""event"",""trial"",""time""
""fullscreenenter"",""1"",""4745""
","
","","","811.7999992370605","","","18","16362","6127","&#9733;","elianto","#3366ff99","-1"," ","0","0","[1664.599998474121]","1","1","","","16362","16","2","2","win","no-go","0"
"pit-trial","143","1194308","0.0-20.0","battery-v0.2","","""event"",""trial"",""time""
""fullscreenenter"",""1"",""4745""
","
","
","""event"",""trial"",""time""
""fullscreenenter"",""1"",""4745""
","
","","","-1","","","18","16362","6127","&#9752;","elianto","#f73b6a7A"," ","-1","0","-10","[]","0","1","","","16362","17","3","3","lose","go","0"
"pit-trial","144","1197658","0.0-21.0","battery-v0.2","","""event"",""trial"",""time""
""fullscreenenter"",""1"",""4745""
","
","
","""event"",""trial"",""time""
""fullscreenenter"",""1"",""4745""
","
","","","487","","","18","16362","6127","&#9733;","elianto","#3366ff99","-1"," ","0","0","[1338.5]","1","1","","","16362","18","2","2","win","no-go","0"
"pit-trial","145","1202525","0.0-22.0","battery-v0.2","","""event"",""trial"",""time""
""fullscreenenter"",""1"",""4745""
","
","
","""event"",""trial"",""time""
""fullscreenenter"",""1"",""4745""
","
","","","-1","","","18","16362","6127","&#9728;","elianto","#f73b6a7A","-1","-1","1","0","[]","0","1","","","16362","19","0","4","lose","no-go","0"
"pit-trial","146","1206263","0.0-23.0","battery-v0.2","","""event"",""trial"",""time""
""fullscreenenter"",""1"",""4745""
","
","
","""event"",""trial"",""time""
""fullscreenenter"",""1"",""4745""
","
","","","873.7000007629395","","","18","16362","6127","&#9730;","elianto","#3366ff99"," "," ","1","+10","[1724.7000007629395]","1","1","","","16362","20","1","1","win","go","0"
"pit-instructions","147","1308336","0.0-24.0","battery-v0.2","","""event"",""trial"",""time""
""fullscreenenter"",""1"",""4745""
","
","
","""event"",""trial"",""time""
""fullscreenenter"",""1"",""4745""
","
","","[{""page_index"":0,""viewing_time"":93463.5},{""page_index"":1,""viewing_time"":8608}]","102072.5","","","","","","","","","","","","","","","","","","","","","","","",""
"pit-trial","148","1313214","0.0-25.0","battery-v0.2","","""event"",""trial"",""time""
""fullscreenenter"",""1"",""4745""
","
","
","""event"",""trial"",""time""
""fullscreenenter"",""1"",""4745""
","
","","","-1","","","18","16362","6127","y","elianto","#f73b6a7A","-1","-1","1","0","[]","0","2","","","16362","21","2","4","lose","no-go","0"
"pit-trial","149","1318076","0.0-26.0","battery-v0.2","","""event"",""trial"",""time""
""fullscreenenter"",""1"",""4745""
","
","
","""event"",""trial"",""time""
""fullscreenenter"",""1"",""4745""
","
","","","-1","","","18","16362","6127","m","elianto","#f73b6a7A","-1","-1","1","0","[]","0","2","","","16362","22","0","4","lose","no-go","0"
"pit-trial","150","1322945","0.0-27.0","battery-v0.2","","""event"",""trial"",""time""
""fullscreenenter"",""1"",""4745""
","
","
","""event"",""trial"",""time""
""fullscreenenter"",""1"",""4745""
","
","","","-1","","","18","16362","6127","h","elianto","#f73b6a7A"," ","-1","0","0","[]","0","2","","","16362","23","3","3","lose","go","1"
"pit-trial","151","1326656","0.0-28.0","battery-v0.2","","""event"",""trial"",""time""
""fullscreenenter"",""1"",""4745""
","
","
","""event"",""trial"",""time""
""fullscreenenter"",""1"",""4745""
","
","","","853.1999988555908","","","18","16362","6127","r","elianto","#3366ff99"," "," ","1","0","[1704.3000011444092]","1","2","","","16362","24","1","1","win","go","1"
"pit-trial","152","1330461","0.0-29.0","battery-v0.2","","""event"",""trial"",""time""
""fullscreenenter"",""1"",""4745""
","
","
","""event"",""trial"",""time""
""fullscreenenter"",""1"",""4745""
","
","","","942.3999996185303","","","18","16362","6127","r","elianto","#3366ff99"," "," ","1","+10","[1798.2000007629395]","1","2","","","16362","25","1","1","win","go","0"
"pit-trial","153","1335335","0.0-30.0","battery-v0.2","","""event"",""trial"",""time""
""fullscreenenter"",""1"",""4745""
","
","
","""event"",""trial"",""time""
""fullscreenenter"",""1"",""4745""
","
","","","-1","","","18","16362","6127","m","elianto","#f73b6a7A","-1","-1","1","-10","[]","0","2","","","16362","26","0","4","lose","no-go","1"
"pit-trial","154","1340216","0.0-31.0","battery-v0.2","","""event"",""trial"",""time""
""fullscreenenter"",""1"",""4745""
","
","
","""event"",""trial"",""time""
""fullscreenenter"",""1"",""4745""
","
","","","-1","","","18","16362","6127","y","elianto","#f73b6a7A","-1","-1","1","0","[]","0","2","","","16362","27","2","4","lose","no-go","0"
"pit-trial","155","1345078","0.0-32.0","battery-v0.2","","""event"",""trial"",""time""
""fullscreenenter"",""1"",""4745""
","
","
","""event"",""trial"",""time""
""fullscreenenter"",""1"",""4745""
","
","","","-1","","","18","16362","6127","h","elianto","#f73b6a7A"," ","-1","0","-10","[]","0","2","","","16362","28","3","3","lose","go","0"
"pit-trial","156","1348750","0.0-33.0","battery-v0.2","","""event"",""trial"",""time""
""fullscreenenter"",""1"",""4745""
","
","
","""event"",""trial"",""time""
""fullscreenenter"",""1"",""4745""
","
","","","807.5","","","18","16362","6127","r","elianto","#3366ff99"," "," ","1","+10","[1662.3999996185303]","1","2","","","16362","29","1","1","win","go","0"
"pit-trial","157","1353610","0.0-34.0","battery-v0.2","","""event"",""trial"",""time""
""fullscreenenter"",""1"",""4745""
","
","
","""event"",""trial"",""time""
""fullscreenenter"",""1"",""4745""
","
","","","-1","","","18","16362","6127","y","elianto","#f73b6a7A","-1","-1","1","0","[]","0","2","","","16362","30","2","4","lose","no-go","0"
"pit-trial","158","1358483","0.0-35.0","battery-v0.2","","""event"",""trial"",""time""
""fullscreenenter"",""1"",""4745""
","
","
","""event"",""trial"",""time""
""fullscreenenter"",""1"",""4745""
","
","","","-1","","","18","16362","6127","m","elianto","#f73b6a7A","-1","-1","1","0","[]","0","2","","","16362","31","0","4","lose","no-go","0"
"pit-trial","159","1363363","0.0-36.0","battery-v0.2","","""event"",""trial"",""time""
""fullscreenenter"",""1"",""4745""
","
","
","""event"",""trial"",""time""
""fullscreenenter"",""1"",""4745""
","
","","","-1","","","18","16362","6127","h","elianto","#f73b6a7A"," ","-1","0","-10","[]","0","2","","","16362","32","3","3","lose","go","0"
"pit-trial","160","1368230","0.0-37.0","battery-v0.2","","""event"",""trial"",""time""
""fullscreenenter"",""1"",""4745""
","
","
","""event"",""trial"",""time""
""fullscreenenter"",""1"",""4745""
","
","","","-1","","","18","16362","6127","m","elianto","#f73b6a7A","-1","-1","1","0","[]","0","2","","","16362","33","0","4","lose","no-go","0"
"pit-trial","161","1373104","0.0-38.0","battery-v0.2","","""event"",""trial"",""time""
""fullscreenenter"",""1"",""4745""
","
","
","""event"",""trial"",""time""
""fullscreenenter"",""1"",""4745""
","
","","","-1","","","18","16362","6127","y","elianto","#f73b6a7A","-1","-1","1","-10","[]","0","2","","","16362","34","2","4","lose","no-go","1"
"pit-trial","162","1377142","0.0-39.0","battery-v0.2","","""event"",""trial"",""time""
""fullscreenenter"",""1"",""4745""
","
","
","""event"",""trial"",""time""
""fullscreenenter"",""1"",""4745""
","
","","","1174.7999992370605","","","18","16362","6127","r","elianto","#3366ff99"," "," ","1","+10","[2026.599998474121]","1","2","","","16362","35","1","1","win","go","0"
"pit-trial","163","1382018","0.0-40.0","battery-v0.2","","""event"",""trial"",""time""
""fullscreenenter"",""1"",""4745""
","
","
","""event"",""trial"",""time""
""fullscreenenter"",""1"",""4745""
","
","","","-1","","","18","16362","6127","h","elianto","#f73b6a7A"," ","-1","0","-10","[]","0","2","","","16362","36","3","3","lose","go","0"
"pit-trial","164","1385722","0.0-41.0","battery-v0.2","","""event"",""trial"",""time""
""fullscreenenter"",""1"",""4745""
","
","
","""event"",""trial"",""time""
""fullscreenenter"",""1"",""4745""
","
","","","838","","","18","16362","6127","r","elianto","#3366ff99"," "," ","1","+10","[1693.7999992370605]","1","2","","","16362","37","1","1","win","go","0"
"pit-trial","165","1390592","0.0-42.0","battery-v0.2","","""event"",""trial"",""time""
""fullscreenenter"",""1"",""4745""
","
","
","""event"",""trial"",""time""
""fullscreenenter"",""1"",""4745""
","
","","","-1","","","18","16362","6127","m","elianto","#f73b6a7A","-1","-1","1","0","[]","0","2","","","16362","38","0","4","lose","no-go","0"
"pit-trial","166","1395470","0.0-43.0","battery-v0.2","","""event"",""trial"",""time""
""fullscreenenter"",""1"",""4745""
","
","
","""event"",""trial"",""time""
""fullscreenenter"",""1"",""4745""
","
","","","-1","","","18","16362","6127","y","elianto","#f73b6a7A","-1","-1","1","-10","[]","0","2","","","16362","39","2","4","lose","no-go","1"
"pit-trial","167","1400381","0.0-44.0","battery-v0.2","","""event"",""trial"",""time""
""fullscreenenter"",""1"",""4745""
","
","
","""event"",""trial"",""time""
""fullscreenenter"",""1"",""4745""
","
","","","-1","","","18","16362","6127","h","elianto","#f73b6a7A"," ","-1","0","-10","[]","0","2","","","16362","40","3","3","lose","go","0"
"pit-trial","168","1405252","0.0-45.0","battery-v0.2","","""event"",""trial"",""time""
""fullscreenenter"",""1"",""4745""
","
","
","""event"",""trial"",""time""
""fullscreenenter"",""1"",""4745""
","
","","","-1","","","18","16362","6127","h","elianto","#f73b6a7A"," ","-1","0","-10","[]","0","2","","","16362","41","3","3","lose","go","0"
"pit-trial","169","1410114","0.0-46.0","battery-v0.2","","""event"",""trial"",""time""
""fullscreenenter"",""1"",""4745""
","
","
","""event"",""trial"",""time""
""fullscreenenter"",""1"",""4745""
","
","","","-1","","","18","16362","6127","m","elianto","#f73b6a7A","-1","-1","1","0","[]","0","2","","","16362","42","0","4","lose","no-go","0"
"pit-trial","170","1413983","0.0-47.0","battery-v0.2","","""event"",""trial"",""time""
""fullscreenenter"",""1"",""4745""
","
","
","""event"",""trial"",""time""
""fullscreenenter"",""1"",""4745""
","
","","","1002.7000007629395","","","18","16362","6127","r","elianto","#3366ff99"," "," ","1","+10","[1857.6000003814697]","1","2","","","16362","43","1","1","win","go","0"
"pit-trial","171","1418846","0.0-48.0","battery-v0.2","","""event"",""trial"",""time""
""fullscreenenter"",""1"",""4745""
","
","
","""event"",""trial"",""time""
""fullscreenenter"",""1"",""4745""
","
","","","-1","","","18","16362","6127","y","elianto","#f73b6a7A","-1","-1","1","0","[]","0","2","","","16362","44","2","4","lose","no-go","0"
"pit-trial","172","1423713","0.0-49.0","battery-v0.2","","""event"",""trial"",""time""
""fullscreenenter"",""1"",""4745""
","
","
","""event"",""trial"",""time""
""fullscreenenter"",""1"",""4745""
","
","","","-1","","","18","16362","6127","y","elianto","#f73b6a7A","-1","-1","1","0","[]","0","2","","","16362","45","2","4","lose","no-go","0"
"pit-trial","173","1427475","0.0-50.0","battery-v0.2","","""event"",""trial"",""time""
""fullscreenenter"",""1"",""4745""
","
","
","""event"",""trial"",""time""
""fullscreenenter"",""1"",""4745""
","
","","","894.2000007629395","","","18","16362","6127","z","elianto","#3366ff99","-1"," ","0","0","[1750.2000007629395]","1","2","","","16362","46","4","2","win","no-go","0"
"pit-trial","174","1432337","0.0-51.0","battery-v0.2","","""event"",""trial"",""time""
""fullscreenenter"",""1"",""4745""
","
","
","""event"",""trial"",""time""
""fullscreenenter"",""1"",""4745""
","
","","","-1","","","18","16362","6127","h","elianto","#f73b6a7A"," ","-1","0","-10","[]","0","2","","","16362","47","3","3","lose","go","0"
"pit-trial","175","1437210","0.0-52.0","battery-v0.2","","""event"",""trial"",""time""
""fullscreenenter"",""1"",""4745""
","
","
","""event"",""trial"",""time""
""fullscreenenter"",""1"",""4745""
","
","","","-1","","","18","16362","6127","m","elianto","#f73b6a7A","-1","-1","1","0","[]","0","2","","","16362","48","0","4","lose","no-go","0"
"pit-trial","176","1442081","0.0-53.0","battery-v0.2","","""event"",""trial"",""time""
""fullscreenenter"",""1"",""4745""
","
","
","""event"",""trial"",""time""
""fullscreenenter"",""1"",""4745""
","
","","","-1","","","18","16362","6127","h","elianto","#f73b6a7A"," ","-1","0","-10","[]","0","2","","","16362","49","3","3","lose","go","0"
"pit-trial","177","1446952","0.0-54.0","battery-v0.2","","""event"",""trial"",""time""
""fullscreenenter"",""1"",""4745""
","
","
","""event"",""trial"",""time""
""fullscreenenter"",""1"",""4745""
","
","","","-1","","","18","16362","6127","m","elianto","#f73b6a7A","-1","-1","1","0","[]","0","2","","","16362","50","0","4","lose","no-go","0"
"pit-trial","178","1450914","0.0-55.0","battery-v0.2","","""event"",""trial"",""time""
""fullscreenenter"",""1"",""4745""
","
","
","""event"",""trial"",""time""
""fullscreenenter"",""1"",""4745""
","
","","","1097","","","18","16362","6127","r","elianto","#3366ff99"," "," ","1","+10","[1952.3999996185303]","1","2","","","16362","51","1","1","win","go","0"
"pit-trial","179","1454478","0.0-56.0","battery-v0.2","","""event"",""trial"",""time""
""fullscreenenter"",""1"",""4745""
","
","
","""event"",""trial"",""time""
""fullscreenenter"",""1"",""4745""
","
","","","700.3999996185303","","","18","16362","6127","z","elianto","#3366ff99","-1"," ","0","+10","[1551.7999992370605]","1","2","","","16362","52","4","2","win","no-go","1"
"pit-trial","180","1459341","0.0-57.0","battery-v0.2","","""event"",""trial"",""time""
""fullscreenenter"",""1"",""4745""
","
","
","""event"",""trial"",""time""
""fullscreenenter"",""1"",""4745""
","
","","","-1","","","18","16362","6127","m","elianto","#f73b6a7A","-1","-1","1","0","[]","0","2","","","16362","53","0","4","lose","no-go","0"
"pit-trial","181","1462895","0.0-58.0","battery-v0.2","","""event"",""trial"",""time""
""fullscreenenter"",""1"",""4745""
","
","
","""event"",""trial"",""time""
""fullscreenenter"",""1"",""4745""
","
","","","693.7000007629395","","","18","16362","6127","z","elianto","#3366ff99","-1"," ","0","0","[1544]","1","2","","","16362","54","4","2","win","no-go","0"
"pit-trial","182","1467759","0.0-59.0","battery-v0.2","","""event"",""trial"",""time""
""fullscreenenter"",""1"",""4745""
","
","
","""event"",""trial"",""time""
""fullscreenenter"",""1"",""4745""
","
","","","-1","","","18","16362","6127","y","elianto","#f73b6a7A","-1","-1","1","0","[]","0","2","","","16362","55","2","4","lose","no-go","0"
"pit-trial","183","1471309","0.0-60.0","battery-v0.2","","""event"",""trial"",""time""
""fullscreenenter"",""1"",""4745""
","
","
","""event"",""trial"",""time""
""fullscreenenter"",""1"",""4745""
","
","","","689.7999992370605","","","18","16362","6127","r","elianto","#3366ff99"," "," ","1","+10","[1544.1999988555908]","1","2","","","16362","56","1","1","win","go","0"
"pit-trial","184","1476187","0.0-61.0","battery-v0.2","","""event"",""trial"",""time""
""fullscreenenter"",""1"",""4745""
","
","
","""event"",""trial"",""time""
""fullscreenenter"",""1"",""4745""
","
","","","-1","","","18","16362","6127","m","elianto","#f73b6a7A","-1","-1","1","0","[]","0","2","","","16362","57","0","4","lose","no-go","0"
"pit-trial","185","1479634","0.0-62.0","battery-v0.2","","""event"",""trial"",""time""
""fullscreenenter"",""1"",""4745""
","
","
","""event"",""trial"",""time""
""fullscreenenter"",""1"",""4745""
","
","","","582.0999984741211","","","18","16362","6127","r","elianto","#3366ff99"," "," ","1","0","[1435]","1","2","","","16362","58","1","1","win","go","1"
"pit-trial","186","1483156","0.0-63.0","battery-v0.2","","""event"",""trial"",""time""
""fullscreenenter"",""1"",""4745""
","
","
","""event"",""trial"",""time""
""fullscreenenter"",""1"",""4745""
","
","","","662.7000007629395","","","18","16362","6127","z","elianto","#3366ff99","-1"," ","0","+10","[1513.7000007629395]","1","2","","","16362","59","4","2","win","no-go","1"
"pit-trial","187","1488035","0.0-64.0","battery-v0.2","","""event"",""trial"",""time""
""fullscreenenter"",""1"",""4745""
","
","
","""event"",""trial"",""time""
""fullscreenenter"",""1"",""4745""
","
","","","-1","","","18","16362","6127","h","elianto","#f73b6a7A"," ","-1","0","-10","[]","0","2","","","16362","60","3","3","lose","go","0"
"pit-trial","188","1491394","0.0-65.0","battery-v0.2","","""event"",""trial"",""time""
""fullscreenenter"",""1"",""4745""
","
","
","""event"",""trial"",""time""
""fullscreenenter"",""1"",""4745""
","
","","","493.4000015258789","","","18","16362","6127","r","elianto","#3366ff99"," "," ","1","+10","[1344]","1","2","","","16362","61","1","1","win","go","0"
"pit-trial","189","1496261","0.0-66.0","battery-v0.2","","""event"",""trial"",""time""
""fullscreenenter"",""1"",""4745""
","
","
","""event"",""trial"",""time""
""fullscreenenter"",""1"",""4745""
","
","","","-1","","","18","16362","6127","y","elianto","#f73b6a7A","-1","-1","1","0","[]","0","2","","","16362","62","2","4","lose","no-go","0"
"pit-trial","190","1501125","0.0-67.0","battery-v0.2","","""event"",""trial"",""time""
""fullscreenenter"",""1"",""4745""
","
","
","""event"",""trial"",""time""
""fullscreenenter"",""1"",""4745""
","
","","","-1","","","18","16362","6127","h","elianto","#f73b6a7A"," ","-1","0","0","[]","0","2","","","16362","63","3","3","lose","go","1"
"pit-trial","191","1504578","0.0-68.0","battery-v0.2","","""event"",""trial"",""time""
""fullscreenenter"",""1"",""4745""
","
","
","""event"",""trial"",""time""
""fullscreenenter"",""1"",""4745""
","
","","","588.6000003814697","","","18","16362","6127","z","elianto","#3366ff99","-1"," ","0","0","[1439.7999992370605]","1","2","","","16362","64","4","2","win","no-go","0"
"pit-trial","192","1508750","0.0-69.0","battery-v0.2","","""event"",""trial"",""time""
""fullscreenenter"",""1"",""4745""
","
","
","""event"",""trial"",""time""
""fullscreenenter"",""1"",""4745""
","
","","","1309.099998474121","","","18","16362","6127","r","elianto","#3366ff99"," "," ","1","+10","[2160.099998474121]","1","2","","","16362","65","1","1","win","go","0"
"pit-trial","193","1513627","0.0-70.0","battery-v0.2","","""event"",""trial"",""time""
""fullscreenenter"",""1"",""4745""
","
","
","""event"",""trial"",""time""
""fullscreenenter"",""1"",""4745""
","
","","","-1","","","18","16362","6127","y","elianto","#f73b6a7A","-1","-1","1","0","[]","0","2","","","16362","66","2","4","lose","no-go","0"
"pit-trial","194","1517027","0.0-71.0","battery-v0.2","","""event"",""trial"",""time""
""fullscreenenter"",""1"",""4745""
","
","
","""event"",""trial"",""time""
""fullscreenenter"",""1"",""4745""
","
","","","516.7999992370605","","","18","16362","6127","z","elianto","#3366ff99","-1"," ","0","0","[1367.3999996185303]","1","2","","","16362","67","4","2","win","no-go","0"
"pit-trial","195","1521911","0.0-72.0","battery-v0.2","","""event"",""trial"",""time""
""fullscreenenter"",""1"",""4745""
","
","
","""event"",""trial"",""time""
""fullscreenenter"",""1"",""4745""
","
","","","-1","","","18","16362","6127","h","elianto","#f73b6a7A"," ","-1","0","-10","[]","0","2","","","16362","68","3","3","lose","go","0"
"pit-trial","196","1525602","0.0-73.0","battery-v0.2","","""event"",""trial"",""time""
""fullscreenenter"",""1"",""4745""
","
","
","""event"",""trial"",""time""
""fullscreenenter"",""1"",""4745""
","
","","","818.7999992370605","","","18","16362","6127","z","elianto","#3366ff99","-1"," ","0","0","[1677.3999996185303]","1","2","","","16362","69","4","2","win","no-go","0"
"pit-trial","197","1530466","0.0-74.0","battery-v0.2","","""event"",""trial"",""time""
""fullscreenenter"",""1"",""4745""
","
","
","""event"",""trial"",""time""
""fullscreenenter"",""1"",""4745""
","
","","","-1","","","18","16362","6127","h","elianto","#f73b6a7A"," ","-1","0","-10","[]","0","2","","","16362","70","3","3","lose","go","0"
"pit-trial","198","1534020","0.0-75.0","battery-v0.2","","""event"",""trial"",""time""
""fullscreenenter"",""1"",""4745""
","
","
","""event"",""trial"",""time""
""fullscreenenter"",""1"",""4745""
","
","","","694.1000003814697","","","18","16362","6127","c","elianto","#3366ff99"," "," ","1","0","[1549]","1","2","","","16362","71","5","1","win","go","1"
"pit-trial","199","1537524","0.0-76.0","battery-v0.2","","""event"",""trial"",""time""
""fullscreenenter"",""1"",""4745""
","
","
","""event"",""trial"",""time""
""fullscreenenter"",""1"",""4745""
","
","","","638.6999988555908","","","18","16362","6127","r","elianto","#3366ff99"," "," ","1","0","[1493.6999988555908]","1","2","","","16362","72","1","1","win","go","1"
"pit-trial","200","1541234","0.0-77.0","battery-v0.2","","""event"",""trial"",""time""
""fullscreenenter"",""1"",""4745""
","
","
","""event"",""trial"",""time""
""fullscreenenter"",""1"",""4745""
","
","","","842.5","","","18","16362","6127","r","elianto","#3366ff99"," "," ","1","0","[1694]","1","2","","","16362","73","1","1","win","go","1"
"pit-trial","201","1546109","0.0-78.0","battery-v0.2","","""event"",""trial"",""time""
""fullscreenenter"",""1"",""4745""
","
","
","""event"",""trial"",""time""
""fullscreenenter"",""1"",""4745""
","
","","","-1","","","18","16362","6127","h","elianto","#f73b6a7A"," ","-1","0","0","[]","0","2","","","16362","74","3","3","lose","go","1"
"pit-trial","202","1549502","0.0-79.0","battery-v0.2","","""event"",""trial"",""time""
""fullscreenenter"",""1"",""4745""
","
","
","""event"",""trial"",""time""
""fullscreenenter"",""1"",""4745""
","
","","","533.3999996185303","","","18","16362","6127","z","elianto","#3366ff99","-1"," ","0","0","[1384.5]","1","2","","","16362","75","4","2","win","no-go","0"
"pit-trial","203","1552900","0.0-80.0","battery-v0.2","","""event"",""trial"",""time""
""fullscreenenter"",""1"",""4745""
","
","
","""event"",""trial"",""time""
""fullscreenenter"",""1"",""4745""
","
","","","531.2000007629395","","","18","16362","6127","c","elianto","#3366ff99"," "," ","1","+10","[1381.7000007629395]","1","2","","","16362","76","5","1","win","go","0"
"pit-trial","204","1556344","0.0-81.0","battery-v0.2","","""event"",""trial"",""time""
""fullscreenenter"",""1"",""4745""
","
","
","""event"",""trial"",""time""
""fullscreenenter"",""1"",""4745""
","
","","","582.8999996185303","","","18","16362","6127","z","elianto","#3366ff99","-1"," ","0","0","[1433.7000007629395]","1","2","","","16362","77","4","2","win","no-go","0"
"pit-trial","205","1559766","0.0-82.0","battery-v0.2","","""event"",""trial"",""time""
""fullscreenenter"",""1"",""4745""
","
","
","""event"",""trial"",""time""
""fullscreenenter"",""1"",""4745""
","
","","","560.1000003814697","","","18","16362","6127","c","elianto","#3366ff99"," "," ","1","+10","[1410.5]","1","2","","","16362","78","5","1","win","go","0"
"pit-trial","206","1564629","0.0-83.0","battery-v0.2","","""event"",""trial"",""time""
""fullscreenenter"",""1"",""4745""
","
","
","""event"",""trial"",""time""
""fullscreenenter"",""1"",""4745""
","
","","","-1","","","18","16362","6127","b","elianto","#f73b6a7A","-1","-1","1","0","[]","0","2","","","16362","79","6","4","lose","no-go","0"
"pit-trial","207","1569499","0.0-84.0","battery-v0.2","","""event"",""trial"",""time""
""fullscreenenter"",""1"",""4745""
","
","
","""event"",""trial"",""time""
""fullscreenenter"",""1"",""4745""
","
","","","-1","","","18","16362","6127","h","elianto","#f73b6a7A"," ","-1","0","-10","[]","0","2","","","16362","80","3","3","lose","go","0"
"pit-trial","208","1572941","0.0-85.0","battery-v0.2","","""event"",""trial"",""time""
""fullscreenenter"",""1"",""4745""
","
","
","""event"",""trial"",""time""
""fullscreenenter"",""1"",""4745""
","
","","","574.0999984741211","","","18","16362","6127","c","elianto","#3366ff99"," "," ","1","0","[1425.8999996185303]","1","2","","","16362","81","5","1","win","go","1"
"pit-trial","209","1577814","0.0-86.0","battery-v0.2","","""event"",""trial"",""time""
""fullscreenenter"",""1"",""4745""
","
","
","""event"",""trial"",""time""
""fullscreenenter"",""1"",""4745""
","
","","","-1","","","18","16362","6127","t","elianto","#f73b6a7A"," ","-1","0","-10","[]","0","2","","","16362","82","7","3","lose","go","0"
"pit-trial","210","1581229","0.0-87.0","battery-v0.2","","""event"",""trial"",""time""
""fullscreenenter"",""1"",""4745""
","
","
","""event"",""trial"",""time""
""fullscreenenter"",""1"",""4745""
","
","","","542.1000003814697","","","18","16362","6127","z","elianto","#3366ff99","-1"," ","0","0","[1392.3000011444092]","1","2","","","16362","83","4","2","win","no-go","0"
"pit-trial","211","1586099","0.0-88.0","battery-v0.2","","""event"",""trial"",""time""
""fullscreenenter"",""1"",""4745""
","
","
","""event"",""trial"",""time""
""fullscreenenter"",""1"",""4745""
","
","","","-1","","","18","16362","6127","b","elianto","#f73b6a7A","-1","-1","1","-10","[]","0","2","","","16362","84","6","4","lose","no-go","1"
"pit-trial","212","1590970","0.0-89.0","battery-v0.2","","""event"",""trial"",""time""
""fullscreenenter"",""1"",""4745""
","
","
","""event"",""trial"",""time""
""fullscreenenter"",""1"",""4745""
","
","","","-1","","","18","16362","6127","c","elianto","#3366ff99"," ","-1","0","0","[3640]","1","2","","","16362","85","5","1","win","go","0"
"pit-trial","213","1595854","0.0-90.0","battery-v0.2","","""event"",""trial"",""time""
""fullscreenenter"",""1"",""4745""
","
","
","""event"",""trial"",""time""
""fullscreenenter"",""1"",""4745""
","
","","","-1","","","18","16362","6127","b","elianto","#f73b6a7A","-1","-1","1","0","[]","0","2","","","16362","86","6","4","lose","no-go","0"
"pit-trial","214","1600714","0.0-91.0","battery-v0.2","","""event"",""trial"",""time""
""fullscreenenter"",""1"",""4745""
","
","
","""event"",""trial"",""time""
""fullscreenenter"",""1"",""4745""
","
","","","-1","","","18","16362","6127","t","elianto","#f73b6a7A"," ","-1","0","-10","[]","0","2","","","16362","87","7","3","lose","go","0"
"pit-trial","215","1604099","0.0-92.0","battery-v0.2","","""event"",""trial"",""time""
""fullscreenenter"",""1"",""4745""
","
","
","""event"",""trial"",""time""
""fullscreenenter"",""1"",""4745""
","
","","","524.3999996185303","","","18","16362","6127","z","elianto","#3366ff99","-1"," ","0","0","[1378.8000011444092]","1","2","","","16362","88","4","2","win","no-go","0"
"pit-trial","216","1608968","0.0-93.0","battery-v0.2","","""event"",""trial"",""time""
""fullscreenenter"",""1"",""4745""
","
","
","""event"",""trial"",""time""
""fullscreenenter"",""1"",""4745""
","
","","","-1","","","18","16362","6127","t","elianto","#f73b6a7A"," ","-1","0","-10","[]","0","2","","","16362","89","7","3","lose","go","0"
"pit-trial","217","1613831","0.0-94.0","battery-v0.2","","""event"",""trial"",""time""
""fullscreenenter"",""1"",""4745""
","
","
","""event"",""trial"",""time""
""fullscreenenter"",""1"",""4745""
","
","","","-1","","","18","16362","6127","b","elianto","#f73b6a7A","-1","-1","1","-10","[]","0","2","","","16362","90","6","4","lose","no-go","1"
"pit-trial","218","1617227","0.0-95.0","battery-v0.2","","""event"",""trial"",""time""
""fullscreenenter"",""1"",""4745""
","
","
","""event"",""trial"",""time""
""fullscreenenter"",""1"",""4745""
","
","","","530.5","","","18","16362","6127","c","elianto","#3366ff99"," "," ","1","+10","[1387.8999996185303]","1","2","","","16362","91","5","1","win","go","0"
"pit-trial","219","1622095","0.0-96.0","battery-v0.2","","""event"",""trial"",""time""
""fullscreenenter"",""1"",""4745""
","
","
","""event"",""trial"",""time""
""fullscreenenter"",""1"",""4745""
","
","","","-1","","","18","16362","6127","z","elianto","#3366ff99","-1","-1","1","+10","[3078.6000003814697]","1","2","","","16362","92","4","2","win","no-go","0"
"pit-trial","220","1626957","0.0-97.0","battery-v0.2","","""event"",""trial"",""time""
""fullscreenenter"",""1"",""4745""
","
","
","""event"",""trial"",""time""
""fullscreenenter"",""1"",""4745""
","
","","","-1","","","18","16362","6127","b","elianto","#f73b6a7A","-1","-1","1","-10","[]","0","2","","","16362","93","6","4","lose","no-go","1"
"pit-trial","221","1630444","0.0-98.0","battery-v0.2","","""event"",""trial"",""time""
""fullscreenenter"",""1"",""4745""
","
","
","""event"",""trial"",""time""
""fullscreenenter"",""1"",""4745""
","
","","","617.7000007629395","","","18","16362","6127","f","elianto","#3366ff99","-1"," ","0","0","[1475]","1","2","","","16362","94","8","2","win","no-go","0"
"pit-trial","222","1634388","0.0-99.0","battery-v0.2","","""event"",""trial"",""time""
""fullscreenenter"",""1"",""4745""
","
","
","""event"",""trial"",""time""
""fullscreenenter"",""1"",""4745""
","
","","","1075.3000011444092","","","18","16362","6127","c","elianto","#3366ff99"," "," ","1","+10","[1935.5]","1","2","","","16362","95","5","1","win","go","0"
"pit-trial","223","1639261","0.0-100.0","battery-v0.2","","""event"",""trial"",""time""
""fullscreenenter"",""1"",""4745""
","
","
","""event"",""trial"",""time""
""fullscreenenter"",""1"",""4745""
","
","","","-1","","","18","16362","6127","t","elianto","#f73b6a7A"," ","-1","0","0","[]","0","2","","","16362","96","7","3","lose","go","1"
"pit-trial","224","1642803","0.0-101.0","battery-v0.2","","""event"",""trial"",""time""
""fullscreenenter"",""1"",""4745""
","
","
","""event"",""trial"",""time""
""fullscreenenter"",""1"",""4745""
","
","","","673.5","","","18","16362","6127","f","elianto","#3366ff99","-1"," ","0","0","[1529.900001525879]","1","2","","","16362","97","8","2","win","no-go","0"
"pit-trial","225","1647669","0.0-102.0","battery-v0.2","","""event"",""trial"",""time""
""fullscreenenter"",""1"",""4745""
","
","
","""event"",""trial"",""time""
""fullscreenenter"",""1"",""4745""
","
","","","-1","","","18","16362","6127","b","elianto","#f73b6a7A","-1","-1","1","0","[]","0","2","","","16362","98","6","4","lose","no-go","0"
"pit-trial","226","1652542","0.0-103.0","battery-v0.2","","""event"",""trial"",""time""
""fullscreenenter"",""1"",""4745""
","
","
","""event"",""trial"",""time""
""fullscreenenter"",""1"",""4745""
","
","","","-1","","","18","16362","6127","t","elianto","#f73b6a7A"," ","-1","0","-10","[]","0","2","","","16362","99","7","3","lose","go","0"
"pit-trial","227","1656048","0.0-104.0","battery-v0.2","","""event"",""trial"",""time""
""fullscreenenter"",""1"",""4745""
","
","
","""event"",""trial"",""time""
""fullscreenenter"",""1"",""4745""
","
","","","642.7999992370605","","","18","16362","6127","c","elianto","#3366ff99"," "," ","1","+10","[1494.099998474121]","1","2","","","16362","100","5","1","win","go","0"
"pit-trial","228","1659907","0.0-105.0","battery-v0.2","","""event"",""trial"",""time""
""fullscreenenter"",""1"",""4745""
","
","
","""event"",""trial"",""time""
""fullscreenenter"",""1"",""4745""
","
","","","981.6000003814697","","","18","16362","6127","f","elianto","#3366ff99","-1"," ","0","0","[1833.6000003814697]","1","2","","","16362","101","8","2","win","no-go","0"
"pit-trial","229","1663342","0.0-106.0","battery-v0.2","","""event"",""trial"",""time""
""fullscreenenter"",""1"",""4745""
","
","
","""event"",""trial"",""time""
""fullscreenenter"",""1"",""4745""
","
","","","569.1999988555908","","","18","16362","6127","n","elianto","#3366ff99","-1"," ","0","+10","[1426.2999992370605]","1","2","","","16362","102","9","2","win","no-go","1"
"pit-trial","230","1667110","0.0-107.0","battery-v0.2","","""event"",""trial"",""time""
""fullscreenenter"",""1"",""4745""
","
","
","""event"",""trial"",""time""
""fullscreenenter"",""1"",""4745""
","
","","","911.1999988555908","","","18","16362","6127","c","elianto","#3366ff99"," "," ","1","+10","[1761.6999988555908]","1","2","","","16362","103","5","1","win","go","0"
"pit-trial","231","1671973","0.0-108.0","battery-v0.2","","""event"",""trial"",""time""
""fullscreenenter"",""1"",""4745""
","
","
","""event"",""trial"",""time""
""fullscreenenter"",""1"",""4745""
","
","","","-1","","","18","16362","6127","b","elianto","#f73b6a7A","-1","-1","1","0","[]","0","2","","","16362","104","6","4","lose","no-go","0"
"pit-trial","232","1676842","0.0-109.0","battery-v0.2","","""event"",""trial"",""time""
""fullscreenenter"",""1"",""4745""
","
","
","""event"",""trial"",""time""
""fullscreenenter"",""1"",""4745""
","
","","","-1","","","18","16362","6127","b","elianto","#f73b6a7A","-1","-1","1","0","[]","0","2","","","16362","105","6","4","lose","no-go","0"
"pit-trial","233","1680466","0.0-110.0","battery-v0.2","","""event"",""trial"",""time""
""fullscreenenter"",""1"",""4745""
","
","
","""event"",""trial"",""time""
""fullscreenenter"",""1"",""4745""
","
","","","753.0999984741211","","","18","16362","6127","c","elianto","#3366ff99"," "," ","1","+10","[1610.1000003814697]","1","2","","","16362","106","5","1","win","go","0"
"pit-trial","234","1684794","0.0-111.0","battery-v0.2","","""event"",""trial"",""time""
""fullscreenenter"",""1"",""4745""
","
","
","""event"",""trial"",""time""
""fullscreenenter"",""1"",""4745""
","
","","","1454.7999992370605","","","18","16362","6127","n","elianto","#3366ff99","-1"," ","0","0","[2305.2000007629395]","1","2","","","16362","107","9","2","win","no-go","0"
"pit-trial","235","1688285","0.0-112.0","battery-v0.2","","""event"",""trial"",""time""
""fullscreenenter"",""1"",""4745""
","
","
","""event"",""trial"",""time""
""fullscreenenter"",""1"",""4745""
","
","","","631.5","","","18","16362","6127","f","elianto","#3366ff99","-1"," ","0","+10","[1482.6000003814697]","1","2","","","16362","108","8","2","win","no-go","1"
"pit-trial","236","1692472","0.0-113.0","battery-v0.2","","""event"",""trial"",""time""
""fullscreenenter"",""1"",""4745""
","
","
","""event"",""trial"",""time""
""fullscreenenter"",""1"",""4745""
","
","","","1329.8999996185303","","","18","16362","6127","n","elianto","#3366ff99","-1"," ","0","0","[2180.5]","1","2","","","16362","109","9","2","win","no-go","0"
"pit-trial","237","1695978","0.0-114.0","battery-v0.2","","""event"",""trial"",""time""
""fullscreenenter"",""1"",""4745""
","
","
","""event"",""trial"",""time""
""fullscreenenter"",""1"",""4745""
","
","","","618.5","","","18","16362","6127","c","elianto","#3366ff99"," "," ","1","+10","[1476.6999988555908]","1","2","","","16362","110","5","1","win","go","0"
"pit-trial","238","1699429","0.0-115.0","battery-v0.2","","""event"",""trial"",""time""
""fullscreenenter"",""1"",""4745""
","
","
","""event"",""trial"",""time""
""fullscreenenter"",""1"",""4745""
","
","","","585.7999992370605","","","18","16362","6127","f","elianto","#3366ff99","-1"," ","0","0","[1445.2000007629395]","1","2","","","16362","111","8","2","win","no-go","0"
"pit-trial","239","1704294","0.0-116.0","battery-v0.2","","""event"",""trial"",""time""
""fullscreenenter"",""1"",""4745""
","
","
","""event"",""trial"",""time""
""fullscreenenter"",""1"",""4745""
","
","","","-1","","","18","16362","6127","b","elianto","#f73b6a7A","-1","-1","1","0","[]","0","2","","","16362","112","6","4","lose","no-go","0"
"pit-trial","240","1707668","0.0-117.0","battery-v0.2","","""event"",""trial"",""time""
""fullscreenenter"",""1"",""4745""
","
","
","""event"",""trial"",""time""
""fullscreenenter"",""1"",""4745""
","
","","","503.8999996185303","","","18","16362","6127","f","elianto","#3366ff99","-1"," ","0","0","[1362.6000003814697]","1","2","","","16362","113","8","2","win","no-go","0"
"pit-trial","241","1711186","0.0-118.0","battery-v0.2","","""event"",""trial"",""time""
""fullscreenenter"",""1"",""4745""
","
","
","""event"",""trial"",""time""
""fullscreenenter"",""1"",""4745""
","
","","","654","","","18","16362","6127","c","elianto","#3366ff99"," "," ","1","+10","[1504]","1","2","","","16362","114","5","1","win","go","0"
"pit-trial","242","1716057","0.0-119.0","battery-v0.2","","""event"",""trial"",""time""
""fullscreenenter"",""1"",""4745""
","
","
","""event"",""trial"",""time""
""fullscreenenter"",""1"",""4745""
","
","","","-1","","","18","16362","6127","t","elianto","#f73b6a7A"," ","-1","0","-10","[]","0","2","","","16362","115","7","3","lose","go","0"
"pit-trial","243","1719539","0.0-120.0","battery-v0.2","","""event"",""trial"",""time""
""fullscreenenter"",""1"",""4745""
","
","
","""event"",""trial"",""time""
""fullscreenenter"",""1"",""4745""
","
","","","616.1000003814697","","","18","16362","6127","n","elianto","#3366ff99","-1"," ","0","0","[1470.8999996185303]","1","2","","","16362","116","9","2","win","no-go","0"
"pit-trial","244","1723075","0.0-121.0","battery-v0.2","","""event"",""trial"",""time""
""fullscreenenter"",""1"",""4745""
","
","
","""event"",""trial"",""time""
""fullscreenenter"",""1"",""4745""
","
","","","661.1000003814697","","","18","16362","6127","c","elianto","#3366ff99"," "," ","1","+10","[1515.7999992370605]","1","2","","","16362","117","5","1","win","go","0"
"pit-trial","245","1726464","0.0-122.0","battery-v0.2","","""event"",""trial"",""time""
""fullscreenenter"",""1"",""4745""
","
","
","""event"",""trial"",""time""
""fullscreenenter"",""1"",""4745""
","
","","","524.3999996185303","","","18","16362","6127","n","elianto","#3366ff99","-1"," ","0","0","[1380.2999992370605]","1","2","","","16362","118","9","2","win","no-go","0"
"pit-trial","246","1729848","0.0-123.0","battery-v0.2","","""event"",""trial"",""time""
""fullscreenenter"",""1"",""4745""
","
","
","""event"",""trial"",""time""
""fullscreenenter"",""1"",""4745""
","
","","","514.6000003814697","","","18","16362","6127","f","elianto","#3366ff99","-1"," ","0","0","[1366]","1","2","","","16362","119","8","2","win","no-go","0"
"pit-trial","247","1734727","0.0-124.0","battery-v0.2","","""event"",""trial"",""time""
""fullscreenenter"",""1"",""4745""
","
","
","""event"",""trial"",""time""
""fullscreenenter"",""1"",""4745""
","
","","","-1","","","18","16362","6127","b","elianto","#f73b6a7A","-1","-1","1","0","[]","0","2","","","16362","120","6","4","lose","no-go","0"
"pit-trial","248","1738167","0.0-125.0","battery-v0.2","","""event"",""trial"",""time""
""fullscreenenter"",""1"",""4745""
","
","
","""event"",""trial"",""time""
""fullscreenenter"",""1"",""4745""
","
","","","573.8000011444092","","","18","16362","6127","n","elianto","#3366ff99","-1"," ","0","0","[1425.3999996185303]","1","2","","","16362","121","9","2","win","no-go","0"
"pit-trial","249","1741710","0.0-126.0","battery-v0.2","","""event"",""trial"",""time""
""fullscreenenter"",""1"",""4745""
","
","
","""event"",""trial"",""time""
""fullscreenenter"",""1"",""4745""
","
","","","674","","","18","16362","6127","f","elianto","#3366ff99","-1"," ","0","0","[1526]","1","2","","","16362","122","8","2","win","no-go","0"
"pit-trial","250","1746213","0.0-127.0","battery-v0.2","","""event"",""trial"",""time""
""fullscreenenter"",""1"",""4745""
","
","
","""event"",""trial"",""time""
""fullscreenenter"",""1"",""4745""
","
","","","1637.6000003814697","","","18","16362","6127","c","elianto","#3366ff99"," "," ","1","+10","[2490.8999996185303]","1","2","","","16362","123","5","1","win","go","0"
"pit-trial","251","1751090","0.0-128.0","battery-v0.2","","""event"",""trial"",""time""
""fullscreenenter"",""1"",""4745""
","
","
","""event"",""trial"",""time""
""fullscreenenter"",""1"",""4745""
","
","","","-1","","","18","16362","6127","t","elianto","#f73b6a7A"," ","-1","0","0","[]","0","2","","","16362","124","7","3","lose","go","1"
"pit-trial","252","1754554","0.0-129.0","battery-v0.2","","""event"",""trial"",""time""
""fullscreenenter"",""1"",""4745""
","
","
","""event"",""trial"",""time""
""fullscreenenter"",""1"",""4745""
","
","","","597.2000007629395","","","18","16362","6127","f","elianto","#3366ff99","-1"," ","0","0","[1448.6000003814697]","1","2","","","16362","125","8","2","win","no-go","0"
"pit-trial","253","1759414","0.0-130.0","battery-v0.2","","""event"",""trial"",""time""
""fullscreenenter"",""1"",""4745""
","
","
","""event"",""trial"",""time""
""fullscreenenter"",""1"",""4745""
","
","","","-1","","","18","16362","6127","n","elianto","#3366ff99","-1","-1","1","+10","[3077.8999996185303]","1","2","","","16362","126","9","2","win","no-go","0"
"pit-trial","254","1764280","0.0-131.0","battery-v0.2","","""event"",""trial"",""time""
""fullscreenenter"",""1"",""4745""
","
","
","""event"",""trial"",""time""
""fullscreenenter"",""1"",""4745""
","
","","","-1","","","18","16362","6127","b","elianto","#f73b6a7A","-1","-1","1","0","[]","0","2","","","16362","127","6","4","lose","no-go","0"
"pit-trial","255","1769146","0.0-132.0","battery-v0.2","","""event"",""trial"",""time""
""fullscreenenter"",""1"",""4745""
","
","
","""event"",""trial"",""time""
""fullscreenenter"",""1"",""4745""
","
","","","-1","","","18","16362","6127","t","elianto","#f73b6a7A"," ","-1","0","-10","[]","0","2","","","16362","128","7","3","lose","go","0"
"pit-trial","256","1774032","0.0-133.0","battery-v0.2","","""event"",""trial"",""time""
""fullscreenenter"",""1"",""4745""
","
","
","""event"",""trial"",""time""
""fullscreenenter"",""1"",""4745""
","
","","","-1","","","18","16362","6127","b","elianto","#f73b6a7A","-1","-1","1","0","[]","0","2","","","16362","129","6","4","lose","no-go","0"
"pit-trial","257","1777643","0.0-134.0","battery-v0.2","","""event"",""trial"",""time""
""fullscreenenter"",""1"",""4745""
","
","
","""event"",""trial"",""time""
""fullscreenenter"",""1"",""4745""
","
","","","747.6000003814697","","","18","16362","6127","f","elianto","#3366ff99","-1"," ","0","0","[1598.7000007629395]","1","2","","","16362","130","8","2","win","no-go","0"
"pit-trial","258","1782008","0.0-135.0","battery-v0.2","","""event"",""trial"",""time""
""fullscreenenter"",""1"",""4745""
","
","
","""event"",""trial"",""time""
""fullscreenenter"",""1"",""4745""
","
","","","1497.2999992370605","","","18","16362","6127","n","elianto","#3366ff99","-1"," ","0","0","[2353.7000007629395]","1","2","","","16362","131","9","2","win","no-go","0"
"pit-trial","259","1786907","0.0-136.0","battery-v0.2","","""event"",""trial"",""time""
""fullscreenenter"",""1"",""4745""
","
","
","""event"",""trial"",""time""
""fullscreenenter"",""1"",""4745""
","
","","","-1","","","18","16362","6127","t","elianto","#f73b6a7A"," ","-1","0","-10","[]","0","2","","","16362","132","7","3","lose","go","0"
"pit-trial","260","1790318","0.0-137.0","battery-v0.2","","""event"",""trial"",""time""
""fullscreenenter"",""1"",""4745""
","
","
","""event"",""trial"",""time""
""fullscreenenter"",""1"",""4745""
","
","","","551.2000007629395","","","18","16362","6127","n","elianto","#3366ff99","-1"," ","0","+10","[1407.2000007629395]","1","2","","","16362","133","9","2","win","no-go","1"
"pit-trial","261","1793833","0.0-138.0","battery-v0.2","","""event"",""trial"",""time""
""fullscreenenter"",""1"",""4745""
","
","
","""event"",""trial"",""time""
""fullscreenenter"",""1"",""4745""
","
","","","648.1000003814697","","","18","16362","6127","f","elianto","#3366ff99","-1"," ","0","+10","[1503.1000003814697]","1","2","","","16362","134","8","2","win","no-go","1"
"pit-trial","262","1798699","0.0-139.0","battery-v0.2","","""event"",""trial"",""time""
""fullscreenenter"",""1"",""4745""
","
","
","""event"",""trial"",""time""
""fullscreenenter"",""1"",""4745""
","
","","","-1","","","18","16362","6127","t","elianto","#f73b6a7A"," ","-1","0","-10","[]","0","2","","","16362","135","7","3","lose","go","0"
"pit-trial","263","1803564","0.0-140.0","battery-v0.2","","""event"",""trial"",""time""
""fullscreenenter"",""1"",""4745""
","
","
","""event"",""trial"",""time""
""fullscreenenter"",""1"",""4745""
","
","","","-1","","","18","16362","6127","b","elianto","#f73b6a7A","-1","-1","1","0","[]","0","2","","","16362","136","6","4","lose","no-go","0"
"pit-trial","264","1807108","0.0-141.0","battery-v0.2","","""event"",""trial"",""time""
""fullscreenenter"",""1"",""4745""
","
","
","""event"",""trial"",""time""
""fullscreenenter"",""1"",""4745""
","
","","","683.2999992370605","","","18","16362","6127","n","elianto","#3366ff99","-1"," ","0","0","[1533.2999992370605]","1","2","","","16362","137","9","2","win","no-go","0"
"pit-trial","265","1811974","0.0-142.0","battery-v0.2","","""event"",""trial"",""time""
""fullscreenenter"",""1"",""4745""
","
","
","""event"",""trial"",""time""
""fullscreenenter"",""1"",""4745""
","
","","","-1","","","18","16362","6127","t","elianto","#f73b6a7A"," ","-1","0","-10","[]","0","2","","","16362","138","7","3","lose","go","0"
"pit-trial","266","1816848","0.0-143.0","battery-v0.2","","""event"",""trial"",""time""
""fullscreenenter"",""1"",""4745""
","
","
","""event"",""trial"",""time""
""fullscreenenter"",""1"",""4745""
","
","","","-1","","","18","16362","6127","b","elianto","#f73b6a7A","-1","-1","1","-10","[]","0","2","","","16362","139","6","4","lose","no-go","1"
"pit-trial","267","1820351","0.0-144.0","battery-v0.2","","""event"",""trial"",""time""
""fullscreenenter"",""1"",""4745""
","
","
","""event"",""trial"",""time""
""fullscreenenter"",""1"",""4745""
","
","","","640","","","18","16362","6127","f","elianto","#3366ff99","-1"," ","0","0","[1490.6000003814697]","1","2","","","16362","140","8","2","win","no-go","0"
"pit-instructions","268","1839171","0.0-145.0","battery-v0.2","","""event"",""trial"",""time""
""fullscreenenter"",""1"",""4745""
","
","
","""event"",""trial"",""time""
""fullscreenenter"",""1"",""4745""
","
