"trial_type","trial_index","time_elapsed","internal_node_id","task_version","subject_id","interactions","blur_events","focus_events","fullscreenenter_events","fullscreenexit_events","success","view_history","rt","responses","num_errors","age","subject","participantId","rune","rune_set","hex","correct","choice","accuracy","outcome","keys","total_keys","block","practice","value","sub","trial","stimulus","robot","valence","action","sham"
"pavlovia","0","14","0.0-0.0","battery-v0.2","","""event"",""trial"",""time""
""fullscreenenter"",""1"",""5698""
","
","
","""event"",""trial"",""time""
""fullscreenenter"",""1"",""5698""
","
","","","","","","","","","","","","","","","","","","","","","","","","","","",""
"fullscreen","1","6464","0.0-1.0","battery-v0.2","","""event"",""trial"",""time""
""fullscreenenter"",""1"",""5698""
""blur"",""2"",""25859""
""focus"",""2"",""40013""
","""event"",""trial"",""time""
""blur"",""2"",""25859""
","""event"",""trial"",""time""
""focus"",""2"",""40013""
","""event"",""trial"",""time""
""fullscreenenter"",""1"",""5698""
","
","true","","","","","","","","","","","","","","","","","","","","","","","","","",""
"pit-instructions","2","40222","0.0-2.0-0.0","battery-v0.2","","""event"",""trial"",""time""
""fullscreenenter"",""1"",""5698""
""blur"",""2"",""25859""
""focus"",""2"",""40013""
""blur"",""3"",""45517""
""focus"",""3"",""50390""
","""event"",""trial"",""time""
""blur"",""2"",""25859""
""blur"",""3"",""45517""
","""event"",""trial"",""time""
""focus"",""2"",""40013""
""focus"",""3"",""50390""
","""event"",""trial"",""time""
""fullscreenenter"",""1"",""5698""
","
","","[{""page_index"":0,""viewing_time"":33753.30000000447}]","33753.70000000298","","","","","","","","","","","","","","","","","","","","","","","",""
"pit-comprehension","3","52096","0.0-2.0-1.0-0.0","battery-v0.2","","""event"",""trial"",""time""
""fullscreenenter"",""1"",""5698""
""blur"",""2"",""25859""
""focus"",""2"",""40013""
""blur"",""3"",""45517""
""focus"",""3"",""50390""
","""event"",""trial"",""time""
""blur"",""2"",""25859""
""blur"",""3"",""45517""
","""event"",""trial"",""time""
""focus"",""2"",""40013""
""focus"",""3"",""50390""
","""event"",""trial"",""time""
""fullscreenenter"",""1"",""5698""
","
","","","11869.80000000447","[""shark""]","0","14","14461","6022","","","","","","","","","","","","","","","","","","",""
"pit-instructions","4","65041","0.0-2.0-1.0-1.0","battery-v0.2","","""event"",""trial"",""time""
""fullscreenenter"",""1"",""5698""
""blur"",""2"",""25859""
""focus"",""2"",""40013""
""blur"",""3"",""45517""
""focus"",""3"",""50390""
","""event"",""trial"",""time""
""blur"",""2"",""25859""
""blur"",""3"",""45517""
","""event"",""trial"",""time""
""focus"",""2"",""40013""
""focus"",""3"",""50390""
","""event"",""trial"",""time""
""fullscreenenter"",""1"",""5698""
","
","","[{""page_index"":0,""viewing_time"":12050.5}]","12051.30000000447","","","","","","","","","","","","","","","","","","","","","","","",""
"pit-comprehension","5","69956","0.0-2.0-2.0-0.0","battery-v0.2","","""event"",""trial"",""time""
""fullscreenenter"",""1"",""5698""
""blur"",""2"",""25859""
""focus"",""2"",""40013""
""blur"",""3"",""45517""
""focus"",""3"",""50390""
""blur"",""6"",""74429""
""focus"",""6"",""78355""
","""event"",""trial"",""time""
""blur"",""2"",""25859""
""blur"",""3"",""45517""
""blur"",""6"",""74429""
","""event"",""trial"",""time""
""focus"",""2"",""40013""
""focus"",""3"",""50390""
""focus"",""6"",""78355""
","""event"",""trial"",""time""
""fullscreenenter"",""1"",""5698""
","
","","","4905.60000000149","[""tiger""]","0","14","14461","6022","","","","","","","","","","","","","","","","","","",""
"pit-instructions","6","78492","0.0-2.0-2.0-1.0","battery-v0.2","","""event"",""trial"",""time""
""fullscreenenter"",""1"",""5698""
""blur"",""2"",""25859""
""focus"",""2"",""40013""
""blur"",""3"",""45517""
""focus"",""3"",""50390""
""blur"",""6"",""74429""
""focus"",""6"",""78355""
""blur"",""7"",""89637""
""focus"",""7"",""97135""
""blur"",""7"",""165653""
""focus"",""7"",""171650""
""blur"",""7"",""212051""
""focus"",""7"",""220754""
","""event"",""trial"",""time""
""blur"",""2"",""25859""
""blur"",""3"",""45517""
""blur"",""6"",""74429""
""blur"",""7"",""89637""
""blur"",""7"",""165653""
""blur"",""7"",""212051""
","""event"",""trial"",""time""
""focus"",""2"",""40013""
""focus"",""3"",""50390""
""focus"",""6"",""78355""
""focus"",""7"",""97135""
""focus"",""7"",""171650""
""focus"",""7"",""220754""
","""event"",""trial"",""time""
""fullscreenenter"",""1"",""5698""
","
","","[{""page_index"":0,""viewing_time"":8526.60000000149}]","8527","","","","","","","","","","","","","","","","","","","","","","","",""
"pit-instructions","7","228908","0.0-2.0-3.0","battery-v0.2","","""event"",""trial"",""time""
""fullscreenenter"",""1"",""5698""
""blur"",""2"",""25859""
""focus"",""2"",""40013""
""blur"",""3"",""45517""
""focus"",""3"",""50390""
""blur"",""6"",""74429""
""focus"",""6"",""78355""
""blur"",""7"",""89637""
""focus"",""7"",""97135""
""blur"",""7"",""165653""
""focus"",""7"",""171650""
""blur"",""7"",""212051""
""focus"",""7"",""220754""
","""event"",""trial"",""time""
""blur"",""2"",""25859""
""blur"",""3"",""45517""
""blur"",""6"",""74429""
""blur"",""7"",""89637""
""blur"",""7"",""165653""
""blur"",""7"",""212051""
","""event"",""trial"",""time""
""focus"",""2"",""40013""
""focus"",""3"",""50390""
""focus"",""6"",""78355""
""focus"",""7"",""97135""
""focus"",""7"",""171650""
""focus"",""7"",""220754""
","""event"",""trial"",""time""
""fullscreenenter"",""1"",""5698""
","
","","[{""page_index"":0,""viewing_time"":18848},{""page_index"":1,""viewing_time"":7258.0999999940395},{""page_index"":2,""viewing_time"":11054.40000000596},{""page_index"":3,""viewing_time"":6275.69999999553},{""page_index"":4,""viewing_time"":9670.80000000447},{""page_index"":5,""viewing_time"":7350.0999999940395},{""page_index"":6,""viewing_time"":15931},{""page_index"":7,""viewing_time"":6670.80000000447},{""page_index"":8,""viewing_time"":10273.19999999553},{""page_index"":9,""viewing_time"":9131.90000000596},{""page_index"":10,""viewing_time"":7013},{""page_index"":11,""viewing_time"":13123.79999999702},{""page_index"":12,""viewing_time"":19827.70000000298},{""page_index"":13,""viewing_time"":7983.0999999940395}]","150412.5","","","","","","","","","","","","","","","","","","","","","","","",""
"pit-trial","8","233777","0.0-2.0-4.0-0.0","battery-v0.2","","""event"",""trial"",""time""
""fullscreenenter"",""1"",""5698""
""blur"",""2"",""25859""
""focus"",""2"",""40013""
""blur"",""3"",""45517""
""focus"",""3"",""50390""
""blur"",""6"",""74429""
""focus"",""6"",""78355""
""blur"",""7"",""89637""
""focus"",""7"",""97135""
""blur"",""7"",""165653""
""focus"",""7"",""171650""
""blur"",""7"",""212051""
""focus"",""7"",""220754""
","""event"",""trial"",""time""
""blur"",""2"",""25859""
""blur"",""3"",""45517""
""blur"",""6"",""74429""
""blur"",""7"",""89637""
""blur"",""7"",""165653""
""blur"",""7"",""212051""
","""event"",""trial"",""time""
""focus"",""2"",""40013""
""focus"",""3"",""50390""
""focus"",""6"",""78355""
""focus"",""7"",""97135""
""focus"",""7"",""171650""
""focus"",""7"",""220754""
","""event"",""trial"",""time""
""fullscreenenter"",""1"",""5698""
","
","","","-1","","","14","14461","6022","&#9784;","elianto","#FFFFF080"," ","-1","0","&#10060","[4322.20000000298]","1","0","0","","","","","","","",""
"pit-trial","9","238648","0.0-2.0-4.1-0.1","battery-v0.2","","""event"",""trial"",""time""
""fullscreenenter"",""1"",""5698""
""blur"",""2"",""25859""
""focus"",""2"",""40013""
""blur"",""3"",""45517""
""focus"",""3"",""50390""
""blur"",""6"",""74429""
""focus"",""6"",""78355""
""blur"",""7"",""89637""
""focus"",""7"",""97135""
""blur"",""7"",""165653""
""focus"",""7"",""171650""
""blur"",""7"",""212051""
""focus"",""7"",""220754""
","""event"",""trial"",""time""
""blur"",""2"",""25859""
""blur"",""3"",""45517""
""blur"",""6"",""74429""
""blur"",""7"",""89637""
""blur"",""7"",""165653""
""blur"",""7"",""212051""
","""event"",""trial"",""time""
""focus"",""2"",""40013""
""focus"",""3"",""50390""
""focus"",""6"",""78355""
""focus"",""7"",""97135""
""focus"",""7"",""171650""
""focus"",""7"",""220754""
","""event"",""trial"",""time""
""fullscreenenter"",""1"",""5698""
","
","","","-1","","","14","14461","6022","&#9784;","elianto","#FFFFF080"," ","-1","0","&#10060","[3885.7000000029802]","1","0","0","","","","","","","",""
"pit-trial","10","242327","0.0-2.0-4.2-0.2","battery-v0.2","","""event"",""trial"",""time""
""fullscreenenter"",""1"",""5698""
""blur"",""2"",""25859""
""focus"",""2"",""40013""
""blur"",""3"",""45517""
""focus"",""3"",""50390""
""blur"",""6"",""74429""
""focus"",""6"",""78355""
""blur"",""7"",""89637""
""focus"",""7"",""97135""
""blur"",""7"",""165653""
""focus"",""7"",""171650""
""blur"",""7"",""212051""
""focus"",""7"",""220754""
","""event"",""trial"",""time""
""blur"",""2"",""25859""
""blur"",""3"",""45517""
""blur"",""6"",""74429""
""blur"",""7"",""89637""
""blur"",""7"",""165653""
""blur"",""7"",""212051""
","""event"",""trial"",""time""
""focus"",""2"",""40013""
""focus"",""3"",""50390""
""focus"",""6"",""78355""
""focus"",""7"",""97135""
""focus"",""7"",""171650""
""focus"",""7"",""220754""
","""event"",""trial"",""time""
""fullscreenenter"",""1"",""5698""
","
","","","817.6000000014901","","","14","14461","6022","&#9784;","elianto","#FFFFF080"," "," ","1","&#10004","[1667.5999999940395]","1","0","0","","","","","","","",""
"pit-trial","11","245864","0.0-2.0-4.3-0.3","battery-v0.2","","""event"",""trial"",""time""
""fullscreenenter"",""1"",""5698""
""blur"",""2"",""25859""
""focus"",""2"",""40013""
""blur"",""3"",""45517""
""focus"",""3"",""50390""
""blur"",""6"",""74429""
""focus"",""6"",""78355""
""blur"",""7"",""89637""
""focus"",""7"",""97135""
""blur"",""7"",""165653""
""focus"",""7"",""171650""
""blur"",""7"",""212051""
""focus"",""7"",""220754""
","""event"",""trial"",""time""
""blur"",""2"",""25859""
""blur"",""3"",""45517""
""blur"",""6"",""74429""
""blur"",""7"",""89637""
""blur"",""7"",""165653""
""blur"",""7"",""212051""
","""event"",""trial"",""time""
""focus"",""2"",""40013""
""focus"",""3"",""50390""
""focus"",""6"",""78355""
""focus"",""7"",""97135""
""focus"",""7"",""171650""
""focus"",""7"",""220754""
","""event"",""trial"",""time""
""fullscreenenter"",""1"",""5698""
","
","","","666.5","","","14","14461","6022","&#9784;","elianto","#FFFFF080"," "," ","1","&#10004","[1518.6000000014901]","1","0","0","","","","","","","",""
"pit-trial","12","249359","0.0-2.0-4.4-0.4","battery-v0.2","","""event"",""trial"",""time""
""fullscreenenter"",""1"",""5698""
""blur"",""2"",""25859""
""focus"",""2"",""40013""
""blur"",""3"",""45517""
""focus"",""3"",""50390""
""blur"",""6"",""74429""
""focus"",""6"",""78355""
""blur"",""7"",""89637""
""focus"",""7"",""97135""
""blur"",""7"",""165653""
""focus"",""7"",""171650""
""blur"",""7"",""212051""
""focus"",""7"",""220754""
","""event"",""trial"",""time""
""blur"",""2"",""25859""
""blur"",""3"",""45517""
""blur"",""6"",""74429""
""blur"",""7"",""89637""
""blur"",""7"",""165653""
""blur"",""7"",""212051""
","""event"",""trial"",""time""
""focus"",""2"",""40013""
""focus"",""3"",""50390""
""focus"",""6"",""78355""
""focus"",""7"",""97135""
""focus"",""7"",""171650""
""focus"",""7"",""220754""
","""event"",""trial"",""time""
""fullscreenenter"",""1"",""5698""
","
","","","622.8999999985099","","","14","14461","6022","&#9784;","elianto","#FFFFF080"," "," ","1","&#10004","[1482.5]","1","0","0","","","","","","","",""
"pit-instructions","13","316588","0.0-2.0-5.0","battery-v0.2","","""event"",""trial"",""time""
""fullscreenenter"",""1"",""5698""
""blur"",""2"",""25859""
""focus"",""2"",""40013""
""blur"",""3"",""45517""
""focus"",""3"",""50390""
""blur"",""6"",""74429""
""focus"",""6"",""78355""
""blur"",""7"",""89637""
""focus"",""7"",""97135""
""blur"",""7"",""165653""
""focus"",""7"",""171650""
""blur"",""7"",""212051""
""focus"",""7"",""220754""
","""event"",""trial"",""time""
""blur"",""2"",""25859""
""blur"",""3"",""45517""
""blur"",""6"",""74429""
""blur"",""7"",""89637""
""blur"",""7"",""165653""
""blur"",""7"",""212051""
","""event"",""trial"",""time""
""focus"",""2"",""40013""
""focus"",""3"",""50390""
""focus"",""6"",""78355""
""focus"",""7"",""97135""
""focus"",""7"",""171650""
""focus"",""7"",""220754""
","""event"",""trial"",""time""
""fullscreenenter"",""1"",""5698""
","
","","[{""page_index"":0,""viewing_time"":18303.20000000298},{""page_index"":1,""viewing_time"":9765.39999999851},{""page_index"":2,""viewing_time"":27722.80000000447},{""page_index"":3,""viewing_time"":11431.59999999404}]","67224.20000000298","","","","","","","","","","","","","","","","","","","","","","","",""
"pit-trial","14","321461","0.0-2.0-6.0-0.0","battery-v0.2","","""event"",""trial"",""time""
""fullscreenenter"",""1"",""5698""
""blur"",""2"",""25859""
""focus"",""2"",""40013""
""blur"",""3"",""45517""
""focus"",""3"",""50390""
""blur"",""6"",""74429""
""focus"",""6"",""78355""
""blur"",""7"",""89637""
""focus"",""7"",""97135""
""blur"",""7"",""165653""
""focus"",""7"",""171650""
""blur"",""7"",""212051""
""focus"",""7"",""220754""
","""event"",""trial"",""time""
""blur"",""2"",""25859""
""blur"",""3"",""45517""
""blur"",""6"",""74429""
""blur"",""7"",""89637""
""blur"",""7"",""165653""
""blur"",""7"",""212051""
","""event"",""trial"",""time""
""focus"",""2"",""40013""
""focus"",""3"",""50390""
""focus"",""6"",""78355""
""focus"",""7"",""97135""
""focus"",""7"",""171650""
""focus"",""7"",""220754""
","""event"",""trial"",""time""
""fullscreenenter"",""1"",""5698""
","
","","","-1","","","14","14461","6022","&#9854;","elianto","#FFFFF080","-1","-1","1","&#10004","[]","0","0","1","","","","","","","",""
"pit-trial","15","326325","0.0-2.0-6.1-0.1","battery-v0.2","","""event"",""trial"",""time""
""fullscreenenter"",""1"",""5698""
""blur"",""2"",""25859""
""focus"",""2"",""40013""
""blur"",""3"",""45517""
""focus"",""3"",""50390""
""blur"",""6"",""74429""
""focus"",""6"",""78355""
""blur"",""7"",""89637""
""focus"",""7"",""97135""
""blur"",""7"",""165653""
""focus"",""7"",""171650""
""blur"",""7"",""212051""
""focus"",""7"",""220754""
","""event"",""trial"",""time""
""blur"",""2"",""25859""
""blur"",""3"",""45517""
""blur"",""6"",""74429""
""blur"",""7"",""89637""
""blur"",""7"",""165653""
""blur"",""7"",""212051""
","""event"",""trial"",""time""
""focus"",""2"",""40013""
""focus"",""3"",""50390""
""focus"",""6"",""78355""
""focus"",""7"",""97135""
""focus"",""7"",""171650""
""focus"",""7"",""220754""
","""event"",""trial"",""time""
""fullscreenenter"",""1"",""5698""
","
","","","-1","","","14","14461","6022","&#9854;","elianto","#FFFFF080","-1","-1","1","&#10004","[]","0","0","1","","","","","","","",""
"pit-trial","16","331202","0.0-2.0-6.2-0.2","battery-v0.2","","""event"",""trial"",""time""
""fullscreenenter"",""1"",""5698""
""blur"",""2"",""25859""
""focus"",""2"",""40013""
""blur"",""3"",""45517""
""focus"",""3"",""50390""
""blur"",""6"",""74429""
""focus"",""6"",""78355""
""blur"",""7"",""89637""
""focus"",""7"",""97135""
""blur"",""7"",""165653""
""focus"",""7"",""171650""
""blur"",""7"",""212051""
""focus"",""7"",""220754""
","""event"",""trial"",""time""
""blur"",""2"",""25859""
""blur"",""3"",""45517""
""blur"",""6"",""74429""
""blur"",""7"",""89637""
""blur"",""7"",""165653""
""blur"",""7"",""212051""
","""event"",""trial"",""time""
""focus"",""2"",""40013""
""focus"",""3"",""50390""
""focus"",""6"",""78355""
""focus"",""7"",""97135""
""focus"",""7"",""171650""
""focus"",""7"",""220754""
","""event"",""trial"",""time""
""fullscreenenter"",""1"",""5698""
","
","","","-1","","","14","14461","6022","&#9854;","elianto","#FFFFF080","-1","-1","1","&#10004","[]","0","0","1","","","","","","","",""
"pit-trial","17","336075","0.0-2.0-6.3-0.3","battery-v0.2","","""event"",""trial"",""time""
""fullscreenenter"",""1"",""5698""
""blur"",""2"",""25859""
""focus"",""2"",""40013""
""blur"",""3"",""45517""
""focus"",""3"",""50390""
""blur"",""6"",""74429""
""focus"",""6"",""78355""
""blur"",""7"",""89637""
""focus"",""7"",""97135""
""blur"",""7"",""165653""
""focus"",""7"",""171650""
""blur"",""7"",""212051""
""focus"",""7"",""220754""
","""event"",""trial"",""time""
""blur"",""2"",""25859""
""blur"",""3"",""45517""
""blur"",""6"",""74429""
""blur"",""7"",""89637""
""blur"",""7"",""165653""
""blur"",""7"",""212051""
","""event"",""trial"",""time""
""focus"",""2"",""40013""
""focus"",""3"",""50390""
""focus"",""6"",""78355""
""focus"",""7"",""97135""
""focus"",""7"",""171650""
""focus"",""7"",""220754""
","""event"",""trial"",""time""
""fullscreenenter"",""1"",""5698""
","
","","","-1","","","14","14461","6022","&#9854;","elianto","#FFFFF080","-1","-1","1","&#10004","[]","0","0","1","","","","","","","",""
"pit-trial","18","340950","0.0-2.0-6.4-0.4","battery-v0.2","","""event"",""trial"",""time""
""fullscreenenter"",""1"",""5698""
""blur"",""2"",""25859""
""focus"",""2"",""40013""
""blur"",""3"",""45517""
""focus"",""3"",""50390""
""blur"",""6"",""74429""
""focus"",""6"",""78355""
""blur"",""7"",""89637""
""focus"",""7"",""97135""
""blur"",""7"",""165653""
""focus"",""7"",""171650""
""blur"",""7"",""212051""
""focus"",""7"",""220754""
","""event"",""trial"",""time""
""blur"",""2"",""25859""
""blur"",""3"",""45517""
""blur"",""6"",""74429""
""blur"",""7"",""89637""
""blur"",""7"",""165653""
""blur"",""7"",""212051""
","""event"",""trial"",""time""
""focus"",""2"",""40013""
""focus"",""3"",""50390""
""focus"",""6"",""78355""
""focus"",""7"",""97135""
""focus"",""7"",""171650""
""focus"",""7"",""220754""
","""event"",""trial"",""time""
""fullscreenenter"",""1"",""5698""
","
","","","-1","","","14","14461","6022","&#9854;","elianto","#FFFFF080","-1","-1","1","&#10004","[]","0","0","1","","","","","","","",""
"pit-instructions","19","610294","0.0-2.0-7.0","battery-v0.2","","""event"",""trial"",""time""
""fullscreenenter"",""1"",""5698""
""blur"",""2"",""25859""
""focus"",""2"",""40013""
""blur"",""3"",""45517""
""focus"",""3"",""50390""
""blur"",""6"",""74429""
""focus"",""6"",""78355""
""blur"",""7"",""89637""
""focus"",""7"",""97135""
""blur"",""7"",""165653""
""focus"",""7"",""171650""
""blur"",""7"",""212051""
""focus"",""7"",""220754""
","""event"",""trial"",""time""
""blur"",""2"",""25859""
""blur"",""3"",""45517""
""blur"",""6"",""74429""
""blur"",""7"",""89637""
""blur"",""7"",""165653""
""blur"",""7"",""212051""
","""event"",""trial"",""time""
""focus"",""2"",""40013""
""focus"",""3"",""50390""
""focus"",""6"",""78355""
""focus"",""7"",""97135""
""focus"",""7"",""171650""
""focus"",""7"",""220754""
","""event"",""trial"",""time""
""fullscreenenter"",""1"",""5698""
","
","","[{""page_index"":0,""viewing_time"":20389.5},{""page_index"":1,""viewing_time"":15085.09999999404},{""page_index"":2,""viewing_time"":6310.80000000447},{""page_index"":3,""viewing_time"":5146.19999999553},{""page_index"":4,""viewing_time"":18488.30000000447},{""page_index"":5,""viewing_time"":7617.5},{""page_index"":6,""viewing_time"":7052.89999999851},{""page_index"":7,""viewing_time"":8218},{""page_index"":8,""viewing_time"":7196.39999999851},{""page_index"":9,""viewing_time"":24297.80000000447},{""page_index"":10,""viewing_time"":8029.5},{""page_index"":11,""viewing_time"":4708.79999999702},{""page_index"":12,""viewing_time"":23030.5},{""page_index"":13,""viewing_time"":9231.39999999851},{""page_index"":14,""viewing_time"":10856.39999999851},{""page_index"":15,""viewing_time"":10339.30000000447},{""page_index"":16,""viewing_time"":51789},{""page_index"":17,""viewing_time"":31551.69999999553}]","269339.59999999404","","","","","","","","","","","","","","","","","","","","","","","",""
"pit-trial","20","615155","0.0-2.0-8.0-0.0","battery-v0.2","","""event"",""trial"",""time""
""fullscreenenter"",""1"",""5698""
""blur"",""2"",""25859""
""focus"",""2"",""40013""
""blur"",""3"",""45517""
""focus"",""3"",""50390""
""blur"",""6"",""74429""
""focus"",""6"",""78355""
""blur"",""7"",""89637""
""focus"",""7"",""97135""
""blur"",""7"",""165653""
""focus"",""7"",""171650""
""blur"",""7"",""212051""
""focus"",""7"",""220754""
","""event"",""trial"",""time""
""blur"",""2"",""25859""
""blur"",""3"",""45517""
""blur"",""6"",""74429""
""blur"",""7"",""89637""
""blur"",""7"",""165653""
""blur"",""7"",""212051""
","""event"",""trial"",""time""
""focus"",""2"",""40013""
""focus"",""3"",""50390""
""focus"",""6"",""78355""
""focus"",""7"",""97135""
""focus"",""7"",""171650""
""focus"",""7"",""220754""
","""event"",""trial"",""time""
""fullscreenenter"",""1"",""5698""
","
","","","-1","","","14","14461","6022","&#9776;","elianto","#3366ff99"," ","-1","0","0","[]","0","0","1","","","","","","","",""
"pit-trial","21","619904","0.0-2.0-8.0-1.0","battery-v0.2","","""event"",""trial"",""time""
""fullscreenenter"",""1"",""5698""
""blur"",""2"",""25859""
""focus"",""2"",""40013""
""blur"",""3"",""45517""
""focus"",""3"",""50390""
""blur"",""6"",""74429""
""focus"",""6"",""78355""
""blur"",""7"",""89637""
""focus"",""7"",""97135""
""blur"",""7"",""165653""
""focus"",""7"",""171650""
""blur"",""7"",""212051""
""focus"",""7"",""220754""
","""event"",""trial"",""time""
""blur"",""2"",""25859""
""blur"",""3"",""45517""
""blur"",""6"",""74429""
""blur"",""7"",""89637""
""blur"",""7"",""165653""
""blur"",""7"",""212051""
","""event"",""trial"",""time""
""focus"",""2"",""40013""
""focus"",""3"",""50390""
""focus"",""6"",""78355""
""focus"",""7"",""97135""
""focus"",""7"",""171650""
""focus"",""7"",""220754""
","""event"",""trial"",""time""
""fullscreenenter"",""1"",""5698""
","
","","","1889","","","14","14461","6022","&#9776;","elianto","#3366ff99"," "," ","1","+10","[2740]","1","0","1","","","","","","","",""
"pit-trial","22","623466","0.0-2.0-8.0-2.0","battery-v0.2","","""event"",""trial"",""time""
""fullscreenenter"",""1"",""5698""
""blur"",""2"",""25859""
""focus"",""2"",""40013""
""blur"",""3"",""45517""
""focus"",""3"",""50390""
""blur"",""6"",""74429""
""focus"",""6"",""78355""
""blur"",""7"",""89637""
""focus"",""7"",""97135""
""blur"",""7"",""165653""
""focus"",""7"",""171650""
""blur"",""7"",""212051""
""focus"",""7"",""220754""
","""event"",""trial"",""time""
""blur"",""2"",""25859""
""blur"",""3"",""45517""
""blur"",""6"",""74429""
""blur"",""7"",""89637""
""blur"",""7"",""165653""
""blur"",""7"",""212051""
","""event"",""trial"",""time""
""focus"",""2"",""40013""
""focus"",""3"",""50390""
""focus"",""6"",""78355""
""focus"",""7"",""97135""
""focus"",""7"",""171650""
""focus"",""7"",""220754""
","""event"",""trial"",""time""
""fullscreenenter"",""1"",""5698""
","
","","","701.2999999970198","","","14","14461","6022","&#9776;","elianto","#3366ff99"," "," ","1","+10","[1552.3999999985099]","1","0","1","","","","","","","",""
"pit-trial","23","627066","0.0-2.0-8.0-3.0","battery-v0.2","","""event"",""trial"",""time""
""fullscreenenter"",""1"",""5698""
""blur"",""2"",""25859""
""focus"",""2"",""40013""
""blur"",""3"",""45517""
""focus"",""3"",""50390""
""blur"",""6"",""74429""
""focus"",""6"",""78355""
""blur"",""7"",""89637""
""focus"",""7"",""97135""
""blur"",""7"",""165653""
""focus"",""7"",""171650""
""blur"",""7"",""212051""
""focus"",""7"",""220754""
","""event"",""trial"",""time""
""blur"",""2"",""25859""
""blur"",""3"",""45517""
""blur"",""6"",""74429""
""blur"",""7"",""89637""
""blur"",""7"",""165653""
""blur"",""7"",""212051""
","""event"",""trial"",""time""
""focus"",""2"",""40013""
""focus"",""3"",""50390""
""focus"",""6"",""78355""
""focus"",""7"",""97135""
""focus"",""7"",""171650""
""focus"",""7"",""220754""
","""event"",""trial"",""time""
""fullscreenenter"",""1"",""5698""
","
","","","743.2000000029802","","","14","14461","6022","&#9776;","elianto","#3366ff99"," "," ","1","0","[1596,2512.60000000149]","2","0","1","","","","","","","",""
"pit-trial","24","630566","0.0-2.0-8.0-4.0","battery-v0.2","","""event"",""trial"",""time""
""fullscreenenter"",""1"",""5698""
""blur"",""2"",""25859""
""focus"",""2"",""40013""
""blur"",""3"",""45517""
""focus"",""3"",""50390""
""blur"",""6"",""74429""
""focus"",""6"",""78355""
""blur"",""7"",""89637""
""focus"",""7"",""97135""
""blur"",""7"",""165653""
""focus"",""7"",""171650""
""blur"",""7"",""212051""
""focus"",""7"",""220754""
","""event"",""trial"",""time""
""blur"",""2"",""25859""
""blur"",""3"",""45517""
""blur"",""6"",""74429""
""blur"",""7"",""89637""
""blur"",""7"",""165653""
""blur"",""7"",""212051""
","""event"",""trial"",""time""
""focus"",""2"",""40013""
""focus"",""3"",""50390""
""focus"",""6"",""78355""
""focus"",""7"",""97135""
""focus"",""7"",""171650""
""focus"",""7"",""220754""
","""event"",""trial"",""time""
""fullscreenenter"",""1"",""5698""
","
","","","638.8999999985099","","","14","14461","6022","&#9776;","elianto","#3366ff99"," "," ","1","+10","[1490.1000000014901]","1","0","1","","","","","","","",""
"pit-trial","25","635137","0.0-2.0-8.1-0.1","battery-v0.2","","""event"",""trial"",""time""
""fullscreenenter"",""1"",""5698""
""blur"",""2"",""25859""
""focus"",""2"",""40013""
""blur"",""3"",""45517""
""focus"",""3"",""50390""
""blur"",""6"",""74429""
""focus"",""6"",""78355""
""blur"",""7"",""89637""
""focus"",""7"",""97135""
""blur"",""7"",""165653""
""focus"",""7"",""171650""
""blur"",""7"",""212051""
""focus"",""7"",""220754""
","""event"",""trial"",""time""
""blur"",""2"",""25859""
""blur"",""3"",""45517""
""blur"",""6"",""74429""
""blur"",""7"",""89637""
""blur"",""7"",""165653""
""blur"",""7"",""212051""
","""event"",""trial"",""time""
""focus"",""2"",""40013""
""focus"",""3"",""50390""
""focus"",""6"",""78355""
""focus"",""7"",""97135""
""focus"",""7"",""171650""
""focus"",""7"",""220754""
","""event"",""trial"",""time""
""fullscreenenter"",""1"",""5698""
","
","","","1714.8999999985099","","","14","14461","6022","&#9776;","elianto","#3366ff99"," "," ","1","+10","[2565.5]","1","0","1","","","","","","","",""
"pit-trial","26","638475","0.0-2.0-8.1-1.1","battery-v0.2","","""event"",""trial"",""time""
""fullscreenenter"",""1"",""5698""
""blur"",""2"",""25859""
""focus"",""2"",""40013""
""blur"",""3"",""45517""
""focus"",""3"",""50390""
""blur"",""6"",""74429""
""focus"",""6"",""78355""
""blur"",""7"",""89637""
""focus"",""7"",""97135""
""blur"",""7"",""165653""
""focus"",""7"",""171650""
""blur"",""7"",""212051""
""focus"",""7"",""220754""
","""event"",""trial"",""time""
""blur"",""2"",""25859""
""blur"",""3"",""45517""
""blur"",""6"",""74429""
""blur"",""7"",""89637""
""blur"",""7"",""165653""
""blur"",""7"",""212051""
","""event"",""trial"",""time""
""focus"",""2"",""40013""
""focus"",""3"",""50390""
""focus"",""6"",""78355""
""focus"",""7"",""97135""
""focus"",""7"",""171650""
""focus"",""7"",""220754""
","""event"",""trial"",""time""
""fullscreenenter"",""1"",""5698""
","
","","","479.5","","","14","14461","6022","&#9776;","elianto","#3366ff99"," "," ","1","+10","[1329.7999999970198]","1","0","1","","","","","","","",""
"pit-trial","27","642704","0.0-2.0-8.1-2.1","battery-v0.2","","""event"",""trial"",""time""
""fullscreenenter"",""1"",""5698""
""blur"",""2"",""25859""
""focus"",""2"",""40013""
""blur"",""3"",""45517""
""focus"",""3"",""50390""
""blur"",""6"",""74429""
""focus"",""6"",""78355""
""blur"",""7"",""89637""
""focus"",""7"",""97135""
""blur"",""7"",""165653""
""focus"",""7"",""171650""
""blur"",""7"",""212051""
""focus"",""7"",""220754""
","""event"",""trial"",""time""
""blur"",""2"",""25859""
""blur"",""3"",""45517""
""blur"",""6"",""74429""
""blur"",""7"",""89637""
""blur"",""7"",""165653""
""blur"",""7"",""212051""
","""event"",""trial"",""time""
""focus"",""2"",""40013""
""focus"",""3"",""50390""
""focus"",""6"",""78355""
""focus"",""7"",""97135""
""focus"",""7"",""171650""
""focus"",""7"",""220754""
","""event"",""trial"",""time""
""fullscreenenter"",""1"",""5698""
","
","","","1364","","","14","14461","6022","&#9776;","elianto","#3366ff99"," "," ","1","+10","[2217.4000000059605]","1","0","1","","","","","","","",""
"pit-trial","28","647570","0.0-2.0-8.1-3.1","battery-v0.2","","""event"",""trial"",""time""
""fullscreenenter"",""1"",""5698""
""blur"",""2"",""25859""
""focus"",""2"",""40013""
""blur"",""3"",""45517""
""focus"",""3"",""50390""
""blur"",""6"",""74429""
""focus"",""6"",""78355""
""blur"",""7"",""89637""
""focus"",""7"",""97135""
""blur"",""7"",""165653""
""focus"",""7"",""171650""
""blur"",""7"",""212051""
""focus"",""7"",""220754""
","""event"",""trial"",""time""
""blur"",""2"",""25859""
""blur"",""3"",""45517""
""blur"",""6"",""74429""
""blur"",""7"",""89637""
""blur"",""7"",""165653""
""blur"",""7"",""212051""
","""event"",""trial"",""time""
""focus"",""2"",""40013""
""focus"",""3"",""50390""
""focus"",""6"",""78355""
""focus"",""7"",""97135""
""focus"",""7"",""171650""
""focus"",""7"",""220754""
","""event"",""trial"",""time""
""fullscreenenter"",""1"",""5698""
","
","","","-1","","","14","14461","6022","&#9776;","elianto","#3366ff99"," ","-1","0","+10","[3306]","1","0","1","","","","","","","",""
"pit-trial","29","650778","0.0-2.0-8.1-4.1","battery-v0.2","","""event"",""trial"",""time""
""fullscreenenter"",""1"",""5698""
""blur"",""2"",""25859""
""focus"",""2"",""40013""
""blur"",""3"",""45517""
""focus"",""3"",""50390""
""blur"",""6"",""74429""
""focus"",""6"",""78355""
""blur"",""7"",""89637""
""focus"",""7"",""97135""
""blur"",""7"",""165653""
""focus"",""7"",""171650""
""blur"",""7"",""212051""
""focus"",""7"",""220754""
","""event"",""trial"",""time""
""blur"",""2"",""25859""
""blur"",""3"",""45517""
""blur"",""6"",""74429""
""blur"",""7"",""89637""
""blur"",""7"",""165653""
""blur"",""7"",""212051""
","""event"",""trial"",""time""
""focus"",""2"",""40013""
""focus"",""3"",""50390""
""focus"",""6"",""78355""
""focus"",""7"",""97135""
""focus"",""7"",""171650""
""focus"",""7"",""220754""
","""event"",""trial"",""time""
""fullscreenenter"",""1"",""5698""
","
","","","347.69999999552965","","","14","14461","6022","&#9776;","elianto","#3366ff99"," "," ","1","+10","[1198.6000000014901]","1","0","1","","","","","","","",""
"pit-trial","30","653946","0.0-2.0-8.2-0.2","battery-v0.2","","""event"",""trial"",""time""
""fullscreenenter"",""1"",""5698""
""blur"",""2"",""25859""
""focus"",""2"",""40013""
""blur"",""3"",""45517""
""focus"",""3"",""50390""
""blur"",""6"",""74429""
""focus"",""6"",""78355""
""blur"",""7"",""89637""
""focus"",""7"",""97135""
""blur"",""7"",""165653""
""focus"",""7"",""171650""
""blur"",""7"",""212051""
""focus"",""7"",""220754""
","""event"",""trial"",""time""
""blur"",""2"",""25859""
""blur"",""3"",""45517""
""blur"",""6"",""74429""
""blur"",""7"",""89637""
""blur"",""7"",""165653""
""blur"",""7"",""212051""
","""event"",""trial"",""time""
""focus"",""2"",""40013""
""focus"",""3"",""50390""
""focus"",""6"",""78355""
""focus"",""7"",""97135""
""focus"",""7"",""171650""
""focus"",""7"",""220754""
","""event"",""trial"",""time""
""fullscreenenter"",""1"",""5698""
","
","","","305.6000000014901","","","14","14461","6022","&#9776;","elianto","#3366ff99"," "," ","1","+10","[1156.7000000029802]","1","0","1","","","","","","","",""
"pit-trial","31","657208","0.0-2.0-8.2-1.2","battery-v0.2","","""event"",""trial"",""time""
""fullscreenenter"",""1"",""5698""
""blur"",""2"",""25859""
""focus"",""2"",""40013""
""blur"",""3"",""45517""
""focus"",""3"",""50390""
""blur"",""6"",""74429""
""focus"",""6"",""78355""
""blur"",""7"",""89637""
""focus"",""7"",""97135""
""blur"",""7"",""165653""
""focus"",""7"",""171650""
""blur"",""7"",""212051""
""focus"",""7"",""220754""
","""event"",""trial"",""time""
""blur"",""2"",""25859""
""blur"",""3"",""45517""
""blur"",""6"",""74429""
""blur"",""7"",""89637""
""blur"",""7"",""165653""
""blur"",""7"",""212051""
","""event"",""trial"",""time""
""focus"",""2"",""40013""
""focus"",""3"",""50390""
""focus"",""6"",""78355""
""focus"",""7"",""97135""
""focus"",""7"",""171650""
""focus"",""7"",""220754""
","""event"",""trial"",""time""
""fullscreenenter"",""1"",""5698""
","
","","","408.29999999701977","","","14","14461","6022","&#9776;","elianto","#3366ff99"," "," ","1","+10","[1258.7000000029802]","1","0","1","","","","","","","",""
"pit-trial","32","660279","0.0-2.0-8.2-2.2","battery-v0.2","","""event"",""trial"",""time""
""fullscreenenter"",""1"",""5698""
""blur"",""2"",""25859""
""focus"",""2"",""40013""
""blur"",""3"",""45517""
""focus"",""3"",""50390""
""blur"",""6"",""74429""
""focus"",""6"",""78355""
""blur"",""7"",""89637""
""focus"",""7"",""97135""
""blur"",""7"",""165653""
""focus"",""7"",""171650""
""blur"",""7"",""212051""
""focus"",""7"",""220754""
","""event"",""trial"",""time""
""blur"",""2"",""25859""
""blur"",""3"",""45517""
""blur"",""6"",""74429""
""blur"",""7"",""89637""
""blur"",""7"",""165653""
""blur"",""7"",""212051""
","""event"",""trial"",""time""
""focus"",""2"",""40013""
""focus"",""3"",""50390""
""focus"",""6"",""78355""
""focus"",""7"",""97135""
""focus"",""7"",""171650""
""focus"",""7"",""220754""
","""event"",""trial"",""time""
""fullscreenenter"",""1"",""5698""
","
","","","213.09999999403954","","","14","14461","6022","&#9776;","elianto","#3366ff99"," "," ","1","+10","[1066.5999999940395]","1","0","1","","","","","","","",""
"pit-trial","33","663627","0.0-2.0-8.2-3.2","battery-v0.2","","""event"",""trial"",""time""
""fullscreenenter"",""1"",""5698""
""blur"",""2"",""25859""
""focus"",""2"",""40013""
""blur"",""3"",""45517""
""focus"",""3"",""50390""
""blur"",""6"",""74429""
""focus"",""6"",""78355""
""blur"",""7"",""89637""
""focus"",""7"",""97135""
""blur"",""7"",""165653""
""focus"",""7"",""171650""
""blur"",""7"",""212051""
""focus"",""7"",""220754""
","""event"",""trial"",""time""
""blur"",""2"",""25859""
""blur"",""3"",""45517""
""blur"",""6"",""74429""
""blur"",""7"",""89637""
""blur"",""7"",""165653""
""blur"",""7"",""212051""
","""event"",""trial"",""time""
""focus"",""2"",""40013""
""focus"",""3"",""50390""
""focus"",""6"",""78355""
""focus"",""7"",""97135""
""focus"",""7"",""171650""
""focus"",""7"",""220754""
","""event"",""trial"",""time""
""fullscreenenter"",""1"",""5698""
","
","","","488.19999999552965","","","14","14461","6022","&#9776;","elianto","#3366ff99"," "," ","1","0","[1341.1000000014901]","1","0","1","","","","","","","",""
"pit-trial","34","666493","0.0-2.0-8.2-4.2","battery-v0.2","","""event"",""trial"",""time""
""fullscreenenter"",""1"",""5698""
""blur"",""2"",""25859""
""focus"",""2"",""40013""
""blur"",""3"",""45517""
""focus"",""3"",""50390""
""blur"",""6"",""74429""
""focus"",""6"",""78355""
""blur"",""7"",""89637""
""focus"",""7"",""97135""
""blur"",""7"",""165653""
""focus"",""7"",""171650""
""blur"",""7"",""212051""
""focus"",""7"",""220754""
","""event"",""trial"",""time""
""blur"",""2"",""25859""
""blur"",""3"",""45517""
""blur"",""6"",""74429""
""blur"",""7"",""89637""
""blur"",""7"",""165653""
""blur"",""7"",""212051""
","""event"",""trial"",""time""
""focus"",""2"",""40013""
""focus"",""3"",""50390""
""focus"",""6"",""78355""
""focus"",""7"",""97135""
""focus"",""7"",""171650""
""focus"",""7"",""220754""
","""event"",""trial"",""time""
""fullscreenenter"",""1"",""5698""
","
","","","4.199999995529652","","","14","14461","6022","&#9776;","elianto","#3366ff99"," "," ","1","+10","[854.5]","1","0","1","","","","","","","",""
"call-function","35","666496","0.0-2.0-9.0","battery-v0.2","","""event"",""trial"",""time""
""fullscreenenter"",""1"",""5698""
""blur"",""2"",""25859""
""focus"",""2"",""40013""
""blur"",""3"",""45517""
""focus"",""3"",""50390""
""blur"",""6"",""74429""
""focus"",""6"",""78355""
""blur"",""7"",""89637""
""focus"",""7"",""97135""
""blur"",""7"",""165653""
""focus"",""7"",""171650""
""blur"",""7"",""212051""
""focus"",""7"",""220754""
""blur"",""36"",""695504""
""focus"",""36"",""703094""
","""event"",""trial"",""time""
""blur"",""2"",""25859""
""blur"",""3"",""45517""
""blur"",""6"",""74429""
""blur"",""7"",""89637""
""blur"",""7"",""165653""
""blur"",""7"",""212051""
""blur"",""36"",""695504""
","""event"",""trial"",""time""
""focus"",""2"",""40013""
""focus"",""3"",""50390""
""focus"",""6"",""78355""
""focus"",""7"",""97135""
""focus"",""7"",""171650""
""focus"",""7"",""220754""
""focus"",""36"",""703094""
","""event"",""trial"",""time""
""fullscreenenter"",""1"",""5698""
","
","","","","","","","","","","","","","","","","","","","","","","","","","","",""
"pit-instructions","36","720076","0.0-2.0-10.0","battery-v0.2","","""event"",""trial"",""time""
""fullscreenenter"",""1"",""5698""
""blur"",""2"",""25859""
""focus"",""2"",""40013""
""blur"",""3"",""45517""
""focus"",""3"",""50390""
""blur"",""6"",""74429""
""focus"",""6"",""78355""
""blur"",""7"",""89637""
""focus"",""7"",""97135""
""blur"",""7"",""165653""
""focus"",""7"",""171650""
""blur"",""7"",""212051""
""focus"",""7"",""220754""
""blur"",""36"",""695504""
""focus"",""36"",""703094""
","""event"",""trial"",""time""
""blur"",""2"",""25859""
""blur"",""3"",""45517""
""blur"",""6"",""74429""
""blur"",""7"",""89637""
""blur"",""7"",""165653""
""blur"",""7"",""212051""
""blur"",""36"",""695504""
","""event"",""trial"",""time""
""focus"",""2"",""40013""
""focus"",""3"",""50390""
""focus"",""6"",""78355""
""focus"",""7"",""97135""
""focus"",""7"",""171650""
""focus"",""7"",""220754""
""focus"",""36"",""703094""
","""event"",""trial"",""time""
""fullscreenenter"",""1"",""5698""
","
","","[{""page_index"":0,""viewing_time"":13146.10000000149},{""page_index"":1,""viewing_time"":7348.5},{""page_index"":2,""viewing_time"":16268.09999999404},{""page_index"":3,""viewing_time"":8690.90000000596},{""page_index"":4,""viewing_time"":8124.5999999940395}]","53579","","","","","","","","","","","","","","","","","","","","","","","",""
"pit-trial","37","724958","0.0-2.0-11.0-0.0","battery-v0.2","","""event"",""trial"",""time""
""fullscreenenter"",""1"",""5698""
""blur"",""2"",""25859""
""focus"",""2"",""40013""
""blur"",""3"",""45517""
""focus"",""3"",""50390""
""blur"",""6"",""74429""
""focus"",""6"",""78355""
""blur"",""7"",""89637""
""focus"",""7"",""97135""
""blur"",""7"",""165653""
""focus"",""7"",""171650""
""blur"",""7"",""212051""
""focus"",""7"",""220754""
""blur"",""36"",""695504""
""focus"",""36"",""703094""
","""event"",""trial"",""time""
""blur"",""2"",""25859""
""blur"",""3"",""45517""
""blur"",""6"",""74429""
""blur"",""7"",""89637""
""blur"",""7"",""165653""
""blur"",""7"",""212051""
""blur"",""36"",""695504""
","""event"",""trial"",""time""
""focus"",""2"",""40013""
""focus"",""3"",""50390""
""focus"",""6"",""78355""
""focus"",""7"",""97135""
""focus"",""7"",""171650""
""focus"",""7"",""220754""
""focus"",""36"",""703094""
","""event"",""trial"",""time""
""fullscreenenter"",""1"",""5698""
","
","","","-1","","","14","14461","6022","&#9761;","elianto","#3366ff99","-1","-1","1","+10","[3286.60000000149]","1","0","2","","","","","","","",""
"pit-trial","38","728479","0.0-2.0-11.0-1.0","battery-v0.2","","""event"",""trial"",""time""
""fullscreenenter"",""1"",""5698""
""blur"",""2"",""25859""
""focus"",""2"",""40013""
""blur"",""3"",""45517""
""focus"",""3"",""50390""
""blur"",""6"",""74429""
""focus"",""6"",""78355""
""blur"",""7"",""89637""
""focus"",""7"",""97135""
""blur"",""7"",""165653""
""focus"",""7"",""171650""
""blur"",""7"",""212051""
""focus"",""7"",""220754""
""blur"",""36"",""695504""
""focus"",""36"",""703094""
","""event"",""trial"",""time""
""blur"",""2"",""25859""
""blur"",""3"",""45517""
""blur"",""6"",""74429""
""blur"",""7"",""89637""
""blur"",""7"",""165653""
""blur"",""7"",""212051""
""blur"",""36"",""695504""
","""event"",""trial"",""time""
""focus"",""2"",""40013""
""focus"",""3"",""50390""
""focus"",""6"",""78355""
""focus"",""7"",""97135""
""focus"",""7"",""171650""
""focus"",""7"",""220754""
""focus"",""36"",""703094""
","""event"",""trial"",""time""
""fullscreenenter"",""1"",""5698""
","
","","","659","","","14","14461","6022","&#9761;","elianto","#3366ff99","-1"," ","0","0","[1509.7000000029802]","1","0","2","","","","","","","",""
"pit-trial","39","731951","0.0-2.0-11.0-2.0","battery-v0.2","","""event"",""trial"",""time""
""fullscreenenter"",""1"",""5698""
""blur"",""2"",""25859""
""focus"",""2"",""40013""
""blur"",""3"",""45517""
""focus"",""3"",""50390""
""blur"",""6"",""74429""
""focus"",""6"",""78355""
""blur"",""7"",""89637""
""focus"",""7"",""97135""
""blur"",""7"",""165653""
""focus"",""7"",""171650""
""blur"",""7"",""212051""
""focus"",""7"",""220754""
""blur"",""36"",""695504""
""focus"",""36"",""703094""
","""event"",""trial"",""time""
""blur"",""2"",""25859""
""blur"",""3"",""45517""
""blur"",""6"",""74429""
""blur"",""7"",""89637""
""blur"",""7"",""165653""
""blur"",""7"",""212051""
""blur"",""36"",""695504""
","""event"",""trial"",""time""
""focus"",""2"",""40013""
""focus"",""3"",""50390""
""focus"",""6"",""78355""
""focus"",""7"",""97135""
""focus"",""7"",""171650""
""focus"",""7"",""220754""
""focus"",""36"",""703094""
","""event"",""trial"",""time""
""fullscreenenter"",""1"",""5698""
","
","","","611.3000000044703","","","14","14461","6022","&#9761;","elianto","#3366ff99","-1"," ","0","0","[1463.8999999985099]","1","0","2","","","","","","","",""
"pit-trial","40","735407","0.0-2.0-11.0-3.0","battery-v0.2","","""event"",""trial"",""time""
""fullscreenenter"",""1"",""5698""
""blur"",""2"",""25859""
""focus"",""2"",""40013""
""blur"",""3"",""45517""
""focus"",""3"",""50390""
""blur"",""6"",""74429""
""focus"",""6"",""78355""
""blur"",""7"",""89637""
""focus"",""7"",""97135""
""blur"",""7"",""165653""
""focus"",""7"",""171650""
""blur"",""7"",""212051""
""focus"",""7"",""220754""
""blur"",""36"",""695504""
""focus"",""36"",""703094""
","""event"",""trial"",""time""
""blur"",""2"",""25859""
""blur"",""3"",""45517""
""blur"",""6"",""74429""
""blur"",""7"",""89637""
""blur"",""7"",""165653""
""blur"",""7"",""212051""
""blur"",""36"",""695504""
","""event"",""trial"",""time""
""focus"",""2"",""40013""
""focus"",""3"",""50390""
""focus"",""6"",""78355""
""focus"",""7"",""97135""
""focus"",""7"",""171650""
""focus"",""7"",""220754""
""focus"",""36"",""703094""
","""event"",""trial"",""time""
""fullscreenenter"",""1"",""5698""
","
","","","593","","","14","14461","6022","&#9761;","elianto","#3366ff99","-1"," ","0","+10","[1449.5]","1","0","2","","","","","","","",""
"pit-trial","41","740264","0.0-2.0-11.0-4.0","battery-v0.2","","""event"",""trial"",""time""
""fullscreenenter"",""1"",""5698""
""blur"",""2"",""25859""
""focus"",""2"",""40013""
""blur"",""3"",""45517""
""focus"",""3"",""50390""
""blur"",""6"",""74429""
""focus"",""6"",""78355""
""blur"",""7"",""89637""
""focus"",""7"",""97135""
""blur"",""7"",""165653""
""focus"",""7"",""171650""
""blur"",""7"",""212051""
""focus"",""7"",""220754""
""blur"",""36"",""695504""
""focus"",""36"",""703094""
","""event"",""trial"",""time""
""blur"",""2"",""25859""
""blur"",""3"",""45517""
""blur"",""6"",""74429""
""blur"",""7"",""89637""
""blur"",""7"",""165653""
""blur"",""7"",""212051""
""blur"",""36"",""695504""
","""event"",""trial"",""time""
""focus"",""2"",""40013""
""focus"",""3"",""50390""
""focus"",""6"",""78355""
""focus"",""7"",""97135""
""focus"",""7"",""171650""
""focus"",""7"",""220754""
""focus"",""36"",""703094""
","""event"",""trial"",""time""
""fullscreenenter"",""1"",""5698""
","
","","","-1","","","14","14461","6022","&#9761;","elianto","#3366ff99","-1","-1","1","+10","[3426]","1","0","2","","","","","","","",""
"pit-trial","42","743386","0.0-2.0-11.1-0.1","battery-v0.2","","""event"",""trial"",""time""
""fullscreenenter"",""1"",""5698""
""blur"",""2"",""25859""
""focus"",""2"",""40013""
""blur"",""3"",""45517""
""focus"",""3"",""50390""
""blur"",""6"",""74429""
""focus"",""6"",""78355""
""blur"",""7"",""89637""
""focus"",""7"",""97135""
""blur"",""7"",""165653""
""focus"",""7"",""171650""
""blur"",""7"",""212051""
""focus"",""7"",""220754""
""blur"",""36"",""695504""
""focus"",""36"",""703094""
","""event"",""trial"",""time""
""blur"",""2"",""25859""
""blur"",""3"",""45517""
""blur"",""6"",""74429""
""blur"",""7"",""89637""
""blur"",""7"",""165653""
""blur"",""7"",""212051""
""blur"",""36"",""695504""
","""event"",""trial"",""time""
""focus"",""2"",""40013""
""focus"",""3"",""50390""
""focus"",""6"",""78355""
""focus"",""7"",""97135""
""focus"",""7"",""171650""
""focus"",""7"",""220754""
""focus"",""36"",""703094""
","""event"",""trial"",""time""
""fullscreenenter"",""1"",""5698""
","
","","","255","","","14","14461","6022","&#9761;","elianto","#3366ff99","-1"," ","0","0","[1110.6999999955297]","1","0","2","","","","","","","",""
"pit-trial","43","747353","0.0-2.0-11.1-1.1","battery-v0.2","","""event"",""trial"",""time""
""fullscreenenter"",""1"",""5698""
""blur"",""2"",""25859""
""focus"",""2"",""40013""
""blur"",""3"",""45517""
""focus"",""3"",""50390""
""blur"",""6"",""74429""
""focus"",""6"",""78355""
""blur"",""7"",""89637""
""focus"",""7"",""97135""
""blur"",""7"",""165653""
""focus"",""7"",""171650""
""blur"",""7"",""212051""
""focus"",""7"",""220754""
""blur"",""36"",""695504""
""focus"",""36"",""703094""
","""event"",""trial"",""time""
""blur"",""2"",""25859""
""blur"",""3"",""45517""
""blur"",""6"",""74429""
""blur"",""7"",""89637""
""blur"",""7"",""165653""
""blur"",""7"",""212051""
""blur"",""36"",""695504""
","""event"",""trial"",""time""
""focus"",""2"",""40013""
""focus"",""3"",""50390""
""focus"",""6"",""78355""
""focus"",""7"",""97135""
""focus"",""7"",""171650""
""focus"",""7"",""220754""
""focus"",""36"",""703094""
","""event"",""trial"",""time""
""fullscreenenter"",""1"",""5698""
","
","","","1107.7000000029802","","","14","14461","6022","&#9761;","elianto","#3366ff99","-1"," ","0","0","[1961.5]","1","0","2","","","","","","","",""
"pit-trial","44","750344","0.0-2.0-11.1-2.1","battery-v0.2","","""event"",""trial"",""time""
""fullscreenenter"",""1"",""5698""
""blur"",""2"",""25859""
""focus"",""2"",""40013""
""blur"",""3"",""45517""
""focus"",""3"",""50390""
""blur"",""6"",""74429""
""focus"",""6"",""78355""
""blur"",""7"",""89637""
""focus"",""7"",""97135""
""blur"",""7"",""165653""
""focus"",""7"",""171650""
""blur"",""7"",""212051""
""focus"",""7"",""220754""
""blur"",""36"",""695504""
""focus"",""36"",""703094""
","""event"",""trial"",""time""
""blur"",""2"",""25859""
""blur"",""3"",""45517""
""blur"",""6"",""74429""
""blur"",""7"",""89637""
""blur"",""7"",""165653""
""blur"",""7"",""212051""
""blur"",""36"",""695504""
","""event"",""trial"",""time""
""focus"",""2"",""40013""
""focus"",""3"",""50390""
""focus"",""6"",""78355""
""focus"",""7"",""97135""
""focus"",""7"",""171650""
""focus"",""7"",""220754""
""focus"",""36"",""703094""
","""event"",""trial"",""time""
""fullscreenenter"",""1"",""5698""
","
","","","133.20000000298023","","","14","14461","6022","&#9761;","elianto","#3366ff99","-1"," ","0","0","[987.7000000029802]","1","0","2","","","","","","","",""
"pit-trial","45","753495","0.0-2.0-11.1-3.1","battery-v0.2","","""event"",""trial"",""time""
""fullscreenenter"",""1"",""5698""
""blur"",""2"",""25859""
""focus"",""2"",""40013""
""blur"",""3"",""45517""
""focus"",""3"",""50390""
""blur"",""6"",""74429""
""focus"",""6"",""78355""
""blur"",""7"",""89637""
""focus"",""7"",""97135""
""blur"",""7"",""165653""
""focus"",""7"",""171650""
""blur"",""7"",""212051""
""focus"",""7"",""220754""
""blur"",""36"",""695504""
""focus"",""36"",""703094""
","""event"",""trial"",""time""
""blur"",""2"",""25859""
""blur"",""3"",""45517""
""blur"",""6"",""74429""
""blur"",""7"",""89637""
""blur"",""7"",""165653""
""blur"",""7"",""212051""
""blur"",""36"",""695504""
","""event"",""trial"",""time""
""focus"",""2"",""40013""
""focus"",""3"",""50390""
""focus"",""6"",""78355""
""focus"",""7"",""97135""
""focus"",""7"",""171650""
""focus"",""7"",""220754""
""focus"",""36"",""703094""
","""event"",""trial"",""time""
""fullscreenenter"",""1"",""5698""
","
","","","282.8999999985099","","","14","14461","6022","&#9761;","elianto","#3366ff99","-1"," ","0","+10","[1133.8999999985099]","1","0","2","","","","","","","",""
"pit-trial","46","756434","0.0-2.0-11.1-4.1","battery-v0.2","","""event"",""trial"",""time""
""fullscreenenter"",""1"",""5698""
""blur"",""2"",""25859""
""focus"",""2"",""40013""
""blur"",""3"",""45517""
""focus"",""3"",""50390""
""blur"",""6"",""74429""
""focus"",""6"",""78355""
""blur"",""7"",""89637""
""focus"",""7"",""97135""
""blur"",""7"",""165653""
""focus"",""7"",""171650""
""blur"",""7"",""212051""
""focus"",""7"",""220754""
""blur"",""36"",""695504""
""focus"",""36"",""703094""
","""event"",""trial"",""time""
""blur"",""2"",""25859""
""blur"",""3"",""45517""
""blur"",""6"",""74429""
""blur"",""7"",""89637""
""blur"",""7"",""165653""
""blur"",""7"",""212051""
""blur"",""36"",""695504""
","""event"",""trial"",""time""
""focus"",""2"",""40013""
""focus"",""3"",""50390""
""focus"",""6"",""78355""
""focus"",""7"",""97135""
""focus"",""7"",""171650""
""focus"",""7"",""220754""
""focus"",""36"",""703094""
","""event"",""trial"",""time""
""fullscreenenter"",""1"",""5698""
","
","","","71.80000000447035","","","14","14461","6022","&#9761;","elianto","#3366ff99","-1"," ","0","0","[932.8000000044703]","1","0","2","","","","","","","",""
"pit-trial","47","759519","0.0-2.0-11.2-0.2","battery-v0.2","","""event"",""trial"",""time""
""fullscreenenter"",""1"",""5698""
""blur"",""2"",""25859""
""focus"",""2"",""40013""
""blur"",""3"",""45517""
""focus"",""3"",""50390""
""blur"",""6"",""74429""
""focus"",""6"",""78355""
""blur"",""7"",""89637""
""focus"",""7"",""97135""
""blur"",""7"",""165653""
""focus"",""7"",""171650""
""blur"",""7"",""212051""
""focus"",""7"",""220754""
""blur"",""36"",""695504""
""focus"",""36"",""703094""
","""event"",""trial"",""time""
""blur"",""2"",""25859""
""blur"",""3"",""45517""
""blur"",""6"",""74429""
""blur"",""7"",""89637""
""blur"",""7"",""165653""
""blur"",""7"",""212051""
""blur"",""36"",""695504""
","""event"",""trial"",""time""
""focus"",""2"",""40013""
""focus"",""3"",""50390""
""focus"",""6"",""78355""
""focus"",""7"",""97135""
""focus"",""7"",""171650""
""focus"",""7"",""220754""
""focus"",""36"",""703094""
","""event"",""trial"",""time""
""fullscreenenter"",""1"",""5698""
","
","","","222.60000000149012","","","14","14461","6022","&#9761;","elianto","#3366ff99","-1"," ","0","0","[1076.1000000014901]","1","0","2","","","","","","","",""
"pit-trial","48","762552","0.0-2.0-11.2-1.2","battery-v0.2","","""event"",""trial"",""time""
""fullscreenenter"",""1"",""5698""
""blur"",""2"",""25859""
""focus"",""2"",""40013""
""blur"",""3"",""45517""
""focus"",""3"",""50390""
""blur"",""6"",""74429""
""focus"",""6"",""78355""
""blur"",""7"",""89637""
""focus"",""7"",""97135""
""blur"",""7"",""165653""
""focus"",""7"",""171650""
""blur"",""7"",""212051""
""focus"",""7"",""220754""
""blur"",""36"",""695504""
""focus"",""36"",""703094""
","""event"",""trial"",""time""
""blur"",""2"",""25859""
""blur"",""3"",""45517""
""blur"",""6"",""74429""
""blur"",""7"",""89637""
""blur"",""7"",""165653""
""blur"",""7"",""212051""
""blur"",""36"",""695504""
","""event"",""trial"",""time""
""focus"",""2"",""40013""
""focus"",""3"",""50390""
""focus"",""6"",""78355""
""focus"",""7"",""97135""
""focus"",""7"",""171650""
""focus"",""7"",""220754""
""focus"",""36"",""703094""
","""event"",""trial"",""time""
""fullscreenenter"",""1"",""5698""
","
","","","168.90000000596046","","","14","14461","6022","&#9761;","elianto","#3366ff99","-1"," ","0","0","[1021.6000000014901]","1","0","2","","","","","","","",""
"pit-trial","49","765564","0.0-2.0-11.2-2.2","battery-v0.2","","""event"",""trial"",""time""
""fullscreenenter"",""1"",""5698""
""blur"",""2"",""25859""
""focus"",""2"",""40013""
""blur"",""3"",""45517""
""focus"",""3"",""50390""
""blur"",""6"",""74429""
""focus"",""6"",""78355""
""blur"",""7"",""89637""
""focus"",""7"",""97135""
""blur"",""7"",""165653""
""focus"",""7"",""171650""
""blur"",""7"",""212051""
""focus"",""7"",""220754""
""blur"",""36"",""695504""
""focus"",""36"",""703094""
","""event"",""trial"",""time""
""blur"",""2"",""25859""
""blur"",""3"",""45517""
""blur"",""6"",""74429""
""blur"",""7"",""89637""
""blur"",""7"",""165653""
""blur"",""7"",""212051""
""blur"",""36"",""695504""
","""event"",""trial"",""time""
""focus"",""2"",""40013""
""focus"",""3"",""50390""
""focus"",""6"",""78355""
""focus"",""7"",""97135""
""focus"",""7"",""171650""
""focus"",""7"",""220754""
""focus"",""36"",""703094""
","""event"",""trial"",""time""
""fullscreenenter"",""1"",""5698""
","
","","","155.30000000447035","","","14","14461","6022","&#9761;","elianto","#3366ff99","-1"," ","0","0","[1006.5]","1","0","2","","","","","","","",""
"pit-trial","50","768438","0.0-2.0-11.2-3.2","battery-v0.2","","""event"",""trial"",""time""
""fullscreenenter"",""1"",""5698""
""blur"",""2"",""25859""
""focus"",""2"",""40013""
""blur"",""3"",""45517""
""focus"",""3"",""50390""
""blur"",""6"",""74429""
""focus"",""6"",""78355""
""blur"",""7"",""89637""
""focus"",""7"",""97135""
""blur"",""7"",""165653""
""focus"",""7"",""171650""
""blur"",""7"",""212051""
""focus"",""7"",""220754""
""blur"",""36"",""695504""
""focus"",""36"",""703094""
","""event"",""trial"",""time""
""blur"",""2"",""25859""
""blur"",""3"",""45517""
""blur"",""6"",""74429""
""blur"",""7"",""89637""
""blur"",""7"",""165653""
""blur"",""7"",""212051""
""blur"",""36"",""695504""
","""event"",""trial"",""time""
""focus"",""2"",""40013""
""focus"",""3"",""50390""
""focus"",""6"",""78355""
""focus"",""7"",""97135""
""focus"",""7"",""171650""
""focus"",""7"",""220754""
""focus"",""36"",""703094""
","""event"",""trial"",""time""
""fullscreenenter"",""1"",""5698""
","
","","","13.799999997019768","","","14","14461","6022","&#9761;","elianto","#3366ff99","-1"," ","0","+10","[869.6999999955297]","1","0","2","","","","","","","",""
"pit-trial","51","771387","0.0-2.0-11.2-4.2","battery-v0.2","","""event"",""trial"",""time""
""fullscreenenter"",""1"",""5698""
""blur"",""2"",""25859""
""focus"",""2"",""40013""
""blur"",""3"",""45517""
""focus"",""3"",""50390""
""blur"",""6"",""74429""
""focus"",""6"",""78355""
""blur"",""7"",""89637""
""focus"",""7"",""97135""
""blur"",""7"",""165653""
""focus"",""7"",""171650""
""blur"",""7"",""212051""
""focus"",""7"",""220754""
""blur"",""36"",""695504""
""focus"",""36"",""703094""
","""event"",""trial"",""time""
""blur"",""2"",""25859""
""blur"",""3"",""45517""
""blur"",""6"",""74429""
""blur"",""7"",""89637""
""blur"",""7"",""165653""
""blur"",""7"",""212051""
""blur"",""36"",""695504""
","""event"",""trial"",""time""
""focus"",""2"",""40013""
""focus"",""3"",""50390""
""focus"",""6"",""78355""
""focus"",""7"",""97135""
""focus"",""7"",""171650""
""focus"",""7"",""220754""
""focus"",""36"",""703094""
","""event"",""trial"",""time""
""fullscreenenter"",""1"",""5698""
","
","","","88.70000000298023","","","14","14461","6022","&#9761;","elianto","#3366ff99","-1"," ","0","0","[938.8000000044703]","1","0","2","","","","","","","",""
"pit-trial","52","774334","0.0-2.0-11.3-0.3","battery-v0.2","","""event"",""trial"",""time""
""fullscreenenter"",""1"",""5698""
""blur"",""2"",""25859""
""focus"",""2"",""40013""
""blur"",""3"",""45517""
""focus"",""3"",""50390""
""blur"",""6"",""74429""
""focus"",""6"",""78355""
""blur"",""7"",""89637""
""focus"",""7"",""97135""
""blur"",""7"",""165653""
""focus"",""7"",""171650""
""blur"",""7"",""212051""
""focus"",""7"",""220754""
""blur"",""36"",""695504""
""focus"",""36"",""703094""
","""event"",""trial"",""time""
""blur"",""2"",""25859""
""blur"",""3"",""45517""
""blur"",""6"",""74429""
""blur"",""7"",""89637""
""blur"",""7"",""165653""
""blur"",""7"",""212051""
""blur"",""36"",""695504""
","""event"",""trial"",""time""
""focus"",""2"",""40013""
""focus"",""3"",""50390""
""focus"",""6"",""78355""
""focus"",""7"",""97135""
""focus"",""7"",""171650""
""focus"",""7"",""220754""
""focus"",""36"",""703094""
","""event"",""trial"",""time""
""fullscreenenter"",""1"",""5698""
","
","","","82.89999999850988","","","14","14461","6022","&#9761;","elianto","#3366ff99","-1"," ","0","0","[933.6000000014901,1289.1000000014901]","2","0","2","","","","","","","",""
"pit-trial","53","779198","0.0-2.0-11.3-1.3","battery-v0.2","","""event"",""trial"",""time""
""fullscreenenter"",""1"",""5698""
""blur"",""2"",""25859""
""focus"",""2"",""40013""
""blur"",""3"",""45517""
""focus"",""3"",""50390""
""blur"",""6"",""74429""
""focus"",""6"",""78355""
""blur"",""7"",""89637""
""focus"",""7"",""97135""
""blur"",""7"",""165653""
""focus"",""7"",""171650""
""blur"",""7"",""212051""
""focus"",""7"",""220754""
""blur"",""36"",""695504""
""focus"",""36"",""703094""
","""event"",""trial"",""time""
""blur"",""2"",""25859""
""blur"",""3"",""45517""
""blur"",""6"",""74429""
""blur"",""7"",""89637""
""blur"",""7"",""165653""
""blur"",""7"",""212051""
""blur"",""36"",""695504""
","""event"",""trial"",""time""
""focus"",""2"",""40013""
""focus"",""3"",""50390""
""focus"",""6"",""78355""
""focus"",""7"",""97135""
""focus"",""7"",""171650""
""focus"",""7"",""220754""
""focus"",""36"",""703094""
","""event"",""trial"",""time""
""fullscreenenter"",""1"",""5698""
","
","","","-1","","","14","14461","6022","&#9761;","elianto","#3366ff99","-1","-1","1","+10","[844.3999999985099]","1","0","2","","","","","","","",""
"pit-trial","54","782262","0.0-2.0-11.3-2.3","battery-v0.2","","""event"",""trial"",""time""
""fullscreenenter"",""1"",""5698""
""blur"",""2"",""25859""
""focus"",""2"",""40013""
""blur"",""3"",""45517""
""focus"",""3"",""50390""
""blur"",""6"",""74429""
""focus"",""6"",""78355""
""blur"",""7"",""89637""
""focus"",""7"",""97135""
""blur"",""7"",""165653""
""focus"",""7"",""171650""
""blur"",""7"",""212051""
""focus"",""7"",""220754""
""blur"",""36"",""695504""
""focus"",""36"",""703094""
","""event"",""trial"",""time""
""blur"",""2"",""25859""
""blur"",""3"",""45517""
""blur"",""6"",""74429""
""blur"",""7"",""89637""
""blur"",""7"",""165653""
""blur"",""7"",""212051""
""blur"",""36"",""695504""
","""event"",""trial"",""time""
""focus"",""2"",""40013""
""focus"",""3"",""50390""
""focus"",""6"",""78355""
""focus"",""7"",""97135""
""focus"",""7"",""171650""
""focus"",""7"",""220754""
""focus"",""36"",""703094""
","""event"",""trial"",""time""
""fullscreenenter"",""1"",""5698""
","
","","","197.29999999701977","","","14","14461","6022","&#9761;","elianto","#3366ff99","-1"," ","0","0","[1048.6999999955297]","1","0","2","","","","","","","",""
"pit-trial","55","785382","0.0-2.0-11.3-3.3","battery-v0.2","","""event"",""trial"",""time""
""fullscreenenter"",""1"",""5698""
""blur"",""2"",""25859""
""focus"",""2"",""40013""
""blur"",""3"",""45517""
""focus"",""3"",""50390""
""blur"",""6"",""74429""
""focus"",""6"",""78355""
""blur"",""7"",""89637""
""focus"",""7"",""97135""
""blur"",""7"",""165653""
""focus"",""7"",""171650""
""blur"",""7"",""212051""
""focus"",""7"",""220754""
""blur"",""36"",""695504""
""focus"",""36"",""703094""
","""event"",""trial"",""time""
""blur"",""2"",""25859""
""blur"",""3"",""45517""
""blur"",""6"",""74429""
""blur"",""7"",""89637""
""blur"",""7"",""165653""
""blur"",""7"",""212051""
""blur"",""36"",""695504""
","""event"",""trial"",""time""
""focus"",""2"",""40013""
""focus"",""3"",""50390""
""focus"",""6"",""78355""
""focus"",""7"",""97135""
""focus"",""7"",""171650""
""focus"",""7"",""220754""
""focus"",""36"",""703094""
","""event"",""trial"",""time""
""fullscreenenter"",""1"",""5698""
","
","","","261.8999999985099","","","14","14461","6022","&#9761;","elianto","#3366ff99","-1"," ","0","+10","[1115.5]","1","0","2","","","","","","","",""
"pit-trial","56","788406","0.0-2.0-11.3-4.3","battery-v0.2","","""event"",""trial"",""time""
""fullscreenenter"",""1"",""5698""
""blur"",""2"",""25859""
""focus"",""2"",""40013""
""blur"",""3"",""45517""
""focus"",""3"",""50390""
""blur"",""6"",""74429""
""focus"",""6"",""78355""
""blur"",""7"",""89637""
""focus"",""7"",""97135""
""blur"",""7"",""165653""
""focus"",""7"",""171650""
""blur"",""7"",""212051""
""focus"",""7"",""220754""
""blur"",""36"",""695504""
""focus"",""36"",""703094""
","""event"",""trial"",""time""
""blur"",""2"",""25859""
""blur"",""3"",""45517""
""blur"",""6"",""74429""
""blur"",""7"",""89637""
""blur"",""7"",""165653""
""blur"",""7"",""212051""
""blur"",""36"",""695504""
","""event"",""trial"",""time""
""focus"",""2"",""40013""
""focus"",""3"",""50390""
""focus"",""6"",""78355""
""focus"",""7"",""97135""
""focus"",""7"",""171650""
""focus"",""7"",""220754""
""focus"",""36"",""703094""
","""event"",""trial"",""time""
""fullscreenenter"",""1"",""5698""
","
","","","167.29999999701977","","","14","14461","6022","&#9761;","elianto","#3366ff99","-1"," ","0","0","[1019.5]","1","0","2","","","","","","","",""
"call-function","57","788410","0.0-2.0-12.0","battery-v0.2","","""event"",""trial"",""time""
""fullscreenenter"",""1"",""5698""
""blur"",""2"",""25859""
""focus"",""2"",""40013""
""blur"",""3"",""45517""
""focus"",""3"",""50390""
""blur"",""6"",""74429""
""focus"",""6"",""78355""
""blur"",""7"",""89637""
""focus"",""7"",""97135""
""blur"",""7"",""165653""
""focus"",""7"",""171650""
""blur"",""7"",""212051""
""focus"",""7"",""220754""
""blur"",""36"",""695504""
""focus"",""36"",""703094""
","""event"",""trial"",""time""
""blur"",""2"",""25859""
""blur"",""3"",""45517""
""blur"",""6"",""74429""
""blur"",""7"",""89637""
""blur"",""7"",""165653""
""blur"",""7"",""212051""
""blur"",""36"",""695504""
","""event"",""trial"",""time""
""focus"",""2"",""40013""
""focus"",""3"",""50390""
""focus"",""6"",""78355""
""focus"",""7"",""97135""
""focus"",""7"",""171650""
""focus"",""7"",""220754""
""focus"",""36"",""703094""
","""event"",""trial"",""time""
""fullscreenenter"",""1"",""5698""
","
","","","","","","","","","","","","","","","","","","","","","","","","","","",""
"pit-instructions","58","825684","0.0-2.0-13.0","battery-v0.2","","""event"",""trial"",""time""
""fullscreenenter"",""1"",""5698""
""blur"",""2"",""25859""
""focus"",""2"",""40013""
""blur"",""3"",""45517""
""focus"",""3"",""50390""
""blur"",""6"",""74429""
""focus"",""6"",""78355""
""blur"",""7"",""89637""
""focus"",""7"",""97135""
""blur"",""7"",""165653""
""focus"",""7"",""171650""
""blur"",""7"",""212051""
""focus"",""7"",""220754""
""blur"",""36"",""695504""
""focus"",""36"",""703094""
","""event"",""trial"",""time""
""blur"",""2"",""25859""
""blur"",""3"",""45517""
""blur"",""6"",""74429""
""blur"",""7"",""89637""
""blur"",""7"",""165653""
""blur"",""7"",""212051""
""blur"",""36"",""695504""
","""event"",""trial"",""time""
""focus"",""2"",""40013""
""focus"",""3"",""50390""
""focus"",""6"",""78355""
""focus"",""7"",""97135""
""focus"",""7"",""171650""
""focus"",""7"",""220754""
""focus"",""36"",""703094""
","""event"",""trial"",""time""
""fullscreenenter"",""1"",""5698""
","
","","[{""page_index"":0,""viewing_time"":9320.69999999553},{""page_index"":1,""viewing_time"":6363.20000000298},{""page_index"":2,""viewing_time"":6111.29999999702},{""page_index"":3,""viewing_time"":10646.10000000149},{""page_index"":4,""viewing_time"":4830.89999999851}]","37273.29999999702","","","","","","","","","","","","","","","","","","","","","","","",""
"pit-trial","59","830545","0.0-2.0-14.0-0.0","battery-v0.2","","""event"",""trial"",""time""
""fullscreenenter"",""1"",""5698""
""blur"",""2"",""25859""
""focus"",""2"",""40013""
""blur"",""3"",""45517""
""focus"",""3"",""50390""
""blur"",""6"",""74429""
""focus"",""6"",""78355""
""blur"",""7"",""89637""
""focus"",""7"",""97135""
""blur"",""7"",""165653""
""focus"",""7"",""171650""
""blur"",""7"",""212051""
""focus"",""7"",""220754""
""blur"",""36"",""695504""
""focus"",""36"",""703094""
","""event"",""trial"",""time""
""blur"",""2"",""25859""
""blur"",""3"",""45517""
""blur"",""6"",""74429""
""blur"",""7"",""89637""
""blur"",""7"",""165653""
""blur"",""7"",""212051""
""blur"",""36"",""695504""
","""event"",""trial"",""time""
""focus"",""2"",""40013""
""focus"",""3"",""50390""
""focus"",""6"",""78355""
""focus"",""7"",""97135""
""focus"",""7"",""171650""
""focus"",""7"",""220754""
""focus"",""36"",""703094""
","""event"",""trial"",""time""
""fullscreenenter"",""1"",""5698""
","
","","","-1","","","14","14461","6022","&#9826;","elianto","#f73b6a7A","-1","-1","1","0","[]","0","0","3","","","","","","","",""
"pit-trial","60","835414","0.0-2.0-14.0-1.0","battery-v0.2","","""event"",""trial"",""time""
""fullscreenenter"",""1"",""5698""
""blur"",""2"",""25859""
""focus"",""2"",""40013""
""blur"",""3"",""45517""
""focus"",""3"",""50390""
""blur"",""6"",""74429""
""focus"",""6"",""78355""
""blur"",""7"",""89637""
""focus"",""7"",""97135""
""blur"",""7"",""165653""
""focus"",""7"",""171650""
""blur"",""7"",""212051""
""focus"",""7"",""220754""
""blur"",""36"",""695504""
""focus"",""36"",""703094""
","""event"",""trial"",""time""
""blur"",""2"",""25859""
""blur"",""3"",""45517""
""blur"",""6"",""74429""
""blur"",""7"",""89637""
""blur"",""7"",""165653""
""blur"",""7"",""212051""
""blur"",""36"",""695504""
","""event"",""trial"",""time""
""focus"",""2"",""40013""
""focus"",""3"",""50390""
""focus"",""6"",""78355""
""focus"",""7"",""97135""
""focus"",""7"",""171650""
""focus"",""7"",""220754""
""focus"",""36"",""703094""
","""event"",""trial"",""time""
""fullscreenenter"",""1"",""5698""
","
","","","-1","","","14","14461","6022","&#9826;","elianto","#f73b6a7A","-1","-1","1","0","[4373.39999999851]","1","0","3","","","","","","","",""
"pit-trial","61","838731","0.0-2.0-14.0-2.0","battery-v0.2","","""event"",""trial"",""time""
""fullscreenenter"",""1"",""5698""
""blur"",""2"",""25859""
""focus"",""2"",""40013""
""blur"",""3"",""45517""
""focus"",""3"",""50390""
""blur"",""6"",""74429""
""focus"",""6"",""78355""
""blur"",""7"",""89637""
""focus"",""7"",""97135""
""blur"",""7"",""165653""
""focus"",""7"",""171650""
""blur"",""7"",""212051""
""focus"",""7"",""220754""
""blur"",""36"",""695504""
""focus"",""36"",""703094""
","""event"",""trial"",""time""
""blur"",""2"",""25859""
""blur"",""3"",""45517""
""blur"",""6"",""74429""
""blur"",""7"",""89637""
""blur"",""7"",""165653""
""blur"",""7"",""212051""
""blur"",""36"",""695504""
","""event"",""trial"",""time""
""focus"",""2"",""40013""
""focus"",""3"",""50390""
""focus"",""6"",""78355""
""focus"",""7"",""97135""
""focus"",""7"",""171650""
""focus"",""7"",""220754""
""focus"",""36"",""703094""
","""event"",""trial"",""time""
""fullscreenenter"",""1"",""5698""
","
","","","453.20000000298023","","","14","14461","6022","&#9826;","elianto","#f73b6a7A","-1"," ","0","-10","[1306.2999999970198]","1","0","3","","","","","","","",""
"pit-trial","62","843595","0.0-2.0-14.0-3.0","battery-v0.2","","""event"",""trial"",""time""
""fullscreenenter"",""1"",""5698""
""blur"",""2"",""25859""
""focus"",""2"",""40013""
""blur"",""3"",""45517""
""focus"",""3"",""50390""
""blur"",""6"",""74429""
""focus"",""6"",""78355""
""blur"",""7"",""89637""
""focus"",""7"",""97135""
""blur"",""7"",""165653""
""focus"",""7"",""171650""
""blur"",""7"",""212051""
""focus"",""7"",""220754""
""blur"",""36"",""695504""
""focus"",""36"",""703094""
","""event"",""trial"",""time""
""blur"",""2"",""25859""
""blur"",""3"",""45517""
""blur"",""6"",""74429""
""blur"",""7"",""89637""
""blur"",""7"",""165653""
""blur"",""7"",""212051""
""blur"",""36"",""695504""
","""event"",""trial"",""time""
""focus"",""2"",""40013""
""focus"",""3"",""50390""
""focus"",""6"",""78355""
""focus"",""7"",""97135""
""focus"",""7"",""171650""
""focus"",""7"",""220754""
""focus"",""36"",""703094""
","""event"",""trial"",""time""
""fullscreenenter"",""1"",""5698""
","
","","","-1","","","14","14461","6022","&#9826;","elianto","#f73b6a7A","-1","-1","1","-10","[]","0","0","3","","","","","","","",""
"pit-trial","63","848464","0.0-2.0-14.0-4.0","battery-v0.2","","""event"",""trial"",""time""
""fullscreenenter"",""1"",""5698""
""blur"",""2"",""25859""
""focus"",""2"",""40013""
""blur"",""3"",""45517""
""focus"",""3"",""50390""
""blur"",""6"",""74429""
""focus"",""6"",""78355""
""blur"",""7"",""89637""
""focus"",""7"",""97135""
""blur"",""7"",""165653""
""focus"",""7"",""171650""
""blur"",""7"",""212051""
""focus"",""7"",""220754""
""blur"",""36"",""695504""
""focus"",""36"",""703094""
","""event"",""trial"",""time""
""blur"",""2"",""25859""
""blur"",""3"",""45517""
""blur"",""6"",""74429""
""blur"",""7"",""89637""
""blur"",""7"",""165653""
""blur"",""7"",""212051""
""blur"",""36"",""695504""
","""event"",""trial"",""time""
""focus"",""2"",""40013""
""focus"",""3"",""50390""
""focus"",""6"",""78355""
""focus"",""7"",""97135""
""focus"",""7"",""171650""
""focus"",""7"",""220754""
""focus"",""36"",""703094""
","""event"",""trial"",""time""
""fullscreenenter"",""1"",""5698""
","
","","","-1","","","14","14461","6022","&#9826;","elianto","#f73b6a7A","-1","-1","1","0","[]","0","0","3","","","","","","","",""
"pit-trial","64","853342","0.0-2.0-14.1-0.1","battery-v0.2","","""event"",""trial"",""time""
""fullscreenenter"",""1"",""5698""
""blur"",""2"",""25859""
""focus"",""2"",""40013""
""blur"",""3"",""45517""
""focus"",""3"",""50390""
""blur"",""6"",""74429""
""focus"",""6"",""78355""
""blur"",""7"",""89637""
""focus"",""7"",""97135""
""blur"",""7"",""165653""
""focus"",""7"",""171650""
""blur"",""7"",""212051""
""focus"",""7"",""220754""
""blur"",""36"",""695504""
""focus"",""36"",""703094""
","""event"",""trial"",""time""
""blur"",""2"",""25859""
""blur"",""3"",""45517""
""blur"",""6"",""74429""
""blur"",""7"",""89637""
""blur"",""7"",""165653""
""blur"",""7"",""212051""
""blur"",""36"",""695504""
","""event"",""trial"",""time""
""focus"",""2"",""40013""
""focus"",""3"",""50390""
""focus"",""6"",""78355""
""focus"",""7"",""97135""
""focus"",""7"",""171650""
""focus"",""7"",""220754""
""focus"",""36"",""703094""
","""event"",""trial"",""time""
""fullscreenenter"",""1"",""5698""
","
","","","-1","","","14","14461","6022","&#9826;","elianto","#f73b6a7A","-1","-1","1","0","[]","0","0","3","","","","","","","",""
"pit-trial","65","858208","0.0-2.0-14.1-1.1","battery-v0.2","","""event"",""trial"",""time""
""fullscreenenter"",""1"",""5698""
""blur"",""2"",""25859""
""focus"",""2"",""40013""
""blur"",""3"",""45517""
""focus"",""3"",""50390""
""blur"",""6"",""74429""
""focus"",""6"",""78355""
""blur"",""7"",""89637""
""focus"",""7"",""97135""
""blur"",""7"",""165653""
""focus"",""7"",""171650""
""blur"",""7"",""212051""
""focus"",""7"",""220754""
""blur"",""36"",""695504""
""focus"",""36"",""703094""
","""event"",""trial"",""time""
""blur"",""2"",""25859""
""blur"",""3"",""45517""
""blur"",""6"",""74429""
""blur"",""7"",""89637""
""blur"",""7"",""165653""
""blur"",""7"",""212051""
""blur"",""36"",""695504""
","""event"",""trial"",""time""
""focus"",""2"",""40013""
""focus"",""3"",""50390""
""focus"",""6"",""78355""
""focus"",""7"",""97135""
""focus"",""7"",""171650""
""focus"",""7"",""220754""
""focus"",""36"",""703094""
","""event"",""trial"",""time""
""fullscreenenter"",""1"",""5698""
","
","","","-1","","","14","14461","6022","&#9826;","elianto","#f73b6a7A","-1","-1","1","0","[]","0","0","3","","","","","","","",""
"pit-trial","66","863075","0.0-2.0-14.1-2.1","battery-v0.2","","""event"",""trial"",""time""
""fullscreenenter"",""1"",""5698""
""blur"",""2"",""25859""
""focus"",""2"",""40013""
""blur"",""3"",""45517""
""focus"",""3"",""50390""
""blur"",""6"",""74429""
""focus"",""6"",""78355""
""blur"",""7"",""89637""
""focus"",""7"",""97135""
""blur"",""7"",""165653""
""focus"",""7"",""171650""
""blur"",""7"",""212051""
""focus"",""7"",""220754""
""blur"",""36"",""695504""
""focus"",""36"",""703094""
","""event"",""trial"",""time""
""blur"",""2"",""25859""
""blur"",""3"",""45517""
""blur"",""6"",""74429""
""blur"",""7"",""89637""
""blur"",""7"",""165653""
""blur"",""7"",""212051""
""blur"",""36"",""695504""
","""event"",""trial"",""time""
""focus"",""2"",""40013""
""focus"",""3"",""50390""
""focus"",""6"",""78355""
""focus"",""7"",""97135""
""focus"",""7"",""171650""
""focus"",""7"",""220754""
""focus"",""36"",""703094""
","""event"",""trial"",""time""
""fullscreenenter"",""1"",""5698""
","
","","","-1","","","14","14461","6022","&#9826;","elianto","#f73b6a7A","-1","-1","1","0","[]","0","0","3","","","","","","","",""
"pit-trial","67","867947","0.0-2.0-14.1-3.1","battery-v0.2","","""event"",""trial"",""time""
""fullscreenenter"",""1"",""5698""
""blur"",""2"",""25859""
""focus"",""2"",""40013""
""blur"",""3"",""45517""
""focus"",""3"",""50390""
""blur"",""6"",""74429""
""focus"",""6"",""78355""
""blur"",""7"",""89637""
""focus"",""7"",""97135""
""blur"",""7"",""165653""
""focus"",""7"",""171650""
""blur"",""7"",""212051""
""focus"",""7"",""220754""
""blur"",""36"",""695504""
""focus"",""36"",""703094""
","""event"",""trial"",""time""
""blur"",""2"",""25859""
""blur"",""3"",""45517""
""blur"",""6"",""74429""
""blur"",""7"",""89637""
""blur"",""7"",""165653""
""blur"",""7"",""212051""
""blur"",""36"",""695504""
","""event"",""trial"",""time""
""focus"",""2"",""40013""
""focus"",""3"",""50390""
""focus"",""6"",""78355""
""focus"",""7"",""97135""
""focus"",""7"",""171650""
""focus"",""7"",""220754""
""focus"",""36"",""703094""
","""event"",""trial"",""time""
""fullscreenenter"",""1"",""5698""
","
","","","-1","","","14","14461","6022","&#9826;","elianto","#f73b6a7A","-1","-1","1","-10","[]","0","0","3","","","","","","","",""
"pit-trial","68","872816","0.0-2.0-14.1-4.1","battery-v0.2","","""event"",""trial"",""time""
""fullscreenenter"",""1"",""5698""
""blur"",""2"",""25859""
""focus"",""2"",""40013""
""blur"",""3"",""45517""
""focus"",""3"",""50390""
""blur"",""6"",""74429""
""focus"",""6"",""78355""
""blur"",""7"",""89637""
""focus"",""7"",""97135""
""blur"",""7"",""165653""
""focus"",""7"",""171650""
""blur"",""7"",""212051""
""focus"",""7"",""220754""
""blur"",""36"",""695504""
""focus"",""36"",""703094""
","""event"",""trial"",""time""
""blur"",""2"",""25859""
""blur"",""3"",""45517""
""blur"",""6"",""74429""
""blur"",""7"",""89637""
""blur"",""7"",""165653""
""blur"",""7"",""212051""
""blur"",""36"",""695504""
","""event"",""trial"",""time""
""focus"",""2"",""40013""
""focus"",""3"",""50390""
""focus"",""6"",""78355""
""focus"",""7"",""97135""
""focus"",""7"",""171650""
""focus"",""7"",""220754""
""focus"",""36"",""703094""
","""event"",""trial"",""time""
""fullscreenenter"",""1"",""5698""
","
","","","-1","","","14","14461","6022","&#9826;","elianto","#f73b6a7A","-1","-1","1","0","[]","0","0","3","","","","","","","",""
"pit-trial","69","877678","0.0-2.0-14.2-0.2","battery-v0.2","","""event"",""trial"",""time""
""fullscreenenter"",""1"",""5698""
""blur"",""2"",""25859""
""focus"",""2"",""40013""
""blur"",""3"",""45517""
""focus"",""3"",""50390""
""blur"",""6"",""74429""
""focus"",""6"",""78355""
""blur"",""7"",""89637""
""focus"",""7"",""97135""
""blur"",""7"",""165653""
""focus"",""7"",""171650""
""blur"",""7"",""212051""
""focus"",""7"",""220754""
""blur"",""36"",""695504""
""focus"",""36"",""703094""
","""event"",""trial"",""time""
""blur"",""2"",""25859""
""blur"",""3"",""45517""
""blur"",""6"",""74429""
""blur"",""7"",""89637""
""blur"",""7"",""165653""
""blur"",""7"",""212051""
""blur"",""36"",""695504""
","""event"",""trial"",""time""
""focus"",""2"",""40013""
""focus"",""3"",""50390""
""focus"",""6"",""78355""
""focus"",""7"",""97135""
""focus"",""7"",""171650""
""focus"",""7"",""220754""
""focus"",""36"",""703094""
","""event"",""trial"",""time""
""fullscreenenter"",""1"",""5698""
","
","","","-1","","","14","14461","6022","&#9826;","elianto","#f73b6a7A","-1","-1","1","0","[]","0","0","3","","","","","","","",""
"pit-trial","70","882545","0.0-2.0-14.2-1.2","battery-v0.2","","""event"",""trial"",""time""
""fullscreenenter"",""1"",""5698""
""blur"",""2"",""25859""
""focus"",""2"",""40013""
""blur"",""3"",""45517""
""focus"",""3"",""50390""
""blur"",""6"",""74429""
""focus"",""6"",""78355""
""blur"",""7"",""89637""
""focus"",""7"",""97135""
""blur"",""7"",""165653""
""focus"",""7"",""171650""
""blur"",""7"",""212051""
""focus"",""7"",""220754""
""blur"",""36"",""695504""
""focus"",""36"",""703094""
","""event"",""trial"",""time""
""blur"",""2"",""25859""
""blur"",""3"",""45517""
""blur"",""6"",""74429""
""blur"",""7"",""89637""
""blur"",""7"",""165653""
""blur"",""7"",""212051""
""blur"",""36"",""695504""
","""event"",""trial"",""time""
""focus"",""2"",""40013""
""focus"",""3"",""50390""
""focus"",""6"",""78355""
""focus"",""7"",""97135""
""focus"",""7"",""171650""
""focus"",""7"",""220754""
""focus"",""36"",""703094""
","""event"",""trial"",""time""
""fullscreenenter"",""1"",""5698""
","
","","","-1","","","14","14461","6022","&#9826;","elianto","#f73b6a7A","-1","-1","1","0","[]","0","0","3","","","","","","","",""
"pit-trial","71","887409","0.0-2.0-14.2-2.2","battery-v0.2","","""event"",""trial"",""time""
""fullscreenenter"",""1"",""5698""
""blur"",""2"",""25859""
""focus"",""2"",""40013""
""blur"",""3"",""45517""
""focus"",""3"",""50390""
""blur"",""6"",""74429""
""focus"",""6"",""78355""
""blur"",""7"",""89637""
""focus"",""7"",""97135""
""blur"",""7"",""165653""
""focus"",""7"",""171650""
""blur"",""7"",""212051""
""focus"",""7"",""220754""
""blur"",""36"",""695504""
""focus"",""36"",""703094""
","""event"",""trial"",""time""
""blur"",""2"",""25859""
""blur"",""3"",""45517""
""blur"",""6"",""74429""
""blur"",""7"",""89637""
""blur"",""7"",""165653""
""blur"",""7"",""212051""
""blur"",""36"",""695504""
","""event"",""trial"",""time""
""focus"",""2"",""40013""
""focus"",""3"",""50390""
""focus"",""6"",""78355""
""focus"",""7"",""97135""
""focus"",""7"",""171650""
""focus"",""7"",""220754""
""focus"",""36"",""703094""
","""event"",""trial"",""time""
""fullscreenenter"",""1"",""5698""
","
","","","-1","","","14","14461","6022","&#9826;","elianto","#f73b6a7A","-1","-1","1","0","[]","0","0","3","","","","","","","",""
"pit-trial","72","892279","0.0-2.0-14.2-3.2","battery-v0.2","","""event"",""trial"",""time""
""fullscreenenter"",""1"",""5698""
""blur"",""2"",""25859""
""focus"",""2"",""40013""
""blur"",""3"",""45517""
""focus"",""3"",""50390""
""blur"",""6"",""74429""
""focus"",""6"",""78355""
""blur"",""7"",""89637""
""focus"",""7"",""97135""
""blur"",""7"",""165653""
""focus"",""7"",""171650""
""blur"",""7"",""212051""
""focus"",""7"",""220754""
""blur"",""36"",""695504""
""focus"",""36"",""703094""
","""event"",""trial"",""time""
""blur"",""2"",""25859""
""blur"",""3"",""45517""
""blur"",""6"",""74429""
""blur"",""7"",""89637""
""blur"",""7"",""165653""
""blur"",""7"",""212051""
""blur"",""36"",""695504""
","""event"",""trial"",""time""
""focus"",""2"",""40013""
""focus"",""3"",""50390""
""focus"",""6"",""78355""
""focus"",""7"",""97135""
""focus"",""7"",""171650""
""focus"",""7"",""220754""
""focus"",""36"",""703094""
","""event"",""trial"",""time""
""fullscreenenter"",""1"",""5698""
","
","","","-1","","","14","14461","6022","&#9826;","elianto","#f73b6a7A","-1","-1","1","-10","[]","0","0","3","","","","","","","",""
"pit-trial","73","897152","0.0-2.0-14.2-4.2","battery-v0.2","","""event"",""trial"",""time""
""fullscreenenter"",""1"",""5698""
""blur"",""2"",""25859""
""focus"",""2"",""40013""
""blur"",""3"",""45517""
""focus"",""3"",""50390""
""blur"",""6"",""74429""
""focus"",""6"",""78355""
""blur"",""7"",""89637""
""focus"",""7"",""97135""
""blur"",""7"",""165653""
""focus"",""7"",""171650""
""blur"",""7"",""212051""
""focus"",""7"",""220754""
""blur"",""36"",""695504""
""focus"",""36"",""703094""
","""event"",""trial"",""time""
""blur"",""2"",""25859""
""blur"",""3"",""45517""
""blur"",""6"",""74429""
""blur"",""7"",""89637""
""blur"",""7"",""165653""
""blur"",""7"",""212051""
""blur"",""36"",""695504""
","""event"",""trial"",""time""
""focus"",""2"",""40013""
""focus"",""3"",""50390""
""focus"",""6"",""78355""
""focus"",""7"",""97135""
""focus"",""7"",""171650""
""focus"",""7"",""220754""
""focus"",""36"",""703094""
","""event"",""trial"",""time""
""fullscreenenter"",""1"",""5698""
","
","","","-1","","","14","14461","6022","&#9826;","elianto","#f73b6a7A","-1","-1","1","0","[]","0","0","3","","","","","","","",""
"pit-trial","74","902014","0.0-2.0-14.3-0.3","battery-v0.2","","""event"",""trial"",""time""
""fullscreenenter"",""1"",""5698""
""blur"",""2"",""25859""
""focus"",""2"",""40013""
""blur"",""3"",""45517""
""focus"",""3"",""50390""
""blur"",""6"",""74429""
""focus"",""6"",""78355""
""blur"",""7"",""89637""
""focus"",""7"",""97135""
""blur"",""7"",""165653""
""focus"",""7"",""171650""
""blur"",""7"",""212051""
""focus"",""7"",""220754""
""blur"",""36"",""695504""
""focus"",""36"",""703094""
","""event"",""trial"",""time""
""blur"",""2"",""25859""
""blur"",""3"",""45517""
""blur"",""6"",""74429""
""blur"",""7"",""89637""
""blur"",""7"",""165653""
""blur"",""7"",""212051""
""blur"",""36"",""695504""
","""event"",""trial"",""time""
""focus"",""2"",""40013""
""focus"",""3"",""50390""
""focus"",""6"",""78355""
""focus"",""7"",""97135""
""focus"",""7"",""171650""
""focus"",""7"",""220754""
""focus"",""36"",""703094""
","""event"",""trial"",""time""
""fullscreenenter"",""1"",""5698""
","
","","","-1","","","14","14461","6022","&#9826;","elianto","#f73b6a7A","-1","-1","1","0","[]","0","0","3","","","","","","","",""
"pit-trial","75","906880","0.0-2.0-14.3-1.3","battery-v0.2","","""event"",""trial"",""time""
""fullscreenenter"",""1"",""5698""
""blur"",""2"",""25859""
""focus"",""2"",""40013""
""blur"",""3"",""45517""
""focus"",""3"",""50390""
""blur"",""6"",""74429""
""focus"",""6"",""78355""
""blur"",""7"",""89637""
""focus"",""7"",""97135""
""blur"",""7"",""165653""
""focus"",""7"",""171650""
""blur"",""7"",""212051""
""focus"",""7"",""220754""
""blur"",""36"",""695504""
""focus"",""36"",""703094""
","""event"",""trial"",""time""
""blur"",""2"",""25859""
""blur"",""3"",""45517""
""blur"",""6"",""74429""
""blur"",""7"",""89637""
""blur"",""7"",""165653""
""blur"",""7"",""212051""
""blur"",""36"",""695504""
","""event"",""trial"",""time""
""focus"",""2"",""40013""
""focus"",""3"",""50390""
""focus"",""6"",""78355""
""focus"",""7"",""97135""
""focus"",""7"",""171650""
""focus"",""7"",""220754""
""focus"",""36"",""703094""
","""event"",""trial"",""time""
""fullscreenenter"",""1"",""5698""
","
","","","-1","","","14","14461","6022","&#9826;","elianto","#f73b6a7A","-1","-1","1","0","[]","0","0","3","","","","","","","",""
"pit-trial","76","911167","0.0-2.0-14.3-2.3","battery-v0.2","","""event"",""trial"",""time""
""fullscreenenter"",""1"",""5698""
""blur"",""2"",""25859""
""focus"",""2"",""40013""
""blur"",""3"",""45517""
""focus"",""3"",""50390""
""blur"",""6"",""74429""
""focus"",""6"",""78355""
""blur"",""7"",""89637""
""focus"",""7"",""97135""
""blur"",""7"",""165653""
""focus"",""7"",""171650""
""blur"",""7"",""212051""
""focus"",""7"",""220754""
""blur"",""36"",""695504""
""focus"",""36"",""703094""
","""event"",""trial"",""time""
""blur"",""2"",""25859""
""blur"",""3"",""45517""
""blur"",""6"",""74429""
""blur"",""7"",""89637""
""blur"",""7"",""165653""
""blur"",""7"",""212051""
""blur"",""36"",""695504""
","""event"",""trial"",""time""
""focus"",""2"",""40013""
""focus"",""3"",""50390""
""focus"",""6"",""78355""
""focus"",""7"",""97135""
""focus"",""7"",""171650""
""focus"",""7"",""220754""
""focus"",""36"",""703094""
","""event"",""trial"",""time""
""fullscreenenter"",""1"",""5698""
","
","","","1422","","","14","14461","6022","&#9826;","elianto","#f73b6a7A","-1"," ","0","-10","[2277.0999999940395]","1","0","3","","","","","","","",""
"pit-trial","77","916037","0.0-2.0-14.3-3.3","battery-v0.2","","""event"",""trial"",""time""
""fullscreenenter"",""1"",""5698""
""blur"",""2"",""25859""
""focus"",""2"",""40013""
""blur"",""3"",""45517""
""focus"",""3"",""50390""
""blur"",""6"",""74429""
""focus"",""6"",""78355""
""blur"",""7"",""89637""
""focus"",""7"",""97135""
""blur"",""7"",""165653""
""focus"",""7"",""171650""
""blur"",""7"",""212051""
""focus"",""7"",""220754""
""blur"",""36"",""695504""
""focus"",""36"",""703094""
","""event"",""trial"",""time""
""blur"",""2"",""25859""
""blur"",""3"",""45517""
""blur"",""6"",""74429""
""blur"",""7"",""89637""
""blur"",""7"",""165653""
""blur"",""7"",""212051""
""blur"",""36"",""695504""
","""event"",""trial"",""time""
""focus"",""2"",""40013""
""focus"",""3"",""50390""
""focus"",""6"",""78355""
""focus"",""7"",""97135""
""focus"",""7"",""171650""
""focus"",""7"",""220754""
""focus"",""36"",""703094""
","""event"",""trial"",""time""
""fullscreenenter"",""1"",""5698""
","
","","","-1","","","14","14461","6022","&#9826;","elianto","#f73b6a7A","-1","-1","1","-10","[]","0","0","3","","","","","","","",""
"pit-trial","78","920905","0.0-2.0-14.3-4.3","battery-v0.2","","""event"",""trial"",""time""
""fullscreenenter"",""1"",""5698""
""blur"",""2"",""25859""
""focus"",""2"",""40013""
""blur"",""3"",""45517""
""focus"",""3"",""50390""
""blur"",""6"",""74429""
""focus"",""6"",""78355""
""blur"",""7"",""89637""
""focus"",""7"",""97135""
""blur"",""7"",""165653""
""focus"",""7"",""171650""
""blur"",""7"",""212051""
""focus"",""7"",""220754""
""blur"",""36"",""695504""
""focus"",""36"",""703094""
","""event"",""trial"",""time""
""blur"",""2"",""25859""
""blur"",""3"",""45517""
""blur"",""6"",""74429""
""blur"",""7"",""89637""
""blur"",""7"",""165653""
""blur"",""7"",""212051""
""blur"",""36"",""695504""
","""event"",""trial"",""time""
""focus"",""2"",""40013""
""focus"",""3"",""50390""
""focus"",""6"",""78355""
""focus"",""7"",""97135""
""focus"",""7"",""171650""
""focus"",""7"",""220754""
""focus"",""36"",""703094""
","""event"",""trial"",""time""
""fullscreenenter"",""1"",""5698""
","
","","","-1","","","14","14461","6022","&#9826;","elianto","#f73b6a7A","-1","-1","1","0","[]","0","0","3","","","","","","","",""
"call-function","79","920909","0.0-2.0-15.0","battery-v0.2","","""event"",""trial"",""time""
""fullscreenenter"",""1"",""5698""
""blur"",""2"",""25859""
""focus"",""2"",""40013""
""blur"",""3"",""45517""
""focus"",""3"",""50390""
""blur"",""6"",""74429""
""focus"",""6"",""78355""
""blur"",""7"",""89637""
""focus"",""7"",""97135""
""blur"",""7"",""165653""
""focus"",""7"",""171650""
""blur"",""7"",""212051""
""focus"",""7"",""220754""
""blur"",""36"",""695504""
""focus"",""36"",""703094""
""blur"",""80"",""949013""
""focus"",""80"",""950778""
","""event"",""trial"",""time""
""blur"",""2"",""25859""
""blur"",""3"",""45517""
""blur"",""6"",""74429""
""blur"",""7"",""89637""
""blur"",""7"",""165653""
""blur"",""7"",""212051""
""blur"",""36"",""695504""
""blur"",""80"",""949013""
","""event"",""trial"",""time""
""focus"",""2"",""40013""
""focus"",""3"",""50390""
""focus"",""6"",""78355""
""focus"",""7"",""97135""
""focus"",""7"",""171650""
""focus"",""7"",""220754""
""focus"",""36"",""703094""
""focus"",""80"",""950778""
","""event"",""trial"",""time""
""fullscreenenter"",""1"",""5698""
","
","","","","","","","","","","","","","","","","","","","","","","","","","","",""
"pit-instructions","80","963917","0.0-2.0-16.0","battery-v0.2","","""event"",""trial"",""time""
""fullscreenenter"",""1"",""5698""
""blur"",""2"",""25859""
""focus"",""2"",""40013""
""blur"",""3"",""45517""
""focus"",""3"",""50390""
""blur"",""6"",""74429""
""focus"",""6"",""78355""
""blur"",""7"",""89637""
""focus"",""7"",""97135""
""blur"",""7"",""165653""
""focus"",""7"",""171650""
""blur"",""7"",""212051""
""focus"",""7"",""220754""
""blur"",""36"",""695504""
""focus"",""36"",""703094""
""blur"",""80"",""949013""
""focus"",""80"",""950778""
","""event"",""trial"",""time""
""blur"",""2"",""25859""
""blur"",""3"",""45517""
""blur"",""6"",""74429""
""blur"",""7"",""89637""
""blur"",""7"",""165653""
""blur"",""7"",""212051""
""blur"",""36"",""695504""
""blur"",""80"",""949013""
","""event"",""trial"",""time""
""focus"",""2"",""40013""
""focus"",""3"",""50390""
""focus"",""6"",""78355""
""focus"",""7"",""97135""
""focus"",""7"",""171650""
""focus"",""7"",""220754""
""focus"",""36"",""703094""
""focus"",""80"",""950778""
","""event"",""trial"",""time""
""fullscreenenter"",""1"",""5698""
","
","","[{""page_index"":0,""viewing_time"":9089.59999999404},{""page_index"":1,""viewing_time"":8602.10000000149},{""page_index"":2,""viewing_time"":6195.60000000149},{""page_index"":3,""viewing_time"":19118.60000000149}]","43006.89999999851","","","","","","","","","","","","","","","","","","","","","","","",""
"pit-trial","81","968775","0.0-2.0-17.0-0.0","battery-v0.2","","""event"",""trial"",""time""
""fullscreenenter"",""1"",""5698""
""blur"",""2"",""25859""
""focus"",""2"",""40013""
""blur"",""3"",""45517""
""focus"",""3"",""50390""
""blur"",""6"",""74429""
""focus"",""6"",""78355""
""blur"",""7"",""89637""
""focus"",""7"",""97135""
""blur"",""7"",""165653""
""focus"",""7"",""171650""
""blur"",""7"",""212051""
""focus"",""7"",""220754""
""blur"",""36"",""695504""
""focus"",""36"",""703094""
""blur"",""80"",""949013""
""focus"",""80"",""950778""
","""event"",""trial"",""time""
""blur"",""2"",""25859""
""blur"",""3"",""45517""
""blur"",""6"",""74429""
""blur"",""7"",""89637""
""blur"",""7"",""165653""
""blur"",""7"",""212051""
""blur"",""36"",""695504""
""blur"",""80"",""949013""
","""event"",""trial"",""time""
""focus"",""2"",""40013""
""focus"",""3"",""50390""
""focus"",""6"",""78355""
""focus"",""7"",""97135""
""focus"",""7"",""171650""
""focus"",""7"",""220754""
""focus"",""36"",""703094""
""focus"",""80"",""950778""
","""event"",""trial"",""time""
""fullscreenenter"",""1"",""5698""
","
","","","-1","","","14","14461","6022","&#9789;","elianto","#f73b6a7A"," ","-1","0","-10","[]","0","0","4","","","","","","","",""
"pit-trial","82","973642","0.0-2.0-17.0-1.0","battery-v0.2","","""event"",""trial"",""time""
""fullscreenenter"",""1"",""5698""
""blur"",""2"",""25859""
""focus"",""2"",""40013""
""blur"",""3"",""45517""
""focus"",""3"",""50390""
""blur"",""6"",""74429""
""focus"",""6"",""78355""
""blur"",""7"",""89637""
""focus"",""7"",""97135""
""blur"",""7"",""165653""
""focus"",""7"",""171650""
""blur"",""7"",""212051""
""focus"",""7"",""220754""
""blur"",""36"",""695504""
""focus"",""36"",""703094""
""blur"",""80"",""949013""
""focus"",""80"",""950778""
","""event"",""trial"",""time""
""blur"",""2"",""25859""
""blur"",""3"",""45517""
""blur"",""6"",""74429""
""blur"",""7"",""89637""
""blur"",""7"",""165653""
""blur"",""7"",""212051""
""blur"",""36"",""695504""
""blur"",""80"",""949013""
","""event"",""trial"",""time""
""focus"",""2"",""40013""
""focus"",""3"",""50390""
""focus"",""6"",""78355""
""focus"",""7"",""97135""
""focus"",""7"",""171650""
""focus"",""7"",""220754""
""focus"",""36"",""703094""
""focus"",""80"",""950778""
","""event"",""trial"",""time""
""fullscreenenter"",""1"",""5698""
","
","","","-1","","","14","14461","6022","&#9789;","elianto","#f73b6a7A"," ","-1","0","-10","[]","0","0","4","","","","","","","",""
"pit-trial","83","978499","0.0-2.0-17.0-2.0","battery-v0.2","","""event"",""trial"",""time""
""fullscreenenter"",""1"",""5698""
""blur"",""2"",""25859""
""focus"",""2"",""40013""
""blur"",""3"",""45517""
""focus"",""3"",""50390""
""blur"",""6"",""74429""
""focus"",""6"",""78355""
""blur"",""7"",""89637""
""focus"",""7"",""97135""
""blur"",""7"",""165653""
""focus"",""7"",""171650""
""blur"",""7"",""212051""
""focus"",""7"",""220754""
""blur"",""36"",""695504""
""focus"",""36"",""703094""
""blur"",""80"",""949013""
""focus"",""80"",""950778""
","""event"",""trial"",""time""
""blur"",""2"",""25859""
""blur"",""3"",""45517""
""blur"",""6"",""74429""
""blur"",""7"",""89637""
""blur"",""7"",""165653""
""blur"",""7"",""212051""
""blur"",""36"",""695504""
""blur"",""80"",""949013""
","""event"",""trial"",""time""
""focus"",""2"",""40013""
""focus"",""3"",""50390""
""focus"",""6"",""78355""
""focus"",""7"",""97135""
""focus"",""7"",""171650""
""focus"",""7"",""220754""
""focus"",""36"",""703094""
""focus"",""80"",""950778""
","""event"",""trial"",""time""
""fullscreenenter"",""1"",""5698""
","
","","","-1","","","14","14461","6022","&#9789;","elianto","#f73b6a7A"," ","-1","0","-10","[]","0","0","4","","","","","","","",""
"pit-trial","84","983359","0.0-2.0-17.0-3.0","battery-v0.2","","""event"",""trial"",""time""
""fullscreenenter"",""1"",""5698""
""blur"",""2"",""25859""
""focus"",""2"",""40013""
""blur"",""3"",""45517""
""focus"",""3"",""50390""
""blur"",""6"",""74429""
""focus"",""6"",""78355""
""blur"",""7"",""89637""
""focus"",""7"",""97135""
""blur"",""7"",""165653""
""focus"",""7"",""171650""
""blur"",""7"",""212051""
""focus"",""7"",""220754""
""blur"",""36"",""695504""
""focus"",""36"",""703094""
""blur"",""80"",""949013""
""focus"",""80"",""950778""
","""event"",""trial"",""time""
""blur"",""2"",""25859""
""blur"",""3"",""45517""
""blur"",""6"",""74429""
""blur"",""7"",""89637""
""blur"",""7"",""165653""
""blur"",""7"",""212051""
""blur"",""36"",""695504""
""blur"",""80"",""949013""
","""event"",""trial"",""time""
""focus"",""2"",""40013""
""focus"",""3"",""50390""
""focus"",""6"",""78355""
""focus"",""7"",""97135""
""focus"",""7"",""171650""
""focus"",""7"",""220754""
""focus"",""36"",""703094""
""focus"",""80"",""950778""
","""event"",""trial"",""time""
""fullscreenenter"",""1"",""5698""
","
","","","-1","","","14","14461","6022","&#9789;","elianto","#f73b6a7A"," ","-1","0","0","[]","0","0","4","","","","","","","",""
"pit-trial","85","988229","0.0-2.0-17.0-4.0","battery-v0.2","","""event"",""trial"",""time""
""fullscreenenter"",""1"",""5698""
""blur"",""2"",""25859""
""focus"",""2"",""40013""
""blur"",""3"",""45517""
""focus"",""3"",""50390""
""blur"",""6"",""74429""
""focus"",""6"",""78355""
""blur"",""7"",""89637""
""focus"",""7"",""97135""
""blur"",""7"",""165653""
""focus"",""7"",""171650""
""blur"",""7"",""212051""
""focus"",""7"",""220754""
""blur"",""36"",""695504""
""focus"",""36"",""703094""
""blur"",""80"",""949013""
""focus"",""80"",""950778""
","""event"",""trial"",""time""
""blur"",""2"",""25859""
""blur"",""3"",""45517""
""blur"",""6"",""74429""
""blur"",""7"",""89637""
""blur"",""7"",""165653""
""blur"",""7"",""212051""
""blur"",""36"",""695504""
""blur"",""80"",""949013""
","""event"",""trial"",""time""
""focus"",""2"",""40013""
""focus"",""3"",""50390""
""focus"",""6"",""78355""
""focus"",""7"",""97135""
""focus"",""7"",""171650""
""focus"",""7"",""220754""
""focus"",""36"",""703094""
""focus"",""80"",""950778""
","""event"",""trial"",""time""
""fullscreenenter"",""1"",""5698""
","
","","","-1","","","14","14461","6022","&#9789;","elianto","#f73b6a7A"," ","-1","0","-10","[]","0","0","4","","","","","","","",""
"pit-trial","86","993095","0.0-2.0-17.1-0.1","battery-v0.2","","""event"",""trial"",""time""
""fullscreenenter"",""1"",""5698""
""blur"",""2"",""25859""
""focus"",""2"",""40013""
""blur"",""3"",""45517""
""focus"",""3"",""50390""
""blur"",""6"",""74429""
""focus"",""6"",""78355""
""blur"",""7"",""89637""
""focus"",""7"",""97135""
""blur"",""7"",""165653""
""focus"",""7"",""171650""
""blur"",""7"",""212051""
""focus"",""7"",""220754""
""blur"",""36"",""695504""
""focus"",""36"",""703094""
""blur"",""80"",""949013""
""focus"",""80"",""950778""
","""event"",""trial"",""time""
""blur"",""2"",""25859""
""blur"",""3"",""45517""
""blur"",""6"",""74429""
""blur"",""7"",""89637""
""blur"",""7"",""165653""
""blur"",""7"",""212051""
""blur"",""36"",""695504""
""blur"",""80"",""949013""
","""event"",""trial"",""time""
""focus"",""2"",""40013""
""focus"",""3"",""50390""
""focus"",""6"",""78355""
""focus"",""7"",""97135""
""focus"",""7"",""171650""
""focus"",""7"",""220754""
""focus"",""36"",""703094""
""focus"",""80"",""950778""
","""event"",""trial"",""time""
""fullscreenenter"",""1"",""5698""
","
","","","-1","","","14","14461","6022","&#9789;","elianto","#f73b6a7A"," ","-1","0","-10","[]","0","0","4","","","","","","","",""
"pit-trial","87","997957","0.0-2.0-17.1-1.1","battery-v0.2","","""event"",""trial"",""time""
""fullscreenenter"",""1"",""5698""
""blur"",""2"",""25859""
""focus"",""2"",""40013""
""blur"",""3"",""45517""
""focus"",""3"",""50390""
""blur"",""6"",""74429""
""focus"",""6"",""78355""
""blur"",""7"",""89637""
""focus"",""7"",""97135""
""blur"",""7"",""165653""
""focus"",""7"",""171650""
""blur"",""7"",""212051""
""focus"",""7"",""220754""
""blur"",""36"",""695504""
""focus"",""36"",""703094""
""blur"",""80"",""949013""
""focus"",""80"",""950778""
","""event"",""trial"",""time""
""blur"",""2"",""25859""
""blur"",""3"",""45517""
""blur"",""6"",""74429""
""blur"",""7"",""89637""
""blur"",""7"",""165653""
""blur"",""7"",""212051""
""blur"",""36"",""695504""
""blur"",""80"",""949013""
","""event"",""trial"",""time""
""focus"",""2"",""40013""
""focus"",""3"",""50390""
""focus"",""6"",""78355""
""focus"",""7"",""97135""
""focus"",""7"",""171650""
""focus"",""7"",""220754""
""focus"",""36"",""703094""
""focus"",""80"",""950778""
","""event"",""trial"",""time""
""fullscreenenter"",""1"",""5698""
","
","","","-1","","","14","14461","6022","&#9789;","elianto","#f73b6a7A"," ","-1","0","-10","[]","0","0","4","","","","","","","",""
"pit-trial","88","1002828","0.0-2.0-17.1-2.1","battery-v0.2","","""event"",""trial"",""time""
