"trial_type","trial_index","time_elapsed","internal_node_id","task_version","subject_id","interactions","blur_events","focus_events","fullscreenenter_events","fullscreenexit_events","success","view_history","rt","responses","num_errors","age","subject","participantId","rune","rune_set","hex","correct","choice","accuracy","outcome","keys","total_keys","block","practice","value","sub","trial","stimulus","robot","valence","action","sham"
"pavlovia","0","15","0.0-0.0","battery-v0.2","","""event"",""trial"",""time""
""fullscreenenter"",""1"",""2449""
","
","
","""event"",""trial"",""time""
""fullscreenenter"",""1"",""2449""
","
","","","","","","","","","","","","","","","","","","","","","","","","","","",""
"fullscreen","1","3419","0.0-1.0","battery-v0.2","","""event"",""trial"",""time""
""fullscreenenter"",""1"",""2449""
","
","
","""event"",""trial"",""time""
""fullscreenenter"",""1"",""2449""
","
","true","","","","","","","","","","","","","","","","","","","","","","","","","",""
"pit-instructions","2","17017","0.0-2.0-0.0","battery-v0.2","","""event"",""trial"",""time""
""fullscreenenter"",""1"",""2449""
","
","
","""event"",""trial"",""time""
""fullscreenenter"",""1"",""2449""
","
","","[{""page_index"":0,""viewing_time"":13591.400000095367}]","13592.099999904633","","","","","","","","","","","","","","","","","","","","","","","",""
"pit-comprehension","3","24544","0.0-2.0-1.0-0.0","battery-v0.2","","""event"",""trial"",""time""
""fullscreenenter"",""1"",""2449""
","
","
","""event"",""trial"",""time""
""fullscreenenter"",""1"",""2449""
","
","","","7522.599999904633","[""shark""]","0","12","9100","4057","","","","","","","","","","","","","","","","","","",""
"pit-instructions","4","27072","0.0-2.0-1.0-1.0","battery-v0.2","","""event"",""trial"",""time""
""fullscreenenter"",""1"",""2449""
","
","
","""event"",""trial"",""time""
""fullscreenenter"",""1"",""2449""
","
","","[{""page_index"":0,""viewing_time"":2516.4000000953674}]","2516.9000000953674","","","","","","","","","","","","","","","","","","","","","","","",""
"pit-comprehension","5","31355","0.0-2.0-2.0-0.0","battery-v0.2","","""event"",""trial"",""time""
""fullscreenenter"",""1"",""2449""
","
","
","""event"",""trial"",""time""
""fullscreenenter"",""1"",""2449""
","
","","","4277.800000190735","[""tiger""]","0","12","9100","4057","","","","","","","","","","","","","","","","","","",""
"pit-instructions","6","32810","0.0-2.0-2.0-1.0","battery-v0.2","","""event"",""trial"",""time""
""fullscreenenter"",""1"",""2449""
","
","
","""event"",""trial"",""time""
""fullscreenenter"",""1"",""2449""
","
","","[{""page_index"":0,""viewing_time"":1448.5999999046326}]","1449","","","","","","","","","","","","","","","","","","","","","","","",""
"pit-instructions","7","136625","0.0-2.0-3.0","battery-v0.2","","""event"",""trial"",""time""
""fullscreenenter"",""1"",""2449""
","
","
","""event"",""trial"",""time""
""fullscreenenter"",""1"",""2449""
","
","","[{""page_index"":0,""viewing_time"":10353.599999904633},{""page_index"":1,""viewing_time"":6694.800000190735},{""page_index"":2,""viewing_time"":6193.299999713898},{""page_index"":3,""viewing_time"":8616.900000095367},{""page_index"":4,""viewing_time"":6329.900000095367},{""page_index"":5,""viewing_time"":6130},{""page_index"":6,""viewing_time"":7258.5},{""page_index"":7,""viewing_time"":7252.699999809265},{""page_index"":8,""viewing_time"":7299.5},{""page_index"":9,""viewing_time"":8620.5},{""page_index"":10,""viewing_time"":8061.599999904633},{""page_index"":11,""viewing_time"":9147.800000190735},{""page_index"":12,""viewing_time"":6246.400000095367},{""page_index"":13,""viewing_time"":5604.199999809265}]","103810.5","","","","","","","","","","","","","","","","","","","","","","","",""
"pit-trial","8","140346","0.0-2.0-4.0-0.0","battery-v0.2","","""event"",""trial"",""time""
""fullscreenenter"",""1"",""2449""
","
","
","""event"",""trial"",""time""
""fullscreenenter"",""1"",""2449""
","
","","","851.7999997138977","","","12","9100","4057","&#9784;","elianto","#FFFFF080"," "," ","1","&#10004","[1704.7000002861023]","1","0","0","","","","","","","",""
"pit-trial","9","143773","0.0-2.0-4.1-0.1","battery-v0.2","","""event"",""trial"",""time""
""fullscreenenter"",""1"",""2449""
","
","
","""event"",""trial"",""time""
""fullscreenenter"",""1"",""2449""
","
","","","562.8000001907349","","","12","9100","4057","&#9784;","elianto","#FFFFF080"," "," ","1","&#10004","[1413.5999999046326]","1","0","0","","","","","","","",""
"pit-trial","10","147131","0.0-2.0-4.2-0.2","battery-v0.2","","""event"",""trial"",""time""
""fullscreenenter"",""1"",""2449""
","
","
","""event"",""trial"",""time""
""fullscreenenter"",""1"",""2449""
","
","","","497.30000019073486","","","12","9100","4057","&#9784;","elianto","#FFFFF080"," "," ","1","&#10004","[1347.6000003814697]","1","0","0","","","","","","","",""
"pit-trial","11","150476","0.0-2.0-4.3-0.3","battery-v0.2","","""event"",""trial"",""time""
""fullscreenenter"",""1"",""2449""
","
","
","""event"",""trial"",""time""
""fullscreenenter"",""1"",""2449""
","
","","","487.80000019073486","","","12","9100","4057","&#9784;","elianto","#FFFFF080"," "," ","1","&#10004","[1339.5]","1","0","0","","","","","","","",""
"pit-trial","12","153748","0.0-2.0-4.4-0.4","battery-v0.2","","""event"",""trial"",""time""
""fullscreenenter"",""1"",""2449""
","
","
","""event"",""trial"",""time""
""fullscreenenter"",""1"",""2449""
","
","","","412.80000019073486","","","12","9100","4057","&#9784;","elianto","#FFFFF080"," "," ","1","&#10004","[1263.7999997138977]","1","0","0","","","","","","","",""
"pit-instructions","13","179757","0.0-2.0-5.0","battery-v0.2","","""event"",""trial"",""time""
""fullscreenenter"",""1"",""2449""
","
","
","""event"",""trial"",""time""
""fullscreenenter"",""1"",""2449""
","
","","[{""page_index"":0,""viewing_time"":8848.199999809265},{""page_index"":1,""viewing_time"":5996.700000286102},{""page_index"":2,""viewing_time"":5304.799999713898},{""page_index"":3,""viewing_time"":5852.900000095367}]","26003.5","","","","","","","","","","","","","","","","","","","","","","","",""
"pit-trial","14","184626","0.0-2.0-6.0-0.0","battery-v0.2","","""event"",""trial"",""time""
""fullscreenenter"",""1"",""2449""
","
","
","""event"",""trial"",""time""
""fullscreenenter"",""1"",""2449""
","
","","","-1","","","12","9100","4057","&#9854;","elianto","#FFFFF080","-1","-1","1","&#10004","[]","0","0","1","","","","","","","",""
"pit-trial","15","189491","0.0-2.0-6.1-0.1","battery-v0.2","","""event"",""trial"",""time""
""fullscreenenter"",""1"",""2449""
","
","
","""event"",""trial"",""time""
""fullscreenenter"",""1"",""2449""
","
","","","-1","","","12","9100","4057","&#9854;","elianto","#FFFFF080","-1","-1","1","&#10004","[]","0","0","1","","","","","","","",""
"pit-trial","16","194351","0.0-2.0-6.2-0.2","battery-v0.2","","""event"",""trial"",""time""
""fullscreenenter"",""1"",""2449""
","
","
","""event"",""trial"",""time""
""fullscreenenter"",""1"",""2449""
","
","","","-1","","","12","9100","4057","&#9854;","elianto","#FFFFF080","-1","-1","1","&#10004","[]","0","0","1","","","","","","","",""
"pit-trial","17","199226","0.0-2.0-6.3-0.3","battery-v0.2","","""event"",""trial"",""time""
""fullscreenenter"",""1"",""2449""
","
","
","""event"",""trial"",""time""
""fullscreenenter"",""1"",""2449""
","
","","","-1","","","12","9100","4057","&#9854;","elianto","#FFFFF080","-1","-1","1","&#10004","[]","0","0","1","","","","","","","",""
"pit-trial","18","204094","0.0-2.0-6.4-0.4","battery-v0.2","","""event"",""trial"",""time""
""fullscreenenter"",""1"",""2449""
","
","
","""event"",""trial"",""time""
""fullscreenenter"",""1"",""2449""
","
","","","-1","","","12","9100","4057","&#9854;","elianto","#FFFFF080","-1","-1","1","&#10004","[]","0","0","1","","","","","","","",""
"pit-instructions","19","336092","0.0-2.0-7.0","battery-v0.2","","""event"",""trial"",""time""
""fullscreenenter"",""1"",""2449""
","
","
","""event"",""trial"",""time""
""fullscreenenter"",""1"",""2449""
","
","","[{""page_index"":0,""viewing_time"":10404.599999904633},{""page_index"":1,""viewing_time"":7732.800000190735},{""page_index"":2,""viewing_time"":6313.199999809265},{""page_index"":3,""viewing_time"":6391.700000286102},{""page_index"":4,""viewing_time"":6224},{""page_index"":5,""viewing_time"":5723.599999904633},{""page_index"":6,""viewing_time"":4843.699999809265},{""page_index"":7,""viewing_time"":8489.200000286102},{""page_index"":8,""viewing_time"":7255.699999809265},{""page_index"":9,""viewing_time"":6610.400000095367},{""page_index"":10,""viewing_time"":6700.5},{""page_index"":11,""viewing_time"":5290.300000190735},{""page_index"":12,""viewing_time"":7223.199999809265},{""page_index"":13,""viewing_time"":9075.099999904633},{""page_index"":14,""viewing_time"":7524.400000095367},{""page_index"":15,""viewing_time"":7265.400000095367},{""page_index"":16,""viewing_time"":7085.099999904633},{""page_index"":17,""viewing_time"":11836.400000095367}]","131990.5","","","","","","","","","","","","","","","","","","","","","","","",""
"pit-trial","20","339982","0.0-2.0-8.0-0.0","battery-v0.2","","""event"",""trial"",""time""
""fullscreenenter"",""1"",""2449""
","
","
","""event"",""trial"",""time""
""fullscreenenter"",""1"",""2449""
","
","","","1031.5","","","12","9100","4057","&#9776;","elianto","#3366ff99"," "," ","1","+10","[1883.3999996185303]","1","0","1","","","","","","","",""
"pit-trial","21","343555","0.0-2.0-8.0-1.0","battery-v0.2","","""event"",""trial"",""time""
""fullscreenenter"",""1"",""2449""
","
","
","""event"",""trial"",""time""
""fullscreenenter"",""1"",""2449""
","
","","","706.1999998092651","","","12","9100","4057","&#9776;","elianto","#3366ff99"," "," ","1","+10","[1564.0999999046326]","1","0","1","","","","","","","",""
"pit-trial","22","346965","0.0-2.0-8.0-2.0","battery-v0.2","","""event"",""trial"",""time""
""fullscreenenter"",""1"",""2449""
","
","
","""event"",""trial"",""time""
""fullscreenenter"",""1"",""2449""
","
","","","540.4000000953674","","","12","9100","4057","&#9776;","elianto","#3366ff99"," "," ","1","+10","[1390.7000002861023]","1","0","1","","","","","","","",""
"pit-trial","23","350363","0.0-2.0-8.0-3.0","battery-v0.2","","""event"",""trial"",""time""
""fullscreenenter"",""1"",""2449""
","
","
","""event"",""trial"",""time""
""fullscreenenter"",""1"",""2449""
","
","","","530.0999999046326","","","12","9100","4057","&#9776;","elianto","#3366ff99"," "," ","1","0","[1380.5]","1","0","1","","","","","","","",""
"pit-trial","24","353871","0.0-2.0-8.0-4.0","battery-v0.2","","""event"",""trial"",""time""
""fullscreenenter"",""1"",""2449""
","
","
","""event"",""trial"",""time""
""fullscreenenter"",""1"",""2449""
","
","","","640.8000001907349","","","12","9100","4057","&#9776;","elianto","#3366ff99"," "," ","1","+10","[1493.1999998092651]","1","0","1","","","","","","","",""
"pit-trial","25","357266","0.0-2.0-8.1-0.1","battery-v0.2","","""event"",""trial"",""time""
""fullscreenenter"",""1"",""2449""
","
","
","""event"",""trial"",""time""
""fullscreenenter"",""1"",""2449""
","
","","","523.2999997138977","","","12","9100","4057","&#9776;","elianto","#3366ff99"," "," ","1","+10","[1373.6999998092651]","1","0","1","","","","","","","",""
"pit-trial","26","360805","0.0-2.0-8.1-1.1","battery-v0.2","","""event"",""trial"",""time""
""fullscreenenter"",""1"",""2449""
","
","
","""event"",""trial"",""time""
""fullscreenenter"",""1"",""2449""
","
","","","676.1999998092651","","","12","9100","4057","&#9776;","elianto","#3366ff99"," "," ","1","+10","[1530]","1","0","1","","","","","","","",""
"pit-trial","27","364246","0.0-2.0-8.1-2.1","battery-v0.2","","""event"",""trial"",""time""
""fullscreenenter"",""1"",""2449""
","
","
","""event"",""trial"",""time""
""fullscreenenter"",""1"",""2449""
","
","","","567.5","","","12","9100","4057","&#9776;","elianto","#3366ff99"," "," ","1","+10","[1420.8000001907349]","1","0","1","","","","","","","",""
"pit-trial","28","367594","0.0-2.0-8.1-3.1","battery-v0.2","","""event"",""trial"",""time""
""fullscreenenter"",""1"",""2449""
","
","
","""event"",""trial"",""time""
""fullscreenenter"",""1"",""2449""
","
","","","488.59999990463257","","","12","9100","4057","&#9776;","elianto","#3366ff99"," "," ","1","0","[1340.1999998092651]","1","0","1","","","","","","","",""
"pit-trial","29","370636","0.0-2.0-8.1-4.1","battery-v0.2","","""event"",""trial"",""time""
""fullscreenenter"",""1"",""2449""
","
","
","""event"",""trial"",""time""
""fullscreenenter"",""1"",""2449""
","
","","","188.5","","","12","9100","4057","&#9776;","elianto","#3366ff99"," "," ","1","+10","[1042]","1","0","1","","","","","","","",""
"pit-trial","30","373877","0.0-2.0-8.2-0.2","battery-v0.2","","""event"",""trial"",""time""
""fullscreenenter"",""1"",""2449""
","
","
","""event"",""trial"",""time""
""fullscreenenter"",""1"",""2449""
","
","","","381.90000009536743","","","12","9100","4057","&#9776;","elianto","#3366ff99"," "," ","1","+10","[1236.4000000953674]","1","0","1","","","","","","","",""
"pit-trial","31","378538","0.0-2.0-8.2-1.2","battery-v0.2","","""event"",""trial"",""time""
""fullscreenenter"",""1"",""2449""
","
","
","""event"",""trial"",""time""
""fullscreenenter"",""1"",""2449""
","
","","","1793.8000001907349","","","12","9100","4057","&#9776;","elianto","#3366ff99"," "," ","1","+10","[2655.1000003814697]","1","0","1","","","","","","","",""
"pit-trial","32","382110","0.0-2.0-8.2-2.2","battery-v0.2","","""event"",""trial"",""time""
""fullscreenenter"",""1"",""2449""
","
","
","""event"",""trial"",""time""
""fullscreenenter"",""1"",""2449""
","
","","","715","","","12","9100","4057","&#9776;","elianto","#3366ff99"," "," ","1","+10","[1565.0999999046326]","1","0","1","","","","","","","",""
"pit-trial","33","386965","0.0-2.0-8.2-3.2","battery-v0.2","","""event"",""trial"",""time""
""fullscreenenter"",""1"",""2449""
","
","
","""event"",""trial"",""time""
""fullscreenenter"",""1"",""2449""
","
","","","-1","","","12","9100","4057","&#9776;","elianto","#3366ff99"," ","-1","0","+10","[]","0","0","1","","","","","","","",""
"pit-trial","34","390292","0.0-2.0-8.2-4.2","battery-v0.2","","""event"",""trial"",""time""
""fullscreenenter"",""1"",""2449""
","
","
","""event"",""trial"",""time""
""fullscreenenter"",""1"",""2449""
","
","","","464.5","","","12","9100","4057","&#9776;","elianto","#3366ff99"," "," ","1","+10","[1318.2999997138977]","1","0","1","","","","","","","",""
"call-function","35","390295","0.0-2.0-9.0","battery-v0.2","","""event"",""trial"",""time""
""fullscreenenter"",""1"",""2449""
","
","
","""event"",""trial"",""time""
""fullscreenenter"",""1"",""2449""
","
","","","","","","","","","","","","","","","","","","","","","","","","","","",""
"pit-instructions","36","433578","0.0-2.0-10.0","battery-v0.2","","""event"",""trial"",""time""
""fullscreenenter"",""1"",""2449""
","
","
","""event"",""trial"",""time""
""fullscreenenter"",""1"",""2449""
","
","","[{""page_index"":0,""viewing_time"":6565.700000286102},{""page_index"":1,""viewing_time"":9633.799999713898},{""page_index"":2,""viewing_time"":9589.10000038147},{""page_index"":3,""viewing_time"":9279.89999961853},{""page_index"":4,""viewing_time"":8208.800000190735}]","43278.40000009537","","","","","","","","","","","","","","","","","","","","","","","",""
"pit-trial","37","437113","0.0-2.0-11.0-0.0","battery-v0.2","","""event"",""trial"",""time""
""fullscreenenter"",""1"",""2449""
","
","
","""event"",""trial"",""time""
""fullscreenenter"",""1"",""2449""
","
","","","677.2000002861023","","","12","9100","4057","&#9761;","elianto","#3366ff99","-1"," ","0","0","[1527.7999997138977]","1","0","2","","","","","","","",""
"pit-trial","38","440195","0.0-2.0-11.0-1.0","battery-v0.2","","""event"",""trial"",""time""
""fullscreenenter"",""1"",""2449""
","
","
","""event"",""trial"",""time""
""fullscreenenter"",""1"",""2449""
","
","","","212.40000009536743","","","12","9100","4057","&#9761;","elianto","#3366ff99","-1"," ","0","0","[1063.4000000953674]","1","0","2","","","","","","","",""
"pit-trial","39","443181","0.0-2.0-11.0-2.0","battery-v0.2","","""event"",""trial"",""time""
""fullscreenenter"",""1"",""2449""
","
","
","""event"",""trial"",""time""
""fullscreenenter"",""1"",""2449""
","
","","","119","","","12","9100","4057","&#9761;","elianto","#3366ff99","-1"," ","0","0","[970]","1","0","2","","","","","","","",""
"pit-trial","40","448047","0.0-2.0-11.0-3.0","battery-v0.2","","""event"",""trial"",""time""
""fullscreenenter"",""1"",""2449""
","
","
","""event"",""trial"",""time""
""fullscreenenter"",""1"",""2449""
","
","","","-1","","","12","9100","4057","&#9761;","elianto","#3366ff99","-1","-1","1","0","[]","0","0","2","","","","","","","",""
"pit-trial","41","451408","0.0-2.0-11.0-4.0","battery-v0.2","","""event"",""trial"",""time""
""fullscreenenter"",""1"",""2449""
","
","
","""event"",""trial"",""time""
""fullscreenenter"",""1"",""2449""
","
","","","497.7000002861023","","","12","9100","4057","&#9761;","elianto","#3366ff99","-1"," ","0","0","[1349.7000002861023]","1","0","2","","","","","","","",""
"pit-trial","42","456279","0.0-2.0-11.1-0.1","battery-v0.2","","""event"",""trial"",""time""
""fullscreenenter"",""1"",""2449""
","
","
","""event"",""trial"",""time""
""fullscreenenter"",""1"",""2449""
","
","","","-1","","","12","9100","4057","&#9761;","elianto","#3366ff99","-1","-1","1","+10","[]","0","0","2","","","","","","","",""
"pit-trial","43","461139","0.0-2.0-11.1-1.1","battery-v0.2","","""event"",""trial"",""time""
""fullscreenenter"",""1"",""2449""
","
","
","""event"",""trial"",""time""
""fullscreenenter"",""1"",""2449""
","
","","","-1","","","12","9100","4057","&#9761;","elianto","#3366ff99","-1","-1","1","+10","[]","0","0","2","","","","","","","",""
"pit-trial","44","465999","0.0-2.0-11.1-2.1","battery-v0.2","","""event"",""trial"",""time""
""fullscreenenter"",""1"",""2449""
","
","
","""event"",""trial"",""time""
""fullscreenenter"",""1"",""2449""
","
","","","-1","","","12","9100","4057","&#9761;","elianto","#3366ff99","-1","-1","1","+10","[]","0","0","2","","","","","","","",""
"pit-trial","45","470867","0.0-2.0-11.1-3.1","battery-v0.2","","""event"",""trial"",""time""
""fullscreenenter"",""1"",""2449""
","
","
","""event"",""trial"",""time""
""fullscreenenter"",""1"",""2449""
","
","","","-1","","","12","9100","4057","&#9761;","elianto","#3366ff99","-1","-1","1","0","[]","0","0","2","","","","","","","",""
"pit-trial","46","475738","0.0-2.0-11.1-4.1","battery-v0.2","","""event"",""trial"",""time""
""fullscreenenter"",""1"",""2449""
","
","
","""event"",""trial"",""time""
""fullscreenenter"",""1"",""2449""
","
","","","-1","","","12","9100","4057","&#9761;","elianto","#3366ff99","-1","-1","1","+10","[]","0","0","2","","","","","","","",""
"pit-trial","47","480615","0.0-2.0-11.2-0.2","battery-v0.2","","""event"",""trial"",""time""
""fullscreenenter"",""1"",""2449""
","
","
","""event"",""trial"",""time""
""fullscreenenter"",""1"",""2449""
","
","","","-1","","","12","9100","4057","&#9761;","elianto","#3366ff99","-1","-1","1","+10","[]","0","0","2","","","","","","","",""
"pit-trial","48","485477","0.0-2.0-11.2-1.2","battery-v0.2","","""event"",""trial"",""time""
""fullscreenenter"",""1"",""2449""
","
","
","""event"",""trial"",""time""
""fullscreenenter"",""1"",""2449""
","
","","","-1","","","12","9100","4057","&#9761;","elianto","#3366ff99","-1","-1","1","+10","[]","0","0","2","","","","","","","",""
"pit-trial","49","490340","0.0-2.0-11.2-2.2","battery-v0.2","","""event"",""trial"",""time""
""fullscreenenter"",""1"",""2449""
","
","
","""event"",""trial"",""time""
""fullscreenenter"",""1"",""2449""
","
","","","-1","","","12","9100","4057","&#9761;","elianto","#3366ff99","-1","-1","1","+10","[]","0","0","2","","","","","","","",""
"pit-trial","50","495201","0.0-2.0-11.2-3.2","battery-v0.2","","""event"",""trial"",""time""
""fullscreenenter"",""1"",""2449""
","
","
","""event"",""trial"",""time""
""fullscreenenter"",""1"",""2449""
","
","","","-1","","","12","9100","4057","&#9761;","elianto","#3366ff99","-1","-1","1","0","[]","0","0","2","","","","","","","",""
"pit-trial","51","500058","0.0-2.0-11.2-4.2","battery-v0.2","","""event"",""trial"",""time""
""fullscreenenter"",""1"",""2449""
","
","
","""event"",""trial"",""time""
""fullscreenenter"",""1"",""2449""
","
","","","-1","","","12","9100","4057","&#9761;","elianto","#3366ff99","-1","-1","1","+10","[]","0","0","2","","","","","","","",""
"pit-trial","52","504921","0.0-2.0-11.3-0.3","battery-v0.2","","""event"",""trial"",""time""
""fullscreenenter"",""1"",""2449""
","
","
","""event"",""trial"",""time""
""fullscreenenter"",""1"",""2449""
","
","","","-1","","","12","9100","4057","&#9761;","elianto","#3366ff99","-1","-1","1","+10","[]","0","0","2","","","","","","","",""
"pit-trial","53","509790","0.0-2.0-11.3-1.3","battery-v0.2","","""event"",""trial"",""time""
""fullscreenenter"",""1"",""2449""
","
","
","""event"",""trial"",""time""
""fullscreenenter"",""1"",""2449""
","
","","","-1","","","12","9100","4057","&#9761;","elianto","#3366ff99","-1","-1","1","+10","[]","0","0","2","","","","","","","",""
"pit-trial","54","514660","0.0-2.0-11.3-2.3","battery-v0.2","","""event"",""trial"",""time""
""fullscreenenter"",""1"",""2449""
","
","
","""event"",""trial"",""time""
""fullscreenenter"",""1"",""2449""
","
","","","-1","","","12","9100","4057","&#9761;","elianto","#3366ff99","-1","-1","1","+10","[]","0","0","2","","","","","","","",""
"pit-trial","55","519530","0.0-2.0-11.3-3.3","battery-v0.2","","""event"",""trial"",""time""
""fullscreenenter"",""1"",""2449""
","
","
","""event"",""trial"",""time""
""fullscreenenter"",""1"",""2449""
","
","","","-1","","","12","9100","4057","&#9761;","elianto","#3366ff99","-1","-1","1","0","[]","0","0","2","","","","","","","",""
"pit-trial","56","524392","0.0-2.0-11.3-4.3","battery-v0.2","","""event"",""trial"",""time""
""fullscreenenter"",""1"",""2449""
","
","
","""event"",""trial"",""time""
""fullscreenenter"",""1"",""2449""
","
","","","-1","","","12","9100","4057","&#9761;","elianto","#3366ff99","-1","-1","1","+10","[]","0","0","2","","","","","","","",""
"call-function","57","524395","0.0-2.0-12.0","battery-v0.2","","""event"",""trial"",""time""
""fullscreenenter"",""1"",""2449""
","
","
","""event"",""trial"",""time""
""fullscreenenter"",""1"",""2449""
","
","","","","","","","","","","","","","","","","","","","","","","","","","","",""
"pit-instructions","58","558758","0.0-2.0-13.0","battery-v0.2","","""event"",""trial"",""time""
""fullscreenenter"",""1"",""2449""
","
","
","""event"",""trial"",""time""
""fullscreenenter"",""1"",""2449""
","
","","[{""page_index"":0,""viewing_time"":6342.800000190735},{""page_index"":1,""viewing_time"":7646.699999809265},{""page_index"":2,""viewing_time"":4735.400000095367},{""page_index"":3,""viewing_time"":10341.900000095367},{""page_index"":4,""viewing_time"":5291.599999904633}]","34359.60000038147","","","","","","","","","","","","","","","","","","","","","","","",""
"pit-trial","59","563627","0.0-2.0-14.0-0.0","battery-v0.2","","""event"",""trial"",""time""
""fullscreenenter"",""1"",""2449""
","
","
","""event"",""trial"",""time""
""fullscreenenter"",""1"",""2449""
","
","","","-1","","","12","9100","4057","&#9826;","elianto","#f73b6a7A","-1","-1","1","0","[]","0","0","3","","","","","","","",""
"pit-trial","60","568322","0.0-2.0-14.0-1.0","battery-v0.2","","""event"",""trial"",""time""
""fullscreenenter"",""1"",""2449""
","
","
","""event"",""trial"",""time""
""fullscreenenter"",""1"",""2449""
","
","","","1831.9000000953674","","","12","9100","4057","&#9826;","elianto","#f73b6a7A","-1"," ","0","-10","[2687.0999999046326]","1","0","3","","","","","","","",""
"pit-trial","61","573191","0.0-2.0-14.0-2.0","battery-v0.2","","""event"",""trial"",""time""
""fullscreenenter"",""1"",""2449""
","
","
","""event"",""trial"",""time""
""fullscreenenter"",""1"",""2449""
","
","","","-1","","","12","9100","4057","&#9826;","elianto","#f73b6a7A","-1","-1","1","0","[]","0","0","3","","","","","","","",""
"pit-trial","62","578057","0.0-2.0-14.0-3.0","battery-v0.2","","""event"",""trial"",""time""
""fullscreenenter"",""1"",""2449""
","
","
","""event"",""trial"",""time""
""fullscreenenter"",""1"",""2449""
","
","","","-1","","","12","9100","4057","&#9826;","elianto","#f73b6a7A","-1","-1","1","-10","[]","0","0","3","","","","","","","",""
"pit-trial","63","582926","0.0-2.0-14.0-4.0","battery-v0.2","","""event"",""trial"",""time""
""fullscreenenter"",""1"",""2449""
","
","
","""event"",""trial"",""time""
""fullscreenenter"",""1"",""2449""
","
","","","-1","","","12","9100","4057","&#9826;","elianto","#f73b6a7A","-1","-1","1","0","[]","0","0","3","","","","","","","",""
"pit-trial","64","587798","0.0-2.0-14.1-0.1","battery-v0.2","","""event"",""trial"",""time""
""fullscreenenter"",""1"",""2449""
","
","
","""event"",""trial"",""time""
""fullscreenenter"",""1"",""2449""
","
","","","-1","","","12","9100","4057","&#9826;","elianto","#f73b6a7A","-1","-1","1","0","[]","0","0","3","","","","","","","",""
"pit-trial","65","592666","0.0-2.0-14.1-1.1","battery-v0.2","","""event"",""trial"",""time""
""fullscreenenter"",""1"",""2449""
","
","
","""event"",""trial"",""time""
""fullscreenenter"",""1"",""2449""
","
","","","-1","","","12","9100","4057","&#9826;","elianto","#f73b6a7A","-1","-1","1","0","[]","0","0","3","","","","","","","",""
"pit-trial","66","597539","0.0-2.0-14.1-2.1","battery-v0.2","","""event"",""trial"",""time""
""fullscreenenter"",""1"",""2449""
","
","
","""event"",""trial"",""time""
""fullscreenenter"",""1"",""2449""
","
","","","-1","","","12","9100","4057","&#9826;","elianto","#f73b6a7A","-1","-1","1","0","[]","0","0","3","","","","","","","",""
"pit-trial","67","602412","0.0-2.0-14.1-3.1","battery-v0.2","","""event"",""trial"",""time""
""fullscreenenter"",""1"",""2449""
","
","
","""event"",""trial"",""time""
""fullscreenenter"",""1"",""2449""
","
","","","-1","","","12","9100","4057","&#9826;","elianto","#f73b6a7A","-1","-1","1","-10","[]","0","0","3","","","","","","","",""
"pit-trial","68","607278","0.0-2.0-14.1-4.1","battery-v0.2","","""event"",""trial"",""time""
""fullscreenenter"",""1"",""2449""
","
","
","""event"",""trial"",""time""
""fullscreenenter"",""1"",""2449""
","
","","","-1","","","12","9100","4057","&#9826;","elianto","#f73b6a7A","-1","-1","1","0","[]","0","0","3","","","","","","","",""
"pit-trial","69","612146","0.0-2.0-14.2-0.2","battery-v0.2","","""event"",""trial"",""time""
""fullscreenenter"",""1"",""2449""
","
","
","""event"",""trial"",""time""
""fullscreenenter"",""1"",""2449""
","
","","","-1","","","12","9100","4057","&#9826;","elianto","#f73b6a7A","-1","-1","1","0","[]","0","0","3","","","","","","","",""
"pit-trial","70","617015","0.0-2.0-14.2-1.2","battery-v0.2","","""event"",""trial"",""time""
""fullscreenenter"",""1"",""2449""
","
","
","""event"",""trial"",""time""
""fullscreenenter"",""1"",""2449""
","
","","","-1","","","12","9100","4057","&#9826;","elianto","#f73b6a7A","-1","-1","1","0","[]","0","0","3","","","","","","","",""
"pit-trial","71","621884","0.0-2.0-14.2-2.2","battery-v0.2","","""event"",""trial"",""time""
""fullscreenenter"",""1"",""2449""
","
","
","""event"",""trial"",""time""
""fullscreenenter"",""1"",""2449""
","
","","","-1","","","12","9100","4057","&#9826;","elianto","#f73b6a7A","-1","-1","1","0","[]","0","0","3","","","","","","","",""
"pit-trial","72","626746","0.0-2.0-14.2-3.2","battery-v0.2","","""event"",""trial"",""time""
""fullscreenenter"",""1"",""2449""
","
","
","""event"",""trial"",""time""
""fullscreenenter"",""1"",""2449""
","
","","","-1","","","12","9100","4057","&#9826;","elianto","#f73b6a7A","-1","-1","1","-10","[]","0","0","3","","","","","","","",""
"pit-trial","73","631625","0.0-2.0-14.2-4.2","battery-v0.2","","""event"",""trial"",""time""
""fullscreenenter"",""1"",""2449""
","
","
","""event"",""trial"",""time""
""fullscreenenter"",""1"",""2449""
","
","","","-1","","","12","9100","4057","&#9826;","elianto","#f73b6a7A","-1","-1","1","0","[]","0","0","3","","","","","","","",""
"pit-trial","74","636499","0.0-2.0-14.3-0.3","battery-v0.2","","""event"",""trial"",""time""
""fullscreenenter"",""1"",""2449""
","
","
","""event"",""trial"",""time""
""fullscreenenter"",""1"",""2449""
","
","","","-1","","","12","9100","4057","&#9826;","elianto","#f73b6a7A","-1","-1","1","0","[]","0","0","3","","","","","","","",""
"pit-trial","75","641355","0.0-2.0-14.3-1.3","battery-v0.2","","""event"",""trial"",""time""
""fullscreenenter"",""1"",""2449""
","
","
","""event"",""trial"",""time""
""fullscreenenter"",""1"",""2449""
","
","","","-1","","","12","9100","4057","&#9826;","elianto","#f73b6a7A","-1","-1","1","0","[]","0","0","3","","","","","","","",""
"pit-trial","76","646220","0.0-2.0-14.3-2.3","battery-v0.2","","""event"",""trial"",""time""
""fullscreenenter"",""1"",""2449""
","
","
","""event"",""trial"",""time""
""fullscreenenter"",""1"",""2449""
","
","","","-1","","","12","9100","4057","&#9826;","elianto","#f73b6a7A","-1","-1","1","0","[]","0","0","3","","","","","","","",""
"pit-trial","77","651088","0.0-2.0-14.3-3.3","battery-v0.2","","""event"",""trial"",""time""
""fullscreenenter"",""1"",""2449""
","
","
","""event"",""trial"",""time""
""fullscreenenter"",""1"",""2449""
","
","","","-1","","","12","9100","4057","&#9826;","elianto","#f73b6a7A","-1","-1","1","-10","[]","0","0","3","","","","","","","",""
"pit-trial","78","655950","0.0-2.0-14.3-4.3","battery-v0.2","","""event"",""trial"",""time""
""fullscreenenter"",""1"",""2449""
","
","
","""event"",""trial"",""time""
""fullscreenenter"",""1"",""2449""
","
","","","-1","","","12","9100","4057","&#9826;","elianto","#f73b6a7A","-1","-1","1","0","[]","0","0","3","","","","","","","",""
"call-function","79","655953","0.0-2.0-15.0","battery-v0.2","","""event"",""trial"",""time""
""fullscreenenter"",""1"",""2449""
","
","
","""event"",""trial"",""time""
""fullscreenenter"",""1"",""2449""
","
","","","","","","","","","","","","","","","","","","","","","","","","","","",""
"pit-instructions","80","685011","0.0-2.0-16.0","battery-v0.2","","""event"",""trial"",""time""
""fullscreenenter"",""1"",""2449""
","
","
","""event"",""trial"",""time""
""fullscreenenter"",""1"",""2449""
","
","","[{""page_index"":0,""viewing_time"":9548.10000038147},{""page_index"":1,""viewing_time"":9074.799999713898},{""page_index"":2,""viewing_time"":5182},{""page_index"":3,""viewing_time"":5256.599999904633}]","29062.400000095367","","","","","","","","","","","","","","","","","","","","","","","",""
"pit-trial","81","688566","0.0-2.0-17.0-0.0","battery-v0.2","","""event"",""trial"",""time""
""fullscreenenter"",""1"",""2449""
","
","
","""event"",""trial"",""time""
""fullscreenenter"",""1"",""2449""
","
","","","694.4000000953674","","","12","9100","4057","&#9789;","elianto","#f73b6a7A"," "," ","1","0","[1545.5999999046326]","1","0","4","","","","","","","",""
"pit-trial","82","691692","0.0-2.0-17.0-1.0","battery-v0.2","","""event"",""trial"",""time""
""fullscreenenter"",""1"",""2449""
","
","
","""event"",""trial"",""time""
""fullscreenenter"",""1"",""2449""
","
","","","257.40000009536743","","","12","9100","4057","&#9789;","elianto","#f73b6a7A"," "," ","1","0","[1110.5999999046326]","1","0","4","","","","","","","",""
"pit-trial","83","694750","0.0-2.0-17.0-2.0","battery-v0.2","","""event"",""trial"",""time""
""fullscreenenter"",""1"",""2449""
","
","
","""event"",""trial"",""time""
""fullscreenenter"",""1"",""2449""
","
","","","200.30000019073486","","","12","9100","4057","&#9789;","elianto","#f73b6a7A"," "," ","1","0","[1053.8000001907349]","1","0","4","","","","","","","",""
"pit-trial","84","697816","0.0-2.0-17.0-3.0","battery-v0.2","","""event"",""trial"",""time""
""fullscreenenter"",""1"",""2449""
","
","
","""event"",""trial"",""time""
""fullscreenenter"",""1"",""2449""
","
","","","196","","","12","9100","4057","&#9789;","elianto","#f73b6a7A"," "," ","1","-10","[1046.4000000953674]","1","0","4","","","","","","","",""
"pit-trial","85","700990","0.0-2.0-17.0-4.0","battery-v0.2","","""event"",""trial"",""time""
""fullscreenenter"",""1"",""2449""
","
","
","""event"",""trial"",""time""
""fullscreenenter"",""1"",""2449""
","
","","","307.80000019073486","","","12","9100","4057","&#9789;","elianto","#f73b6a7A"," "," ","1","0","[1161]","1","0","4","","","","","","","",""
"pit-trial","86","704086","0.0-2.0-17.1-0.1","battery-v0.2","","""event"",""trial"",""time""
""fullscreenenter"",""1"",""2449""
","
","
","""event"",""trial"",""time""
""fullscreenenter"",""1"",""2449""
","
","","","219","","","12","9100","4057","&#9789;","elianto","#f73b6a7A"," "," ","1","0","[1075.4000000953674]","1","0","4","","","","","","","",""
"pit-trial","87","707070","0.0-2.0-17.1-1.1","battery-v0.2","","""event"",""trial"",""time""
""fullscreenenter"",""1"",""2449""
","
","
","""event"",""trial"",""time""
""fullscreenenter"",""1"",""2449""
","
","","","127.39999961853027","","","12","9100","4057","&#9789;","elianto","#f73b6a7A"," "," ","1","0","[980.3999996185303]","1","0","4","","","","","","","",""
"pit-trial","88","710236","0.0-2.0-17.1-2.1","battery-v0.2","","""event"",""trial"",""time""
""fullscreenenter"",""1"",""2449""
","
","
","""event"",""trial"",""time""
""fullscreenenter"",""1"",""2449""
","
","","","303","","","12","9100","4057","&#9789;","elianto","#f73b6a7A"," "," ","1","0","[1156.5]","1","0","4","","","","","","","",""
"pit-trial","89","713226","0.0-2.0-17.1-3.1","battery-v0.2","","""event"",""trial"",""time""
""fullscreenenter"",""1"",""2449""
","
","
","""event"",""trial"",""time""
""fullscreenenter"",""1"",""2449""
","
","","","129.7999997138977","","","12","9100","4057","&#9789;","elianto","#f73b6a7A"," "," ","1","-10","[981.0999999046326]","1","0","4","","","","","","","",""
"pit-trial","90","716383","0.0-2.0-17.1-4.1","battery-v0.2","","""event"",""trial"",""time""
""fullscreenenter"",""1"",""2449""
","
","
","""event"",""trial"",""time""
""fullscreenenter"",""1"",""2449""
","
","","","298.90000009536743","","","12","9100","4057","&#9789;","elianto","#f73b6a7A"," "," ","1","0","[1150.5999999046326]","1","0","4","","","","","","","",""
"pit-trial","91","719405","0.0-2.0-17.2-0.2","battery-v0.2","","""event"",""trial"",""time""
""fullscreenenter"",""1"",""2449""
","
","
","""event"",""trial"",""time""
""fullscreenenter"",""1"",""2449""
","
","","","155.7999997138977","","","12","9100","4057","&#9789;","elianto","#f73b6a7A"," "," ","1","0","[1012.9000000953674]","1","0","4","","","","","","","",""
"pit-trial","92","722416","0.0-2.0-17.2-1.2","battery-v0.2","","""event"",""trial"",""time""
""fullscreenenter"",""1"",""2449""
","
","
","""event"",""trial"",""time""
""fullscreenenter"",""1"",""2449""
","
","","","145.69999980926514","","","12","9100","4057","&#9789;","elianto","#f73b6a7A"," "," ","1","0","[1001.7000002861023]","1","0","4","","","","","","","",""
"pit-trial","93","725334","0.0-2.0-17.2-2.2","battery-v0.2","","""event"",""trial"",""time""
""fullscreenenter"",""1"",""2449""
","
","
","""event"",""trial"",""time""
""fullscreenenter"",""1"",""2449""
","
","","","49.5","","","12","9100","4057","&#9789;","elianto","#f73b6a7A"," "," ","1","0","[900.4000000953674]","1","0","4","","","","","","","",""
"pit-trial","94","728361","0.0-2.0-17.2-3.2","battery-v0.2","","""event"",""trial"",""time""
""fullscreenenter"",""1"",""2449""
","
","
","""event"",""trial"",""time""
""fullscreenenter"",""1"",""2449""
","
","","","161","","","12","9100","4057","&#9789;","elianto","#f73b6a7A"," "," ","1","-10","[1012.9000000953674]","1","0","4","","","","","","","",""
"pit-trial","95","731477","0.0-2.0-17.2-4.2","battery-v0.2","","""event"",""trial"",""time""
""fullscreenenter"",""1"",""2449""
","
","
","""event"",""trial"",""time""
""fullscreenenter"",""1"",""2449""
","
","","","249.90000009536743","","","12","9100","4057","&#9789;","elianto","#f73b6a7A"," "," ","1","0","[1106.4000000953674]","1","0","4","","","","","","","",""
"pit-trial","96","734444","0.0-2.0-17.3-0.3","battery-v0.2","","""event"",""trial"",""time""
""fullscreenenter"",""1"",""2449""
","
","
","""event"",""trial"",""time""
""fullscreenenter"",""1"",""2449""
","
","","","105.19999980926514","","","12","9100","4057","&#9789;","elianto","#f73b6a7A"," "," ","1","0","[959.3000001907349]","1","0","4","","","","","","","",""
"pit-trial","97","737512","0.0-2.0-17.3-1.3","battery-v0.2","","""event"",""trial"",""time""
""fullscreenenter"",""1"",""2449""
","
","
","""event"",""trial"",""time""
""fullscreenenter"",""1"",""2449""
","
","","","203","","","12","9100","4057","&#9789;","elianto","#f73b6a7A"," "," ","1","0","[1053.3000001907349]","1","0","4","","","","","","","",""
"pit-trial","98","740620","0.0-2.0-17.3-2.3","battery-v0.2","","""event"",""trial"",""time""
""fullscreenenter"",""1"",""2449""
","
","
","""event"",""trial"",""time""
""fullscreenenter"",""1"",""2449""
","
","","","238.59999990463257","","","12","9100","4057","&#9789;","elianto","#f73b6a7A"," "," ","1","0","[1092.0999999046326]","1","0","4","","","","","","","",""
"pit-trial","99","745490","0.0-2.0-17.3-3.3","battery-v0.2","","""event"",""trial"",""time""
""fullscreenenter"",""1"",""2449""
","
","
","""event"",""trial"",""time""
""fullscreenenter"",""1"",""2449""
","
","","","-1","","","12","9100","4057","&#9789;","elianto","#f73b6a7A"," ","-1","0","0","[]","0","0","4","","","","","","","",""
"pit-trial","100","748554","0.0-2.0-17.3-4.3","battery-v0.2","","""event"",""trial"",""time""
""fullscreenenter"",""1"",""2449""
","
","
","""event"",""trial"",""time""
""fullscreenenter"",""1"",""2449""
","
","","","205","","","12","9100","4057","&#9789;","elianto","#f73b6a7A"," "," ","1","0","[1055.3999996185303]","1","0","4","","","","","","","",""
"call-function","101","748557","0.0-2.0-18.0","battery-v0.2","","""event"",""trial"",""time""
""fullscreenenter"",""1"",""2449""
","
","
","""event"",""trial"",""time""
""fullscreenenter"",""1"",""2449""
","
","","","","","","","","","","","","","","","","","","","","","","","","","","",""
"pit-instructions","102","827385","0.0-2.0-19.0","battery-v0.2","","""event"",""trial"",""time""
""fullscreenenter"",""1"",""2449""
","
","
","""event"",""trial"",""time""
""fullscreenenter"",""1"",""2449""
","
","","[{""page_index"":0,""viewing_time"":6834.099999904633},{""page_index"":1,""viewing_time"":6627.300000190735},{""page_index"":2,""viewing_time"":14316.5},{""page_index"":3,""viewing_time"":8853.099999904633},{""page_index"":4,""viewing_time"":10269.099999904633},{""page_index"":5,""viewing_time"":8808.199999809265},{""page_index"":6,""viewing_time"":10944.5},{""page_index"":7,""viewing_time"":7438.200000286102},{""page_index"":8,""viewing_time"":4740.699999809265}]","78832.69999980927","","","","","","","","","","","","","","","","","","","","","","","",""
"pit-comprehension","103","833762","0.0-2.0-20.0-0.0","battery-v0.2","","""event"",""trial"",""time""
""fullscreenenter"",""1"",""2449""
","
","
","""event"",""trial"",""time""
""fullscreenenter"",""1"",""2449""
","
","","","6369.300000190735","[""SPACE""]","0","12","9100","4057","","","","","","","","","","","","","","","","","","",""
"pit-instructions","104","837958","0.0-2.0-20.0-1.0","battery-v0.2","","""event"",""trial"",""time""
""fullscreenenter"",""1"",""2449""
","
","
","""event"",""trial"",""time""
""fullscreenenter"",""1"",""2449""
","
","","[{""page_index"":0,""viewing_time"":4151.300000190735}]","4152","","","","","","","","","","","","","","","","","","","","","","","",""
"pit-comprehension","105","846846","0.0-2.0-21.0-0.0","battery-v0.2","","""event"",""trial"",""time""
""fullscreenenter"",""1"",""2449""
","
","
","""event"",""trial"",""time""
""fullscreenenter"",""1"",""2449""
","
","","","8882.10000038147","[""10""]","0","12","9100","4057","","","","","","","","","","","","","","","","","","",""
"pit-instructions","106","850596","0.0-2.0-21.0-1.0","battery-v0.2","","""event"",""trial"",""time""
""fullscreenenter"",""1"",""2449""
","
","
","""event"",""trial"",""time""
""fullscreenenter"",""1"",""2449""
","
","","[{""page_index"":0,""viewing_time"":3704.6000003814697}]","3705.1000003814697","","","","","","","","","","","","","","","","","","","","","","","",""
"pit-comprehension","107","859104","0.0-2.0-22.0-0.0","battery-v0.2","","""event"",""trial"",""time""
""fullscreenenter"",""1"",""2449""
","
","
","""event"",""trial"",""time""
""fullscreenenter"",""1"",""2449""
","
","","","8499.099999904633","[""-10""]","1","12","9100","4057","","","","","","","","","","","","","","","","","","",""
"pit-instructions","108","865751","0.0-2.0-22.0-1.0","battery-v0.2","","""event"",""trial"",""time""
""fullscreenenter"",""1"",""2449""
","
","
","""event"",""trial"",""time""
""fullscreenenter"",""1"",""2449""
","
","","[{""page_index"":0,""viewing_time"":6598.5}]","6599.099999904633","","","","","","","","","","","","","","","","","","","","","","","",""
"pit-instructions","109","867086","0.0-2.0-22.0-2.0-0.0","battery-v0.2","","""event"",""trial"",""time""
""fullscreenenter"",""1"",""2449""
","
","
","""event"",""trial"",""time""
""fullscreenenter"",""1"",""2449""
","
","","[{""page_index"":0,""viewing_time"":1331.4000000953674}]","1332.0999999046326","","","","","","","","","","","","","","","","","","","","","","","",""
"pit-comprehension","110","874687","0.0-2.0-22.1-0.1","battery-v0.2","","""event"",""trial"",""time""
""fullscreenenter"",""1"",""2449""
","
","
","""event"",""trial"",""time""
""fullscreenenter"",""1"",""2449""
","
","","","7596.700000286102","[""0""]","0","12","9100","4057","","","","","","","","","","","","","","","","","","",""
"pit-instructions","111","879929","0.0-2.0-22.1-1.1","battery-v0.2","","""event"",""trial"",""time""
""fullscreenenter"",""1"",""2449""
","
","
","""event"",""trial"",""time""
""fullscreenenter"",""1"",""2449""
","
","","[{""page_index"":0,""viewing_time"":5186.5}]","5187.099999904633","","","","","","","","","","","","","","","","","","","","","","","",""
"pit-comprehension","112","897399","0.0-2.0-23.0-0.0","battery-v0.2","","""event"",""trial"",""time""
""fullscreenenter"",""1"",""2449""
","
","
","""event"",""trial"",""time""
""fullscreenenter"",""1"",""2449""
","
","","","17465.099999904633","[""False""]","1","12","9100","4057","","","","","","","","","","","","","","","","","","",""
"pit-instructions","113","903391","0.0-2.0-23.0-1.0","battery-v0.2","","""event"",""trial"",""time""
""fullscreenenter"",""1"",""2449""
","
","
","""event"",""trial"",""time""
""fullscreenenter"",""1"",""2449""
","
","","[{""page_index"":0,""viewing_time"":5936.300000190735}]","5937.300000190735","","","","","","","","","","","","","","","","","","","","","","","",""
"pit-instructions","114","904160","0.0-2.0-23.0-2.0-0.0","battery-v0.2","","""event"",""trial"",""time""
""fullscreenenter"",""1"",""2449""
","
","
","""event"",""trial"",""time""
""fullscreenenter"",""1"",""2449""
","
","","[{""page_index"":0,""viewing_time"":765.3000001907349}]","765.8000001907349","","","","","","","","","","","","","","","","","","","","","","","",""
"pit-comprehension","115","912678","0.0-2.0-23.1-0.1","battery-v0.2","","""event"",""trial"",""time""
""fullscreenenter"",""1"",""2449""
","
","
","""event"",""trial"",""time""
""fullscreenenter"",""1"",""2449""
","
","","","8514.799999713898","[""True""]","0","12","9100","4057","","","","","","","","","","","","","","","","","","",""
"pit-instructions","116","916797","0.0-2.0-23.1-1.1","battery-v0.2","","""event"",""trial"",""time""
""fullscreenenter"",""1"",""2449""
","
","
","""event"",""trial"",""time""
""fullscreenenter"",""1"",""2449""
","
","","[{""page_index"":0,""viewing_time"":4068.300000190735}]","4068.800000190735","","","","","","","","","","","","","","","","","","","","","","","",""
"pit-comprehension","117","927818","0.0-2.0-24.0-0.0","battery-v0.2","","""event"",""trial"",""time""
""fullscreenenter"",""1"",""2449""
","
","
","""event"",""trial"",""time""
""fullscreenenter"",""1"",""2449""
","
","","","11016.799999713898","[""True""]","0","12","9100","4057","","","","","","","","","","","","","","","","","","",""
"pit-instructions","118","934787","0.0-2.0-24.0-1.0","battery-v0.2","","""event"",""trial"",""time""
""fullscreenenter"",""1"",""2449""
","
","
","""event"",""trial"",""time""
""fullscreenenter"",""1"",""2449""
","
","","[{""page_index"":0,""viewing_time"":6916.900000095367}]","6917.299999713898","","","","","","","","","","","","","","","","","","","","","","","",""
"pit-comprehension","119","941453","0.0-2.0-25.0-0.0","battery-v0.2","","""event"",""trial"",""time""
""fullscreenenter"",""1"",""2449""
","
","
","""event"",""trial"",""time""
""fullscreenenter"",""1"",""2449""
","
","","","6661.5","[""True""]","0","12","9100","4057","","","","","","","","","","","","","","","","","","",""
"pit-instructions","120","943199","0.0-2.0-25.0-1.0","battery-v0.2","","""event"",""trial"",""time""
""fullscreenenter"",""1"",""2449""
","
","
","""event"",""trial"",""time""
""fullscreenenter"",""1"",""2449""
","
","","[{""page_index"":0,""viewing_time"":1683.5}]","1684","","","","","","","","","","","","","","","","","","","","","","","",""
"pit-comprehension","121","950947","0.0-2.0-26.0-0.0","battery-v0.2","","""event"",""trial"",""time""
""fullscreenenter"",""1"",""2449""
","
","
","""event"",""trial"",""time""
""fullscreenenter"",""1"",""2449""
","
","","","7744.299999713898","[""False""]","0","12","9100","4057","","","","","","","","","","","","","","","","","","",""
"pit-instructions","122","952523","0.0-2.0-26.0-1.0","battery-v0.2","","""event"",""trial"",""time""
""fullscreenenter"",""1"",""2449""
","
","
","""event"",""trial"",""time""
""fullscreenenter"",""1"",""2449""
","
","","[{""page_index"":0,""viewing_time"":1520.2000002861023}]","1520.7000002861023","","","","","","","","","","","","","","","","","","","","","","","",""
"pit-instructions","123","971206","0.0-3.0","battery-v0.2","","""event"",""trial"",""time""
""fullscreenenter"",""1"",""2449""
","
","
","""event"",""trial"",""time""
""fullscreenenter"",""1"",""2449""
","
","","[{""page_index"":0,""viewing_time"":6335.5},{""page_index"":1,""viewing_time"":5541},{""page_index"":2,""viewing_time"":6803}]","18680.299999713898","","","","","","","","","","","","","","","","","","","","","","","",""
"pit-trial","124","976085","0.0-4.0","battery-v0.2","","""event"",""trial"",""time""
""fullscreenenter"",""1"",""2449""
","
","
","""event"",""trial"",""time""
""fullscreenenter"",""1"",""2449""
","
","","","-1","","","12","9100","4057","&#9752;","elianto","#f73b6a7A"," ","-1","0","0","[]","0","1","","","9100","1","3","3","lose","go","1"
"pit-trial","125","979680","0.0-5.0","battery-v0.2","","""event"",""trial"",""time""
""fullscreenenter"",""1"",""2449""
","
","
","""event"",""trial"",""time""
""fullscreenenter"",""1"",""2449""
","
","","","731","","","12","9100","4057","&#9733;","elianto","#3366ff99","-1"," ","0","0","[1581.5]","1","1","","","9100","2","2","2","win","no-go","0"
"pit-trial","126","984022","0.0-6.0","battery-v0.2","","""event"",""trial"",""time""
""fullscreenenter"",""1"",""2449""
","
","
","""event"",""trial"",""time""
""fullscreenenter"",""1"",""2449""
","
","","","1474.2999997138977","","","12","9100","4057","&#9728;","elianto","#f73b6a7A","-1"," ","0","-10","[2326.5]","1","1","","","9100","3","0","4","lose","no-go","0"
"pit-trial","127","988084","0.0-7.0","battery-v0.2","","""event"",""trial"",""time""
""fullscreenenter"",""1"",""2449""
","
","
","""event"",""trial"",""time""
""fullscreenenter"",""1"",""2449""
","
","","","1202.7000002861023","","","12","9100","4057","&#9730;","elianto","#3366ff99"," "," ","1","+10","[2054.4000000953674]","1","1","","","9100","4","1","1","win","go","0"
"pit-trial","128","991967","0.0-8.0","battery-v0.2","","""event"",""trial"",""time""
""fullscreenenter"",""1"",""2449""
","
","
","""event"",""trial"",""time""
""fullscreenenter"",""1"",""2449""
","
","","","1022.8000001907349","","","12","9100","4057","&#9733;","elianto","#3366ff99","-1"," ","0","+10","[1873.5999999046326]","1","1","","","9100","5","2","2","win","no-go","1"
"pit-trial","129","996840","0.0-9.0","battery-v0.2","","""event"",""trial"",""time""
""fullscreenenter"",""1"",""2449""
","
","
","""event"",""trial"",""time""
""fullscreenenter"",""1"",""2449""
","
","","","-1","","","12","9100","4057","&#9728;","elianto","#f73b6a7A","-1","-1","1","0","[]","0","1","","","9100","6","0","4","lose","no-go","0"
"pit-trial","130","1001703","0.0-10.0","battery-v0.2","","""event"",""trial"",""time""
""fullscreenenter"",""1"",""2449""
","
","
","""event"",""trial"",""time""
""fullscreenenter"",""1"",""2449""
","
","","","-1","","","12","9100","4057","&#9752;","elianto","#f73b6a7A"," ","-1","0","-10","[]","0","1","","","9100","7","3","3","lose","go","0"
"pit-trial","131","1005853","0.0-11.0","battery-v0.2","","""event"",""trial"",""time""
""fullscreenenter"",""1"",""2449""
","
","
","""event"",""trial"",""time""
""fullscreenenter"",""1"",""2449""
","
","","","1293.5999999046326","","","12","9100","4057","&#9730;","elianto","#3366ff99"," "," ","1","+10","[2144.2000002861023]","1","1","","","9100","8","1","1","win","go","0"
"pit-trial","132","1009772","0.0-12.0","battery-v0.2","","""event"",""trial"",""time""
""fullscreenenter"",""1"",""2449""
","
","
","""event"",""trial"",""time""
""fullscreenenter"",""1"",""2449""
","
","","","1062.0999999046326","","","12","9100","4057","&#9730;","elianto","#3366ff99"," "," ","1","+10","[1913.2000002861023]","1","1","","","9100","9","1","1","win","go","0"
"pit-trial","133","1014628","0.0-13.0","battery-v0.2","","""event"",""trial"",""time""
""fullscreenenter"",""1"",""2449""
","
","
","""event"",""trial"",""time""
""fullscreenenter"",""1"",""2449""
","
","","","-1","","","12","9100","4057","&#9752;","elianto","#f73b6a7A"," ","-1","0","-10","[]","0","1","","","9100","10","3","3","lose","go","0"
"pit-trial","134","1019503","0.0-14.0","battery-v0.2","","""event"",""trial"",""time""
""fullscreenenter"",""1"",""2449""
","
","
","""event"",""trial"",""time""
""fullscreenenter"",""1"",""2449""
","
","","","-1","","","12","9100","4057","&#9728;","elianto","#f73b6a7A","-1","-1","1","0","[]","0","1","","","9100","11","0","4","lose","no-go","0"
"pit-trial","135","1023624","0.0-15.0","battery-v0.2","","""event"",""trial"",""time""
""fullscreenenter"",""1"",""2449""
","
","
","""event"",""trial"",""time""
""fullscreenenter"",""1"",""2449""
","
","","","1257.8000001907349","","","12","9100","4057","&#9733;","elianto","#3366ff99","-1"," ","0","0","[2114.2000002861023]","1","1","","","9100","12","2","2","win","no-go","0"
"pit-trial","136","1028491","0.0-16.0","battery-v0.2","","""event"",""trial"",""time""
""fullscreenenter"",""1"",""2449""
","
","
","""event"",""trial"",""time""
""fullscreenenter"",""1"",""2449""
","
","","","-1","","","12","9100","4057","&#9728;","elianto","#f73b6a7A","-1","-1","1","0","[]","0","1","","","9100","13","0","4","lose","no-go","0"
"pit-trial","137","1032652","0.0-17.0","battery-v0.2","","""event"",""trial"",""time""
""fullscreenenter"",""1"",""2449""
","
","
","""event"",""trial"",""time""
""fullscreenenter"",""1"",""2449""
","
","","","1302.5999999046326","","","12","9100","4057","&#9752;","elianto","#f73b6a7A"," "," ","1","0","[2155.699999809265]","1","1","","","9100","14","3","3","lose","go","0"
"pit-trial","138","1036907","0.0-18.0","battery-v0.2","","""event"",""trial"",""time""
""fullscreenenter"",""1"",""2449""
","
","
","""event"",""trial"",""time""
""fullscreenenter"",""1"",""2449""
","
","","","1389.3000001907349","","","12","9100","4057","&#9733;","elianto","#3366ff99","-1"," ","0","+10","[2244.4000000953674]","1","1","","","9100","15","2","2","win","no-go","1"
"pit-trial","139","1040963","0.0-19.0","battery-v0.2","","""event"",""trial"",""time""
""fullscreenenter"",""1"",""2449""
","
","
","""event"",""trial"",""time""
""fullscreenenter"",""1"",""2449""
","
","","","1196.4000000953674","","","12","9100","4057","&#9730;","elianto","#3366ff99"," "," ","1","0","[2049.4000000953674]","1","1","","","9100","16","1","1","win","go","1"
"pit-trial","140","1045838","0.0-20.0","battery-v0.2","","""event"",""trial"",""time""
""fullscreenenter"",""1"",""2449""
","
","
","""event"",""trial"",""time""
""fullscreenenter"",""1"",""2449""
","
","","","-1","","","12","9100","4057","&#9728;","elianto","#f73b6a7A","-1","-1","1","0","[]","0","1","","","9100","17","0","4","lose","no-go","0"
"pit-trial","141","1049763","0.0-21.0","battery-v0.2","","""event"",""trial"",""time""
""fullscreenenter"",""1"",""2449""
","
","
","""event"",""trial"",""time""
""fullscreenenter"",""1"",""2449""
","
","","","1064.8000001907349","","","12","9100","4057","&#9752;","elianto","#f73b6a7A"," "," ","1","-10","[1918.4000000953674]","1","1","","","9100","18","3","3","lose","go","1"
"pit-trial","142","1054095","0.0-22.0","battery-v0.2","","""event"",""trial"",""time""
""fullscreenenter"",""1"",""2449""
","
","
","""event"",""trial"",""time""
""fullscreenenter"",""1"",""2449""
","
","","","1467.0999999046326","","","12","9100","4057","&#9733;","elianto","#3366ff99","-1"," ","0","0","[2322.699999809265]","1","1","","","9100","19","2","2","win","no-go","0"
"pit-trial","143","1058506","0.0-23.0","battery-v0.2","","""event"",""trial"",""time""
""fullscreenenter"",""1"",""2449""
","
","
","""event"",""trial"",""time""
""fullscreenenter"",""1"",""2449""
","
","","","1549.6000003814697","","","12","9100","4057","&#9730;","elianto","#3366ff99"," "," ","1","+10","[2401.2000002861023]","1","1","","","9100","20","1","1","win","go","0"
"pit-instructions","144","1074589","0.0-24.0","battery-v0.2","","""event"",""trial"",""time""
""fullscreenenter"",""1"",""2449""
","
","
","""event"",""trial"",""time""
""fullscreenenter"",""1"",""2449""
","
","","[{""page_index"":0,""viewing_time"":8697.800000190735},{""page_index"":1,""viewing_time"":7382}]","16080.5","","","","","","","","","","","","","","","","","","","","","","","",""
"pit-trial","145","1079464","0.0-25.0","battery-v0.2","","""event"",""trial"",""time""
""fullscreenenter"",""1"",""2449""
","
","
","""event"",""trial"",""time""
""fullscreenenter"",""1"",""2449""
","
","","","-1","","","12","9100","4057","h","elianto","#f73b6a7A","-1","-1","1","0","[]","0","2","","","9100","21","3","4","lose","no-go","0"
"pit-trial","146","1084110","0.0-26.0","battery-v0.2","","""event"",""trial"",""time""
""fullscreenenter"",""1"",""2449""
","
","
","""event"",""trial"",""time""
""fullscreenenter"",""1"",""2449""
","
","","","1779.6999998092651","","","12","9100","4057","y","elianto","#f73b6a7A"," "," ","1","0","[2632.4000000953674]","1","2","","","9100","22","2","3","lose","go","0"
"pit-trial","147","1088978","0.0-27.0","battery-v0.2","","""event"",""trial"",""time""
""fullscreenenter"",""1"",""2449""
","
","
","""event"",""trial"",""time""
""fullscreenenter"",""1"",""2449""
","
","","","-1","","","12","9100","4057","m","elianto","#f73b6a7A"," ","-1","0","-10","[]","0","2","","","9100","23","0","3","lose","go","0"
"pit-trial","148","1093394","0.0-28.0","battery-v0.2","","""event"",""trial"",""time""
""fullscreenenter"",""1"",""2449""
","
","
","""event"",""trial"",""time""
""fullscreenenter"",""1"",""2449""
","
","","","1547.5","","","12","9100","4057","r","elianto","#3366ff99","-1"," ","0","0","[2398.0999999046326]","1","2","","","9100","24","1","2","win","no-go","0"
"pit-trial","149","1097857","0.0-29.0","battery-v0.2","","""event"",""trial"",""time""
""fullscreenenter"",""1"",""2449""
","
","
","""event"",""trial"",""time""
""fullscreenenter"",""1"",""2449""
","
","","","1596.5","","","12","9100","4057","h","elianto","#f73b6a7A","-1"," ","0","-10","[2451.300000190735]","1","2","","","9100","25","3","4","lose","no-go","0"
"pit-trial","150","1102729","0.0-30.0","battery-v0.2","","""event"",""trial"",""time""
""fullscreenenter"",""1"",""2449""
","
","
","""event"",""trial"",""time""
""fullscreenenter"",""1"",""2449""
","
","","","-1","","","12","9100","4057","m","elianto","#f73b6a7A"," ","-1","0","-10","[]","0","2","","","9100","26","0","3","lose","go","0"
"pit-trial","151","1106734","0.0-31.0","battery-v0.2","","""event"",""trial"",""time""
""fullscreenenter"",""1"",""2449""
","
","
","""event"",""trial"",""time""
""fullscreenenter"",""1"",""2449""
","
","","","1134.5999999046326","","","12","9100","4057","r","elianto","#3366ff99","-1"," ","0","0","[1987.8000001907349]","1","2","","","9100","27","1","2","win","no-go","0"
"pit-trial","152","1111598","0.0-32.0","battery-v0.2","","""event"",""trial"",""time""
""fullscreenenter"",""1"",""2449""
","
","
","""event"",""trial"",""time""
""fullscreenenter"",""1"",""2449""
","
","","","-1","","","12","9100","4057","y","elianto","#f73b6a7A"," ","-1","0","-10","[]","0","2","","","9100","28","2","3","lose","go","0"
"pit-trial","153","1116463","0.0-33.0","battery-v0.2","","""event"",""trial"",""time""
""fullscreenenter"",""1"",""2449""
","
","
","""event"",""trial"",""time""
""fullscreenenter"",""1"",""2449""
","
","","","-1","","","12","9100","4057","r","elianto","#3366ff99","-1","-1","1","+10","[]","0","2","","","9100","29","1","2","win","no-go","0"
"pit-trial","154","1121323","0.0-34.0","battery-v0.2","","""event"",""trial"",""time""
""fullscreenenter"",""1"",""2449""
","
","
","""event"",""trial"",""time""
""fullscreenenter"",""1"",""2449""
","
","","","-1","","","12","9100","4057","h","elianto","#f73b6a7A","-1","-1","1","0","[]","0","2","","","9100","30","3","4","lose","no-go","0"
"pit-trial","155","1126190","0.0-35.0","battery-v0.2","","""event"",""trial"",""time""
""fullscreenenter"",""1"",""2449""
","
","
","""event"",""trial"",""time""
""fullscreenenter"",""1"",""2449""
","
","","","-1","","","12","9100","4057","m","elianto","#f73b6a7A"," ","-1","0","-10","[]","0","2","","","9100","31","0","3","lose","go","0"
"pit-trial","156","1131057","0.0-36.0","battery-v0.2","","""event"",""trial"",""time""
""fullscreenenter"",""1"",""2449""
","
","
","""event"",""trial"",""time""
""fullscreenenter"",""1"",""2449""
","
","","","-1","","","12","9100","4057","y","elianto","#f73b6a7A"," ","-1","0","-10","[]","0","2","","","9100","32","2","3","lose","go","0"
"pit-trial","157","1135929","0.0-37.0","battery-v0.2","","""event"",""trial"",""time""
""fullscreenenter"",""1"",""2449""
","
","
","""event"",""trial"",""time""
""fullscreenenter"",""1"",""2449""
","
","","","-1","","","12","9100","4057","h","elianto","#f73b6a7A","-1","-1","1","0","[]","0","2","","","9100","33","3","4","lose","no-go","0"
"pit-trial","158","1140134","0.0-38.0","battery-v0.2","","""event"",""trial"",""time""
""fullscreenenter"",""1"",""2449""
","
","
","""event"",""trial"",""time""
""fullscreenenter"",""1"",""2449""
","
","","","1346.6999998092651","","","12","9100","4057","m","elianto","#f73b6a7A"," "," ","1","-10","[2198]","1","2","","","9100","34","0","3","lose","go","1"
"pit-trial","159","1144998","0.0-39.0","battery-v0.2","","""event"",""trial"",""time""
""fullscreenenter"",""1"",""2449""
","
","
","""event"",""trial"",""time""
""fullscreenenter"",""1"",""2449""
","
","","","-1","","","12","9100","4057","r","elianto","#3366ff99","-1","-1","1","0","[]","0","2","","","9100","35","1","2","win","no-go","1"
"pit-trial","160","1149018","0.0-40.0","battery-v0.2","","""event"",""trial"",""time""
""fullscreenenter"",""1"",""2449""
","
","
","""event"",""trial"",""time""
""fullscreenenter"",""1"",""2449""
","
","","","1156.4000000953674","","","12","9100","4057","y","elianto","#f73b6a7A"," "," ","1","0","[2008.5999999046326]","1","2","","","9100","36","2","3","lose","go","0"
"pit-trial","161","1153883","0.0-41.0","battery-v0.2","","""event"",""trial"",""time""
""fullscreenenter"",""1"",""2449""
","
","
","""event"",""trial"",""time""
""fullscreenenter"",""1"",""2449""
","
","","","-1","","","12","9100","4057","m","elianto","#f73b6a7A"," ","-1","0","-10","[]","0","2","","","9100","37","0","3","lose","go","0"
"pit-trial","162","1158742","0.0-42.0","battery-v0.2","","""event"",""trial"",""time""
""fullscreenenter"",""1"",""2449""
","
","
","""event"",""trial"",""time""
""fullscreenenter"",""1"",""2449""
","
","","","-1","","","12","9100","4057","h","elianto","#f73b6a7A","-1","-1","1","0","[]","0","2","","","9100","38","3","4","lose","no-go","0"
"pit-trial","163","1163619","0.0-43.0","battery-v0.2","","""event"",""trial"",""time""
""fullscreenenter"",""1"",""2449""
","
","
","""event"",""trial"",""time""
""fullscreenenter"",""1"",""2449""
","
","","","-1","","","12","9100","4057","y","elianto","#f73b6a7A"," ","-1","0","-10","[]","0","2","","","9100","39","2","3","lose","go","0"
"pit-trial","164","1168481","0.0-44.0","battery-v0.2","","""event"",""trial"",""time""
""fullscreenenter"",""1"",""2449""
","
","
","""event"",""trial"",""time""
""fullscreenenter"",""1"",""2449""
","
","","","-1","","","12","9100","4057","r","elianto","#3366ff99","-1","-1","1","+10","[]","0","2","","","9100","40","1","2","win","no-go","0"
"pit-trial","165","1173346","0.0-45.0","battery-v0.2","","""event"",""trial"",""time""
""fullscreenenter"",""1"",""2449""
","
","
","""event"",""trial"",""time""
""fullscreenenter"",""1"",""2449""
","
","","","-1","","","12","9100","4057","h","elianto","#f73b6a7A","-1","-1","1","0","[]","0","2","","","9100","41","3","4","lose","no-go","0"
"pit-trial","166","1177526","0.0-46.0","battery-v0.2","","""event"",""trial"",""time""
""fullscreenenter"",""1"",""2449""
","
","
","""event"",""trial"",""time""
""fullscreenenter"",""1"",""2449""
","
","","","1321.0999999046326","","","12","9100","4057","m","elianto","#f73b6a7A"," "," ","1","0","[2172.4000000953674]","1","2","","","9100","42","0","3","lose","go","0"
"pit-trial","167","1182397","0.0-47.0","battery-v0.2","","""event"",""trial"",""time""
""fullscreenenter"",""1"",""2449""
","
","
","""event"",""trial"",""time""
""fullscreenenter"",""1"",""2449""
","
","","","-1","","","12","9100","4057","r","elianto","#3366ff99","-1","-1","1","+10","[]","0","2","","","9100","43","1","2","win","no-go","0"
"pit-trial","168","1187261","0.0-48.0","battery-v0.2","","""event"",""trial"",""time""
""fullscreenenter"",""1"",""2449""
","
","
","""event"",""trial"",""time""
""fullscreenenter"",""1"",""2449""
","
","","","-1","","","12","9100","4057","y","elianto","#f73b6a7A"," ","-1","0","-10","[]","0","2","","","9100","44","2","3","lose","go","0"
"pit-trial","169","1191904","0.0-49.0","battery-v0.2","","""event"",""trial"",""time""
""fullscreenenter"",""1"",""2449""
","
","
","""event"",""trial"",""time""
""fullscreenenter"",""1"",""2449""
","
","","","1781.9000000953674","","","12","9100","4057","m","elianto","#f73b6a7A"," "," ","1","-10","[2635.5999999046326]","1","2","","","9100","45","0","3","lose","go","1"
"pit-trial","170","1196765","0.0-50.0","battery-v0.2","","""event"",""trial"",""time""
""fullscreenenter"",""1"",""2449""
","
","
","""event"",""trial"",""time""
""fullscreenenter"",""1"",""2449""
","
","","","-1","","","12","9100","4057","y","elianto","#f73b6a7A"," ","-1","0","0","[]","0","2","","","9100","46","2","3","lose","go","1"
"pit-trial","171","1201314","0.0-51.0","battery-v0.2","","""event"",""trial"",""time""
""fullscreenenter"",""1"",""2449""
","
","
","""event"",""trial"",""time""
""fullscreenenter"",""1"",""2449""
","
","","","1687.1999998092651","","","12","9100","4057","h","elianto","#f73b6a7A","-1"," ","0","-10","[2541.199999809265]","1","2","","","9100","47","3","4","lose","no-go","0"
"pit-trial","172","1206182","0.0-52.0","battery-v0.2","","""event"",""trial"",""time""
""fullscreenenter"",""1"",""2449""
","
","
","""event"",""trial"",""time""
""fullscreenenter"",""1"",""2449""
","
","","","-1","","","12","9100","4057","r","elianto","#3366ff99","-1","-1","1","0","[]","0","2","","","9100","48","1","2","win","no-go","1"
"pit-trial","173","1211018","0.0-53.0","battery-v0.2","","""event"",""trial"",""time""
""fullscreenenter"",""1"",""2449""
","
","
","""event"",""trial"",""time""
""fullscreenenter"",""1"",""2449""
","
","","","1972.3999996185303","","","12","9100","4057","r","elianto","#3366ff99","-1"," ","0","+10","[2826.2999997138977]","1","2","","","9100","49","1","2","win","no-go","1"
"pit-trial","174","1215884","0.0-54.0","battery-v0.2","","""event"",""trial"",""time""
""fullscreenenter"",""1"",""2449""
","
","
","""event"",""trial"",""time""
""fullscreenenter"",""1"",""2449""
","
","","","-1","","","12","9100","4057","y","elianto","#f73b6a7A"," ","-1","0","-10","[]","0","2","","","9100","50","2","3","lose","go","0"
"pit-trial","175","1219975","0.0-55.0","battery-v0.2","","""event"",""trial"",""time""
""fullscreenenter"",""1"",""2449""
","
","
","""event"",""trial"",""time""
""fullscreenenter"",""1"",""2449""
","
","","","1232.2000002861023","","","12","9100","4057","h","elianto","#f73b6a7A","-1"," ","0","-10","[2082.800000190735]","1","2","","","9100","51","3","4","lose","no-go","0"
"pit-trial","176","1223634","0.0-56.0","battery-v0.2","","""event"",""trial"",""time""
""fullscreenenter"",""1"",""2449""
","
","
","""event"",""trial"",""time""
""fullscreenenter"",""1"",""2449""
","
","","","799.3999996185303","","","12","9100","4057","m","elianto","#f73b6a7A"," "," ","1","0","[1651.5999999046326]","1","2","","","9100","52","0","3","lose","go","0"
"pit-trial","177","1227978","0.0-57.0","battery-v0.2","","""event"",""trial"",""time""
""fullscreenenter"",""1"",""2449""
","
","
","""event"",""trial"",""time""
""fullscreenenter"",""1"",""2449""
","
","","","1477.8000001907349","","","12","9100","4057","h","elianto","#f73b6a7A","-1"," ","0","-10","[2332.3999996185303]","1","2","","","9100","53","3","4","lose","no-go","0"
"pit-trial","178","1231664","0.0-58.0","battery-v0.2","","""event"",""trial"",""time""
""fullscreenenter"",""1"",""2449""
","
","
","""event"",""trial"",""time""
""fullscreenenter"",""1"",""2449""
","
","","","825.0999999046326","","","12","9100","4057","y","elianto","#f73b6a7A"," "," ","1","-10","[1678.2000002861023]","1","2","","","9100","54","2","3","lose","go","1"
"pit-trial","179","1235945","0.0-59.0","battery-v0.2","","""event"",""trial"",""time""
""fullscreenenter"",""1"",""2449""
","
","
","""event"",""trial"",""time""
""fullscreenenter"",""1"",""2449""
","
","","","1415.2000002861023","","","12","9100","4057","m","elianto","#f73b6a7A"," "," ","1","0","[2272.5]","1","2","","","9100","55","0","3","lose","go","0"
"pit-trial","180","1240806","0.0-60.0","battery-v0.2","","""event"",""trial"",""time""
""fullscreenenter"",""1"",""2449""
","
","
","""event"",""trial"",""time""
""fullscreenenter"",""1"",""2449""
","
","","","-1","","","12","9100","4057","r","elianto","#3366ff99","-1","-1","1","+10","[]","0","2","","","9100","56","1","2","win","no-go","0"
"pit-trial","181","1245676","0.0-61.0","battery-v0.2","","""event"",""trial"",""time""
""fullscreenenter"",""1"",""2449""
","
","
","""event"",""trial"",""time""
""fullscreenenter"",""1"",""2449""
","
","","","-1","","","12","9100","4057","m","elianto","#f73b6a7A"," ","-1","0","-10","[]","0","2","","","9100","57","0","3","lose","go","0"
"pit-trial","182","1250318","0.0-62.0","battery-v0.2","","""event"",""trial"",""time""
""fullscreenenter"",""1"",""2449""
","
","
","""event"",""trial"",""time""
""fullscreenenter"",""1"",""2449""
","
","","","1776.5999999046326","","","12","9100","4057","y","elianto","#f73b6a7A"," "," ","1","0","[2631.2000002861023]","1","2","","","9100","58","2","3","lose","go","0"
"pit-trial","183","1254659","0.0-63.0","battery-v0.2","","""event"",""trial"",""time""
""fullscreenenter"",""1"",""2449""
","
","
","""event"",""trial"",""time""
""fullscreenenter"",""1"",""2449""
","
","","","1478.4000000953674","","","12","9100","4057","h","elianto","#f73b6a7A","-1"," ","0","-10","[2328.800000190735]","1","2","","","9100","59","3","4","lose","no-go","0"
"pit-trial","184","1258654","0.0-64.0","battery-v0.2","","""event"",""trial"",""time""
""fullscreenenter"",""1"",""2449""
","
","
","""event"",""trial"",""time""
""fullscreenenter"",""1"",""2449""
","
","","","1136.3000001907349","","","12","9100","4057","z","elianto","#3366ff99"," "," ","1","+10","[1987.9000000953674]","1","2","","","9100","60","4","1","win","go","0"
"pit-trial","185","1263514","0.0-65.0","battery-v0.2","","""event"",""trial"",""time""
""fullscreenenter"",""1"",""2449""
","
","
","""event"",""trial"",""time""
""fullscreenenter"",""1"",""2449""
","
","","","-1","","","12","9100","4057","h","elianto","#f73b6a7A","-1","-1","1","-10","[]","0","2","","","9100","61","3","4","lose","no-go","1"
"pit-trial","186","1268381","0.0-66.0","battery-v0.2","","""event"",""trial"",""time""
""fullscreenenter"",""1"",""2449""
","
","
","""event"",""trial"",""time""
""fullscreenenter"",""1"",""2449""
","
","","","-1","","","12","9100","4057","r","elianto","#3366ff99","-1","-1","1","0","[]","0","2","","","9100","62","1","2","win","no-go","1"
"pit-trial","187","1272648","0.0-67.0","battery-v0.2","","""event"",""trial"",""time""
""fullscreenenter"",""1"",""2449""
","
","
","""event"",""trial"",""time""
""fullscreenenter"",""1"",""2449""
","
","","","1400.5","","","12","9100","4057","y","elianto","#f73b6a7A"," "," ","1","0","[2254.6000003814697]","1","2","","","9100","63","2","3","lose","go","0"
"pit-trial","188","1276634","0.0-68.0","battery-v0.2","","""event"",""trial"",""time""
""fullscreenenter"",""1"",""2449""
","
","
","""event"",""trial"",""time""
""fullscreenenter"",""1"",""2449""
","
","","","1127.7000002861023","","","12","9100","4057","z","elianto","#3366ff99"," "," ","1","+10","[1978.4000000953674]","1","2","","","9100","64","4","1","win","go","0"
"pit-trial","189","1281499","0.0-69.0","battery-v0.2","","""event"",""trial"",""time""
""fullscreenenter"",""1"",""2449""
","
","
","""event"",""trial"",""time""
""fullscreenenter"",""1"",""2449""
","
","","","-1","","","12","9100","4057","r","elianto","#3366ff99","-1","-1","1","+10","[]","0","2","","","9100","65","1","2","win","no-go","0"
"pit-trial","190","1286368","0.0-70.0","battery-v0.2","","""event"",""trial"",""time""
""fullscreenenter"",""1"",""2449""
","
","
","""event"",""trial"",""time""
""fullscreenenter"",""1"",""2449""
","
","","","-1","","","12","9100","4057","c","elianto","#3366ff99","-1","-1","1","+10","[]","0","2","","","9100","66","5","2","win","no-go","0"
"pit-trial","191","1291236","0.0-71.0","battery-v0.2","","""event"",""trial"",""time""
""fullscreenenter"",""1"",""2449""
","
","
","""event"",""trial"",""time""
""fullscreenenter"",""1"",""2449""
","
","","","-1","","","12","9100","4057","h","elianto","#f73b6a7A","-1","-1","1","0","[]","0","2","","","9100","67","3","4","lose","no-go","0"
"pit-trial","192","1295374","0.0-72.0","battery-v0.2","","""event"",""trial"",""time""
""fullscreenenter"",""1"",""2449""
","
","
","""event"",""trial"",""time""
""fullscreenenter"",""1"",""2449""
","
","","","1275.0999999046326","","","12","9100","4057","z","elianto","#3366ff99"," "," ","1","+10","[2130.0999999046326]","1","2","","","9100","68","4","1","win","go","0"
"pit-trial","193","1300246","0.0-73.0","battery-v0.2","","""event"",""trial"",""time""
""fullscreenenter"",""1"",""2449""
","
","
","""event"",""trial"",""time""
""fullscreenenter"",""1"",""2449""
","
","","","-1","","","12","9100","4057","c","elianto","#3366ff99","-1","-1","1","+10","[]","0","2","","","9100","69","5","2","win","no-go","0"
"pit-trial","194","1304452","0.0-74.0","battery-v0.2","","""event"",""trial"",""time""
""fullscreenenter"",""1"",""2449""
","
","
","""event"",""trial"",""time""
""fullscreenenter"",""1"",""2449""
","
","","","1345.5999999046326","","","12","9100","4057","z","elianto","#3366ff99"," "," ","1","+10","[2199.9000000953674]","1","2","","","9100","70","4","1","win","go","0"
"pit-trial","195","1309024","0.0-75.0","battery-v0.2","","""event"",""trial"",""time""
""fullscreenenter"",""1"",""2449""
","
","
","""event"",""trial"",""time""
""fullscreenenter"",""1"",""2449""
","
","","","1712.5","","","12","9100","4057","y","elianto","#f73b6a7A"," "," ","1","-10","[2565.9000000953674]","1","2","","","9100","71","2","3","lose","go","1"
"pit-trial","196","1313888","0.0-76.0","battery-v0.2","","""event"",""trial"",""time""
""fullscreenenter"",""1"",""2449""
","
","
","""event"",""trial"",""time""
""fullscreenenter"",""1"",""2449""
","
","","","-1","","","12","9100","4057","r","elianto","#3366ff99","-1","-1","1","+10","[]","0","2","","","9100","72","1","2","win","no-go","0"
"pit-trial","197","1317874","0.0-77.0","battery-v0.2","","""event"",""trial"",""time""
""fullscreenenter"",""1"",""2449""
","
","
","""event"",""trial"",""time""
""fullscreenenter"",""1"",""2449""
","
","","","1122.2999997138977","","","12","9100","4057","r","elianto","#3366ff99","-1"," ","0","0","[1978.5]","1","2","","","9100","73","1","2","win","no-go","0"
"pit-trial","198","1322741","0.0-78.0","battery-v0.2","","""event"",""trial"",""time""
""fullscreenenter"",""1"",""2449""
","
","
","""event"",""trial"",""time""
""fullscreenenter"",""1"",""2449""
","
","","","-1","","","12","9100","4057","h","elianto","#f73b6a7A","-1","-1","1","0","[]","0","2","","","9100","74","3","4","lose","no-go","0"
"pit-trial","199","1326549","0.0-79.0","battery-v0.2","","""event"",""trial"",""time""
""fullscreenenter"",""1"",""2449""
","
","
","""event"",""trial"",""time""
""fullscreenenter"",""1"",""2449""
","
","","","945.3000001907349","","","12","9100","4057","z","elianto","#3366ff99"," "," ","1","+10","[1796.0999999046326]","1","2","","","9100","75","4","1","win","go","0"
"pit-trial","200","1330271","0.0-80.0","battery-v0.2","","""event"",""trial"",""time""
""fullscreenenter"",""1"",""2449""
","
","
","""event"",""trial"",""time""
""fullscreenenter"",""1"",""2449""
","
","","","864.4000000953674","","","12","9100","4057","c","elianto","#3366ff99","-1"," ","0","0","[1717.6999998092651]","1","2","","","9100","76","5","2","win","no-go","0"
"pit-trial","201","1334113","0.0-81.0","battery-v0.2","","""event"",""trial"",""time""
""fullscreenenter"",""1"",""2449""
","
","
","""event"",""trial"",""time""
""fullscreenenter"",""1"",""2449""
","
","","","985","","","12","9100","4057","z","elianto","#3366ff99"," "," ","1","+10","[1837]","1","2","","","9100","77","4","1","win","go","0"
"pit-trial","202","1338973","0.0-82.0","battery-v0.2","","""event"",""trial"",""time""
""fullscreenenter"",""1"",""2449""
","
","
","""event"",""trial"",""time""
""fullscreenenter"",""1"",""2449""
","
","","","-1","","","12","9100","4057","c","elianto","#3366ff99","-1","-1","1","+10","[]","0","2","","","9100","78","5","2","win","no-go","0"
"pit-trial","203","1342627","0.0-83.0","battery-v0.2","","""event"",""trial"",""time""
""fullscreenenter"",""1"",""2449""
","
","
","""event"",""trial"",""time""
""fullscreenenter"",""1"",""2449""
","
","","","789.5999999046326","","","12","9100","4057","z","elianto","#3366ff99"," "," ","1","+10","[1644.5999999046326,1984.5999999046326]","2","2","","","9100","79","4","1","win","go","0"
"pit-trial","204","1347489","0.0-84.0","battery-v0.2","","""event"",""trial"",""time""
""fullscreenenter"",""1"",""2449""
","
","
","""event"",""trial"",""time""
""fullscreenenter"",""1"",""2449""
","
","","","-1","","","12","9100","4057","h","elianto","#f73b6a7A","-1","-1","1","0","[]","0","2","","","9100","80","3","4","lose","no-go","0"
"pit-trial","205","1352349","0.0-85.0","battery-v0.2","","""event"",""trial"",""time""
""fullscreenenter"",""1"",""2449""
","
","
","""event"",""trial"",""time""
""fullscreenenter"",""1"",""2449""
","
","","","-1","","","12","9100","4057","h","elianto","#f73b6a7A","-1","-1","1","0","[]","0","2","","","9100","81","3","4","lose","no-go","0"
"pit-trial","206","1357216","0.0-86.0","battery-v0.2","","""event"",""trial"",""time""
""fullscreenenter"",""1"",""2449""
","
","
","""event"",""trial"",""time""
""fullscreenenter"",""1"",""2449""
","
","","","-1","","","12","9100","4057","c","elianto","#3366ff99","-1","-1","1","+10","[]","0","2","","","9100","82","5","2","win","no-go","0"
"pit-trial","207","1362074","0.0-87.0","battery-v0.2","","""event"",""trial"",""time""
""fullscreenenter"",""1"",""2449""
","
","
","""event"",""trial"",""time""
""fullscreenenter"",""1"",""2449""
","
","","","-1","","","12","9100","4057","t","elianto","#f73b6a7A","-1","-1","1","0","[]","0","2","","","9100","83","7","4","lose","no-go","0"
"pit-trial","208","1365692","0.0-88.0","battery-v0.2","","""event"",""trial"",""time""
""fullscreenenter"",""1"",""2449""
","
","
","""event"",""trial"",""time""
""fullscreenenter"",""1"",""2449""
","
","","","761.6000003814697","","","12","9100","4057","z","elianto","#3366ff99"," "," ","1","+10","[1614.3000001907349]","1","2","","","9100","84","4","1","win","go","0"
"pit-trial","209","1370554","0.0-89.0","battery-v0.2","","""event"",""trial"",""time""
""fullscreenenter"",""1"",""2449""
","
","
","""event"",""trial"",""time""
""fullscreenenter"",""1"",""2449""
","
","","","-1","","","12","9100","4057","c","elianto","#3366ff99","-1","-1","1","0","[]","0","2","","","9100","85","5","2","win","no-go","1"
"pit-trial","210","1375379","0.0-90.0","battery-v0.2","","""event"",""trial"",""time""
""fullscreenenter"",""1"",""2449""
","
","
","""event"",""trial"",""time""
""fullscreenenter"",""1"",""2449""
","
","","","1961.3000001907349","","","12","9100","4057","b","elianto","#f73b6a7A"," "," ","1","0","[2814.5]","1","2","","","9100","86","6","3","lose","go","0"
"pit-trial","211","1379210","0.0-91.0","battery-v0.2","","""event"",""trial"",""time""
""fullscreenenter"",""1"",""2449""
","
","
","""event"",""trial"",""time""
""fullscreenenter"",""1"",""2449""
","
","","","965","","","12","9100","4057","z","elianto","#3366ff99"," "," ","1","+10","[1819.4000000953674]","1","2","","","9100","87","4","1","win","go","0"
"pit-trial","212","1383513","0.0-92.0","battery-v0.2","","""event"",""trial"",""time""
""fullscreenenter"",""1"",""2449""
","
","
","""event"",""trial"",""time""
""fullscreenenter"",""1"",""2449""
","
","","","1445.9000000953674","","","12","9100","4057","t","elianto","#f73b6a7A","-1"," ","0","0","[2297.9000000953674]","1","2","","","9100","88","7","4","lose","no-go","1"
"pit-trial","213","1387164","0.0-93.0","battery-v0.2","","""event"",""trial"",""time""
""fullscreenenter"",""1"",""2449""
","
","
","""event"",""trial"",""time""
""fullscreenenter"",""1"",""2449""
","
","","","792.3000001907349","","","12","9100","4057","t","elianto","#f73b6a7A","-1"," ","0","-10","[1644.3000001907349]","1","2","","","9100","89","7","4","lose","no-go","0"
"pit-trial","214","1392029","0.0-94.0","battery-v0.2","","""event"",""trial"",""time""
""fullscreenenter"",""1"",""2449""
","
","
","""event"",""trial"",""time""
""fullscreenenter"",""1"",""2449""
","
","","","-1","","","12","9100","4057","b","elianto","#f73b6a7A"," ","-1","0","-10","[]","0","2","","","9100","90","6","3","lose","go","0"
"pit-trial","215","1395588","0.0-95.0","battery-v0.2","","""event"",""trial"",""time""
""fullscreenenter"",""1"",""2449""
","
","
","""event"",""trial"",""time""
""fullscreenenter"",""1"",""2449""
","
","","","697.8000001907349","","","12","9100","4057","z","elianto","#3366ff99"," "," ","1","+10","[1549.1000003814697]","1","2","","","9100","91","4","1","win","go","0"
"pit-trial","216","1400451","0.0-96.0","battery-v0.2","","""event"",""trial"",""time""
""fullscreenenter"",""1"",""2449""
","
","
","""event"",""trial"",""time""
""fullscreenenter"",""1"",""2449""
","
","","","-1","","","12","9100","4057","c","elianto","#3366ff99","-1","-1","1","+10","[]","0","2","","","9100","92","5","2","win","no-go","0"
"pit-trial","217","1405317","0.0-97.0","battery-v0.2","","""event"",""trial"",""time""
""fullscreenenter"",""1"",""2449""
","
","
","""event"",""trial"",""time""
""fullscreenenter"",""1"",""2449""
","
","","","-1","","","12","9100","4057","b","elianto","#f73b6a7A"," ","-1","0","-10","[]","0","2","","","9100","93","6","3","lose","go","0"
"pit-trial","218","1409701","0.0-98.0","battery-v0.2","","""event"",""trial"",""time""
""fullscreenenter"",""1"",""2449""
","
","
","""event"",""trial"",""time""
""fullscreenenter"",""1"",""2449""
","
","","","1524.5999999046326","","","12","9100","4057","f","elianto","#3366ff99"," "," ","1","+10","[2379.699999809265]","1","2","","","9100","94","8","1","win","go","0"
"pit-trial","219","1414563","0.0-99.0","battery-v0.2","","""event"",""trial"",""time""
""fullscreenenter"",""1"",""2449""
","
","
","""event"",""trial"",""time""
""fullscreenenter"",""1"",""2449""
","
","","","-1","","","12","9100","4057","t","elianto","#f73b6a7A","-1","-1","1","0","[2945.2999997138977]","1","2","","","9100","95","7","4","lose","no-go","0"
"pit-trial","220","1419425","0.0-100.0","battery-v0.2","","""event"",""trial"",""time""
""fullscreenenter"",""1"",""2449""
","
","
","""event"",""trial"",""time""
""fullscreenenter"",""1"",""2449""
","
","","","-1","","","12","9100","4057","c","elianto","#3366ff99","-1","-1","1","+10","[]","0","2","","","9100","96","5","2","win","no-go","0"
"pit-trial","221","1424288","0.0-101.0","battery-v0.2","","""event"",""trial"",""time""
""fullscreenenter"",""1"",""2449""
","
","
","""event"",""trial"",""time""
""fullscreenenter"",""1"",""2449""
","
","","","-1","","","12","9100","4057","f","elianto","#3366ff99"," ","-1","0","0","[]","0","2","","","9100","97","8","1","win","go","0"
"pit-trial","222","1428052","0.0-102.0","battery-v0.2","","""event"",""trial"",""time""
""fullscreenenter"",""1"",""2449""
","
","
","""event"",""trial"",""time""
""fullscreenenter"",""1"",""2449""
","
","","","895.0999999046326","","","12","9100","4057","t","elianto","#f73b6a7A","-1"," ","0","-10","[1747.9000000953674]","1","2","","","9100","98","7","4","lose","no-go","0"
"pit-trial","223","1432920","0.0-103.0","battery-v0.2","","""event"",""trial"",""time""
""fullscreenenter"",""1"",""2449""
","
","
","""event"",""trial"",""time""
""fullscreenenter"",""1"",""2449""
","
","","","-1","","","12","9100","4057","c","elianto","#3366ff99","-1","-1","1","+10","[]","0","2","","","9100","99","5","2","win","no-go","0"
"pit-trial","224","1437787","0.0-104.0","battery-v0.2","","""event"",""trial"",""time""
""fullscreenenter"",""1"",""2449""
","
","
","""event"",""trial"",""time""
""fullscreenenter"",""1"",""2449""
","
","","","-1","","","12","9100","4057","b","elianto","#f73b6a7A"," ","-1","0","0","[]","0","2","","","9100","100","6","3","lose","go","1"
"pit-trial","225","1442661","0.0-105.0","battery-v0.2","","""event"",""trial"",""time""
""fullscreenenter"",""1"",""2449""
","
","
","""event"",""trial"",""time""
""fullscreenenter"",""1"",""2449""
","
","","","-1","","","12","9100","4057","f","elianto","#3366ff99"," ","-1","0","0","[]","0","2","","","9100","101","8","1","win","go","0"
"pit-trial","226","1446764","0.0-106.0","battery-v0.2","","""event"",""trial"",""time""
""fullscreenenter"",""1"",""2449""
","
","
","""event"",""trial"",""time""
""fullscreenenter"",""1"",""2449""
","
","","","1240.5","","","12","9100","4057","n","elianto","#3366ff99"," "," ","1","+10","[2094.9000000953674]","1","2","","","9100","102","9","1","win","go","0"
"pit-trial","227","1451624","0.0-107.0","battery-v0.2","","""event"",""trial"",""time""
""fullscreenenter"",""1"",""2449""
","
","
","""event"",""trial"",""time""
""fullscreenenter"",""1"",""2449""
","
","","","-1","","","12","9100","4057","c","elianto","#3366ff99","-1","-1","1","+10","[]","0","2","","","9100","103","5","2","win","no-go","0"
"pit-trial","228","1455544","0.0-108.0","battery-v0.2","","""event"",""trial"",""time""
""fullscreenenter"",""1"",""2449""
","
","
","""event"",""trial"",""time""
""fullscreenenter"",""1"",""2449""
","
","","","1060.5","","","12","9100","4057","t","elianto","#f73b6a7A","-1"," ","0","-10","[1912]","1","2","","","9100","104","7","4","lose","no-go","0"
"pit-trial","229","1459272","0.0-109.0","battery-v0.2","","""event"",""trial"",""time""
""fullscreenenter"",""1"",""2449""
","
","
","""event"",""trial"",""time""
""fullscreenenter"",""1"",""2449""
","
","","","860","","","12","9100","4057","z","elianto","#3366ff99"," "," ","1","+10","[1712.5999999046326]","1","2","","","9100","105","4","1","win","go","0"
"pit-trial","230","1463506","0.0-110.0","battery-v0.2","","""event"",""trial"",""time""
""fullscreenenter"",""1"",""2449""
","
","
","""event"",""trial"",""time""
""fullscreenenter"",""1"",""2449""
","
","","","1371.5999999046326","","","12","9100","4057","n","elianto","#3366ff99"," "," ","1","+10","[2224.800000190735,2814.5999999046326]","2","2","","","9100","106","9","1","win","go","0"
"pit-trial","231","1468362","0.0-111.0","battery-v0.2","","""event"",""trial"",""time""
""fullscreenenter"",""1"",""2449""
","
","
","""event"",""trial"",""time""
""fullscreenenter"",""1"",""2449""
","
","","","-1","","","12","9100","4057","f","elianto","#3366ff99"," ","-1","0","+10","[]","0","2","","","9100","107","8","1","win","go","1"
"pit-trial","232","1473225","0.0-112.0","battery-v0.2","","""event"",""trial"",""time""
""fullscreenenter"",""1"",""2449""
","
","
","""event"",""trial"",""time""
""fullscreenenter"",""1"",""2449""
","
","","","-1","","","12","9100","4057","b","elianto","#f73b6a7A"," ","-1","0","0","[]","0","2","","","9100","108","6","3","lose","go","1"
"pit-trial","233","1478111","0.0-113.0","battery-v0.2","","""event"",""trial"",""time""
""fullscreenenter"",""1"",""2449""
","
","
","""event"",""trial"",""time""
""fullscreenenter"",""1"",""2449""
","
","","","-1","","","12","9100","4057","c","elianto","#3366ff99","-1","-1","1","+10","[]","0","2","","","9100","109","5","2","win","no-go","0"
"pit-trial","234","1482971","0.0-114.0","battery-v0.2","","""event"",""trial"",""time""
""fullscreenenter"",""1"",""2449""
","
","
","""event"",""trial"",""time""
""fullscreenenter"",""1"",""2449""
","
","","","-1","","","12","9100","4057","b","elianto","#f73b6a7A"," ","-1","0","-10","[]","0","2","","","9100","110","6","3","lose","go","0"
"pit-trial","235","1486950","0.0-115.0","battery-v0.2","","""event"",""trial"",""time""
""fullscreenenter"",""1"",""2449""
","
","
","""event"",""trial"",""time""
""fullscreenenter"",""1"",""2449""
","
","","","1111.9000000953674","","","12","9100","4057","f","elianto","#3366ff99"," "," ","1","+10","[1967.9000000953674]","1","2","","","9100","111","8","1","win","go","0"
"pit-trial","236","1491278","0.0-116.0","battery-v0.2","","""event"",""trial"",""time""
""fullscreenenter"",""1"",""2449""
","
","
","""event"",""trial"",""time""
""fullscreenenter"",""1"",""2449""
","
","","","1466","","","12","9100","4057","n","elianto","#3366ff99"," "," ","1","+10","[2318.199999809265]","1","2","","","9100","112","9","1","win","go","0"
"pit-trial","237","1496135","0.0-117.0","battery-v0.2","","""event"",""trial"",""time""
""fullscreenenter"",""1"",""2449""
","
","
","""event"",""trial"",""time""
""fullscreenenter"",""1"",""2449""
","
","","","-1","","","12","9100","4057","b","elianto","#f73b6a7A"," ","-1","0","-10","[]","0","2","","","9100","113","6","3","lose","go","0"
"pit-trial","238","1501010","0.0-118.0","battery-v0.2","","""event"",""trial"",""time""
""fullscreenenter"",""1"",""2449""
","
","
","""event"",""trial"",""time""
""fullscreenenter"",""1"",""2449""
","
","","","-1","","","12","9100","4057","f","elianto","#3366ff99"," ","-1","0","0","[]","0","2","","","9100","114","8","1","win","go","0"
"pit-trial","239","1505877","0.0-119.0","battery-v0.2","","""event"",""trial"",""time""
""fullscreenenter"",""1"",""2449""
","
","
","""event"",""trial"",""time""
""fullscreenenter"",""1"",""2449""
","
","","","-1","","","12","9100","4057","c","elianto","#3366ff99","-1","-1","1","+10","[]","0","2","","","9100","115","5","2","win","no-go","0"
"pit-trial","240","1510740","0.0-120.0","battery-v0.2","","""event"",""trial"",""time""
""fullscreenenter"",""1"",""2449""
","
","
","""event"",""trial"",""time""
""fullscreenenter"",""1"",""2449""
","
","","","-1","","","12","9100","4057","n","elianto","#3366ff99"," ","-1","0","0","[]","0","2","","","9100","116","9","1","win","go","0"
"pit-trial","241","1514919","0.0-121.0","battery-v0.2","","""event"",""trial"",""time""
""fullscreenenter"",""1"",""2449""
","
","
","""event"",""trial"",""time""
""fullscreenenter"",""1"",""2449""
","
","","","1310.8000001907349","","","12","9100","4057","f","elianto","#3366ff99"," "," ","1","0","[2168.6000003814697]","1","2","","","9100","117","8","1","win","go","1"
"pit-trial","242","1519777","0.0-122.0","battery-v0.2","","""event"",""trial"",""time""
""fullscreenenter"",""1"",""2449""
","
","
","""event"",""trial"",""time""
""fullscreenenter"",""1"",""2449""
","
","","","-1","","","12","9100","4057","c","elianto","#3366ff99","-1","-1","1","+10","[]","0","2","","","9100","118","5","2","win","no-go","0"
"pit-trial","243","1524656","0.0-123.0","battery-v0.2","","""event"",""trial"",""time""
""fullscreenenter"",""1"",""2449""
","
","
","""event"",""trial"",""time""
""fullscreenenter"",""1"",""2449""
","
","","","-1","","","12","9100","4057","b","elianto","#f73b6a7A"," ","-1","0","-10","[]","0","2","","","9100","119","6","3","lose","go","0"
"pit-trial","244","1529527","0.0-124.0","battery-v0.2","","""event"",""trial"",""time""
""fullscreenenter"",""1"",""2449""
","
","
","""event"",""trial"",""time""
""fullscreenenter"",""1"",""2449""
","
","","","-1","","","12","9100","4057","n","elianto","#3366ff99"," ","-1","0","0","[]","0","2","","","9100","120","9","1","win","go","0"
"pit-trial","245","1534391","0.0-125.0","battery-v0.2","","""event"",""trial"",""time""
""fullscreenenter"",""1"",""2449""
","
","
","""event"",""trial"",""time""
""fullscreenenter"",""1"",""2449""
","
","","","-1","","","12","9100","4057","b","elianto","#f73b6a7A"," ","-1","0","-10","[]","0","2","","","9100","121","6","3","lose","go","0"
"pit-trial","246","1538744","0.0-126.0","battery-v0.2","","""event"",""trial"",""time""
""fullscreenenter"",""1"",""2449""
","
","
","""event"",""trial"",""time""
""fullscreenenter"",""1"",""2449""
","
","","","1493.9000000953674","","","12","9100","4057","t","elianto","#f73b6a7A","-1"," ","0","0","[2348.0999999046326]","1","2","","","9100","122","7","4","lose","no-go","1"
"pit-trial","247","1543574","0.0-127.0","battery-v0.2","","""event"",""trial"",""time""
""fullscreenenter"",""1"",""2449""
","
","
","""event"",""trial"",""time""
""fullscreenenter"",""1"",""2449""
","
","","","1969","","","12","9100","4057","f","elianto","#3366ff99"," "," ","1","+10","[2823.7000002861023]","1","2","","","9100","123","8","1","win","go","0"
"pit-trial","248","1547652","0.0-128.0","battery-v0.2","","""event"",""trial"",""time""
""fullscreenenter"",""1"",""2449""
","
","
","""event"",""trial"",""time""
""fullscreenenter"",""1"",""2449""
","
","","","1223.0999999046326","","","12","9100","4057","n","elianto","#3366ff99"," "," ","1","+10","[2073.9000000953674]","1","2","","","9100","124","9","1","win","go","0"
"pit-trial","249","1552513","0.0-129.0","battery-v0.2","","""event"",""trial"",""time""
""fullscreenenter"",""1"",""2449""
","
","
","""event"",""trial"",""time""
""fullscreenenter"",""1"",""2449""
","
","","","-1","","","12","9100","4057","n","elianto","#3366ff99"," ","-1","0","0","[3416.2999997138977,3785.8999996185303,4225.599999904633,4415.599999904633]","4","2","","","9100","125","9","1","win","go","0"
"pit-trial","250","1556173","0.0-130.0","battery-v0.2","","""event"",""trial"",""time""
""fullscreenenter"",""1"",""2449""
","
","
","""event"",""trial"",""time""
""fullscreenenter"",""1"",""2449""
","
","","","803.3000001907349","","","12","9100","4057","f","elianto","#3366ff99"," "," ","1","+10","[1655.5999999046326]","1","2","","","9100","126","8","1","win","go","0"
"pit-trial","251","1560383","0.0-131.0","battery-v0.2","","""event"",""trial"",""time""
""fullscreenenter"",""1"",""2449""
","
","
","""event"",""trial"",""time""
""fullscreenenter"",""1"",""2449""
","
","","","1351.7999997138977","","","12","9100","4057","t","elianto","#f73b6a7A","-1"," ","0","-10","[2205.4000000953674]","1","2","","","9100","127","7","4","lose","no-go","0"
"pit-trial","252","1565196","0.0-132.0","battery-v0.2","","""event"",""trial"",""time""
""fullscreenenter"",""1"",""2449""
","
","
","""event"",""trial"",""time""
""fullscreenenter"",""1"",""2449""
","
","","","1953.9000000953674","","","12","9100","4057","b","elianto","#f73b6a7A"," "," ","1","-10","[2804.300000190735]","1","2","","","9100","128","6","3","lose","go","1"
"pit-trial","253","1569274","0.0-133.0","battery-v0.2","","""event"",""trial"",""time""
""fullscreenenter"",""1"",""2449""
","
","
","""event"",""trial"",""time""
""fullscreenenter"",""1"",""2449""
","
","","","1218.5","","","12","9100","4057","n","elianto","#3366ff99"," "," ","1","+10","[2072.4000000953674]","1","2","","","9100","129","9","1","win","go","0"
"pit-trial","254","1574134","0.0-134.0","battery-v0.2","","""event"",""trial"",""time""
""fullscreenenter"",""1"",""2449""
","
","
","""event"",""trial"",""time""
""fullscreenenter"",""1"",""2449""
","
","","","-1","","","12","9100","4057","b","elianto","#f73b6a7A"," ","-1","0","0","[]","0","2","","","9100","130","6","3","lose","go","1"
"pit-trial","255","1579004","0.0-135.0","battery-v0.2","","""event"",""trial"",""time""
""fullscreenenter"",""1"",""2449""
","
","
","""event"",""trial"",""time""
""fullscreenenter"",""1"",""2449""
","
","","","-1","","","12","9100","4057","t","elianto","#f73b6a7A","-1","-1","1","0","[]","0","2","","","9100","131","7","4","lose","no-go","0"
"pit-trial","256","1582934","0.0-136.0","battery-v0.2","","""event"",""trial"",""time""
""fullscreenenter"",""1"",""2449""
","
","
","""event"",""trial"",""time""
""fullscreenenter"",""1"",""2449""
","
","","","1067.8999996185303","","","12","9100","4057","f","elianto","#3366ff99"," "," ","1","0","[1925.1999998092651]","1","2","","","9100","132","8","1","win","go","1"
"pit-trial","257","1587797","0.0-137.0","battery-v0.2","","""event"",""trial"",""time""
""fullscreenenter"",""1"",""2449""
","
","
","""event"",""trial"",""time""
""fullscreenenter"",""1"",""2449""
","
","","","-1","","","12","9100","4057","t","elianto","#f73b6a7A","-1","-1","1","0","[]","0","2","","","9100","133","7","4","lose","no-go","0"
"pit-trial","258","1591812","0.0-138.0","battery-v0.2","","""event"",""trial"",""time""
""fullscreenenter"",""1"",""2449""
","
","
","""event"",""trial"",""time""
""fullscreenenter"",""1"",""2449""
","
","","","1156.8999996185303","","","12","9100","4057","n","elianto","#3366ff99"," "," ","1","+10","[2009.0999999046326]","1","2","","","9100","134","9","1","win","go","0"
"pit-trial","259","1596682","0.0-139.0","battery-v0.2","","""event"",""trial"",""time""
""fullscreenenter"",""1"",""2449""
","
","
","""event"",""trial"",""time""
""fullscreenenter"",""1"",""2449""
","
","","","-1","","","12","9100","4057","f","elianto","#3366ff99"," ","-1","0","0","[2863.300000190735]","1","2","","","9100","135","8","1","win","go","0"
"pit-trial","260","1601540","0.0-140.0","battery-v0.2","","""event"",""trial"",""time""
""fullscreenenter"",""1"",""2449""
","
","
","""event"",""trial"",""time""
""fullscreenenter"",""1"",""2449""
","
","","","-1","","","12","9100","4057","b","elianto","#f73b6a7A"," ","-1","0","-10","[]","0","2","","","9100","136","6","3","lose","go","0"
"pit-trial","261","1606415","0.0-141.0","battery-v0.2","","""event"",""trial"",""time""
""fullscreenenter"",""1"",""2449""
","
","
","""event"",""trial"",""time""
""fullscreenenter"",""1"",""2449""
","
","","","-1","","","12","9100","4057","b","elianto","#f73b6a7A"," ","-1","0","0","[]","0","2","","","9100","137","6","3","lose","go","1"
"pit-trial","262","1611279","0.0-142.0","battery-v0.2","","""event"",""trial"",""time""
""fullscreenenter"",""1"",""2449""
","
","
","""event"",""trial"",""time""
""fullscreenenter"",""1"",""2449""
","
","","","-1","","","12","9100","4057","f","elianto","#3366ff99"," ","-1","0","0","[]","0","2","","","9100","138","8","1","win","go","0"
"pit-trial","263","1616141","0.0-143.0","battery-v0.2","","""event"",""trial"",""time""
""fullscreenenter"",""1"",""2449""
","
","
","""event"",""trial"",""time""
""fullscreenenter"",""1"",""2449""
","
","","","-1","","","12","9100","4057","t","elianto","#f73b6a7A","-1","-1","1","-10","[]","0","2","","","9100","139","7","4","lose","no-go","1"
"pit-trial","264","1620999","0.0-144.0","battery-v0.2","","""event"",""trial"",""time""
""fullscreenenter"",""1"",""2449""
""blur"",""265"",""1644581""
""focus"",""265"",""1644590""
""fullscreenexit"",""265"",""1644591""
","""event"",""trial"",""time""
""blur"",""265"",""1644581""
","""event"",""trial"",""time""
""focus"",""265"",""1644590""
","""event"",""trial"",""time""
""fullscreenenter"",""1"",""2449""
","""event"",""trial"",""time""
""fullscreenexit"",""265"",""1644591""
","","","-1","","","12","9100","4057","n","elianto","#3366ff99"," ","-1","0","+10","[]","0","2","","","9100","140","9","1","win","go","1"
"pit-instructions","265","1780124","0.0-145.0","battery-v0.2","","""event"",""trial"",""time""
""fullscreenenter"",""1"",""2449""
""blur"",""265"",""1644581""
""focus"",""265"",""1644590""
""fullscreenexit"",""265"",""1644591""
","""event"",""trial"",""time""
""blur"",""265"",""1644581""
","""event"",""trial"",""time""
""focus"",""265"",""1644590""
","""event"",""trial"",""time""
""fullscreenenter"",""1"",""2449""
","""event"",""trial"",""time""
""fullscreenexit"",""265"",""1644591""
","","[{""page_index"":0,""viewing_time"":145403.5},{""page_index"":1,""viewing_time"":13716.300000190735}]","159120.5","","","","","","","","","","","","","","","","","","","","","","","",""
"pit-trial","266","1784987","0.0-146.0","battery-v0.2","","""event"",""trial"",""time""
""fullscreenenter"",""1"",""2449""
""blur"",""265"",""1644581""
""focus"",""265"",""1644590""
""fullscreenexit"",""265"",""1644591""
","""event"",""trial"",""time""
""blur"",""265"",""1644581""
","""event"",""trial"",""time""
""focus"",""265"",""1644590""
","""event"",""trial"",""time""
