"trial_type","trial_index","time_elapsed","internal_node_id","task_version","subject_id","interactions","blur_events","focus_events","fullscreenenter_events","fullscreenexit_events","success","view_history","rt","responses","num_errors","age","subject","participantId","rune","rune_set","hex","correct","choice","accuracy","outcome","keys","total_keys","block","practice","value","sub","trial","stimulus","robot","valence","action","sham"
"pavlovia","0","15","0.0-0.0","battery-v0.2","","""event"",""trial"",""time""
""fullscreenenter"",""1"",""3477""
","
","
","""event"",""trial"",""time""
""fullscreenenter"",""1"",""3477""
","
","","","","","","","","","","","","","","","","","","","","","","","","","","",""
"fullscreen","1","4472","0.0-1.0","battery-v0.2","","""event"",""trial"",""time""
""fullscreenenter"",""1"",""3477""
","
","
","""event"",""trial"",""time""
""fullscreenenter"",""1"",""3477""
","
","true","","","","","","","","","","","","","","","","","","","","","","","","","",""
"pit-instructions","2","8873","0.0-2.0-0.0","battery-v0.2","","""event"",""trial"",""time""
""fullscreenenter"",""1"",""3477""
","
","
","""event"",""trial"",""time""
""fullscreenenter"",""1"",""3477""
","
","","[{""page_index"":0,""viewing_time"":4393.600000023842}]","4394.5","","","","","","","","","","","","","","","","","","","","","","","",""
"pit-comprehension","3","12091","0.0-2.0-1.0-0.0","battery-v0.2","","""event"",""trial"",""time""
""fullscreenenter"",""1"",""3477""
","
","
","""event"",""trial"",""time""
""fullscreenenter"",""1"",""3477""
","
","","","3214.100000023842","[""shark""]","0","22","4533","3100","","","","","","","","","","","","","","","","","","",""
"pit-instructions","4","14151","0.0-2.0-1.0-1.0","battery-v0.2","","""event"",""trial"",""time""
""fullscreenenter"",""1"",""3477""
","
","
","""event"",""trial"",""time""
""fullscreenenter"",""1"",""3477""
","
","","[{""page_index"":0,""viewing_time"":2044.3999999761581}]","2045","","","","","","","","","","","","","","","","","","","","","","","",""
"pit-comprehension","5","17321","0.0-2.0-2.0-0.0","battery-v0.2","","""event"",""trial"",""time""
""fullscreenenter"",""1"",""3477""
","
","
","""event"",""trial"",""time""
""fullscreenenter"",""1"",""3477""
","
","","","3165.5","[""tiger""]","0","22","4533","3100","","","","","","","","","","","","","","","","","","",""
"pit-instructions","6","20527","0.0-2.0-2.0-1.0","battery-v0.2","","""event"",""trial"",""time""
""fullscreenenter"",""1"",""3477""
","
","
","""event"",""trial"",""time""
""fullscreenenter"",""1"",""3477""
","
","","[{""page_index"":0,""viewing_time"":3197.800000011921}]","3198.199999988079","","","","","","","","","","","","","","","","","","","","","","","",""
"pit-instructions","7","118411","0.0-2.0-3.0","battery-v0.2","","""event"",""trial"",""time""
""fullscreenenter"",""1"",""3477""
","
","
","""event"",""trial"",""time""
""fullscreenenter"",""1"",""3477""
","
","","[{""page_index"":0,""viewing_time"":8132},{""page_index"":1,""viewing_time"":5180.899999976158},{""page_index"":2,""viewing_time"":7481},{""page_index"":3,""viewing_time"":6650.100000023842},{""page_index"":4,""viewing_time"":6927},{""page_index"":5,""viewing_time"":5871.199999988079},{""page_index"":6,""viewing_time"":7365.600000023842},{""page_index"":7,""viewing_time"":7166.699999988079},{""page_index"":8,""viewing_time"":6132.100000023842},{""page_index"":9,""viewing_time"":8684.799999952316},{""page_index"":10,""viewing_time"":8077.400000035763},{""page_index"":11,""viewing_time"":7602.899999976158},{""page_index"":12,""viewing_time"":7404.100000023842},{""page_index"":13,""viewing_time"":5202.399999976158}]","97878.89999997616","","","","","","","","","","","","","","","","","","","","","","","",""
"pit-trial","8","121815","0.0-2.0-4.0-0.0","battery-v0.2","","""event"",""trial"",""time""
""fullscreenenter"",""1"",""3477""
","
","
","""event"",""trial"",""time""
""fullscreenenter"",""1"",""3477""
","
","","","534.3000000119209","","","22","4533","3100","&#9784;","elianto","#FFFFF080"," "," ","1","&#10004","[1386.3999999761581]","1","0","0","","","","","","","",""
"pit-trial","9","125197","0.0-2.0-4.1-0.1","battery-v0.2","","""event"",""trial"",""time""
""fullscreenenter"",""1"",""3477""
","
","
","""event"",""trial"",""time""
""fullscreenenter"",""1"",""3477""
","
","","","514.6000000238419","","","22","4533","3100","&#9784;","elianto","#FFFFF080"," "," ","1","&#10004","[1369.0999999642372]","1","0","0","","","","","","","",""
"pit-trial","10","128567","0.0-2.0-4.2-0.2","battery-v0.2","","""event"",""trial"",""time""
""fullscreenenter"",""1"",""3477""
","
","
","""event"",""trial"",""time""
""fullscreenenter"",""1"",""3477""
","
","","","499.30000001192093","","","22","4533","3100","&#9784;","elianto","#FFFFF080"," "," ","1","&#10004","[1357.300000011921]","1","0","0","","","","","","","",""
"pit-trial","11","131959","0.0-2.0-4.3-0.3","battery-v0.2","","""event"",""trial"",""time""
""fullscreenenter"",""1"",""3477""
","
","
","""event"",""trial"",""time""
""fullscreenenter"",""1"",""3477""
","
","","","510.19999998807907","","","22","4533","3100","&#9784;","elianto","#FFFFF080"," "," ","1","&#10004","[1366.5]","1","0","0","","","","","","","",""
"pit-trial","12","135345","0.0-2.0-4.4-0.4","battery-v0.2","","""event"",""trial"",""time""
""fullscreenenter"",""1"",""3477""
","
","
","""event"",""trial"",""time""
""fullscreenenter"",""1"",""3477""
","
","","","512.6999999880791","","","22","4533","3100","&#9784;","elianto","#FFFFF080"," "," ","1","&#10004","[1362.800000011921]","1","0","0","","","","","","","",""
"pit-instructions","13","161385","0.0-2.0-5.0","battery-v0.2","","""event"",""trial"",""time""
""fullscreenenter"",""1"",""3477""
","
","
","""event"",""trial"",""time""
""fullscreenenter"",""1"",""3477""
","
","","[{""page_index"":0,""viewing_time"":7898.699999988079},{""page_index"":1,""viewing_time"":6043.5},{""page_index"":2,""viewing_time"":5775.5},{""page_index"":3,""viewing_time"":6315.699999988079}]","26034.5","","","","","","","","","","","","","","","","","","","","","","","",""
"pit-trial","14","166258","0.0-2.0-6.0-0.0","battery-v0.2","","""event"",""trial"",""time""
""fullscreenenter"",""1"",""3477""
","
","
","""event"",""trial"",""time""
""fullscreenenter"",""1"",""3477""
","
","","","-1","","","22","4533","3100","&#9854;","elianto","#FFFFF080","-1","-1","1","&#10004","[]","0","0","1","","","","","","","",""
"pit-trial","15","171134","0.0-2.0-6.1-0.1","battery-v0.2","","""event"",""trial"",""time""
""fullscreenenter"",""1"",""3477""
","
","
","""event"",""trial"",""time""
""fullscreenenter"",""1"",""3477""
","
","","","-1","","","22","4533","3100","&#9854;","elianto","#FFFFF080","-1","-1","1","&#10004","[]","0","0","1","","","","","","","",""
"pit-trial","16","176022","0.0-2.0-6.2-0.2","battery-v0.2","","""event"",""trial"",""time""
""fullscreenenter"",""1"",""3477""
","
","
","""event"",""trial"",""time""
""fullscreenenter"",""1"",""3477""
","
","","","-1","","","22","4533","3100","&#9854;","elianto","#FFFFF080","-1","-1","1","&#10004","[]","0","0","1","","","","","","","",""
"pit-trial","17","180904","0.0-2.0-6.3-0.3","battery-v0.2","","""event"",""trial"",""time""
""fullscreenenter"",""1"",""3477""
","
","
","""event"",""trial"",""time""
""fullscreenenter"",""1"",""3477""
","
","","","-1","","","22","4533","3100","&#9854;","elianto","#FFFFF080","-1","-1","1","&#10004","[]","0","0","1","","","","","","","",""
"pit-trial","18","185789","0.0-2.0-6.4-0.4","battery-v0.2","","""event"",""trial"",""time""
""fullscreenenter"",""1"",""3477""
","
","
","""event"",""trial"",""time""
""fullscreenenter"",""1"",""3477""
","
","","","-1","","","22","4533","3100","&#9854;","elianto","#FFFFF080","-1","-1","1","&#10004","[]","0","0","1","","","","","","","",""
"pit-instructions","19","313869","0.0-2.0-7.0","battery-v0.2","","""event"",""trial"",""time""
""fullscreenenter"",""1"",""3477""
","
","
","""event"",""trial"",""time""
""fullscreenenter"",""1"",""3477""
","
","","[{""page_index"":0,""viewing_time"":7662.300000011921},{""page_index"":1,""viewing_time"":8176.899999976158},{""page_index"":2,""viewing_time"":7147.899999976158},{""page_index"":3,""viewing_time"":7117.900000035763},{""page_index"":4,""viewing_time"":5519.899999976158},{""page_index"":5,""viewing_time"":6602.100000023842},{""page_index"":6,""viewing_time"":5915.300000011921},{""page_index"":7,""viewing_time"":9040.099999964237},{""page_index"":8,""viewing_time"":7012.900000035763},{""page_index"":9,""viewing_time"":6271.599999964237},{""page_index"":10,""viewing_time"":7307.800000011921},{""page_index"":11,""viewing_time"":5079.300000011921},{""page_index"":12,""viewing_time"":7401.899999976158},{""page_index"":13,""viewing_time"":7891.600000023842},{""page_index"":14,""viewing_time"":7596},{""page_index"":15,""viewing_time"":6910.099999964237},{""page_index"":16,""viewing_time"":7649},{""page_index"":17,""viewing_time"":7771.800000011921}]","128075.19999998808","","","","","","","","","","","","","","","","","","","","","","","",""
"pit-trial","20","317949","0.0-2.0-8.0-0.0","battery-v0.2","","""event"",""trial"",""time""
""fullscreenenter"",""1"",""3477""
","
","
","""event"",""trial"",""time""
""fullscreenenter"",""1"",""3477""
","
","","","1220.2000000476837","","","22","4533","3100","&#9776;","elianto","#3366ff99"," "," ","1","+10","[2071.199999988079]","1","0","1","","","","","","","",""
"pit-trial","21","321438","0.0-2.0-8.0-1.0","battery-v0.2","","""event"",""trial"",""time""
""fullscreenenter"",""1"",""3477""
","
","
","""event"",""trial"",""time""
""fullscreenenter"",""1"",""3477""
","
","","","616.1000000238419","","","22","4533","3100","&#9776;","elianto","#3366ff99"," "," ","1","+10","[1470.6000000238419]","1","0","1","","","","","","","",""
"pit-trial","22","324870","0.0-2.0-8.0-2.0","battery-v0.2","","""event"",""trial"",""time""
""fullscreenenter"",""1"",""3477""
","
","
","""event"",""trial"",""time""
""fullscreenenter"",""1"",""3477""
","
","","","568.3999999761581","","","22","4533","3100","&#9776;","elianto","#3366ff99"," "," ","1","+10","[1420.300000011921]","1","0","1","","","","","","","",""
"pit-trial","23","328271","0.0-2.0-8.0-3.0","battery-v0.2","","""event"",""trial"",""time""
""fullscreenenter"",""1"",""3477""
","
","
","""event"",""trial"",""time""
""fullscreenenter"",""1"",""3477""
","
","","","535.7999999523163","","","22","4533","3100","&#9776;","elianto","#3366ff99"," "," ","1","0","[1387.9000000357628]","1","0","1","","","","","","","",""
"pit-trial","24","331793","0.0-2.0-8.0-4.0","battery-v0.2","","""event"",""trial"",""time""
""fullscreenenter"",""1"",""3477""
","
","
","""event"",""trial"",""time""
""fullscreenenter"",""1"",""3477""
","
","","","646.3999999761581","","","22","4533","3100","&#9776;","elianto","#3366ff99"," "," ","1","+10","[1498.699999988079]","1","0","1","","","","","","","",""
"pit-trial","25","335242","0.0-2.0-8.1-0.1","battery-v0.2","","""event"",""trial"",""time""
""fullscreenenter"",""1"",""3477""
","
","
","""event"",""trial"",""time""
""fullscreenenter"",""1"",""3477""
","
","","","580.6999999880791","","","22","4533","3100","&#9776;","elianto","#3366ff99"," "," ","1","+10","[1435]","1","0","1","","","","","","","",""
"pit-trial","26","339154","0.0-2.0-8.1-1.1","battery-v0.2","","""event"",""trial"",""time""
""fullscreenenter"",""1"",""3477""
","
","
","""event"",""trial"",""time""
""fullscreenenter"",""1"",""3477""
","
","","","1044.5","","","22","4533","3100","&#9776;","elianto","#3366ff99"," "," ","1","+10","[1897.1000000238419]","1","0","1","","","","","","","",""
"pit-trial","27","342622","0.0-2.0-8.1-2.1","battery-v0.2","","""event"",""trial"",""time""
""fullscreenenter"",""1"",""3477""
","
","
","""event"",""trial"",""time""
""fullscreenenter"",""1"",""3477""
","
","","","598.3000000119209","","","22","4533","3100","&#9776;","elianto","#3366ff99"," "," ","1","+10","[1453.6000000238419]","1","0","1","","","","","","","",""
"pit-trial","28","345938","0.0-2.0-8.1-3.1","battery-v0.2","","""event"",""trial"",""time""
""fullscreenenter"",""1"",""3477""
","
","
","""event"",""trial"",""time""
""fullscreenenter"",""1"",""3477""
","
","","","452","","","22","4533","3100","&#9776;","elianto","#3366ff99"," "," ","1","0","[1308.300000011921]","1","0","1","","","","","","","",""
"pit-trial","29","349409","0.0-2.0-8.1-4.1","battery-v0.2","","""event"",""trial"",""time""
""fullscreenenter"",""1"",""3477""
","
","
","""event"",""trial"",""time""
""fullscreenenter"",""1"",""3477""
","
","","","608.6999999880791","","","22","4533","3100","&#9776;","elianto","#3366ff99"," "," ","1","+10","[1460.4000000357628]","1","0","1","","","","","","","",""
"pit-trial","30","352706","0.0-2.0-8.2-0.2","battery-v0.2","","""event"",""trial"",""time""
""fullscreenenter"",""1"",""3477""
","
","
","""event"",""trial"",""time""
""fullscreenenter"",""1"",""3477""
","
","","","434","","","22","4533","3100","&#9776;","elianto","#3366ff99"," "," ","1","+10","[1290.8999999761581]","1","0","1","","","","","","","",""
"pit-trial","31","356058","0.0-2.0-8.2-1.2","battery-v0.2","","""event"",""trial"",""time""
""fullscreenenter"",""1"",""3477""
","
","
","""event"",""trial"",""time""
""fullscreenenter"",""1"",""3477""
","
","","","491","","","22","4533","3100","&#9776;","elianto","#3366ff99"," "," ","1","+10","[1344.800000011921]","1","0","1","","","","","","","",""
"pit-trial","32","359450","0.0-2.0-8.2-2.2","battery-v0.2","","""event"",""trial"",""time""
""fullscreenenter"",""1"",""3477""
","
","
","""event"",""trial"",""time""
""fullscreenenter"",""1"",""3477""
","
","","","529.1999999880791","","","22","4533","3100","&#9776;","elianto","#3366ff99"," "," ","1","+10","[1380.300000011921]","1","0","1","","","","","","","",""
"pit-trial","33","362986","0.0-2.0-8.2-3.2","battery-v0.2","","""event"",""trial"",""time""
""fullscreenenter"",""1"",""3477""
","
","
","""event"",""trial"",""time""
""fullscreenenter"",""1"",""3477""
","
","","","679.2000000476837","","","22","4533","3100","&#9776;","elianto","#3366ff99"," "," ","1","0","[1529.300000011921]","1","0","1","","","","","","","",""
"pit-trial","34","366034","0.0-2.0-8.2-4.2","battery-v0.2","","""event"",""trial"",""time""
""fullscreenenter"",""1"",""3477""
","
","
","""event"",""trial"",""time""
""fullscreenenter"",""1"",""3477""
","
","","","190.80000001192093","","","22","4533","3100","&#9776;","elianto","#3366ff99"," "," ","1","+10","[1041.1000000238419]","1","0","1","","","","","","","",""
"call-function","35","366038","0.0-2.0-9.0","battery-v0.2","","""event"",""trial"",""time""
""fullscreenenter"",""1"",""3477""
","
","
","""event"",""trial"",""time""
""fullscreenenter"",""1"",""3477""
","
","","","","","","","","","","","","","","","","","","","","","","","","","","",""
"pit-instructions","36","407159","0.0-2.0-10.0","battery-v0.2","","""event"",""trial"",""time""
""fullscreenenter"",""1"",""3477""
","
","
","""event"",""trial"",""time""
""fullscreenenter"",""1"",""3477""
","
","","[{""page_index"":0,""viewing_time"":5554.799999952316},{""page_index"":1,""viewing_time"":8539.5},{""page_index"":2,""viewing_time"":9471.900000035763},{""page_index"":3,""viewing_time"":9177.5},{""page_index"":4,""viewing_time"":8374.899999976158}]","41119.09999996424","","","","","","","","","","","","","","","","","","","","","","","",""
"pit-trial","37","410419","0.0-2.0-11.0-0.0","battery-v0.2","","""event"",""trial"",""time""
""fullscreenenter"",""1"",""3477""
","
","
","""event"",""trial"",""time""
""fullscreenenter"",""1"",""3477""
","
","","","397.60000002384186","","","22","4533","3100","&#9761;","elianto","#3366ff99","-1"," ","0","0","[1248.7000000476837]","1","0","2","","","","","","","",""
"pit-trial","38","413659","0.0-2.0-11.0-1.0","battery-v0.2","","""event"",""trial"",""time""
""fullscreenenter"",""1"",""3477""
","
","
","""event"",""trial"",""time""
""fullscreenenter"",""1"",""3477""
","
","","","368.4000000357628","","","22","4533","3100","&#9761;","elianto","#3366ff99","-1"," ","0","0","[1218.699999988079]","1","0","2","","","","","","","",""
"pit-trial","39","418548","0.0-2.0-11.0-2.0","battery-v0.2","","""event"",""trial"",""time""
""fullscreenenter"",""1"",""3477""
","
","
","""event"",""trial"",""time""
""fullscreenenter"",""1"",""3477""
","
","","","-1","","","22","4533","3100","&#9761;","elianto","#3366ff99","-1","-1","1","+10","[]","0","0","2","","","","","","","",""
"pit-trial","40","423423","0.0-2.0-11.0-3.0","battery-v0.2","","""event"",""trial"",""time""
""fullscreenenter"",""1"",""3477""
","
","
","""event"",""trial"",""time""
""fullscreenenter"",""1"",""3477""
","
","","","-1","","","22","4533","3100","&#9761;","elianto","#3366ff99","-1","-1","1","0","[]","0","0","2","","","","","","","",""
"pit-trial","41","428305","0.0-2.0-11.0-4.0","battery-v0.2","","""event"",""trial"",""time""
""fullscreenenter"",""1"",""3477""
","
","
","""event"",""trial"",""time""
""fullscreenenter"",""1"",""3477""
","
","","","-1","","","22","4533","3100","&#9761;","elianto","#3366ff99","-1","-1","1","+10","[]","0","0","2","","","","","","","",""
"pit-trial","42","433163","0.0-2.0-11.1-0.1","battery-v0.2","","""event"",""trial"",""time""
""fullscreenenter"",""1"",""3477""
","
","
","""event"",""trial"",""time""
""fullscreenenter"",""1"",""3477""
","
","","","-1","","","22","4533","3100","&#9761;","elianto","#3366ff99","-1","-1","1","+10","[]","0","0","2","","","","","","","",""
"pit-trial","43","438025","0.0-2.0-11.1-1.1","battery-v0.2","","""event"",""trial"",""time""
""fullscreenenter"",""1"",""3477""
","
","
","""event"",""trial"",""time""
""fullscreenenter"",""1"",""3477""
","
","","","-1","","","22","4533","3100","&#9761;","elianto","#3366ff99","-1","-1","1","+10","[]","0","0","2","","","","","","","",""
"pit-trial","44","442890","0.0-2.0-11.1-2.1","battery-v0.2","","""event"",""trial"",""time""
""fullscreenenter"",""1"",""3477""
","
","
","""event"",""trial"",""time""
""fullscreenenter"",""1"",""3477""
","
","","","-1","","","22","4533","3100","&#9761;","elianto","#3366ff99","-1","-1","1","+10","[]","0","0","2","","","","","","","",""
"pit-trial","45","447755","0.0-2.0-11.1-3.1","battery-v0.2","","""event"",""trial"",""time""
""fullscreenenter"",""1"",""3477""
","
","
","""event"",""trial"",""time""
""fullscreenenter"",""1"",""3477""
","
","","","-1","","","22","4533","3100","&#9761;","elianto","#3366ff99","-1","-1","1","0","[]","0","0","2","","","","","","","",""
"pit-trial","46","452618","0.0-2.0-11.1-4.1","battery-v0.2","","""event"",""trial"",""time""
""fullscreenenter"",""1"",""3477""
","
","
","""event"",""trial"",""time""
""fullscreenenter"",""1"",""3477""
","
","","","-1","","","22","4533","3100","&#9761;","elianto","#3366ff99","-1","-1","1","+10","[]","0","0","2","","","","","","","",""
"pit-trial","47","457498","0.0-2.0-11.2-0.2","battery-v0.2","","""event"",""trial"",""time""
""fullscreenenter"",""1"",""3477""
","
","
","""event"",""trial"",""time""
""fullscreenenter"",""1"",""3477""
","
","","","-1","","","22","4533","3100","&#9761;","elianto","#3366ff99","-1","-1","1","+10","[]","0","0","2","","","","","","","",""
"pit-trial","48","462361","0.0-2.0-11.2-1.2","battery-v0.2","","""event"",""trial"",""time""
""fullscreenenter"",""1"",""3477""
","
","
","""event"",""trial"",""time""
""fullscreenenter"",""1"",""3477""
","
","","","-1","","","22","4533","3100","&#9761;","elianto","#3366ff99","-1","-1","1","+10","[]","0","0","2","","","","","","","",""
"pit-trial","49","467226","0.0-2.0-11.2-2.2","battery-v0.2","","""event"",""trial"",""time""
""fullscreenenter"",""1"",""3477""
","
","
","""event"",""trial"",""time""
""fullscreenenter"",""1"",""3477""
","
","","","-1","","","22","4533","3100","&#9761;","elianto","#3366ff99","-1","-1","1","+10","[]","0","0","2","","","","","","","",""
"pit-trial","50","472091","0.0-2.0-11.2-3.2","battery-v0.2","","""event"",""trial"",""time""
""fullscreenenter"",""1"",""3477""
","
","
","""event"",""trial"",""time""
""fullscreenenter"",""1"",""3477""
","
","","","-1","","","22","4533","3100","&#9761;","elianto","#3366ff99","-1","-1","1","0","[]","0","0","2","","","","","","","",""
"pit-trial","51","476955","0.0-2.0-11.2-4.2","battery-v0.2","","""event"",""trial"",""time""
""fullscreenenter"",""1"",""3477""
","
","
","""event"",""trial"",""time""
""fullscreenenter"",""1"",""3477""
","
","","","-1","","","22","4533","3100","&#9761;","elianto","#3366ff99","-1","-1","1","+10","[]","0","0","2","","","","","","","",""
"pit-trial","52","481826","0.0-2.0-11.3-0.3","battery-v0.2","","""event"",""trial"",""time""
""fullscreenenter"",""1"",""3477""
","
","
","""event"",""trial"",""time""
""fullscreenenter"",""1"",""3477""
","
","","","-1","","","22","4533","3100","&#9761;","elianto","#3366ff99","-1","-1","1","+10","[]","0","0","2","","","","","","","",""
"pit-trial","53","486690","0.0-2.0-11.3-1.3","battery-v0.2","","""event"",""trial"",""time""
""fullscreenenter"",""1"",""3477""
","
","
","""event"",""trial"",""time""
""fullscreenenter"",""1"",""3477""
","
","","","-1","","","22","4533","3100","&#9761;","elianto","#3366ff99","-1","-1","1","+10","[]","0","0","2","","","","","","","",""
"pit-trial","54","491554","0.0-2.0-11.3-2.3","battery-v0.2","","""event"",""trial"",""time""
""fullscreenenter"",""1"",""3477""
","
","
","""event"",""trial"",""time""
""fullscreenenter"",""1"",""3477""
","
","","","-1","","","22","4533","3100","&#9761;","elianto","#3366ff99","-1","-1","1","+10","[]","0","0","2","","","","","","","",""
"pit-trial","55","496418","0.0-2.0-11.3-3.3","battery-v0.2","","""event"",""trial"",""time""
""fullscreenenter"",""1"",""3477""
","
","
","""event"",""trial"",""time""
""fullscreenenter"",""1"",""3477""
","
","","","-1","","","22","4533","3100","&#9761;","elianto","#3366ff99","-1","-1","1","0","[]","0","0","2","","","","","","","",""
"pit-trial","56","501282","0.0-2.0-11.3-4.3","battery-v0.2","","""event"",""trial"",""time""
""fullscreenenter"",""1"",""3477""
","
","
","""event"",""trial"",""time""
""fullscreenenter"",""1"",""3477""
","
","","","-1","","","22","4533","3100","&#9761;","elianto","#3366ff99","-1","-1","1","+10","[]","0","0","2","","","","","","","",""
"call-function","57","501285","0.0-2.0-12.0","battery-v0.2","","""event"",""trial"",""time""
""fullscreenenter"",""1"",""3477""
","
","
","""event"",""trial"",""time""
""fullscreenenter"",""1"",""3477""
","
","","","","","","","","","","","","","","","","","","","","","","","","","","",""
"pit-instructions","58","542308","0.0-2.0-13.0","battery-v0.2","","""event"",""trial"",""time""
""fullscreenenter"",""1"",""3477""
","
","
","""event"",""trial"",""time""
""fullscreenenter"",""1"",""3477""
","
","","[{""page_index"":0,""viewing_time"":5645.100000023842},{""page_index"":1,""viewing_time"":8199.099999964237},{""page_index"":2,""viewing_time"":4813.400000035763},{""page_index"":3,""viewing_time"":12098.899999976158},{""page_index"":4,""viewing_time"":10265.199999988079}]","41022.5","","","","","","","","","","","","","","","","","","","","","","","",""
"pit-trial","59","547102","0.0-2.0-14.0-0.0","battery-v0.2","","""event"",""trial"",""time""
""fullscreenenter"",""1"",""3477""
","
","
","""event"",""trial"",""time""
""fullscreenenter"",""1"",""3477""
","
","","","1924.6000000238419","","","22","4533","3100","&#9826;","elianto","#f73b6a7A","-1"," ","0","-10","[2776.199999988079]","1","0","3","","","","","","","",""
"pit-trial","60","551979","0.0-2.0-14.0-1.0","battery-v0.2","","""event"",""trial"",""time""
""fullscreenenter"",""1"",""3477""
","
","
","""event"",""trial"",""time""
""fullscreenenter"",""1"",""3477""
","
","","","-1","","","22","4533","3100","&#9826;","elianto","#f73b6a7A","-1","-1","1","0","[]","0","0","3","","","","","","","",""
"pit-trial","61","556852","0.0-2.0-14.0-2.0","battery-v0.2","","""event"",""trial"",""time""
""fullscreenenter"",""1"",""3477""
","
","
","""event"",""trial"",""time""
""fullscreenenter"",""1"",""3477""
","
","","","-1","","","22","4533","3100","&#9826;","elianto","#f73b6a7A","-1","-1","1","0","[]","0","0","3","","","","","","","",""
"pit-trial","62","561723","0.0-2.0-14.0-3.0","battery-v0.2","","""event"",""trial"",""time""
""fullscreenenter"",""1"",""3477""
","
","
","""event"",""trial"",""time""
""fullscreenenter"",""1"",""3477""
","
","","","-1","","","22","4533","3100","&#9826;","elianto","#f73b6a7A","-1","-1","1","-10","[]","0","0","3","","","","","","","",""
"pit-trial","63","566603","0.0-2.0-14.0-4.0","battery-v0.2","","""event"",""trial"",""time""
""fullscreenenter"",""1"",""3477""
","
","
","""event"",""trial"",""time""
""fullscreenenter"",""1"",""3477""
","
","","","-1","","","22","4533","3100","&#9826;","elianto","#f73b6a7A","-1","-1","1","0","[]","0","0","3","","","","","","","",""
"pit-trial","64","571475","0.0-2.0-14.1-0.1","battery-v0.2","","""event"",""trial"",""time""
""fullscreenenter"",""1"",""3477""
","
","
","""event"",""trial"",""time""
""fullscreenenter"",""1"",""3477""
","
","","","-1","","","22","4533","3100","&#9826;","elianto","#f73b6a7A","-1","-1","1","0","[]","0","0","3","","","","","","","",""
"pit-trial","65","576339","0.0-2.0-14.1-1.1","battery-v0.2","","""event"",""trial"",""time""
""fullscreenenter"",""1"",""3477""
","
","
","""event"",""trial"",""time""
""fullscreenenter"",""1"",""3477""
","
","","","-1","","","22","4533","3100","&#9826;","elianto","#f73b6a7A","-1","-1","1","0","[]","0","0","3","","","","","","","",""
"pit-trial","66","581203","0.0-2.0-14.1-2.1","battery-v0.2","","""event"",""trial"",""time""
""fullscreenenter"",""1"",""3477""
","
","
","""event"",""trial"",""time""
""fullscreenenter"",""1"",""3477""
","
","","","-1","","","22","4533","3100","&#9826;","elianto","#f73b6a7A","-1","-1","1","0","[]","0","0","3","","","","","","","",""
"pit-trial","67","586075","0.0-2.0-14.1-3.1","battery-v0.2","","""event"",""trial"",""time""
""fullscreenenter"",""1"",""3477""
","
","
","""event"",""trial"",""time""
""fullscreenenter"",""1"",""3477""
","
","","","-1","","","22","4533","3100","&#9826;","elianto","#f73b6a7A","-1","-1","1","-10","[]","0","0","3","","","","","","","",""
"pit-trial","68","590947","0.0-2.0-14.1-4.1","battery-v0.2","","""event"",""trial"",""time""
""fullscreenenter"",""1"",""3477""
","
","
","""event"",""trial"",""time""
""fullscreenenter"",""1"",""3477""
","
","","","-1","","","22","4533","3100","&#9826;","elianto","#f73b6a7A","-1","-1","1","0","[]","0","0","3","","","","","","","",""
"pit-trial","69","595819","0.0-2.0-14.2-0.2","battery-v0.2","","""event"",""trial"",""time""
""fullscreenenter"",""1"",""3477""
","
","
","""event"",""trial"",""time""
""fullscreenenter"",""1"",""3477""
","
","","","-1","","","22","4533","3100","&#9826;","elianto","#f73b6a7A","-1","-1","1","0","[]","0","0","3","","","","","","","",""
"pit-trial","70","600682","0.0-2.0-14.2-1.2","battery-v0.2","","""event"",""trial"",""time""
""fullscreenenter"",""1"",""3477""
","
","
","""event"",""trial"",""time""
""fullscreenenter"",""1"",""3477""
","
","","","-1","","","22","4533","3100","&#9826;","elianto","#f73b6a7A","-1","-1","1","0","[]","0","0","3","","","","","","","",""
"pit-trial","71","605547","0.0-2.0-14.2-2.2","battery-v0.2","","""event"",""trial"",""time""
""fullscreenenter"",""1"",""3477""
","
","
","""event"",""trial"",""time""
""fullscreenenter"",""1"",""3477""
","
","","","-1","","","22","4533","3100","&#9826;","elianto","#f73b6a7A","-1","-1","1","0","[]","0","0","3","","","","","","","",""
"pit-trial","72","610410","0.0-2.0-14.2-3.2","battery-v0.2","","""event"",""trial"",""time""
""fullscreenenter"",""1"",""3477""
","
","
","""event"",""trial"",""time""
""fullscreenenter"",""1"",""3477""
","
","","","-1","","","22","4533","3100","&#9826;","elianto","#f73b6a7A","-1","-1","1","-10","[]","0","0","3","","","","","","","",""
"pit-trial","73","615275","0.0-2.0-14.2-4.2","battery-v0.2","","""event"",""trial"",""time""
""fullscreenenter"",""1"",""3477""
","
","
","""event"",""trial"",""time""
""fullscreenenter"",""1"",""3477""
","
","","","-1","","","22","4533","3100","&#9826;","elianto","#f73b6a7A","-1","-1","1","0","[]","0","0","3","","","","","","","",""
"pit-trial","74","620139","0.0-2.0-14.3-0.3","battery-v0.2","","""event"",""trial"",""time""
""fullscreenenter"",""1"",""3477""
","
","
","""event"",""trial"",""time""
""fullscreenenter"",""1"",""3477""
","
","","","-1","","","22","4533","3100","&#9826;","elianto","#f73b6a7A","-1","-1","1","0","[]","0","0","3","","","","","","","",""
"pit-trial","75","625018","0.0-2.0-14.3-1.3","battery-v0.2","","""event"",""trial"",""time""
""fullscreenenter"",""1"",""3477""
","
","
","""event"",""trial"",""time""
""fullscreenenter"",""1"",""3477""
","
","","","-1","","","22","4533","3100","&#9826;","elianto","#f73b6a7A","-1","-1","1","0","[]","0","0","3","","","","","","","",""
"pit-trial","76","629881","0.0-2.0-14.3-2.3","battery-v0.2","","""event"",""trial"",""time""
""fullscreenenter"",""1"",""3477""
","
","
","""event"",""trial"",""time""
""fullscreenenter"",""1"",""3477""
","
","","","-1","","","22","4533","3100","&#9826;","elianto","#f73b6a7A","-1","-1","1","0","[]","0","0","3","","","","","","","",""
"pit-trial","77","634747","0.0-2.0-14.3-3.3","battery-v0.2","","""event"",""trial"",""time""
""fullscreenenter"",""1"",""3477""
","
","
","""event"",""trial"",""time""
""fullscreenenter"",""1"",""3477""
","
","","","-1","","","22","4533","3100","&#9826;","elianto","#f73b6a7A","-1","-1","1","-10","[]","0","0","3","","","","","","","",""
"pit-trial","78","639610","0.0-2.0-14.3-4.3","battery-v0.2","","""event"",""trial"",""time""
""fullscreenenter"",""1"",""3477""
","
","
","""event"",""trial"",""time""
""fullscreenenter"",""1"",""3477""
","
","","","-1","","","22","4533","3100","&#9826;","elianto","#f73b6a7A","-1","-1","1","0","[]","0","0","3","","","","","","","",""
"call-function","79","639614","0.0-2.0-15.0","battery-v0.2","","""event"",""trial"",""time""
""fullscreenenter"",""1"",""3477""
","
","
","""event"",""trial"",""time""
""fullscreenenter"",""1"",""3477""
","
","","","","","","","","","","","","","","","","","","","","","","","","","","",""
"pit-instructions","80","671279","0.0-2.0-16.0","battery-v0.2","","""event"",""trial"",""time""
""fullscreenenter"",""1"",""3477""
","
","
","""event"",""trial"",""time""
""fullscreenenter"",""1"",""3477""
","
","","[{""page_index"":0,""viewing_time"":8733.200000047684},{""page_index"":1,""viewing_time"":11011.399999976158},{""page_index"":2,""viewing_time"":4886.600000023842},{""page_index"":3,""viewing_time"":7030.799999952316}]","31664","","","","","","","","","","","","","","","","","","","","","","","",""
"pit-trial","81","676147","0.0-2.0-17.0-0.0","battery-v0.2","","""event"",""trial"",""time""
""fullscreenenter"",""1"",""3477""
","
","
","""event"",""trial"",""time""
""fullscreenenter"",""1"",""3477""
","
","","","-1","","","22","4533","3100","&#9789;","elianto","#f73b6a7A"," ","-1","0","-10","[]","0","0","4","","","","","","","",""
"pit-trial","82","679387","0.0-2.0-17.0-1.0","battery-v0.2","","""event"",""trial"",""time""
""fullscreenenter"",""1"",""3477""
","
","
","""event"",""trial"",""time""
""fullscreenenter"",""1"",""3477""
","
","","","370.39999997615814","","","22","4533","3100","&#9789;","elianto","#f73b6a7A"," "," ","1","0","[1221.1000000238419]","1","0","4","","","","","","","",""
"pit-trial","83","682670","0.0-2.0-17.0-2.0","battery-v0.2","","""event"",""trial"",""time""
""fullscreenenter"",""1"",""3477""
","
","
","""event"",""trial"",""time""
""fullscreenenter"",""1"",""3477""
","
","","","404.4000000357628","","","22","4533","3100","&#9789;","elianto","#f73b6a7A"," "," ","1","0","[1260.3999999761581]","1","0","4","","","","","","","",""
"pit-trial","84","685913","0.0-2.0-17.0-3.0","battery-v0.2","","""event"",""trial"",""time""
""fullscreenenter"",""1"",""3477""
","
","
","""event"",""trial"",""time""
""fullscreenenter"",""1"",""3477""
","
","","","372.69999998807907","","","22","4533","3100","&#9789;","elianto","#f73b6a7A"," "," ","1","-10","[1228.699999988079]","1","0","4","","","","","","","",""
"pit-trial","85","689182","0.0-2.0-17.0-4.0","battery-v0.2","","""event"",""trial"",""time""
""fullscreenenter"",""1"",""3477""
","
","
","""event"",""trial"",""time""
""fullscreenenter"",""1"",""3477""
","
","","","403.69999998807907","","","22","4533","3100","&#9789;","elianto","#f73b6a7A"," "," ","1","0","[1253.800000011921]","1","0","4","","","","","","","",""
"pit-trial","86","692459","0.0-2.0-17.1-0.1","battery-v0.2","","""event"",""trial"",""time""
""fullscreenenter"",""1"",""3477""
","
","
","""event"",""trial"",""time""
""fullscreenenter"",""1"",""3477""
","
","","","399.5999999642372","","","22","4533","3100","&#9789;","elianto","#f73b6a7A"," "," ","1","0","[1253.199999988079]","1","0","4","","","","","","","",""
"pit-trial","87","695749","0.0-2.0-17.1-1.1","battery-v0.2","","""event"",""trial"",""time""
""fullscreenenter"",""1"",""3477""
","
","
","""event"",""trial"",""time""
""fullscreenenter"",""1"",""3477""
","
","","","414.89999997615814","","","22","4533","3100","&#9789;","elianto","#f73b6a7A"," "," ","1","0","[1269.199999988079]","1","0","4","","","","","","","",""
"pit-trial","88","699023","0.0-2.0-17.1-2.1","battery-v0.2","","""event"",""trial"",""time""
""fullscreenenter"",""1"",""3477""
","
","
","""event"",""trial"",""time""
""fullscreenenter"",""1"",""3477""
","
","","","397.2000000476837","","","22","4533","3100","&#9789;","elianto","#f73b6a7A"," "," ","1","0","[1251.2000000476837]","1","0","4","","","","","","","",""
"pit-trial","89","702313","0.0-2.0-17.1-3.1","battery-v0.2","","""event"",""trial"",""time""
""fullscreenenter"",""1"",""3477""
","
","
","""event"",""trial"",""time""
""fullscreenenter"",""1"",""3477""
","
","","","429.9000000357628","","","22","4533","3100","&#9789;","elianto","#f73b6a7A"," "," ","1","-10","[1284.199999988079]","1","0","4","","","","","","","",""
"pit-trial","90","705577","0.0-2.0-17.1-4.1","battery-v0.2","","""event"",""trial"",""time""
""fullscreenenter"",""1"",""3477""
","
","
","""event"",""trial"",""time""
""fullscreenenter"",""1"",""3477""
","
","","","401.7999999523163","","","22","4533","3100","&#9789;","elianto","#f73b6a7A"," "," ","1","0","[1255.7999999523163]","1","0","4","","","","","","","",""
"pit-trial","91","708915","0.0-2.0-17.2-0.2","battery-v0.2","","""event"",""trial"",""time""
""fullscreenenter"",""1"",""3477""
","
","
","""event"",""trial"",""time""
""fullscreenenter"",""1"",""3477""
","
","","","478.69999998807907","","","22","4533","3100","&#9789;","elianto","#f73b6a7A"," "," ","1","0","[1332.199999988079]","1","0","4","","","","","","","",""
"pit-trial","92","712267","0.0-2.0-17.2-1.2","battery-v0.2","","""event"",""trial"",""time""
""fullscreenenter"",""1"",""3477""
","
","
","""event"",""trial"",""time""
""fullscreenenter"",""1"",""3477""
","
","","","492","","","22","4533","3100","&#9789;","elianto","#f73b6a7A"," "," ","1","0","[1343.800000011921]","1","0","4","","","","","","","",""
"pit-trial","93","715619","0.0-2.0-17.2-2.2","battery-v0.2","","""event"",""trial"",""time""
""fullscreenenter"",""1"",""3477""
","
","
","""event"",""trial"",""time""
""fullscreenenter"",""1"",""3477""
","
","","","488.39999997615814","","","22","4533","3100","&#9789;","elianto","#f73b6a7A"," "," ","1","0","[1340.300000011921]","1","0","4","","","","","","","",""
"pit-trial","94","718755","0.0-2.0-17.2-3.2","battery-v0.2","","""event"",""trial"",""time""
""fullscreenenter"",""1"",""3477""
","
","
","""event"",""trial"",""time""
""fullscreenenter"",""1"",""3477""
","
","","","278.39999997615814","","","22","4533","3100","&#9789;","elianto","#f73b6a7A"," "," ","1","-10","[1128.9000000357628]","1","0","4","","","","","","","",""
"pit-trial","95","721987","0.0-2.0-17.2-4.2","battery-v0.2","","""event"",""trial"",""time""
""fullscreenenter"",""1"",""3477""
","
","
","""event"",""trial"",""time""
""fullscreenenter"",""1"",""3477""
","
","","","369.19999998807907","","","22","4533","3100","&#9789;","elianto","#f73b6a7A"," "," ","1","0","[1221.300000011921]","1","0","4","","","","","","","",""
"pit-trial","96","725330","0.0-2.0-17.3-0.3","battery-v0.2","","""event"",""trial"",""time""
""fullscreenenter"",""1"",""3477""
","
","
","""event"",""trial"",""time""
""fullscreenenter"",""1"",""3477""
","
","","","477.69999998807907","","","22","4533","3100","&#9789;","elianto","#f73b6a7A"," "," ","1","0","[1329.2000000476837]","1","0","4","","","","","","","",""
"pit-trial","97","728659","0.0-2.0-17.3-1.3","battery-v0.2","","""event"",""trial"",""time""
""fullscreenenter"",""1"",""3477""
","
","
","""event"",""trial"",""time""
""fullscreenenter"",""1"",""3477""
","
","","","464.39999997615814","","","22","4533","3100","&#9789;","elianto","#f73b6a7A"," "," ","1","0","[1316.800000011921]","1","0","4","","","","","","","",""
"pit-trial","98","731979","0.0-2.0-17.3-2.3","battery-v0.2","","""event"",""trial"",""time""
""fullscreenenter"",""1"",""3477""
","
","
","""event"",""trial"",""time""
""fullscreenenter"",""1"",""3477""
","
","","","456.80000001192093","","","22","4533","3100","&#9789;","elianto","#f73b6a7A"," "," ","1","0","[1307.7000000476837]","1","0","4","","","","","","","",""
"pit-trial","99","735203","0.0-2.0-17.3-3.3","battery-v0.2","","""event"",""trial"",""time""
""fullscreenenter"",""1"",""3477""
","
","
","""event"",""trial"",""time""
""fullscreenenter"",""1"",""3477""
","
","","","364.80000001192093","","","22","4533","3100","&#9789;","elianto","#f73b6a7A"," "," ","1","-10","[1217.4000000357628]","1","0","4","","","","","","","",""
"pit-trial","100","738322","0.0-2.0-17.3-4.3","battery-v0.2","","""event"",""trial"",""time""
""fullscreenenter"",""1"",""3477""
","
","
","""event"",""trial"",""time""
""fullscreenenter"",""1"",""3477""
","
","","","260.5","","","22","4533","3100","&#9789;","elianto","#f73b6a7A"," "," ","1","0","[1113.6000000238419]","1","0","4","","","","","","","",""
"call-function","101","738326","0.0-2.0-18.0","battery-v0.2","","""event"",""trial"",""time""
""fullscreenenter"",""1"",""3477""
","
","
","""event"",""trial"",""time""
""fullscreenenter"",""1"",""3477""
","
","","","","","","","","","","","","","","","","","","","","","","","","","","",""
"pit-instructions","102","821693","0.0-2.0-19.0","battery-v0.2","","""event"",""trial"",""time""
""fullscreenenter"",""1"",""3477""
","
","
","""event"",""trial"",""time""
""fullscreenenter"",""1"",""3477""
","
","","[{""page_index"":0,""viewing_time"":6645.400000035763},{""page_index"":1,""viewing_time"":6418.899999976158},{""page_index"":2,""viewing_time"":15948.199999988079},{""page_index"":3,""viewing_time"":9324},{""page_index"":4,""viewing_time"":13536.400000035763},{""page_index"":5,""viewing_time"":8034.799999952316},{""page_index"":6,""viewing_time"":11747.300000011921},{""page_index"":7,""viewing_time"":6622.900000035763},{""page_index"":8,""viewing_time"":5087.199999988079}]","83366.10000002384","","","","","","","","","","","","","","","","","","","","","","","",""
"pit-comprehension","103","826314","0.0-2.0-20.0-0.0","battery-v0.2","","""event"",""trial"",""time""
""fullscreenenter"",""1"",""3477""
","
","
","""event"",""trial"",""time""
""fullscreenenter"",""1"",""3477""
","
","","","4613.700000047684","[""SPACE""]","0","22","4533","3100","","","","","","","","","","","","","","","","","","",""
"pit-instructions","104","828888","0.0-2.0-20.0-1.0","battery-v0.2","","""event"",""trial"",""time""
""fullscreenenter"",""1"",""3477""
","
","
","""event"",""trial"",""time""
""fullscreenenter"",""1"",""3477""
","
","","[{""page_index"":0,""viewing_time"":2513.699999988079}]","2514.100000023842","","","","","","","","","","","","","","","","","","","","","","","",""
"pit-comprehension","105","835444","0.0-2.0-21.0-0.0","battery-v0.2","","""event"",""trial"",""time""
""fullscreenenter"",""1"",""3477""
","
","
","""event"",""trial"",""time""
""fullscreenenter"",""1"",""3477""
","
","","","6551.700000047684","[""10""]","0","22","4533","3100","","","","","","","","","","","","","","","","","","",""
"pit-instructions","106","840001","0.0-2.0-21.0-1.0","battery-v0.2","","""event"",""trial"",""time""
""fullscreenenter"",""1"",""3477""
","
","
","""event"",""trial"",""time""
""fullscreenenter"",""1"",""3477""
","
","","[{""page_index"":0,""viewing_time"":4507}]","4508.100000023842","","","","","","","","","","","","","","","","","","","","","","","",""
"pit-comprehension","107","846770","0.0-2.0-22.0-0.0","battery-v0.2","","""event"",""trial"",""time""
""fullscreenenter"",""1"",""3477""
","
","
","""event"",""trial"",""time""
""fullscreenenter"",""1"",""3477""
","
","","","6760","[""0""]","0","22","4533","3100","","","","","","","","","","","","","","","","","","",""
"pit-instructions","108","849189","0.0-2.0-22.0-1.0","battery-v0.2","","""event"",""trial"",""time""
""fullscreenenter"",""1"",""3477""
","
","
","""event"",""trial"",""time""
""fullscreenenter"",""1"",""3477""
","
","","[{""page_index"":0,""viewing_time"":2364.099999964237}]","2364.399999976158","","","","","","","","","","","","","","","","","","","","","","","",""
"pit-comprehension","109","857830","0.0-2.0-23.0-0.0","battery-v0.2","","""event"",""trial"",""time""
""fullscreenenter"",""1"",""3477""
","
","
","""event"",""trial"",""time""
""fullscreenenter"",""1"",""3477""
","
","","","8637","[""True""]","0","22","4533","3100","","","","","","","","","","","","","","","","","","",""
"pit-instructions","110","859448","0.0-2.0-23.0-1.0","battery-v0.2","","""event"",""trial"",""time""
""fullscreenenter"",""1"",""3477""
","
","
","""event"",""trial"",""time""
""fullscreenenter"",""1"",""3477""
","
","","[{""page_index"":0,""viewing_time"":1551.7000000476837}]","1552.7000000476837","","","","","","","","","","","","","","","","","","","","","","","",""
"pit-comprehension","111","867098","0.0-2.0-24.0-0.0","battery-v0.2","","""event"",""trial"",""time""
""fullscreenenter"",""1"",""3477""
","
","
","""event"",""trial"",""time""
""fullscreenenter"",""1"",""3477""
","
","","","7644.599999964237","[""True""]","0","22","4533","3100","","","","","","","","","","","","","","","","","","",""
"pit-instructions","112","869253","0.0-2.0-24.0-1.0","battery-v0.2","","""event"",""trial"",""time""
""fullscreenenter"",""1"",""3477""
","
","
","""event"",""trial"",""time""
""fullscreenenter"",""1"",""3477""
","
","","[{""page_index"":0,""viewing_time"":2102.5}]","2102.800000011921","","","","","","","","","","","","","","","","","","","","","","","",""
"pit-comprehension","113","875640","0.0-2.0-25.0-0.0","battery-v0.2","","""event"",""trial"",""time""
""fullscreenenter"",""1"",""3477""
","
","
","""event"",""trial"",""time""
""fullscreenenter"",""1"",""3477""
","
","","","6384.400000035763","[""True""]","0","22","4533","3100","","","","","","","","","","","","","","","","","","",""
"pit-instructions","114","877251","0.0-2.0-25.0-1.0","battery-v0.2","","""event"",""trial"",""time""
""fullscreenenter"",""1"",""3477""
","
","
","""event"",""trial"",""time""
""fullscreenenter"",""1"",""3477""
","
","","[{""page_index"":0,""viewing_time"":1561.1000000238419}]","1561.7000000476837","","","","","","","","","","","","","","","","","","","","","","","",""
"pit-comprehension","115","882292","0.0-2.0-26.0-0.0","battery-v0.2","","""event"",""trial"",""time""
""fullscreenenter"",""1"",""3477""
","
","
","""event"",""trial"",""time""
""fullscreenenter"",""1"",""3477""
","
","","","5035.900000035763","[""False""]","0","22","4533","3100","","","","","","","","","","","","","","","","","","",""
"pit-instructions","116","884227","0.0-2.0-26.0-1.0","battery-v0.2","","""event"",""trial"",""time""
""fullscreenenter"",""1"",""3477""
","
","
","""event"",""trial"",""time""
""fullscreenenter"",""1"",""3477""
","
","","[{""page_index"":0,""viewing_time"":1874.8999999761581}]","1875.6000000238419","","","","","","","","","","","","","","","","","","","","","","","",""
"pit-instructions","117","902069","0.0-3.0","battery-v0.2","","""event"",""trial"",""time""
""fullscreenenter"",""1"",""3477""
","
","
","""event"",""trial"",""time""
""fullscreenenter"",""1"",""3477""
","
","","[{""page_index"":0,""viewing_time"":5035.599999964237},{""page_index"":1,""viewing_time"":5106.400000035763},{""page_index"":2,""viewing_time"":7696.300000011921}]","17838.599999964237","","","","","","","","","","","","","","","","","","","","","","","",""
"pit-trial","118","905566","0.0-4.0","battery-v0.2","","""event"",""trial"",""time""
""fullscreenenter"",""1"",""3477""
","
","
","""event"",""trial"",""time""
""fullscreenenter"",""1"",""3477""
","
","","","626.4000000357628","","","22","4533","3100","&#9728;","elianto","#f73b6a7A","-1"," ","0","-10","[1482.300000011921]","1","1","","","4533","1","0","4","lose","no-go","0"
"pit-trial","119","909805","0.0-5.0","battery-v0.2","","""event"",""trial"",""time""
""fullscreenenter"",""1"",""3477""
","
","
","""event"",""trial"",""time""
""fullscreenenter"",""1"",""3477""
","
","","","1363.800000011921","","","22","4533","3100","&#9752;","elianto","#f73b6a7A"," "," ","1","0","[2217.699999988079]","1","1","","","4533","2","3","3","lose","go","0"
"pit-trial","120","913883","0.0-6.0","battery-v0.2","","""event"",""trial"",""time""
""fullscreenenter"",""1"",""3477""
","
","
","""event"",""trial"",""time""
""fullscreenenter"",""1"",""3477""
","
","","","1200","","","22","4533","3100","&#9733;","elianto","#3366ff99","-1"," ","0","0","[2056.7999999523163]","1","1","","","4533","3","2","2","win","no-go","0"
"pit-trial","121","917977","0.0-7.0","battery-v0.2","","""event"",""trial"",""time""
""fullscreenenter"",""1"",""3477""
","
","
","""event"",""trial"",""time""
""fullscreenenter"",""1"",""3477""
","
","","","1228.3999999761581","","","22","4533","3100","&#9730;","elianto","#3366ff99"," "," ","1","0","[2079.699999988079]","1","1","","","4533","4","1","1","win","go","1"
"pit-trial","122","922854","0.0-8.0","battery-v0.2","","""event"",""trial"",""time""
""fullscreenenter"",""1"",""3477""
","
","
","""event"",""trial"",""time""
""fullscreenenter"",""1"",""3477""
","
","","","-1","","","22","4533","3100","&#9733;","elianto","#3366ff99","-1","-1","1","+10","[]","0","1","","","4533","5","2","2","win","no-go","0"
"pit-trial","123","927737","0.0-9.0","battery-v0.2","","""event"",""trial"",""time""
""fullscreenenter"",""1"",""3477""
","
","
","""event"",""trial"",""time""
""fullscreenenter"",""1"",""3477""
","
","","","-1","","","22","4533","3100","&#9730;","elianto","#3366ff99"," ","-1","0","+10","[]","0","1","","","4533","6","1","1","win","go","1"
"pit-trial","124","932601","0.0-10.0","battery-v0.2","","""event"",""trial"",""time""
""fullscreenenter"",""1"",""3477""
","
","
","""event"",""trial"",""time""
""fullscreenenter"",""1"",""3477""
","
","","","-1","","","22","4533","3100","&#9728;","elianto","#f73b6a7A","-1","-1","1","0","[]","0","1","","","4533","7","0","4","lose","no-go","0"
"pit-trial","125","937466","0.0-11.0","battery-v0.2","","""event"",""trial"",""time""
""fullscreenenter"",""1"",""3477""
","
","
","""event"",""trial"",""time""
""fullscreenenter"",""1"",""3477""
","
","","","-1","","","22","4533","3100","&#9752;","elianto","#f73b6a7A"," ","-1","0","-10","[]","0","1","","","4533","8","3","3","lose","go","0"
"pit-trial","126","942330","0.0-12.0","battery-v0.2","","""event"",""trial"",""time""
""fullscreenenter"",""1"",""3477""
","
","
","""event"",""trial"",""time""
""fullscreenenter"",""1"",""3477""
","
","","","-1","","","22","4533","3100","&#9733;","elianto","#3366ff99","-1","-1","1","+10","[]","0","1","","","4533","9","2","2","win","no-go","0"
"pit-trial","127","947194","0.0-13.0","battery-v0.2","","""event"",""trial"",""time""
""fullscreenenter"",""1"",""3477""
","
","
","""event"",""trial"",""time""
""fullscreenenter"",""1"",""3477""
","
","","","-1","","","22","4533","3100","&#9728;","elianto","#f73b6a7A","-1","-1","1","0","[]","0","1","","","4533","10","0","4","lose","no-go","0"
"pit-trial","128","952059","0.0-14.0","battery-v0.2","","""event"",""trial"",""time""
""fullscreenenter"",""1"",""3477""
","
","
","""event"",""trial"",""time""
""fullscreenenter"",""1"",""3477""
","
","","","-1","","","22","4533","3100","&#9730;","elianto","#3366ff99"," ","-1","0","+10","[]","0","1","","","4533","11","1","1","win","go","1"
"pit-trial","129","956927","0.0-15.0","battery-v0.2","","""event"",""trial"",""time""
""fullscreenenter"",""1"",""3477""
","
","
","""event"",""trial"",""time""
""fullscreenenter"",""1"",""3477""
","
","","","-1","","","22","4533","3100","&#9752;","elianto","#f73b6a7A"," ","-1","0","0","[]","0","1","","","4533","12","3","3","lose","go","1"
"pit-trial","130","961795","0.0-16.0","battery-v0.2","","""event"",""trial"",""time""
""fullscreenenter"",""1"",""3477""
","
","
","""event"",""trial"",""time""
""fullscreenenter"",""1"",""3477""
","
","","","-1","","","22","4533","3100","&#9730;","elianto","#3366ff99"," ","-1","0","0","[]","0","1","","","4533","13","1","1","win","go","0"
"pit-trial","131","966114","0.0-17.0","battery-v0.2","","""event"",""trial"",""time""
""fullscreenenter"",""1"",""3477""
","
","
","""event"",""trial"",""time""
""fullscreenenter"",""1"",""3477""
","
","","","1457.699999988079","","","22","4533","3100","&#9733;","elianto","#3366ff99","-1"," ","0","0","[2308.699999988079]","1","1","","","4533","14","2","2","win","no-go","0"
"pit-trial","132","970979","0.0-18.0","battery-v0.2","","""event"",""trial"",""time""
""fullscreenenter"",""1"",""3477""
","
","
","""event"",""trial"",""time""
""fullscreenenter"",""1"",""3477""
","
","","","-1","","","22","4533","3100","&#9752;","elianto","#f73b6a7A"," ","-1","0","-10","[]","0","1","","","4533","15","3","3","lose","go","0"
"pit-trial","133","975844","0.0-19.0","battery-v0.2","","""event"",""trial"",""time""
""fullscreenenter"",""1"",""3477""
","
","
","""event"",""trial"",""time""
""fullscreenenter"",""1"",""3477""
","
","","","-1","","","22","4533","3100","&#9728;","elianto","#f73b6a7A","-1","-1","1","0","[]","0","1","","","4533","16","0","4","lose","no-go","0"
"pit-trial","134","980738","0.0-20.0","battery-v0.2","","""event"",""trial"",""time""
""fullscreenenter"",""1"",""3477""
","
","
","""event"",""trial"",""time""
""fullscreenenter"",""1"",""3477""
","
","","","-1","","","22","4533","3100","&#9728;","elianto","#f73b6a7A","-1","-1","1","0","[]","0","1","","","4533","17","0","4","lose","no-go","0"
"pit-trial","135","985603","0.0-21.0","battery-v0.2","","""event"",""trial"",""time""
""fullscreenenter"",""1"",""3477""
","
","
","""event"",""trial"",""time""
""fullscreenenter"",""1"",""3477""
","
","","","-1","","","22","4533","3100","&#9752;","elianto","#f73b6a7A"," ","-1","0","-10","[]","0","1","","","4533","18","3","3","lose","go","0"
"pit-trial","136","990476","0.0-22.0","battery-v0.2","","""event"",""trial"",""time""
""fullscreenenter"",""1"",""3477""
","
","
","""event"",""trial"",""time""
""fullscreenenter"",""1"",""3477""
","
","","","-1","","","22","4533","3100","&#9730;","elianto","#3366ff99"," ","-1","0","0","[]","0","1","","","4533","19","1","1","win","go","0"
"pit-trial","137","994689","0.0-23.0","battery-v0.2","","""event"",""trial"",""time""
""fullscreenenter"",""1"",""3477""
","
","
","""event"",""trial"",""time""
""fullscreenenter"",""1"",""3477""
","
","","","1349.3999999761581","","","22","4533","3100","&#9733;","elianto","#3366ff99","-1"," ","0","0","[2208.099999964237]","1","1","","","4533","20","2","2","win","no-go","0"
"pit-instructions","138","1008332","0.0-24.0","battery-v0.2","","""event"",""trial"",""time""
""fullscreenenter"",""1"",""3477""
","
","
","""event"",""trial"",""time""
""fullscreenenter"",""1"",""3477""
","
","","[{""page_index"":0,""viewing_time"":5861.699999988079},{""page_index"":1,""viewing_time"":7779.099999964237}]","13641.299999952316","","","","","","","","","","","","","","","","","","","","","","","",""
"pit-trial","139","1012119","0.0-25.0","battery-v0.2","","""event"",""trial"",""time""
""fullscreenenter"",""1"",""3477""
","
","
","""event"",""trial"",""time""
""fullscreenenter"",""1"",""3477""
","
","","","912.6999999880791","","","22","4533","3100","w","elianto","#f73b6a7A"," "," ","1","-10","[1770]","1","2","","","4533","21","3","3","lose","go","1"
"pit-trial","140","1016008","0.0-26.0","battery-v0.2","","""event"",""trial"",""time""
""fullscreenenter"",""1"",""3477""
","
","
","""event"",""trial"",""time""
""fullscreenenter"",""1"",""3477""
","
","","","1017.5","","","22","4533","3100","j","elianto","#f73b6a7A","-1"," ","0","-10","[1873.0999999642372]","1","2","","","4533","22","0","4","lose","no-go","0"
"pit-trial","141","1020039","0.0-27.0","battery-v0.2","","""event"",""trial"",""time""
""fullscreenenter"",""1"",""3477""
","
","
","""event"",""trial"",""time""
""fullscreenenter"",""1"",""3477""
","
","","","1160.5","","","22","4533","3100","e","elianto","#f73b6a7A","-1"," ","0","-10","[2015]","1","2","","","4533","23","2","4","lose","no-go","0"
"pit-trial","142","1023618","0.0-28.0","battery-v0.2","","""event"",""trial"",""time""
""fullscreenenter"",""1"",""3477""
","
","
","""event"",""trial"",""time""
""fullscreenenter"",""1"",""3477""
","
","","","708.5","","","22","4533","3100","d","elianto","#3366ff99"," "," ","1","+10","[1563.3999999761581]","1","2","","","4533","24","1","1","win","go","0"
"pit-trial","143","1028111","0.0-29.0","battery-v0.2","","""event"",""trial"",""time""
""fullscreenenter"",""1"",""3477""
","
","
","""event"",""trial"",""time""
""fullscreenenter"",""1"",""3477""
","
","","","1622.3999999761581","","","22","4533","3100","w","elianto","#f73b6a7A"," "," ","1","0","[2474.5]","1","2","","","4533","25","3","3","lose","go","0"
"pit-trial","144","1032978","0.0-30.0","battery-v0.2","","""event"",""trial"",""time""
""fullscreenenter"",""1"",""3477""
","
","
","""event"",""trial"",""time""
""fullscreenenter"",""1"",""3477""
","
","","","-1","","","22","4533","3100","e","elianto","#f73b6a7A","-1","-1","1","0","[]","0","2","","","4533","26","2","4","lose","no-go","0"
"pit-trial","145","1037851","0.0-31.0","battery-v0.2","","""event"",""trial"",""time""
""fullscreenenter"",""1"",""3477""
","
","
","""event"",""trial"",""time""
""fullscreenenter"",""1"",""3477""
","
","","","-1","","","22","4533","3100","j","elianto","#f73b6a7A","-1","-1","1","0","[]","0","2","","","4533","27","0","4","lose","no-go","0"
"pit-trial","146","1041882","0.0-32.0","battery-v0.2","","""event"",""trial"",""time""
""fullscreenenter"",""1"",""3477""
","
","
","""event"",""trial"",""time""
""fullscreenenter"",""1"",""3477""
","
","","","1170.300000011921","","","22","4533","3100","d","elianto","#3366ff99"," "," ","1","+10","[2021.1000000238419]","1","2","","","4533","28","1","1","win","go","0"
"pit-trial","147","1046746","0.0-33.0","battery-v0.2","","""event"",""trial"",""time""
""fullscreenenter"",""1"",""3477""
","
","
","""event"",""trial"",""time""
""fullscreenenter"",""1"",""3477""
","
","","","-1","","","22","4533","3100","e","elianto","#f73b6a7A","-1","-1","1","-10","[]","0","2","","","4533","29","2","4","lose","no-go","1"
"pit-trial","148","1051611","0.0-34.0","battery-v0.2","","""event"",""trial"",""time""
""fullscreenenter"",""1"",""3477""
","
","
","""event"",""trial"",""time""
""fullscreenenter"",""1"",""3477""
","
","","","-1","","","22","4533","3100","w","elianto","#f73b6a7A"," ","-1","0","0","[]","0","2","","","4533","30","3","3","lose","go","1"
"pit-trial","149","1055522","0.0-35.0","battery-v0.2","","""event"",""trial"",""time""
""fullscreenenter"",""1"",""3477""
","
","
","""event"",""trial"",""time""
""fullscreenenter"",""1"",""3477""
","
","","","1050.3999999761581","","","22","4533","3100","d","elianto","#3366ff99"," "," ","1","+10","[1902]","1","2","","","4533","31","1","1","win","go","0"
"pit-trial","150","1060386","0.0-36.0","battery-v0.2","","""event"",""trial"",""time""
""fullscreenenter"",""1"",""3477""
","
","
","""event"",""trial"",""time""
""fullscreenenter"",""1"",""3477""
","
","","","-1","","","22","4533","3100","j","elianto","#f73b6a7A","-1","-1","1","0","[]","0","2","","","4533","32","0","4","lose","no-go","0"
"pit-trial","151","1065250","0.0-37.0","battery-v0.2","","""event"",""trial"",""time""
""fullscreenenter"",""1"",""3477""
","
","
","""event"",""trial"",""time""
""fullscreenenter"",""1"",""3477""
","
","","","-1","","","22","4533","3100","e","elianto","#f73b6a7A","-1","-1","1","0","[]","0","2","","","4533","33","2","4","lose","no-go","0"
"pit-trial","152","1068850","0.0-38.0","battery-v0.2","","""event"",""trial"",""time""
""fullscreenenter"",""1"",""3477""
","
","
","""event"",""trial"",""time""
""fullscreenenter"",""1"",""3477""
","
","","","740","","","22","4533","3100","d","elianto","#3366ff99"," "," ","1","+10","[1591.800000011921]","1","2","","","4533","34","1","1","win","go","0"
"pit-trial","153","1073715","0.0-39.0","battery-v0.2","","""event"",""trial"",""time""
""fullscreenenter"",""1"",""3477""
","
","
","""event"",""trial"",""time""
""fullscreenenter"",""1"",""3477""
","
","","","-1","","","22","4533","3100","w","elianto","#f73b6a7A"," ","-1","0","-10","[]","0","2","","","4533","35","3","3","lose","go","0"
"pit-trial","154","1078579","0.0-40.0","battery-v0.2","","""event"",""trial"",""time""
""fullscreenenter"",""1"",""3477""
","
","
","""event"",""trial"",""time""
""fullscreenenter"",""1"",""3477""
","
","","","-1","","","22","4533","3100","j","elianto","#f73b6a7A","-1","-1","1","0","[]","0","2","","","4533","36","0","4","lose","no-go","0"
"pit-trial","155","1083442","0.0-41.0","battery-v0.2","","""event"",""trial"",""time""
""fullscreenenter"",""1"",""3477""
","
","
","""event"",""trial"",""time""
""fullscreenenter"",""1"",""3477""
","
","","","-1","","","22","4533","3100","e","elianto","#f73b6a7A","-1","-1","1","0","[]","0","2","","","4533","37","2","4","lose","no-go","0"
"pit-trial","156","1086979","0.0-42.0","battery-v0.2","","""event"",""trial"",""time""
""fullscreenenter"",""1"",""3477""
","
","
","""event"",""trial"",""time""
""fullscreenenter"",""1"",""3477""
","
","","","679.5","","","22","4533","3100","d","elianto","#3366ff99"," "," ","1","0","[1530.2000000476837]","1","2","","","4533","38","1","1","win","go","1"
"pit-trial","157","1091851","0.0-43.0","battery-v0.2","","""event"",""trial"",""time""
""fullscreenenter"",""1"",""3477""
","
","
","""event"",""trial"",""time""
""fullscreenenter"",""1"",""3477""
","
","","","-1","","","22","4533","3100","w","elianto","#f73b6a7A"," ","-1","0","-10","[]","0","2","","","4533","39","3","3","lose","go","0"
"pit-trial","158","1096715","0.0-44.0","battery-v0.2","","""event"",""trial"",""time""
""fullscreenenter"",""1"",""3477""
","
","
","""event"",""trial"",""time""
""fullscreenenter"",""1"",""3477""
","
","","","-1","","","22","4533","3100","j","elianto","#f73b6a7A","-1","-1","1","0","[]","0","2","","","4533","40","0","4","lose","no-go","0"
"pit-trial","159","1101580","0.0-45.0","battery-v0.2","","""event"",""trial"",""time""
""fullscreenenter"",""1"",""3477""
","
","
","""event"",""trial"",""time""
""fullscreenenter"",""1"",""3477""
","
","","","-1","","","22","4533","3100","j","elianto","#f73b6a7A","-1","-1","1","0","[]","0","2","","","4533","41","0","4","lose","no-go","0"
"pit-trial","160","1106443","0.0-46.0","battery-v0.2","","""event"",""trial"",""time""
""fullscreenenter"",""1"",""3477""
","
","
","""event"",""trial"",""time""
""fullscreenenter"",""1"",""3477""
","
","","","-1","","","22","4533","3100","w","elianto","#f73b6a7A"," ","-1","0","-10","[]","0","2","","","4533","42","3","3","lose","go","0"
"pit-trial","161","1111307","0.0-47.0","battery-v0.2","","""event"",""trial"",""time""
""fullscreenenter"",""1"",""3477""
","
","
","""event"",""trial"",""time""
""fullscreenenter"",""1"",""3477""
","
","","","-1","","","22","4533","3100","e","elianto","#f73b6a7A","-1","-1","1","0","[]","0","2","","","4533","43","2","4","lose","no-go","0"
"pit-trial","162","1114847","0.0-48.0","battery-v0.2","","""event"",""trial"",""time""
""fullscreenenter"",""1"",""3477""
","
","
","""event"",""trial"",""time""
""fullscreenenter"",""1"",""3477""
","
","","","673.6999999880791","","","22","4533","3100","d","elianto","#3366ff99"," "," ","1","+10","[1524.8999999761581]","1","2","","","4533","44","1","1","win","go","0"
"pit-trial","163","1119715","0.0-49.0","battery-v0.2","","""event"",""trial"",""time""
""fullscreenenter"",""1"",""3477""
","
","
","""event"",""trial"",""time""
""fullscreenenter"",""1"",""3477""
","
","","","-1","","","22","4533","3100","s","elianto","#3366ff99","-1","-1","1","+10","[]","0","2","","","4533","45","4","2","win","no-go","0"
"pit-trial","164","1124579","0.0-50.0","battery-v0.2","","""event"",""trial"",""time""
""fullscreenenter"",""1"",""3477""
","
","
","""event"",""trial"",""time""
""fullscreenenter"",""1"",""3477""
","
","","","-1","","","22","4533","3100","w","elianto","#f73b6a7A"," ","-1","0","0","[]","0","2","","","4533","46","3","3","lose","go","1"
"pit-trial","165","1129458","0.0-51.0","battery-v0.2","","""event"",""trial"",""time""
""fullscreenenter"",""1"",""3477""
","
","
","""event"",""trial"",""time""
""fullscreenenter"",""1"",""3477""
","
","","","-1","","","22","4533","3100","j","elianto","#f73b6a7A","-1","-1","1","0","[]","0","2","","","4533","47","0","4","lose","no-go","0"
"pit-trial","166","1134322","0.0-52.0","battery-v0.2","","""event"",""trial"",""time""
""fullscreenenter"",""1"",""3477""
","
","
","""event"",""trial"",""time""
""fullscreenenter"",""1"",""3477""
","
","","","-1","","","22","4533","3100","e","elianto","#f73b6a7A","-1","-1","1","0","[]","0","2","","","4533","48","2","4","lose","no-go","0"
"pit-trial","167","1139187","0.0-53.0","battery-v0.2","","""event"",""trial"",""time""
""fullscreenenter"",""1"",""3477""
","
","
","""event"",""trial"",""time""
""fullscreenenter"",""1"",""3477""
","
","","","-1","","","22","4533","3100","w","elianto","#f73b6a7A"," ","-1","0","0","[]","0","2","","","4533","49","3","3","lose","go","1"
"pit-trial","168","1144059","0.0-54.0","battery-v0.2","","""event"",""trial"",""time""
""fullscreenenter"",""1"",""3477""
","
","
","""event"",""trial"",""time""
""fullscreenenter"",""1"",""3477""
","
","","","-1","","","22","4533","3100","s","elianto","#3366ff99","-1","-1","1","0","[]","0","2","","","4533","50","4","2","win","no-go","1"
"pit-trial","169","1148922","0.0-55.0","battery-v0.2","","""event"",""trial"",""time""
""fullscreenenter"",""1"",""3477""
","
","
","""event"",""trial"",""time""
""fullscreenenter"",""1"",""3477""
","
","","","-1","","","22","4533","3100","j","elianto","#f73b6a7A","-1","-1","1","0","[]","0","2","","","4533","51","0","4","lose","no-go","0"
"pit-trial","170","1152995","0.0-56.0","battery-v0.2","","""event"",""trial"",""time""
""fullscreenenter"",""1"",""3477""
","
","
","""event"",""trial"",""time""
""fullscreenenter"",""1"",""3477""
","
","","","1213.2999999523163","","","22","4533","3100","d","elianto","#3366ff99"," "," ","1","+10","[2065.800000011921]","1","2","","","4533","52","1","1","win","go","0"
"pit-trial","171","1157859","0.0-57.0","battery-v0.2","","""event"",""trial"",""time""
""fullscreenenter"",""1"",""3477""
","
","
","""event"",""trial"",""time""
""fullscreenenter"",""1"",""3477""
","
","","","-1","","","22","4533","3100","j","elianto","#f73b6a7A","-1","-1","1","0","[]","0","2","","","4533","53","0","4","lose","no-go","0"
"pit-trial","172","1161779","0.0-58.0","battery-v0.2","","""event"",""trial"",""time""
""fullscreenenter"",""1"",""3477""
","
","
","""event"",""trial"",""time""
""fullscreenenter"",""1"",""3477""
","
","","","1054.7000000476837","","","22","4533","3100","d","elianto","#3366ff99"," "," ","1","+10","[1905.7000000476837]","1","2","","","4533","54","1","1","win","go","0"
"pit-trial","173","1165987","0.0-59.0","battery-v0.2","","""event"",""trial"",""time""
""fullscreenenter"",""1"",""3477""
","
","
","""event"",""trial"",""time""
""fullscreenenter"",""1"",""3477""
","
","","","1344.5","","","22","4533","3100","s","elianto","#3366ff99","-1"," ","0","+10","[2197.300000011921]","1","2","","","4533","55","4","2","win","no-go","1"
"pit-trial","174","1170850","0.0-60.0","battery-v0.2","","""event"",""trial"",""time""
""fullscreenenter"",""1"",""3477""
","
","
","""event"",""trial"",""time""
""fullscreenenter"",""1"",""3477""
","
","","","-1","","","22","4533","3100","e","elianto","#f73b6a7A","-1","-1","1","0","[]","0","2","","","4533","56","2","4","lose","no-go","0"
"pit-trial","175","1175715","0.0-61.0","battery-v0.2","","""event"",""trial"",""time""
""fullscreenenter"",""1"",""3477""
","
","
","""event"",""trial"",""time""
""fullscreenenter"",""1"",""3477""
","
","","","-1","","","22","4533","3100","j","elianto","#f73b6a7A","-1","-1","1","0","[]","0","2","","","4533","57","0","4","lose","no-go","0"
"pit-trial","176","1180587","0.0-62.0","battery-v0.2","","""event"",""trial"",""time""
""fullscreenenter"",""1"",""3477""
","
","
","""event"",""trial"",""time""
""fullscreenenter"",""1"",""3477""
","
","","","-1","","","22","4533","3100","w","elianto","#f73b6a7A"," ","-1","0","-10","[]","0","2","","","4533","58","3","3","lose","go","0"
"pit-trial","177","1184403","0.0-63.0","battery-v0.2","","""event"",""trial"",""time""
""fullscreenenter"",""1"",""3477""
","
","
","""event"",""trial"",""time""
""fullscreenenter"",""1"",""3477""
","
","","","958.1000000238419","","","22","4533","3100","d","elianto","#3366ff99"," "," ","1","+10","[1808.7999999523163]","1","2","","","4533","59","1","1","win","go","0"
"pit-trial","178","1188226","0.0-64.0","battery-v0.2","","""event"",""trial"",""time""
""fullscreenenter"",""1"",""3477""
","
","
","""event"",""trial"",""time""
""fullscreenenter"",""1"",""3477""
","
","","","961.3000000119209","","","22","4533","3100","s","elianto","#3366ff99","-1"," ","0","0","[1811.9000000357628]","1","2","","","4533","60","4","2","win","no-go","0"
"pit-trial","179","1191927","0.0-65.0","battery-v0.2","","""event"",""trial"",""time""
""fullscreenenter"",""1"",""3477""
","
","
","""event"",""trial"",""time""
""fullscreenenter"",""1"",""3477""
","
","","","838.4000000357628","","","22","4533","3100","s","elianto","#3366ff99","-1"," ","0","0","[1691.800000011921]","1","2","","","4533","61","4","2","win","no-go","0"
"pit-trial","180","1195626","0.0-66.0","battery-v0.2","","""event"",""trial"",""time""
""fullscreenenter"",""1"",""3477""
","
","
","""event"",""trial"",""time""
""fullscreenenter"",""1"",""3477""
","
","","","833.7999999523163","","","22","4533","3100","d","elianto","#3366ff99"," "," ","1","+10","[1689.2999999523163]","1","2","","","4533","62","1","1","win","go","0"
"pit-trial","181","1200491","0.0-67.0","battery-v0.2","","""event"",""trial"",""time""
""fullscreenenter"",""1"",""3477""
","
","
","""event"",""trial"",""time""
""fullscreenenter"",""1"",""3477""
","
","","","-1","","","22","4533","3100","w","elianto","#f73b6a7A"," ","-1","0","0","[]","0","2","","","4533","63","3","3","lose","go","1"
"pit-trial","182","1205363","0.0-68.0","battery-v0.2","","""event"",""trial"",""time""
""fullscreenenter"",""1"",""3477""
","
","
","""event"",""trial"",""time""
""fullscreenenter"",""1"",""3477""
","
","","","-1","","","22","4533","3100","e","elianto","#f73b6a7A","-1","-1","1","-10","[]","0","2","","","4533","64","2","4","lose","no-go","1"
"pit-trial","183","1210234","0.0-69.0","battery-v0.2","","""event"",""trial"",""time""
""fullscreenenter"",""1"",""3477""
","
","
","""event"",""trial"",""time""
""fullscreenenter"",""1"",""3477""
","
","","","-1","","","22","4533","3100","w","elianto","#f73b6a7A"," ","-1","0","0","[]","0","2","","","4533","65","3","3","lose","go","1"
"pit-trial","184","1213763","0.0-70.0","battery-v0.2","","""event"",""trial"",""time""
""fullscreenenter"",""1"",""3477""
","
","
","""event"",""trial"",""time""
""fullscreenenter"",""1"",""3477""
","
","","","668.5999999642372","","","22","4533","3100","d","elianto","#3366ff99"," "," ","1","+10","[1521.800000011921]","1","2","","","4533","66","1","1","win","go","0"
"pit-trial","185","1218635","0.0-71.0","battery-v0.2","","""event"",""trial"",""time""
""fullscreenenter"",""1"",""3477""
","
","
","""event"",""trial"",""time""
""fullscreenenter"",""1"",""3477""
","
","","","-1","","","22","4533","3100","s","elianto","#3366ff99","-1","-1","1","0","[]","0","2","","","4533","67","4","2","win","no-go","1"
"pit-trial","186","1223499","0.0-72.0","battery-v0.2","","""event"",""trial"",""time""
""fullscreenenter"",""1"",""3477""
","
","
","""event"",""trial"",""time""
""fullscreenenter"",""1"",""3477""
","
","","","-1","","","22","4533","3100","e","elianto","#f73b6a7A","-1","-1","1","0","[]","0","2","","","4533","68","2","4","lose","no-go","0"
"pit-trial","187","1228362","0.0-73.0","battery-v0.2","","""event"",""trial"",""time""
""fullscreenenter"",""1"",""3477""
","
","
","""event"",""trial"",""time""
""fullscreenenter"",""1"",""3477""
","
","","","-1","","","22","4533","3100","w","elianto","#f73b6a7A"," ","-1","0","-10","[]","0","2","","","4533","69","3","3","lose","go","0"
"pit-trial","188","1232467","0.0-74.0","battery-v0.2","","""event"",""trial"",""time""
""fullscreenenter"",""1"",""3477""
","
","
","""event"",""trial"",""time""
""fullscreenenter"",""1"",""3477""
","
","","","1243","","","22","4533","3100","p","elianto","#3366ff99"," "," ","1","+10","[2095.199999988079]","1","2","","","4533","70","5","1","win","go","0"
"pit-trial","189","1235931","0.0-75.0","battery-v0.2","","""event"",""trial"",""time""
""fullscreenenter"",""1"",""3477""
","
","
","""event"",""trial"",""time""
""fullscreenenter"",""1"",""3477""
","
","","","605.8000000119209","","","22","4533","3100","d","elianto","#3366ff99"," "," ","1","+10","[1457.3999999761581]","1","2","","","4533","71","1","1","win","go","0"
"pit-trial","190","1240794","0.0-76.0","battery-v0.2","","""event"",""trial"",""time""
""fullscreenenter"",""1"",""3477""
","
","
","""event"",""trial"",""time""
""fullscreenenter"",""1"",""3477""
","
","","","-1","","","22","4533","3100","s","elianto","#3366ff99","-1","-1","1","+10","[]","0","2","","","4533","72","4","2","win","no-go","0"
"pit-trial","191","1245676","0.0-77.0","battery-v0.2","","""event"",""trial"",""time""
""fullscreenenter"",""1"",""3477""
","
","
","""event"",""trial"",""time""
""fullscreenenter"",""1"",""3477""
","
","","","-1","","","22","4533","3100","w","elianto","#f73b6a7A"," ","-1","0","0","[]","0","2","","","4533","73","3","3","lose","go","1"
"pit-trial","192","1249442","0.0-78.0","battery-v0.2","","""event"",""trial"",""time""
""fullscreenenter"",""1"",""3477""
","
","
","""event"",""trial"",""time""
""fullscreenenter"",""1"",""3477""
","
","","","900.1999999880791","","","22","4533","3100","p","elianto","#3366ff99"," "," ","1","+10","[1756.800000011921]","1","2","","","4533","74","5","1","win","go","0"
"pit-trial","193","1253179","0.0-79.0","battery-v0.2","","""event"",""trial"",""time""
""fullscreenenter"",""1"",""3477""
","
","
","""event"",""trial"",""time""
""fullscreenenter"",""1"",""3477""
","
","","","877.6000000238419","","","22","4533","3100","d","elianto","#3366ff99"," "," ","1","+10","[1730]","1","2","","","4533","75","1","1","win","go","0"
"pit-trial","194","1258042","0.0-80.0","battery-v0.2","","""event"",""trial"",""time""
""fullscreenenter"",""1"",""3477""
","
","
","""event"",""trial"",""time""
""fullscreenenter"",""1"",""3477""
","
","","","-1","","","22","4533","3100","s","elianto","#3366ff99","-1","-1","1","0","[]","0","2","","","4533","76","4","2","win","no-go","1"
"pit-trial","195","1262434","0.0-81.0","battery-v0.2","","""event"",""trial"",""time""
""fullscreenenter"",""1"",""3477""
","
","
","""event"",""trial"",""time""
""fullscreenenter"",""1"",""3477""
","
","","","1529.3999999761581","","","22","4533","3100","s","elianto","#3366ff99","-1"," ","0","0","[2381.199999988079]","1","2","","","4533","77","4","2","win","no-go","0"
"pit-trial","196","1266162","0.0-82.0","battery-v0.2","","""event"",""trial"",""time""
""fullscreenenter"",""1"",""3477""
","
","
","""event"",""trial"",""time""
""fullscreenenter"",""1"",""3477""
","
","","","867.8000000119209","","","22","4533","3100","p","elianto","#3366ff99"," "," ","1","+10","[1719.3999999761581]","1","2","","","4533","78","5","1","win","go","0"
"pit-trial","197","1270154","0.0-83.0","battery-v0.2","","""event"",""trial"",""time""
""fullscreenenter"",""1"",""3477""
","
","
","""event"",""trial"",""time""
""fullscreenenter"",""1"",""3477""
","
","","","1128.199999988079","","","22","4533","3100","g","elianto","#f73b6a7A","-1"," ","0","-10","[1980.2999999523163]","1","2","","","4533","79","6","4","lose","no-go","0"
"pit-trial","198","1275018","0.0-84.0","battery-v0.2","","""event"",""trial"",""time""
""fullscreenenter"",""1"",""3477""
","
","
","""event"",""trial"",""time""
""fullscreenenter"",""1"",""3477""
","
","","","-1","","","22","4533","3100","w","elianto","#f73b6a7A"," ","-1","0","-10","[]","0","2","","","4533","80","3","3","lose","go","0"
"pit-trial","199","1279883","0.0-85.0","battery-v0.2","","""event"",""trial"",""time""
""fullscreenenter"",""1"",""3477""
","
","
","""event"",""trial"",""time""
""fullscreenenter"",""1"",""3477""
","
","","","-1","","","22","4533","3100","g","elianto","#f73b6a7A","-1","-1","1","0","[]","0","2","","","4533","81","6","4","lose","no-go","0"
"pit-trial","200","1284163","0.0-86.0","battery-v0.2","","""event"",""trial"",""time""
""fullscreenenter"",""1"",""3477""
","
","
","""event"",""trial"",""time""
""fullscreenenter"",""1"",""3477""
","
","","","1410.1000000238419","","","22","4533","3100","a","elianto","#f73b6a7A"," "," ","1","-10","[2270.300000011921]","1","2","","","4533","82","7","3","lose","go","1"
"pit-trial","201","1289027","0.0-87.0","battery-v0.2","","""event"",""trial"",""time""
""fullscreenenter"",""1"",""3477""
","
","
","""event"",""trial"",""time""
""fullscreenenter"",""1"",""3477""
","
","","","-1","","","22","4533","3100","s","elianto","#3366ff99","-1","-1","1","+10","[]","0","2","","","4533","83","4","2","win","no-go","0"
"pit-trial","202","1292627","0.0-88.0","battery-v0.2","","""event"",""trial"",""time""
""fullscreenenter"",""1"",""3477""
","
","
","""event"",""trial"",""time""
""fullscreenenter"",""1"",""3477""
","
","","","736.4000000357628","","","22","4533","3100","p","elianto","#3366ff99"," "," ","1","+10","[1586.9000000357628]","1","2","","","4533","84","5","1","win","go","0"
"pit-trial","203","1297491","0.0-89.0","battery-v0.2","","""event"",""trial"",""time""
""fullscreenenter"",""1"",""3477""
","
","
","""event"",""trial"",""time""
""fullscreenenter"",""1"",""3477""
","
","","","-1","","","22","4533","3100","a","elianto","#f73b6a7A"," ","-1","0","-10","[]","0","2","","","4533","85","7","3","lose","go","0"
"pit-trial","204","1302355","0.0-90.0","battery-v0.2","","""event"",""trial"",""time""
""fullscreenenter"",""1"",""3477""
","
","
","""event"",""trial"",""time""
""fullscreenenter"",""1"",""3477""
","
","","","-1","","","22","4533","3100","s","elianto","#3366ff99","-1","-1","1","+10","[]","0","2","","","4533","86","4","2","win","no-go","0"
"pit-trial","205","1305923","0.0-91.0","battery-v0.2","","""event"",""trial"",""time""
""fullscreenenter"",""1"",""3477""
","
","
","""event"",""trial"",""time""
""fullscreenenter"",""1"",""3477""
","
","","","706.6000000238419","","","22","4533","3100","p","elianto","#3366ff99"," "," ","1","+10","[1557.699999988079]","1","2","","","4533","87","5","1","win","go","0"
"pit-trial","206","1310787","0.0-92.0","battery-v0.2","","""event"",""trial"",""time""
""fullscreenenter"",""1"",""3477""
","
","
","""event"",""trial"",""time""
""fullscreenenter"",""1"",""3477""
","
","","","-1","","","22","4533","3100","g","elianto","#f73b6a7A","-1","-1","1","-10","[]","0","2","","","4533","88","6","4","lose","no-go","1"
"pit-trial","207","1314594","0.0-93.0","battery-v0.2","","""event"",""trial"",""time""
""fullscreenenter"",""1"",""3477""
","
","
","""event"",""trial"",""time""
""fullscreenenter"",""1"",""3477""
","
","","","943.8999999761581","","","22","4533","3100","p","elianto","#3366ff99"," "," ","1","+10","[1794.9000000357628]","1","2","","","4533","89","5","1","win","go","0"
"pit-trial","208","1319459","0.0-94.0","battery-v0.2","","""event"",""trial"",""time""
""fullscreenenter"",""1"",""3477""
","
","
","""event"",""trial"",""time""
""fullscreenenter"",""1"",""3477""
","
","","","-1","","","22","4533","3100","g","elianto","#f73b6a7A","-1","-1","1","-10","[]","0","2","","","4533","90","6","4","lose","no-go","1"
"pit-trial","209","1324323","0.0-95.0","battery-v0.2","","""event"",""trial"",""time""
""fullscreenenter"",""1"",""3477""
","
","
","""event"",""trial"",""time""
""fullscreenenter"",""1"",""3477""
","
","","","-1","","","22","4533","3100","a","elianto","#f73b6a7A"," ","-1","0","-10","[]","0","2","","","4533","91","7","3","lose","go","0"
"pit-trial","210","1329186","0.0-96.0","battery-v0.2","","""event"",""trial"",""time""
""fullscreenenter"",""1"",""3477""
","
","
","""event"",""trial"",""time""
""fullscreenenter"",""1"",""3477""
","
","","","-1","","","22","4533","3100","s","elianto","#3366ff99","-1","-1","1","+10","[]","0","2","","","4533","92","4","2","win","no-go","0"
"pit-trial","211","1332755","0.0-97.0","battery-v0.2","","""event"",""trial"",""time""
""fullscreenenter"",""1"",""3477""
","
","
","""event"",""trial"",""time""
""fullscreenenter"",""1"",""3477""
","
","","","706.1999999880791","","","22","4533","3100","g","elianto","#f73b6a7A","-1"," ","0","-10","[1558.5999999642372]","1","2","","","4533","93","6","4","lose","no-go","0"
"pit-trial","212","1336685","0.0-98.0","battery-v0.2","","""event"",""trial"",""time""
""fullscreenenter"",""1"",""3477""
","
","
","""event"",""trial"",""time""
""fullscreenenter"",""1"",""3477""
","
","","","1054.6000000238419","","","22","4533","3100","l","elianto","#3366ff99","-1"," ","0","0","[1906.699999988079]","1","2","","","4533","94","8","2","win","no-go","0"
"pit-trial","213","1340251","0.0-99.0","battery-v0.2","","""event"",""trial"",""time""
""fullscreenenter"",""1"",""3477""
","
","
","""event"",""trial"",""time""
""fullscreenenter"",""1"",""3477""
","
","","","700.1000000238419","","","22","4533","3100","p","elianto","#3366ff99"," "," ","1","+10","[1557.0999999642372]","1","2","","","4533","95","5","1","win","go","0"
"pit-trial","214","1345115","0.0-100.0","battery-v0.2","","""event"",""trial"",""time""
""fullscreenenter"",""1"",""3477""
","
","
","""event"",""trial"",""time""
""fullscreenenter"",""1"",""3477""
","
","","","-1","","","22","4533","3100","a","elianto","#f73b6a7A"," ","-1","0","0","[]","0","2","","","4533","96","7","3","lose","go","1"
"pit-trial","215","1349979","0.0-101.0","battery-v0.2","","""event"",""trial"",""time""
""fullscreenenter"",""1"",""3477""
","
","
","""event"",""trial"",""time""
""fullscreenenter"",""1"",""3477""
","
","","","-1","","","22","4533","3100","a","elianto","#f73b6a7A"," ","-1","0","-10","[]","0","2","","","4533","97","7","3","lose","go","0"
"pit-trial","216","1353499","0.0-102.0","battery-v0.2","","""event"",""trial"",""time""
""fullscreenenter"",""1"",""3477""
","
","
","""event"",""trial"",""time""
""fullscreenenter"",""1"",""3477""
","
","","","663.1000000238419","","","22","4533","3100","p","elianto","#3366ff99"," "," ","1","+10","[1513.6000000238419]","1","2","","","4533","98","5","1","win","go","0"
"pit-trial","217","1357894","0.0-103.0","battery-v0.2","","""event"",""trial"",""time""
""fullscreenenter"",""1"",""3477""
","
","
","""event"",""trial"",""time""
""fullscreenenter"",""1"",""3477""
","
","","","1530.5","","","22","4533","3100","l","elianto","#3366ff99","-1"," ","0","0","[2381.699999988079]","1","2","","","4533","99","8","2","win","no-go","0"
"pit-trial","218","1362764","0.0-104.0","battery-v0.2","","""event"",""trial"",""time""
""fullscreenenter"",""1"",""3477""
","
","
","""event"",""trial"",""time""
""fullscreenenter"",""1"",""3477""
","
","","","-1","","","22","4533","3100","g","elianto","#f73b6a7A","-1","-1","1","0","[]","0","2","","","4533","100","6","4","lose","no-go","0"
"pit-trial","219","1367635","0.0-105.0","battery-v0.2","","""event"",""trial"",""time""
""fullscreenenter"",""1"",""3477""
","
","
","""event"",""trial"",""time""
""fullscreenenter"",""1"",""3477""
","
","","","-1","","","22","4533","3100","l","elianto","#3366ff99","-1","-1","1","0","[]","0","2","","","4533","101","8","2","win","no-go","1"
"pit-trial","220","1371607","0.0-106.0","battery-v0.2","","""event"",""trial"",""time""
""fullscreenenter"",""1"",""3477""
","
","
","""event"",""trial"",""time""
""fullscreenenter"",""1"",""3477""
","
","","","1105.699999988079","","","22","4533","3100","u","elianto","#3366ff99","-1"," ","0","+10","[1956.9000000357628]","1","2","","","4533","102","9","2","win","no-go","1"
"pit-trial","221","1375242","0.0-107.0","battery-v0.2","","""event"",""trial"",""time""
""fullscreenenter"",""1"",""3477""
","
","
","""event"",""trial"",""time""
""fullscreenenter"",""1"",""3477""
","
","","","768.3000000119209","","","22","4533","3100","p","elianto","#3366ff99"," "," ","1","+10","[1624.4000000357628]","1","2","","","4533","103","5","1","win","go","0"
"pit-trial","222","1380119","0.0-108.0","battery-v0.2","","""event"",""trial"",""time""
""fullscreenenter"",""1"",""3477""
","
","
","""event"",""trial"",""time""
""fullscreenenter"",""1"",""3477""
","
","","","-1","","","22","4533","3100","g","elianto","#f73b6a7A","-1","-1","1","0","[]","0","2","","","4533","104","6","4","lose","no-go","0"
"pit-trial","223","1383890","0.0-109.0","battery-v0.2","","""event"",""trial"",""time""
""fullscreenenter"",""1"",""3477""
","
","
","""event"",""trial"",""time""
""fullscreenenter"",""1"",""3477""
","
","","","907.3000000119209","","","22","4533","3100","p","elianto","#3366ff99"," "," ","1","+10","[1762.300000011921]","1","2","","","4533","105","5","1","win","go","0"
"pit-trial","224","1388172","0.0-110.0","battery-v0.2","","""event"",""trial"",""time""
""fullscreenenter"",""1"",""3477""
","
","
","""event"",""trial"",""time""
""fullscreenenter"",""1"",""3477""
","
","","","1417.2000000476837","","","22","4533","3100","u","elianto","#3366ff99","-1"," ","0","0","[2270.2000000476837]","1","2","","","4533","106","9","2","win","no-go","0"
"pit-trial","225","1393033","0.0-111.0","battery-v0.2","","""event"",""trial"",""time""
""fullscreenenter"",""1"",""3477""
","
","
","""event"",""trial"",""time""
""fullscreenenter"",""1"",""3477""
","
","","","-1","","","22","4533","3100","g","elianto","#f73b6a7A","-1","-1","1","0","[]","0","2","","","4533","107","6","4","lose","no-go","0"
"pit-trial","226","1397899","0.0-112.0","battery-v0.2","","""event"",""trial"",""time""
""fullscreenenter"",""1"",""3477""
","
","
","""event"",""trial"",""time""
""fullscreenenter"",""1"",""3477""
","
","","","-1","","","22","4533","3100","l","elianto","#3366ff99","-1","-1","1","+10","[]","0","2","","","4533","108","8","2","win","no-go","0"
"pit-trial","227","1402770","0.0-113.0","battery-v0.2","","""event"",""trial"",""time""
""fullscreenenter"",""1"",""3477""
","
","
","""event"",""trial"",""time""
""fullscreenenter"",""1"",""3477""
","
","","","-1","","","22","4533","3100","l","elianto","#3366ff99","-1","-1","1","+10","[]","0","2","","","4533","109","8","2","win","no-go","0"
"pit-trial","228","1406330","0.0-114.0","battery-v0.2","","""event"",""trial"",""time""
""fullscreenenter"",""1"",""3477""
","
","
","""event"",""trial"",""time""
""fullscreenenter"",""1"",""3477""
","
","","","698.8999999761581","","","22","4533","3100","p","elianto","#3366ff99"," "," ","1","+10","[1550]","1","2","","","4533","110","5","1","win","go","0"
"pit-trial","229","1411194","0.0-115.0","battery-v0.2","","""event"",""trial"",""time""
""fullscreenenter"",""1"",""3477""
","
","
","""event"",""trial"",""time""
""fullscreenenter"",""1"",""3477""
","
","","","-1","","","22","4533","3100","g","elianto","#f73b6a7A","-1","-1","1","0","[]","0","2","","","4533","111","6","4","lose","no-go","0"
"pit-trial","230","1416067","0.0-116.0","battery-v0.2","","""event"",""trial"",""time""
""fullscreenenter"",""1"",""3477""
","
","
","""event"",""trial"",""time""
""fullscreenenter"",""1"",""3477""
","
","","","-1","","","22","4533","3100","u","elianto","#3366ff99","-1","-1","1","+10","[]","0","2","","","4533","112","9","2","win","no-go","0"
"pit-trial","231","1419578","0.0-117.0","battery-v0.2","","""event"",""trial"",""time""
""fullscreenenter"",""1"",""3477""
","
","
","""event"",""trial"",""time""
""fullscreenenter"",""1"",""3477""
","
","","","652.2999999523163","","","22","4533","3100","p","elianto","#3366ff99"," "," ","1","+10","[1503.7999999523163]","1","2","","","4533","113","5","1","win","go","0"
"pit-trial","232","1424450","0.0-118.0","battery-v0.2","","""event"",""trial"",""time""
""fullscreenenter"",""1"",""3477""
","
","
","""event"",""trial"",""time""
""fullscreenenter"",""1"",""3477""
","
","","","-1","","","22","4533","3100","l","elianto","#3366ff99","-1","-1","1","0","[]","0","2","","","4533","114","8","2","win","no-go","1"
"pit-trial","233","1429322","0.0-119.0","battery-v0.2","","""event"",""trial"",""time""
""fullscreenenter"",""1"",""3477""
","
","
","""event"",""trial"",""time""
""fullscreenenter"",""1"",""3477""
","
","","","-1","","","22","4533","3100","a","elianto","#f73b6a7A"," ","-1","0","-10","[]","0","2","","","4533","115","7","3","lose","go","0"
"pit-trial","234","1434195","0.0-120.0","battery-v0.2","","""event"",""trial"",""time""
""fullscreenenter"",""1"",""3477""
","
","
","""event"",""trial"",""time""
""fullscreenenter"",""1"",""3477""
","
","","","-1","","","22","4533","3100","u","elianto","#3366ff99","-1","-1","1","+10","[]","0","2","","","4533","116","9","2","win","no-go","0"
"pit-trial","235","1439067","0.0-121.0","battery-v0.2","","""event"",""trial"",""time""
""fullscreenenter"",""1"",""3477""
","
","
","""event"",""trial"",""time""
""fullscreenenter"",""1"",""3477""
","
","","","-1","","","22","4533","3100","u","elianto","#3366ff99","-1","-1","1","0","[]","0","2","","","4533","117","9","2","win","no-go","1"
"pit-trial","236","1442962","0.0-122.0","battery-v0.2","","""event"",""trial"",""time""
""fullscreenenter"",""1"",""3477""
","
","
","""event"",""trial"",""time""
""fullscreenenter"",""1"",""3477""
","
","","","1031.8999999761581","","","22","4533","3100","p","elianto","#3366ff99"," "," ","1","+10","[1882.3999999761581]","1","2","","","4533","118","5","1","win","go","0"
"pit-trial","237","1447827","0.0-123.0","battery-v0.2","","""event"",""trial"",""time""
""fullscreenenter"",""1"",""3477""
","
","
","""event"",""trial"",""time""
""fullscreenenter"",""1"",""3477""
","
","","","-1","","","22","4533","3100","g","elianto","#f73b6a7A","-1","-1","1","0","[]","0","2","","","4533","119","6","4","lose","no-go","0"
"pit-trial","238","1452694","0.0-124.0","battery-v0.2","","""event"",""trial"",""time""
""fullscreenenter"",""1"",""3477""
","
","
","""event"",""trial"",""time""
""fullscreenenter"",""1"",""3477""
","
","","","-1","","","22","4533","3100","l","elianto","#3366ff99","-1","-1","1","+10","[]","0","2","","","4533","120","8","2","win","no-go","0"
"pit-trial","239","1457562","0.0-125.0","battery-v0.2","","""event"",""trial"",""time""
""fullscreenenter"",""1"",""3477""
","
","
","""event"",""trial"",""time""
""fullscreenenter"",""1"",""3477""
","
","","","-1","","","22","4533","3100","l","elianto","#3366ff99","-1","-1","1","+10","[]","0","2","","","4533","121","8","2","win","no-go","0"
"pit-trial","240","1462441","0.0-126.0","battery-v0.2","","""event"",""trial"",""time""
""fullscreenenter"",""1"",""3477""
","
","
","""event"",""trial"",""time""
""fullscreenenter"",""1"",""3477""
","
","","","-1","","","22","4533","3100","u","elianto","#3366ff99","-1","-1","1","+10","[]","0","2","","","4533","122","9","2","win","no-go","0"
"pit-trial","241","1466931","0.0-127.0","battery-v0.2","","""event"",""trial"",""time""
""fullscreenenter"",""1"",""3477""
","
","
","""event"",""trial"",""time""
""fullscreenenter"",""1"",""3477""
","
","","","1625.800000011921","","","22","4533","3100","a","elianto","#f73b6a7A"," "," ","1","-10","[2479]","1","2","","","4533","123","7","3","lose","go","1"
"pit-trial","242","1470634","0.0-128.0","battery-v0.2","","""event"",""trial"",""time""
""fullscreenenter"",""1"",""3477""
","
","
","""event"",""trial"",""time""
""fullscreenenter"",""1"",""3477""
","
","","","840.9000000357628","","","22","4533","3100","p","elianto","#3366ff99"," "," ","1","0","[1698.3999999761581]","1","2","","","4533","124","5","1","win","go","1"
"pit-trial","243","1475500","0.0-129.0","battery-v0.2","","""event"",""trial"",""time""
""fullscreenenter"",""1"",""3477""
","
","
","""event"",""trial"",""time""
""fullscreenenter"",""1"",""3477""
","
","","","-1","","","22","4533","3100","l","elianto","#3366ff99","-1","-1","1","+10","[]","0","2","","","4533","125","8","2","win","no-go","0"
"pit-trial","244","1480362","0.0-130.0","battery-v0.2","","""event"",""trial"",""time""
""fullscreenenter"",""1"",""3477""
","
","
","""event"",""trial"",""time""
""fullscreenenter"",""1"",""3477""
","
","","","-1","","","22","4533","3100","u","elianto","#3366ff99","-1","-1","1","0","[]","0","2","","","4533","126","9","2","win","no-go","1"
"pit-trial","245","1485227","0.0-131.0","battery-v0.2","","""event"",""trial"",""time""
""fullscreenenter"",""1"",""3477""
","
","
","""event"",""trial"",""time""
""fullscreenenter"",""1"",""3477""
","
","","","-1","","","22","4533","3100","g","elianto","#f73b6a7A","-1","-1","1","0","[]","0","2","","","4533","127","6","4","lose","no-go","0"
"pit-trial","246","1490091","0.0-132.0","battery-v0.2","","""event"",""trial"",""time""
""fullscreenenter"",""1"",""3477""
","
","
","""event"",""trial"",""time""
""fullscreenenter"",""1"",""3477""
","
","","","-1","","","22","4533","3100","a","elianto","#f73b6a7A"," ","-1","0","0","[]","0","2","","","4533","128","7","3","lose","go","1"
"pit-trial","247","1494955","0.0-133.0","battery-v0.2","","""event"",""trial"",""time""
""fullscreenenter"",""1"",""3477""
","
","
","""event"",""trial"",""time""
""fullscreenenter"",""1"",""3477""
","
","","","-1","","","22","4533","3100","u","elianto","#3366ff99","-1","-1","1","0","[]","0","2","","","4533","129","9","2","win","no-go","1"
"pit-trial","248","1499819","0.0-134.0","battery-v0.2","","""event"",""trial"",""time""
""fullscreenenter"",""1"",""3477""
","
","
","""event"",""trial"",""time""
""fullscreenenter"",""1"",""3477""
","
","","","-1","","","22","4533","3100","l","elianto","#3366ff99","-1","-1","1","+10","[]","0","2","","","4533","130","8","2","win","no-go","0"
"pit-trial","249","1504682","0.0-135.0","battery-v0.2","","""event"",""trial"",""time""
""fullscreenenter"",""1"",""3477""
","
","
","""event"",""trial"",""time""
""fullscreenenter"",""1"",""3477""
","
","","","-1","","","22","4533","3100","a","elianto","#f73b6a7A"," ","-1","0","-10","[]","0","2","","","4533","131","7","3","lose","go","0"
"pit-trial","250","1509551","0.0-136.0","battery-v0.2","","""event"",""trial"",""time""
""fullscreenenter"",""1"",""3477""
","
","
","""event"",""trial"",""time""
""fullscreenenter"",""1"",""3477""
","
","","","-1","","","22","4533","3100","g","elianto","#f73b6a7A","-1","-1","1","0","[]","0","2","","","4533","132","6","4","lose","no-go","0"
"pit-trial","251","1514419","0.0-137.0","battery-v0.2","","""event"",""trial"",""time""
""fullscreenenter"",""1"",""3477""
","
","
","""event"",""trial"",""time""
""fullscreenenter"",""1"",""3477""
","
","","","-1","","","22","4533","3100","g","elianto","#f73b6a7A","-1","-1","1","0","[]","0","2","","","4533","133","6","4","lose","no-go","0"
"pit-trial","252","1519291","0.0-138.0","battery-v0.2","","""event"",""trial"",""time""
""fullscreenenter"",""1"",""3477""
","
","
","""event"",""trial"",""time""
""fullscreenenter"",""1"",""3477""
","
","","","-1","","","22","4533","3100","u","elianto","#3366ff99","-1","-1","1","0","[]","0","2","","","4533","134","9","2","win","no-go","1"
"pit-trial","253","1524155","0.0-139.0","battery-v0.2","","""event"",""trial"",""time""
""fullscreenenter"",""1"",""3477""
","
","
","""event"",""trial"",""time""
""fullscreenenter"",""1"",""3477""
","
","","","-1","","","22","4533","3100","a","elianto","#f73b6a7A"," ","-1","0","-10","[]","0","2","","","4533","135","7","3","lose","go","0"
"pit-trial","254","1529031","0.0-140.0","battery-v0.2","","""event"",""trial"",""time""
""fullscreenenter"",""1"",""3477""
","
","
","""event"",""trial"",""time""
""fullscreenenter"",""1"",""3477""
","
","","","-1","","","22","4533","3100","l","elianto","#3366ff99","-1","-1","1","0","[]","0","2","","","4533","136","8","2","win","no-go","1"
"pit-trial","255","1533899","0.0-141.0","battery-v0.2","","""event"",""trial"",""time""
""fullscreenenter"",""1"",""3477""
","
","
","""event"",""trial"",""time""
""fullscreenenter"",""1"",""3477""
","
","","","-1","","","22","4533","3100","a","elianto","#f73b6a7A"," ","-1","0","-10","[]","0","2","","","4533","137","7","3","lose","go","0"
"pit-trial","256","1538764","0.0-142.0","battery-v0.2","","""event"",""trial"",""time""
""fullscreenenter"",""1"",""3477""
","
","
","""event"",""trial"",""time""
""fullscreenenter"",""1"",""3477""
","
","","","-1","","","22","4533","3100","g","elianto","#f73b6a7A","-1","-1","1","0","[]","0","2","","","4533","138","6","4","lose","no-go","0"
"pit-trial","257","1543636","0.0-143.0","battery-v0.2","","""event"",""trial"",""time""
""fullscreenenter"",""1"",""3477""
","
","
","""event"",""trial"",""time""
""fullscreenenter"",""1"",""3477""
","
","","","-1","","","22","4533","3100","u","elianto","#3366ff99","-1","-1","1","+10","[]","0","2","","","4533","139","9","2","win","no-go","0"
"pit-trial","258","1548507","0.0-144.0","battery-v0.2","","""event"",""trial"",""time""
""fullscreenenter"",""1"",""3477""
","
","
","""event"",""trial"",""time""
""fullscreenenter"",""1"",""3477""
","
","","","-1","","","22","4533","3100","l","elianto","#3366ff99","-1","-1","1","+10","[]","0","2","","","4533","140","8","2","win","no-go","0"
"pit-instructions","259","1728430","0.0-145.0","battery-v0.2","","""event"",""trial"",""time""
""fullscreenenter"",""1"",""3477""
","
","
","""event"",""trial"",""time""
""fullscreenenter"",""1"",""3477""
","
","","[{""page_index"":0,""viewing_time"":171203.30000001192},{""page_index"":1,""viewing_time"":8716.199999988079}]","179919.89999997616","","","","","","","","","","","","","","","","","","","","","","","",""
"pit-trial","260","1732819","0.0-146.0","battery-v0.2","","""event"",""trial"",""time""
""fullscreenenter"",""1"",""3477""
","
","
","""event"",""trial"",""time""
""fullscreenenter"",""1"",""3477""
","
","","","1514.6000000238419","","","22","4533","3100","b","elianto","#f73b6a7A","-1"," ","0","-10","[2369.399999976158]","1","3","","","4533","141","3","4","lose","no-go","0"
"pit-trial","261","1737704","0.0-147.0","battery-v0.2","","""event"",""trial"",""time""
""fullscreenenter"",""1"",""3477""
","
","
","""event"",""trial"",""time""
""fullscreenenter"",""1"",""3477""
","
","","","-1","","","22","4533","3100","t","elianto","#f73b6a7A"," ","-1","0","0","[2898.899999976158]","1","3","","","4533","142","2","3","lose","go","1"
"pit-trial","262","1742583","0.0-148.0","battery-v0.2","","""event"",""trial"",""time""
""fullscreenenter"",""1"",""3477""
","
","
","""event"",""trial"",""time""
""fullscreenenter"",""1"",""3477""
","
","","","-1","","","22","4533","3100","n","elianto","#f73b6a7A"," ","-1","0","-10","[]","0","3","","","4533","143","0","3","lose","go","0"
"pit-trial","263","1747072","0.0-149.0","battery-v0.2","","""event"",""trial"",""time""
""fullscreenenter"",""1"",""3477""
","
","
","""event"",""trial"",""time""
""fullscreenenter"",""1"",""3477""
","
","","","1619.7999999523163","","","22","4533","3100","f","elianto","#3366ff99","-1"," ","0","0","[2475.399999976158]","1","3","","","4533","144","1","2","win","no-go","0"
"pit-trial","264","1751947","0.0-150.0","battery-v0.2","","""event"",""trial"",""time""
""fullscreenenter"",""1"",""3477""
","
","
","""event"",""trial"",""time""
""fullscreenenter"",""1"",""3477""
","
","","","-1","","","22","4533","3100","b","elianto","#f73b6a7A","-1","-1","1","-10","[]","0","3","","","4533","145","3","4","lose","no-go","1"
"pit-trial","265","1756820","0.0-151.0","battery-v0.2","","""event"",""trial"",""time""
""fullscreenenter"",""1"",""3477""
","
","
","""event"",""trial"",""time""
""fullscreenenter"",""1"",""3477""
","
","","","-1","","","22","4533","3100","t","elianto","#f73b6a7A"," ","-1","0","-10","[]","0","3","","","4533","146","2","3","lose","go","0"
"pit-trial","266","1760548","0.0-152.0","battery-v0.2","","""event"",""trial"",""time""
""fullscreenenter"",""1"",""3477""
","
","
","""event"",""trial"",""time""
""fullscreenenter"",""1"",""3477""
","
","","","863.1999999880791","","","22","4533","3100","n","elianto","#f73b6a7A"," "," ","1","0","[1718.8999999761581]","1","3","","","4533","147","0","3","lose","go","0"
"pit-trial","267","1765419","0.0-153.0","battery-v0.2","","""event"",""trial"",""time""
""fullscreenenter"",""1"",""3477""
","
","
","""event"",""trial"",""time""
""fullscreenenter"",""1"",""3477""
","
","","","-1","","","22","4533","3100","f","elianto","#3366ff99","-1","-1","1","+10","[]","0","3","","","4533","148","1","2","win","no-go","0"
"pit-trial","268","1768850","0.0-154.0","battery-v0.2","","""event"",""trial"",""time""
""fullscreenenter"",""1"",""3477""
","
","
","""event"",""trial"",""time""
""fullscreenenter"",""1"",""3477""
","
","","","568.6000000238419","","","22","4533","3100","b","elianto","#f73b6a7A","-1"," ","0","0","[1419.5]","1","3","","","4533","149","3","4","lose","no-go","1"
"pit-trial","269","1772594","0.0-155.0","battery-v0.2","","""event"",""trial"",""time""
""fullscreenenter"",""1"",""3477""
","
","
","""event"",""trial"",""time""
""fullscreenenter"",""1"",""3477""
","
