"trial_type","trial_index","time_elapsed","internal_node_id","task_version","subject_id","interactions","blur_events","focus_events","fullscreenenter_events","fullscreenexit_events","success","view_history","rt","responses","num_errors","age","subject","participantId","rune","rune_set","hex","correct","choice","accuracy","outcome","keys","total_keys","block","practice","value","sub","trial","stimulus","robot","valence","action","sham"
"pavlovia","0","21","0.0-0.0","battery-v0.2","","""event"",""trial"",""time""
""fullscreenenter"",""1"",""1916""
","
","
","""event"",""trial"",""time""
""fullscreenenter"",""1"",""1916""
","
","","","","","","","","","","","","","","","","","","","","","","","","","","",""
"fullscreen","1","2901","0.0-1.0","battery-v0.2","","""event"",""trial"",""time""
""fullscreenenter"",""1"",""1916""
","
","
","""event"",""trial"",""time""
""fullscreenenter"",""1"",""1916""
","
","true","","","","","","","","","","","","","","","","","","","","","","","","","",""
"pit-instructions","2","9637","0.0-2.0-0.0","battery-v0.2","","""event"",""trial"",""time""
""fullscreenenter"",""1"",""1916""
","
","
","""event"",""trial"",""time""
""fullscreenenter"",""1"",""1916""
","
","","[{""page_index"":0,""viewing_time"":6727.700000286102}]","6728.200000286102","","","","","","","","","","","","","","","","","","","","","","","",""
"pit-comprehension","3","13299","0.0-2.0-1.0-0.0","battery-v0.2","","""event"",""trial"",""time""
""fullscreenenter"",""1"",""1916""
","
","
","""event"",""trial"",""time""
""fullscreenenter"",""1"",""1916""
","
","","","3655.0999999046326","[""shark""]","0","15","5285","3128","","","","","","","","","","","","","","","","","","",""
"pit-instructions","4","18615","0.0-2.0-1.0-1.0","battery-v0.2","","""event"",""trial"",""time""
""fullscreenenter"",""1"",""1916""
","
","
","""event"",""trial"",""time""
""fullscreenenter"",""1"",""1916""
","
","","[{""page_index"":0,""viewing_time"":5299.400000095367}]","5300.5","","","","","","","","","","","","","","","","","","","","","","","",""
"pit-comprehension","5","21967","0.0-2.0-2.0-0.0","battery-v0.2","","""event"",""trial"",""time""
""fullscreenenter"",""1"",""1916""
","
","
","""event"",""trial"",""time""
""fullscreenenter"",""1"",""1916""
","
","","","3345.7000002861023","[""tiger""]","0","15","5285","3128","","","","","","","","","","","","","","","","","","",""
"pit-instructions","6","22911","0.0-2.0-2.0-1.0","battery-v0.2","","""event"",""trial"",""time""
""fullscreenenter"",""1"",""1916""
","
","
","""event"",""trial"",""time""
""fullscreenenter"",""1"",""1916""
","
","","[{""page_index"":0,""viewing_time"":939.7999997138977}]","940.1999998092651","","","","","","","","","","","","","","","","","","","","","","","",""
"pit-instructions","7","143669","0.0-2.0-3.0","battery-v0.2","","""event"",""trial"",""time""
""fullscreenenter"",""1"",""1916""
","
","
","""event"",""trial"",""time""
""fullscreenenter"",""1"",""1916""
","
","","[{""page_index"":0,""viewing_time"":8360.099999904633},{""page_index"":1,""viewing_time"":6776.5},{""page_index"":2,""viewing_time"":6382.200000286102},{""page_index"":3,""viewing_time"":5242.5},{""page_index"":4,""viewing_time"":6198.89999961853},{""page_index"":5,""viewing_time"":9067},{""page_index"":6,""viewing_time"":8509.200000286102},{""page_index"":7,""viewing_time"":7987.400000095367},{""page_index"":8,""viewing_time"":7663.39999961853},{""page_index"":9,""viewing_time"":20595},{""page_index"":10,""viewing_time"":9745.900000095367},{""page_index"":11,""viewing_time"":8325.099999904633},{""page_index"":12,""viewing_time"":8935.60000038147},{""page_index"":13,""viewing_time"":6963.699999809265}]","120753.09999990463","","","","","","","","","","","","","","","","","","","","","","","",""
"pit-trial","8","147122","0.0-2.0-4.0-0.0","battery-v0.2","","""event"",""trial"",""time""
""fullscreenenter"",""1"",""1916""
","
","
","""event"",""trial"",""time""
""fullscreenenter"",""1"",""1916""
","
","","","580","","","15","5285","3128","&#9784;","elianto","#FFFFF080"," "," ","1","&#10004","[1437.6000003814697]","1","0","0","","","","","","","",""
"pit-trial","9","150576","0.0-2.0-4.1-0.1","battery-v0.2","","""event"",""trial"",""time""
""fullscreenenter"",""1"",""1916""
","
","
","""event"",""trial"",""time""
""fullscreenenter"",""1"",""1916""
","
","","","570.8000001907349","","","15","5285","3128","&#9784;","elianto","#FFFFF080"," "," ","1","&#10004","[1435.1999998092651]","1","0","0","","","","","","","",""
"pit-trial","10","153829","0.0-2.0-4.2-0.2","battery-v0.2","","""event"",""trial"",""time""
""fullscreenenter"",""1"",""1916""
","
","
","""event"",""trial"",""time""
""fullscreenenter"",""1"",""1916""
","
","","","390.8999996185303","","","15","5285","3128","&#9784;","elianto","#FFFFF080"," "," ","1","&#10004","[1247.6999998092651]","1","0","0","","","","","","","",""
"pit-trial","11","157132","0.0-2.0-4.3-0.3","battery-v0.2","","""event"",""trial"",""time""
""fullscreenenter"",""1"",""1916""
","
","
","""event"",""trial"",""time""
""fullscreenenter"",""1"",""1916""
","
","","","436.09999990463257","","","15","5285","3128","&#9784;","elianto","#FFFFF080"," "," ","1","&#10004","[1287.5]","1","0","0","","","","","","","",""
"pit-trial","12","160479","0.0-2.0-4.4-0.4","battery-v0.2","","""event"",""trial"",""time""
""fullscreenenter"",""1"",""1916""
","
","
","""event"",""trial"",""time""
""fullscreenenter"",""1"",""1916""
","
","","","483.5","","","15","5285","3128","&#9784;","elianto","#FFFFF080"," "," ","1","&#10004","[1335.7999997138977]","1","0","0","","","","","","","",""
"pit-instructions","13","183812","0.0-2.0-5.0","battery-v0.2","","""event"",""trial"",""time""
""fullscreenenter"",""1"",""1916""
","
","
","""event"",""trial"",""time""
""fullscreenenter"",""1"",""1916""
","
","","[{""page_index"":0,""viewing_time"":5955.699999809265},{""page_index"":1,""viewing_time"":5880.700000286102},{""page_index"":2,""viewing_time"":5488.099999904633},{""page_index"":3,""viewing_time"":6002.799999713898}]","23328","","","","","","","","","","","","","","","","","","","","","","","",""
"pit-trial","14","188676","0.0-2.0-6.0-0.0","battery-v0.2","","""event"",""trial"",""time""
""fullscreenenter"",""1"",""1916""
","
","
","""event"",""trial"",""time""
""fullscreenenter"",""1"",""1916""
","
","","","-1","","","15","5285","3128","&#9854;","elianto","#FFFFF080","-1","-1","1","&#10004","[]","0","0","1","","","","","","","",""
"pit-trial","15","193560","0.0-2.0-6.1-0.1","battery-v0.2","","""event"",""trial"",""time""
""fullscreenenter"",""1"",""1916""
","
","
","""event"",""trial"",""time""
""fullscreenenter"",""1"",""1916""
","
","","","-1","","","15","5285","3128","&#9854;","elianto","#FFFFF080","-1","-1","1","&#10004","[]","0","0","1","","","","","","","",""
"pit-trial","16","198432","0.0-2.0-6.2-0.2","battery-v0.2","","""event"",""trial"",""time""
""fullscreenenter"",""1"",""1916""
","
","
","""event"",""trial"",""time""
""fullscreenenter"",""1"",""1916""
","
","","","-1","","","15","5285","3128","&#9854;","elianto","#FFFFF080","-1","-1","1","&#10004","[]","0","0","1","","","","","","","",""
"pit-trial","17","203307","0.0-2.0-6.3-0.3","battery-v0.2","","""event"",""trial"",""time""
""fullscreenenter"",""1"",""1916""
","
","
","""event"",""trial"",""time""
""fullscreenenter"",""1"",""1916""
","
","","","-1","","","15","5285","3128","&#9854;","elianto","#FFFFF080","-1","-1","1","&#10004","[]","0","0","1","","","","","","","",""
"pit-trial","18","208179","0.0-2.0-6.4-0.4","battery-v0.2","","""event"",""trial"",""time""
""fullscreenenter"",""1"",""1916""
","
","
","""event"",""trial"",""time""
""fullscreenenter"",""1"",""1916""
","
","","","-1","","","15","5285","3128","&#9854;","elianto","#FFFFF080","-1","-1","1","&#10004","[]","0","0","1","","","","","","","",""
"pit-instructions","19","405603","0.0-2.0-7.0","battery-v0.2","","""event"",""trial"",""time""
""fullscreenenter"",""1"",""1916""
","
","
","""event"",""trial"",""time""
""fullscreenenter"",""1"",""1916""
","
","","[{""page_index"":0,""viewing_time"":7062},{""page_index"":1,""viewing_time"":15931.89999961853},{""page_index"":2,""viewing_time"":12546.200000286102},{""page_index"":3,""viewing_time"":8889.299999713898},{""page_index"":4,""viewing_time"":9963.60000038147},{""page_index"":5,""viewing_time"":7486.699999809265},{""page_index"":6,""viewing_time"":7900},{""page_index"":7,""viewing_time"":9111.800000190735},{""page_index"":8,""viewing_time"":8363},{""page_index"":9,""viewing_time"":9579.699999809265},{""page_index"":10,""viewing_time"":11871.099999904633},{""page_index"":11,""viewing_time"":5978.400000095367},{""page_index"":12,""viewing_time"":9063.699999809265},{""page_index"":13,""viewing_time"":7810.900000095367},{""page_index"":14,""viewing_time"":20317},{""page_index"":15,""viewing_time"":12492.700000286102},{""page_index"":16,""viewing_time"":14927.199999809265},{""page_index"":17,""viewing_time"":2248.199999809265},{""page_index"":16,""viewing_time"":6550.60000038147},{""page_index"":17,""viewing_time"":9325.5}]","197420.09999990463","","","","","","","","","","","","","","","","","","","","","","","",""
"pit-trial","20","409157","0.0-2.0-8.0-0.0","battery-v0.2","","""event"",""trial"",""time""
""fullscreenenter"",""1"",""1916""
","
","
","""event"",""trial"",""time""
""fullscreenenter"",""1"",""1916""
","
","","","687.7000002861023","","","15","5285","3128","&#9776;","elianto","#3366ff99"," "," ","1","+10","[1547.6999998092651]","1","0","1","","","","","","","",""
"pit-trial","21","412675","0.0-2.0-8.0-1.0","battery-v0.2","","""event"",""trial"",""time""
""fullscreenenter"",""1"",""1916""
","
","
","""event"",""trial"",""time""
""fullscreenenter"",""1"",""1916""
","
","","","653","","","15","5285","3128","&#9776;","elianto","#3366ff99"," "," ","1","+10","[1505.5999999046326]","1","0","1","","","","","","","",""
"pit-trial","22","416016","0.0-2.0-8.0-2.0","battery-v0.2","","""event"",""trial"",""time""
""fullscreenenter"",""1"",""1916""
","
","
","""event"",""trial"",""time""
""fullscreenenter"",""1"",""1916""
","
","","","466.5","","","15","5285","3128","&#9776;","elianto","#3366ff99"," "," ","1","+10","[1328.8000001907349]","1","0","1","","","","","","","",""
"pit-trial","23","419418","0.0-2.0-8.0-3.0","battery-v0.2","","""event"",""trial"",""time""
""fullscreenenter"",""1"",""1916""
","
","
","""event"",""trial"",""time""
""fullscreenenter"",""1"",""1916""
","
","","","528.5","","","15","5285","3128","&#9776;","elianto","#3366ff99"," "," ","1","0","[1379.5999999046326]","1","0","1","","","","","","","",""
"pit-trial","24","422880","0.0-2.0-8.0-4.0","battery-v0.2","","""event"",""trial"",""time""
""fullscreenenter"",""1"",""1916""
","
","
","""event"",""trial"",""time""
""fullscreenenter"",""1"",""1916""
","
","","","588.5","","","15","5285","3128","&#9776;","elianto","#3366ff99"," "," ","1","+10","[1445.1000003814697]","1","0","1","","","","","","","",""
"pit-trial","25","426212","0.0-2.0-8.1-0.1","battery-v0.2","","""event"",""trial"",""time""
""fullscreenenter"",""1"",""1916""
","
","
","""event"",""trial"",""time""
""fullscreenenter"",""1"",""1916""
","
","","","461.59999990463257","","","15","5285","3128","&#9776;","elianto","#3366ff99"," "," ","1","+10","[1323.7000002861023]","1","0","1","","","","","","","",""
"pit-trial","26","429618","0.0-2.0-8.1-1.1","battery-v0.2","","""event"",""trial"",""time""
""fullscreenenter"",""1"",""1916""
","
","
","""event"",""trial"",""time""
""fullscreenenter"",""1"",""1916""
","
","","","539.1999998092651","","","15","5285","3128","&#9776;","elianto","#3366ff99"," "," ","1","+10","[1393.8000001907349]","1","0","1","","","","","","","",""
"pit-trial","27","432988","0.0-2.0-8.1-2.1","battery-v0.2","","""event"",""trial"",""time""
""fullscreenenter"",""1"",""1916""
","
","
","""event"",""trial"",""time""
""fullscreenenter"",""1"",""1916""
","
","","","510.2000002861023","","","15","5285","3128","&#9776;","elianto","#3366ff99"," "," ","1","+10","[1362.5]","1","0","1","","","","","","","",""
"pit-trial","28","436445","0.0-2.0-8.1-3.1","battery-v0.2","","""event"",""trial"",""time""
""fullscreenenter"",""1"",""1916""
","
","
","""event"",""trial"",""time""
""fullscreenenter"",""1"",""1916""
","
","","","594.6999998092651","","","15","5285","3128","&#9776;","elianto","#3366ff99"," "," ","1","0","[1448]","1","0","1","","","","","","","",""
"pit-trial","29","440373","0.0-2.0-8.1-4.1","battery-v0.2","","""event"",""trial"",""time""
""fullscreenenter"",""1"",""1916""
","
","
","""event"",""trial"",""time""
""fullscreenenter"",""1"",""1916""
","
","","","1067.0999999046326","","","15","5285","3128","&#9776;","elianto","#3366ff99"," "," ","1","+10","[1918.1999998092651]","1","0","1","","","","","","","",""
"pit-trial","30","443787","0.0-2.0-8.2-0.2","battery-v0.2","","""event"",""trial"",""time""
""fullscreenenter"",""1"",""1916""
","
","
","""event"",""trial"",""time""
""fullscreenenter"",""1"",""1916""
","
","","","552.7999997138977","","","15","5285","3128","&#9776;","elianto","#3366ff99"," "," ","1","+10","[1404.5]","1","0","1","","","","","","","",""
"pit-trial","31","447427","0.0-2.0-8.2-1.2","battery-v0.2","","""event"",""trial"",""time""
""fullscreenenter"",""1"",""1916""
","
","
","""event"",""trial"",""time""
""fullscreenenter"",""1"",""1916""
","
","","","776.0999999046326","","","15","5285","3128","&#9776;","elianto","#3366ff99"," "," ","1","+10","[1630.5999999046326]","1","0","1","","","","","","","",""
"pit-trial","32","450788","0.0-2.0-8.2-2.2","battery-v0.2","","""event"",""trial"",""time""
""fullscreenenter"",""1"",""1916""
","
","
","""event"",""trial"",""time""
""fullscreenenter"",""1"",""1916""
","
","","","500.40000009536743","","","15","5285","3128","&#9776;","elianto","#3366ff99"," "," ","1","+10","[1356]","1","0","1","","","","","","","",""
"pit-trial","33","454404","0.0-2.0-8.2-3.2","battery-v0.2","","""event"",""trial"",""time""
""fullscreenenter"",""1"",""1916""
","
","
","""event"",""trial"",""time""
""fullscreenenter"",""1"",""1916""
","
","","","751.2000002861023","","","15","5285","3128","&#9776;","elianto","#3366ff99"," "," ","1","0","[1606.5999999046326]","1","0","1","","","","","","","",""
"pit-trial","34","457660","0.0-2.0-8.2-4.2","battery-v0.2","","""event"",""trial"",""time""
""fullscreenenter"",""1"",""1916""
","
","
","""event"",""trial"",""time""
""fullscreenenter"",""1"",""1916""
","
","","","395.69999980926514","","","15","5285","3128","&#9776;","elianto","#3366ff99"," "," ","1","+10","[1250.0999999046326]","1","0","1","","","","","","","",""
"call-function","35","457662","0.0-2.0-9.0","battery-v0.2","","""event"",""trial"",""time""
""fullscreenenter"",""1"",""1916""
","
","
","""event"",""trial"",""time""
""fullscreenenter"",""1"",""1916""
","
","","","","","","","","","","","","","","","","","","","","","","","","","","",""
"pit-instructions","36","514422","0.0-2.0-10.0","battery-v0.2","","""event"",""trial"",""time""
""fullscreenenter"",""1"",""1916""
","
","
","""event"",""trial"",""time""
""fullscreenenter"",""1"",""1916""
","
","","[{""page_index"":0,""viewing_time"":15305.699999809265},{""page_index"":1,""viewing_time"":8330.900000095367},{""page_index"":2,""viewing_time"":10842.900000095367},{""page_index"":3,""viewing_time"":12657},{""page_index"":4,""viewing_time"":9621.400000095367}]","56758.699999809265","","","","","","","","","","","","","","","","","","","","","","","",""
"pit-trial","37","517740","0.0-2.0-11.0-0.0","battery-v0.2","","""event"",""trial"",""time""
""fullscreenenter"",""1"",""1916""
","
","
","""event"",""trial"",""time""
""fullscreenenter"",""1"",""1916""
","
","","","446.80000019073486","","","15","5285","3128","&#9761;","elianto","#3366ff99","-1"," ","0","0","[1305.2000002861023]","1","0","2","","","","","","","",""
"pit-trial","38","522615","0.0-2.0-11.0-1.0","battery-v0.2","","""event"",""trial"",""time""
""fullscreenenter"",""1"",""1916""
","
","
","""event"",""trial"",""time""
""fullscreenenter"",""1"",""1916""
","
","","","-1","","","15","5285","3128","&#9761;","elianto","#3366ff99","-1","-1","1","+10","[]","0","0","2","","","","","","","",""
"pit-trial","39","527491","0.0-2.0-11.0-2.0","battery-v0.2","","""event"",""trial"",""time""
""fullscreenenter"",""1"",""1916""
","
","
","""event"",""trial"",""time""
""fullscreenenter"",""1"",""1916""
","
","","","-1","","","15","5285","3128","&#9761;","elianto","#3366ff99","-1","-1","1","+10","[]","0","0","2","","","","","","","",""
"pit-trial","40","532366","0.0-2.0-11.0-3.0","battery-v0.2","","""event"",""trial"",""time""
""fullscreenenter"",""1"",""1916""
","
","
","""event"",""trial"",""time""
""fullscreenenter"",""1"",""1916""
","
","","","-1","","","15","5285","3128","&#9761;","elianto","#3366ff99","-1","-1","1","0","[]","0","0","2","","","","","","","",""
"pit-trial","41","537232","0.0-2.0-11.0-4.0","battery-v0.2","","""event"",""trial"",""time""
""fullscreenenter"",""1"",""1916""
","
","
","""event"",""trial"",""time""
""fullscreenenter"",""1"",""1916""
","
","","","-1","","","15","5285","3128","&#9761;","elianto","#3366ff99","-1","-1","1","+10","[]","0","0","2","","","","","","","",""
"pit-trial","42","542114","0.0-2.0-11.1-0.1","battery-v0.2","","""event"",""trial"",""time""
""fullscreenenter"",""1"",""1916""
","
","
","""event"",""trial"",""time""
""fullscreenenter"",""1"",""1916""
","
","","","-1","","","15","5285","3128","&#9761;","elianto","#3366ff99","-1","-1","1","+10","[]","0","0","2","","","","","","","",""
"pit-trial","43","546980","0.0-2.0-11.1-1.1","battery-v0.2","","""event"",""trial"",""time""
""fullscreenenter"",""1"",""1916""
","
","
","""event"",""trial"",""time""
""fullscreenenter"",""1"",""1916""
","
","","","-1","","","15","5285","3128","&#9761;","elianto","#3366ff99","-1","-1","1","+10","[]","0","0","2","","","","","","","",""
"pit-trial","44","551844","0.0-2.0-11.1-2.1","battery-v0.2","","""event"",""trial"",""time""
""fullscreenenter"",""1"",""1916""
","
","
","""event"",""trial"",""time""
""fullscreenenter"",""1"",""1916""
","
","","","-1","","","15","5285","3128","&#9761;","elianto","#3366ff99","-1","-1","1","+10","[]","0","0","2","","","","","","","",""
"pit-trial","45","556709","0.0-2.0-11.1-3.1","battery-v0.2","","""event"",""trial"",""time""
""fullscreenenter"",""1"",""1916""
","
","
","""event"",""trial"",""time""
""fullscreenenter"",""1"",""1916""
","
","","","-1","","","15","5285","3128","&#9761;","elianto","#3366ff99","-1","-1","1","0","[]","0","0","2","","","","","","","",""
"pit-trial","46","561573","0.0-2.0-11.1-4.1","battery-v0.2","","""event"",""trial"",""time""
""fullscreenenter"",""1"",""1916""
","
","
","""event"",""trial"",""time""
""fullscreenenter"",""1"",""1916""
","
","","","-1","","","15","5285","3128","&#9761;","elianto","#3366ff99","-1","-1","1","+10","[]","0","0","2","","","","","","","",""
"pit-trial","47","566436","0.0-2.0-11.2-0.2","battery-v0.2","","""event"",""trial"",""time""
""fullscreenenter"",""1"",""1916""
","
","
","""event"",""trial"",""time""
""fullscreenenter"",""1"",""1916""
","
","","","-1","","","15","5285","3128","&#9761;","elianto","#3366ff99","-1","-1","1","+10","[]","0","0","2","","","","","","","",""
"pit-trial","48","571301","0.0-2.0-11.2-1.2","battery-v0.2","","""event"",""trial"",""time""
""fullscreenenter"",""1"",""1916""
","
","
","""event"",""trial"",""time""
""fullscreenenter"",""1"",""1916""
","
","","","-1","","","15","5285","3128","&#9761;","elianto","#3366ff99","-1","-1","1","+10","[]","0","0","2","","","","","","","",""
"pit-trial","49","576164","0.0-2.0-11.2-2.2","battery-v0.2","","""event"",""trial"",""time""
""fullscreenenter"",""1"",""1916""
","
","
","""event"",""trial"",""time""
""fullscreenenter"",""1"",""1916""
","
","","","-1","","","15","5285","3128","&#9761;","elianto","#3366ff99","-1","-1","1","+10","[]","0","0","2","","","","","","","",""
"pit-trial","50","581027","0.0-2.0-11.2-3.2","battery-v0.2","","""event"",""trial"",""time""
""fullscreenenter"",""1"",""1916""
","
","
","""event"",""trial"",""time""
""fullscreenenter"",""1"",""1916""
","
","","","-1","","","15","5285","3128","&#9761;","elianto","#3366ff99","-1","-1","1","0","[]","0","0","2","","","","","","","",""
"pit-trial","51","585892","0.0-2.0-11.2-4.2","battery-v0.2","","""event"",""trial"",""time""
""fullscreenenter"",""1"",""1916""
","
","
","""event"",""trial"",""time""
""fullscreenenter"",""1"",""1916""
","
","","","-1","","","15","5285","3128","&#9761;","elianto","#3366ff99","-1","-1","1","+10","[]","0","0","2","","","","","","","",""
"pit-trial","52","590763","0.0-2.0-11.3-0.3","battery-v0.2","","""event"",""trial"",""time""
""fullscreenenter"",""1"",""1916""
","
","
","""event"",""trial"",""time""
""fullscreenenter"",""1"",""1916""
","
","","","-1","","","15","5285","3128","&#9761;","elianto","#3366ff99","-1","-1","1","+10","[]","0","0","2","","","","","","","",""
"pit-trial","53","595628","0.0-2.0-11.3-1.3","battery-v0.2","","""event"",""trial"",""time""
""fullscreenenter"",""1"",""1916""
","
","
","""event"",""trial"",""time""
""fullscreenenter"",""1"",""1916""
","
","","","-1","","","15","5285","3128","&#9761;","elianto","#3366ff99","-1","-1","1","+10","[]","0","0","2","","","","","","","",""
"pit-trial","54","600491","0.0-2.0-11.3-2.3","battery-v0.2","","""event"",""trial"",""time""
""fullscreenenter"",""1"",""1916""
","
","
","""event"",""trial"",""time""
""fullscreenenter"",""1"",""1916""
","
","","","-1","","","15","5285","3128","&#9761;","elianto","#3366ff99","-1","-1","1","+10","[]","0","0","2","","","","","","","",""
"pit-trial","55","605356","0.0-2.0-11.3-3.3","battery-v0.2","","""event"",""trial"",""time""
""fullscreenenter"",""1"",""1916""
","
","
","""event"",""trial"",""time""
""fullscreenenter"",""1"",""1916""
","
","","","-1","","","15","5285","3128","&#9761;","elianto","#3366ff99","-1","-1","1","0","[]","0","0","2","","","","","","","",""
"pit-trial","56","610219","0.0-2.0-11.3-4.3","battery-v0.2","","""event"",""trial"",""time""
""fullscreenenter"",""1"",""1916""
","
","
","""event"",""trial"",""time""
""fullscreenenter"",""1"",""1916""
","
","","","-1","","","15","5285","3128","&#9761;","elianto","#3366ff99","-1","-1","1","+10","[]","0","0","2","","","","","","","",""
"call-function","57","610221","0.0-2.0-12.0","battery-v0.2","","""event"",""trial"",""time""
""fullscreenenter"",""1"",""1916""
","
","
","""event"",""trial"",""time""
""fullscreenenter"",""1"",""1916""
","
","","","","","","","","","","","","","","","","","","","","","","","","","","",""
"pit-instructions","58","657639","0.0-2.0-13.0","battery-v0.2","","""event"",""trial"",""time""
""fullscreenenter"",""1"",""1916""
","
","
","""event"",""trial"",""time""
""fullscreenenter"",""1"",""1916""
","
","","[{""page_index"":0,""viewing_time"":6860.900000095367},{""page_index"":1,""viewing_time"":11584.699999809265},{""page_index"":2,""viewing_time"":5207.400000095367},{""page_index"":3,""viewing_time"":10850.200000286102},{""page_index"":4,""viewing_time"":12913.599999904633}]","47417.2000002861","","","","","","","","","","","","","","","","","","","","","","","",""
"pit-trial","59","662518","0.0-2.0-14.0-0.0","battery-v0.2","","""event"",""trial"",""time""
""fullscreenenter"",""1"",""1916""
","
","
","""event"",""trial"",""time""
""fullscreenenter"",""1"",""1916""
","
","","","-1","","","15","5285","3128","&#9826;","elianto","#f73b6a7A","-1","-1","1","0","[]","0","0","3","","","","","","","",""
"pit-trial","60","665831","0.0-2.0-14.0-1.0","battery-v0.2","","""event"",""trial"",""time""
""fullscreenenter"",""1"",""1916""
","
","
","""event"",""trial"",""time""
""fullscreenenter"",""1"",""1916""
","
","","","436.69999980926514","","","15","5285","3128","&#9826;","elianto","#f73b6a7A","-1"," ","0","-10","[1292.5]","1","0","3","","","","","","","",""
"pit-trial","61","670702","0.0-2.0-14.0-2.0","battery-v0.2","","""event"",""trial"",""time""
""fullscreenenter"",""1"",""1916""
","
","
","""event"",""trial"",""time""
""fullscreenenter"",""1"",""1916""
","
","","","-1","","","15","5285","3128","&#9826;","elianto","#f73b6a7A","-1","-1","1","0","[]","0","0","3","","","","","","","",""
"pit-trial","62","675570","0.0-2.0-14.0-3.0","battery-v0.2","","""event"",""trial"",""time""
""fullscreenenter"",""1"",""1916""
","
","
","""event"",""trial"",""time""
""fullscreenenter"",""1"",""1916""
","
","","","-1","","","15","5285","3128","&#9826;","elianto","#f73b6a7A","-1","-1","1","-10","[]","0","0","3","","","","","","","",""
"pit-trial","63","680436","0.0-2.0-14.0-4.0","battery-v0.2","","""event"",""trial"",""time""
""fullscreenenter"",""1"",""1916""
","
","
","""event"",""trial"",""time""
""fullscreenenter"",""1"",""1916""
","
","","","-1","","","15","5285","3128","&#9826;","elianto","#f73b6a7A","-1","-1","1","0","[]","0","0","3","","","","","","","",""
"pit-trial","64","685300","0.0-2.0-14.1-0.1","battery-v0.2","","""event"",""trial"",""time""
""fullscreenenter"",""1"",""1916""
","
","
","""event"",""trial"",""time""
""fullscreenenter"",""1"",""1916""
","
","","","-1","","","15","5285","3128","&#9826;","elianto","#f73b6a7A","-1","-1","1","0","[]","0","0","3","","","","","","","",""
"pit-trial","65","690164","0.0-2.0-14.1-1.1","battery-v0.2","","""event"",""trial"",""time""
""fullscreenenter"",""1"",""1916""
","
","
","""event"",""trial"",""time""
""fullscreenenter"",""1"",""1916""
","
","","","-1","","","15","5285","3128","&#9826;","elianto","#f73b6a7A","-1","-1","1","0","[]","0","0","3","","","","","","","",""
"pit-trial","66","695028","0.0-2.0-14.1-2.1","battery-v0.2","","""event"",""trial"",""time""
""fullscreenenter"",""1"",""1916""
","
","
","""event"",""trial"",""time""
""fullscreenenter"",""1"",""1916""
","
","","","-1","","","15","5285","3128","&#9826;","elianto","#f73b6a7A","-1","-1","1","0","[]","0","0","3","","","","","","","",""
"pit-trial","67","699892","0.0-2.0-14.1-3.1","battery-v0.2","","""event"",""trial"",""time""
""fullscreenenter"",""1"",""1916""
","
","
","""event"",""trial"",""time""
""fullscreenenter"",""1"",""1916""
","
","","","-1","","","15","5285","3128","&#9826;","elianto","#f73b6a7A","-1","-1","1","-10","[]","0","0","3","","","","","","","",""
"pit-trial","68","704756","0.0-2.0-14.1-4.1","battery-v0.2","","""event"",""trial"",""time""
""fullscreenenter"",""1"",""1916""
","
","
","""event"",""trial"",""time""
""fullscreenenter"",""1"",""1916""
","
","","","-1","","","15","5285","3128","&#9826;","elianto","#f73b6a7A","-1","-1","1","0","[]","0","0","3","","","","","","","",""
"pit-trial","69","709621","0.0-2.0-14.2-0.2","battery-v0.2","","""event"",""trial"",""time""
""fullscreenenter"",""1"",""1916""
","
","
","""event"",""trial"",""time""
""fullscreenenter"",""1"",""1916""
","
","","","-1","","","15","5285","3128","&#9826;","elianto","#f73b6a7A","-1","-1","1","0","[]","0","0","3","","","","","","","",""
"pit-trial","70","714485","0.0-2.0-14.2-1.2","battery-v0.2","","""event"",""trial"",""time""
""fullscreenenter"",""1"",""1916""
","
","
","""event"",""trial"",""time""
""fullscreenenter"",""1"",""1916""
","
","","","-1","","","15","5285","3128","&#9826;","elianto","#f73b6a7A","-1","-1","1","0","[]","0","0","3","","","","","","","",""
"pit-trial","71","719347","0.0-2.0-14.2-2.2","battery-v0.2","","""event"",""trial"",""time""
""fullscreenenter"",""1"",""1916""
","
","
","""event"",""trial"",""time""
""fullscreenenter"",""1"",""1916""
","
","","","-1","","","15","5285","3128","&#9826;","elianto","#f73b6a7A","-1","-1","1","0","[]","0","0","3","","","","","","","",""
"pit-trial","72","724212","0.0-2.0-14.2-3.2","battery-v0.2","","""event"",""trial"",""time""
""fullscreenenter"",""1"",""1916""
","
","
","""event"",""trial"",""time""
""fullscreenenter"",""1"",""1916""
","
","","","-1","","","15","5285","3128","&#9826;","elianto","#f73b6a7A","-1","-1","1","-10","[]","0","0","3","","","","","","","",""
"pit-trial","73","729076","0.0-2.0-14.2-4.2","battery-v0.2","","""event"",""trial"",""time""
""fullscreenenter"",""1"",""1916""
","
","
","""event"",""trial"",""time""
""fullscreenenter"",""1"",""1916""
","
","","","-1","","","15","5285","3128","&#9826;","elianto","#f73b6a7A","-1","-1","1","0","[]","0","0","3","","","","","","","",""
"pit-trial","74","732564","0.0-2.0-14.3-0.3","battery-v0.2","","""event"",""trial"",""time""
""fullscreenenter"",""1"",""1916""
","
","
","""event"",""trial"",""time""
""fullscreenenter"",""1"",""1916""
","
","","","623","","","15","5285","3128","&#9826;","elianto","#f73b6a7A","-1"," ","0","-10","[1477.2999997138977]","1","0","3","","","","","","","",""
"pit-trial","75","735557","0.0-2.0-14.3-1.3","battery-v0.2","","""event"",""trial"",""time""
""fullscreenenter"",""1"",""1916""
","
","
","""event"",""trial"",""time""
""fullscreenenter"",""1"",""1916""
","
","","","128","","","15","5285","3128","&#9826;","elianto","#f73b6a7A","-1"," ","0","-10","[985.1000003814697]","1","0","3","","","","","","","",""
"pit-trial","76","740420","0.0-2.0-14.3-2.3","battery-v0.2","","""event"",""trial"",""time""
""fullscreenenter"",""1"",""1916""
","
","
","""event"",""trial"",""time""
""fullscreenenter"",""1"",""1916""
","
","","","-1","","","15","5285","3128","&#9826;","elianto","#f73b6a7A","-1","-1","1","0","[]","0","0","3","","","","","","","",""
"pit-trial","77","745283","0.0-2.0-14.3-3.3","battery-v0.2","","""event"",""trial"",""time""
""fullscreenenter"",""1"",""1916""
","
","
","""event"",""trial"",""time""
""fullscreenenter"",""1"",""1916""
","
","","","-1","","","15","5285","3128","&#9826;","elianto","#f73b6a7A","-1","-1","1","-10","[]","0","0","3","","","","","","","",""
"pit-trial","78","750148","0.0-2.0-14.3-4.3","battery-v0.2","","""event"",""trial"",""time""
""fullscreenenter"",""1"",""1916""
","
","
","""event"",""trial"",""time""
""fullscreenenter"",""1"",""1916""
","
","","","-1","","","15","5285","3128","&#9826;","elianto","#f73b6a7A","-1","-1","1","0","[]","0","0","3","","","","","","","",""
"call-function","79","750150","0.0-2.0-15.0","battery-v0.2","","""event"",""trial"",""time""
""fullscreenenter"",""1"",""1916""
","
","
","""event"",""trial"",""time""
""fullscreenenter"",""1"",""1916""
","
","","","","","","","","","","","","","","","","","","","","","","","","","","",""
"pit-instructions","80","794583","0.0-2.0-16.0","battery-v0.2","","""event"",""trial"",""time""
""fullscreenenter"",""1"",""1916""
","
","
","""event"",""trial"",""time""
""fullscreenenter"",""1"",""1916""
","
","","[{""page_index"":0,""viewing_time"":14236},{""page_index"":1,""viewing_time"":19146.300000190735},{""page_index"":2,""viewing_time"":5018.5},{""page_index"":3,""viewing_time"":6031.599999904633}]","44432.90000009537","","","","","","","","","","","","","","","","","","","","","","","",""
"pit-trial","81","798257","0.0-2.0-17.0-0.0","battery-v0.2","","""event"",""trial"",""time""
""fullscreenenter"",""1"",""1916""
","
","
","""event"",""trial"",""time""
""fullscreenenter"",""1"",""1916""
","
","","","798.0999999046326","","","15","5285","3128","&#9789;","elianto","#f73b6a7A"," "," ","1","0","[1658.5]","1","0","4","","","","","","","",""
"pit-trial","82","801768","0.0-2.0-17.0-1.0","battery-v0.2","","""event"",""trial"",""time""
""fullscreenenter"",""1"",""1916""
","
","
","""event"",""trial"",""time""
""fullscreenenter"",""1"",""1916""
","
","","","645.4000000953674","","","15","5285","3128","&#9789;","elianto","#f73b6a7A"," "," ","1","0","[1495.9000000953674]","1","0","4","","","","","","","",""
"pit-trial","83","804685","0.0-2.0-17.0-2.0","battery-v0.2","","""event"",""trial"",""time""
""fullscreenenter"",""1"",""1916""
","
","
","""event"",""trial"",""time""
""fullscreenenter"",""1"",""1916""
","
","","","52.69999980926514","","","15","5285","3128","&#9789;","elianto","#f73b6a7A"," "," ","1","0","[903.4000000953674]","1","0","4","","","","","","","",""
"pit-trial","84","807992","0.0-2.0-17.0-3.0","battery-v0.2","","""event"",""trial"",""time""
""fullscreenenter"",""1"",""1916""
","
","
","""event"",""trial"",""time""
""fullscreenenter"",""1"",""1916""
","
","","","427.19999980926514","","","15","5285","3128","&#9789;","elianto","#f73b6a7A"," "," ","1","-10","[1292.6999998092651]","1","0","4","","","","","","","",""
"pit-trial","85","811226","0.0-2.0-17.0-4.0","battery-v0.2","","""event"",""trial"",""time""
""fullscreenenter"",""1"",""1916""
","
","
","""event"",""trial"",""time""
""fullscreenenter"",""1"",""1916""
","
","","","366","","","15","5285","3128","&#9789;","elianto","#f73b6a7A"," "," ","1","0","[1221.8000001907349]","1","0","4","","","","","","","",""
"pit-trial","86","814454","0.0-2.0-17.1-0.1","battery-v0.2","","""event"",""trial"",""time""
""fullscreenenter"",""1"",""1916""
","
","
","""event"",""trial"",""time""
""fullscreenenter"",""1"",""1916""
","
","","","362.69999980926514","","","15","5285","3128","&#9789;","elianto","#f73b6a7A"," "," ","1","0","[1219.7999997138977]","1","0","4","","","","","","","",""
"pit-trial","87","819324","0.0-2.0-17.1-1.1","battery-v0.2","","""event"",""trial"",""time""
""fullscreenenter"",""1"",""1916""
","
","
","""event"",""trial"",""time""
""fullscreenenter"",""1"",""1916""
","
","","","-1","","","15","5285","3128","&#9789;","elianto","#f73b6a7A"," ","-1","0","-10","[]","0","0","4","","","","","","","",""
"pit-trial","88","822669","0.0-2.0-17.1-2.1","battery-v0.2","","""event"",""trial"",""time""
""fullscreenenter"",""1"",""1916""
","
","
","""event"",""trial"",""time""
""fullscreenenter"",""1"",""1916""
","
","","","480.6000003814697","","","15","5285","3128","&#9789;","elianto","#f73b6a7A"," "," ","1","0","[1331.2000002861023]","1","0","4","","","","","","","",""
"pit-trial","89","826012","0.0-2.0-17.1-3.1","battery-v0.2","","""event"",""trial"",""time""
""fullscreenenter"",""1"",""1916""
","
","
","""event"",""trial"",""time""
""fullscreenenter"",""1"",""1916""
","
","","","485.40000009536743","","","15","5285","3128","&#9789;","elianto","#f73b6a7A"," "," ","1","-10","[1338.3000001907349]","1","0","4","","","","","","","",""
"pit-trial","90","829692","0.0-2.0-17.1-4.1","battery-v0.2","","""event"",""trial"",""time""
""fullscreenenter"",""1"",""1916""
","
","
","""event"",""trial"",""time""
""fullscreenenter"",""1"",""1916""
","
","","","822.1999998092651","","","15","5285","3128","&#9789;","elianto","#f73b6a7A"," "," ","1","0","[1675.0999999046326]","1","0","4","","","","","","","",""
"pit-trial","91","833061","0.0-2.0-17.2-0.2","battery-v0.2","","""event"",""trial"",""time""
""fullscreenenter"",""1"",""1916""
","
","
","""event"",""trial"",""time""
""fullscreenenter"",""1"",""1916""
","
","","","504","","","15","5285","3128","&#9789;","elianto","#f73b6a7A"," "," ","1","0","[1357.6000003814697]","1","0","4","","","","","","","",""
"pit-trial","92","836605","0.0-2.0-17.2-1.2","battery-v0.2","","""event"",""trial"",""time""
""fullscreenenter"",""1"",""1916""
","
","
","""event"",""trial"",""time""
""fullscreenenter"",""1"",""1916""
","
","","","680.2999997138977","","","15","5285","3128","&#9789;","elianto","#f73b6a7A"," "," ","1","0","[1538.0999999046326]","1","0","4","","","","","","","",""
"pit-trial","93","840077","0.0-2.0-17.2-2.2","battery-v0.2","","""event"",""trial"",""time""
""fullscreenenter"",""1"",""1916""
","
","
","""event"",""trial"",""time""
""fullscreenenter"",""1"",""1916""
","
","","","613.8000001907349","","","15","5285","3128","&#9789;","elianto","#f73b6a7A"," "," ","1","0","[1466.2000002861023]","1","0","4","","","","","","","",""
"pit-trial","94","843356","0.0-2.0-17.2-3.2","battery-v0.2","","""event"",""trial"",""time""
""fullscreenenter"",""1"",""1916""
","
","
","""event"",""trial"",""time""
""fullscreenenter"",""1"",""1916""
","
","","","418.40000009536743","","","15","5285","3128","&#9789;","elianto","#f73b6a7A"," "," ","1","-10","[1270.2000002861023,2835.4000000953674]","2","0","4","","","","","","","",""
"pit-trial","95","847020","0.0-2.0-17.2-4.2","battery-v0.2","","""event"",""trial"",""time""
""fullscreenenter"",""1"",""1916""
","
","
","""event"",""trial"",""time""
""fullscreenenter"",""1"",""1916""
","
","","","797.6999998092651","","","15","5285","3128","&#9789;","elianto","#f73b6a7A"," "," ","1","0","[1652.9000000953674]","1","0","4","","","","","","","",""
"pit-trial","96","850412","0.0-2.0-17.3-0.3","battery-v0.2","","""event"",""trial"",""time""
""fullscreenenter"",""1"",""1916""
","
","
","""event"",""trial"",""time""
""fullscreenenter"",""1"",""1916""
","
","","","531.2000002861023","","","15","5285","3128","&#9789;","elianto","#f73b6a7A"," "," ","1","0","[1381.8999996185303]","1","0","4","","","","","","","",""
"pit-trial","97","854028","0.0-2.0-17.3-1.3","battery-v0.2","","""event"",""trial"",""time""
""fullscreenenter"",""1"",""1916""
","
","
","""event"",""trial"",""time""
""fullscreenenter"",""1"",""1916""
","
","","","752.8000001907349","","","15","5285","3128","&#9789;","elianto","#f73b6a7A"," "," ","1","0","[1607.5999999046326]","1","0","4","","","","","","","",""
"pit-trial","98","857740","0.0-2.0-17.3-2.3","battery-v0.2","","""event"",""trial"",""time""
""fullscreenenter"",""1"",""1916""
","
","
","""event"",""trial"",""time""
""fullscreenenter"",""1"",""1916""
","
","","","849.5","","","15","5285","3128","&#9789;","elianto","#f73b6a7A"," "," ","1","0","[1700.5999999046326]","1","0","4","","","","","","","",""
"pit-trial","99","860901","0.0-2.0-17.3-3.3","battery-v0.2","","""event"",""trial"",""time""
""fullscreenenter"",""1"",""1916""
","
","
","""event"",""trial"",""time""
""fullscreenenter"",""1"",""1916""
","
","","","297.40000009536743","","","15","5285","3128","&#9789;","elianto","#f73b6a7A"," "," ","1","-10","[1151.5]","1","0","4","","","","","","","",""
"pit-trial","100","864188","0.0-2.0-17.3-4.3","battery-v0.2","","""event"",""trial"",""time""
""fullscreenenter"",""1"",""1916""
","
","
","""event"",""trial"",""time""
""fullscreenenter"",""1"",""1916""
","
","","","425.09999990463257","","","15","5285","3128","&#9789;","elianto","#f73b6a7A"," "," ","1","0","[1277.7000002861023]","1","0","4","","","","","","","",""
"call-function","101","864190","0.0-2.0-18.0","battery-v0.2","","""event"",""trial"",""time""
""fullscreenenter"",""1"",""1916""
","
","
","""event"",""trial"",""time""
""fullscreenenter"",""1"",""1916""
","
","","","","","","","","","","","","","","","","","","","","","","","","","","",""
"pit-instructions","102","1007325","0.0-2.0-19.0","battery-v0.2","","""event"",""trial"",""time""
""fullscreenenter"",""1"",""1916""
","
","
","""event"",""trial"",""time""
""fullscreenenter"",""1"",""1916""
","
","","[{""page_index"":0,""viewing_time"":10256.599999904633},{""page_index"":1,""viewing_time"":7937.699999809265},{""page_index"":2,""viewing_time"":15214.5},{""page_index"":3,""viewing_time"":11698.5},{""page_index"":4,""viewing_time"":14298.099999904633},{""page_index"":5,""viewing_time"":62028.90000009537},{""page_index"":6,""viewing_time"":9860.5},{""page_index"":7,""viewing_time"":6573.400000095367},{""page_index"":8,""viewing_time"":5265.800000190735}]","143134.5","","","","","","","","","","","","","","","","","","","","","","","",""
"pit-comprehension","103","1012357","0.0-2.0-20.0-0.0","battery-v0.2","","""event"",""trial"",""time""
""fullscreenenter"",""1"",""1916""
","
","
","""event"",""trial"",""time""
""fullscreenenter"",""1"",""1916""
","
","","","5027.099999904633","[""SPACE""]","0","15","5285","3128","","","","","","","","","","","","","","","","","","",""
"pit-instructions","104","1019704","0.0-2.0-20.0-1.0","battery-v0.2","","""event"",""trial"",""time""
""fullscreenenter"",""1"",""1916""
","
","
","""event"",""trial"",""time""
""fullscreenenter"",""1"",""1916""
","
","","[{""page_index"":0,""viewing_time"":7279.5}]","7280.200000286102","","","","","","","","","","","","","","","","","","","","","","","",""
"pit-comprehension","105","1025577","0.0-2.0-21.0-0.0","battery-v0.2","","""event"",""trial"",""time""
""fullscreenenter"",""1"",""1916""
","
","
","""event"",""trial"",""time""
""fullscreenenter"",""1"",""1916""
","
","","","5866.200000286102","[""10""]","0","15","5285","3128","","","","","","","","","","","","","","","","","","",""
"pit-instructions","106","1031204","0.0-2.0-21.0-1.0","battery-v0.2","","""event"",""trial"",""time""
""fullscreenenter"",""1"",""1916""
","
","
","""event"",""trial"",""time""
""fullscreenenter"",""1"",""1916""
","
","","[{""page_index"":0,""viewing_time"":5566.599999904633}]","5567.099999904633","","","","","","","","","","","","","","","","","","","","","","","",""
"pit-comprehension","107","1123751","0.0-2.0-22.0-0.0","battery-v0.2","","""event"",""trial"",""time""
""fullscreenenter"",""1"",""1916""
","
","
","""event"",""trial"",""time""
""fullscreenenter"",""1"",""1916""
","
","","","92539.80000019073","[""0""]","0","15","5285","3128","","","","","","","","","","","","","","","","","","",""
"pit-instructions","108","1126261","0.0-2.0-22.0-1.0","battery-v0.2","","""event"",""trial"",""time""
""fullscreenenter"",""1"",""1916""
","
","
","""event"",""trial"",""time""
""fullscreenenter"",""1"",""1916""
","
","","[{""page_index"":0,""viewing_time"":2450.6000003814697}]","2451","","","","","","","","","","","","","","","","","","","","","","","",""
"pit-comprehension","109","1135095","0.0-2.0-23.0-0.0","battery-v0.2","","""event"",""trial"",""time""
""fullscreenenter"",""1"",""1916""
","
","
","""event"",""trial"",""time""
""fullscreenenter"",""1"",""1916""
","
","","","8828.799999713898","[""True""]","0","15","5285","3128","","","","","","","","","","","","","","","","","","",""
"pit-instructions","110","1137957","0.0-2.0-23.0-1.0","battery-v0.2","","""event"",""trial"",""time""
""fullscreenenter"",""1"",""1916""
","
","
","""event"",""trial"",""time""
""fullscreenenter"",""1"",""1916""
","
","","[{""page_index"":0,""viewing_time"":2793}]","2793.199999809265","","","","","","","","","","","","","","","","","","","","","","","",""
"pit-comprehension","111","1247481","0.0-2.0-24.0-0.0","battery-v0.2","","""event"",""trial"",""time""
""fullscreenenter"",""1"",""1916""
","
","
","""event"",""trial"",""time""
""fullscreenenter"",""1"",""1916""
","
","","","109519.30000019073","[""True""]","0","15","5285","3128","","","","","","","","","","","","","","","","","","",""
"pit-instructions","112","1259959","0.0-2.0-24.0-1.0","battery-v0.2","","""event"",""trial"",""time""
""fullscreenenter"",""1"",""1916""
","
","
","""event"",""trial"",""time""
""fullscreenenter"",""1"",""1916""
","
","","[{""page_index"":0,""viewing_time"":12416.39999961853}]","12416.799999713898","","","","","","","","","","","","","","","","","","","","","","","",""
"pit-comprehension","113","1267437","0.0-2.0-25.0-0.0","battery-v0.2","","""event"",""trial"",""time""
""fullscreenenter"",""1"",""1916""
","
","
","""event"",""trial"",""time""
""fullscreenenter"",""1"",""1916""
","
","","","7472.5","[""True""]","0","15","5285","3128","","","","","","","","","","","","","","","","","","",""
"pit-instructions","114","1269352","0.0-2.0-25.0-1.0","battery-v0.2","","""event"",""trial"",""time""
""fullscreenenter"",""1"",""1916""
","
","
","""event"",""trial"",""time""
""fullscreenenter"",""1"",""1916""
","
","","[{""page_index"":0,""viewing_time"":1851.3000001907349}]","1851.5","","","","","","","","","","","","","","","","","","","","","","","",""
"pit-comprehension","115","1274675","0.0-2.0-26.0-0.0","battery-v0.2","","""event"",""trial"",""time""
""fullscreenenter"",""1"",""1916""
","
","
","""event"",""trial"",""time""
""fullscreenenter"",""1"",""1916""
","
","","","5316.60000038147","[""False""]","0","15","5285","3128","","","","","","","","","","","","","","","","","","",""
"pit-instructions","116","1277371","0.0-2.0-26.0-1.0","battery-v0.2","","""event"",""trial"",""time""
""fullscreenenter"",""1"",""1916""
","
","
","""event"",""trial"",""time""
""fullscreenenter"",""1"",""1916""
","
","","[{""page_index"":0,""viewing_time"":2630.4000000953674}]","2630.800000190735","","","","","","","","","","","","","","","","","","","","","","","",""
"pit-instructions","117","1742786","0.0-3.0","battery-v0.2","","""event"",""trial"",""time""
""fullscreenenter"",""1"",""1916""
","
","
","""event"",""trial"",""time""
""fullscreenenter"",""1"",""1916""
","
","","[{""page_index"":0,""viewing_time"":5025.400000095367},{""page_index"":1,""viewing_time"":453894.19999980927},{""page_index"":2,""viewing_time"":6493}]","465412.90000009537","","","","","","","","","","","","","","","","","","","","","","","",""
"pit-trial","118","1746827","0.0-4.0","battery-v0.2","","""event"",""trial"",""time""
""fullscreenenter"",""1"",""1916""
","
","
","""event"",""trial"",""time""
""fullscreenenter"",""1"",""1916""
","
","","","1157.3000001907349","","","15","5285","3128","&#9728;","elianto","#f73b6a7A","-1"," ","0","-10","[2010.8000001907349]","1","1","","","5285","1","0","4","lose","no-go","0"
"pit-trial","119","1750228","0.0-5.0","battery-v0.2","","""event"",""trial"",""time""
""fullscreenenter"",""1"",""1916""
","
","
","""event"",""trial"",""time""
""fullscreenenter"",""1"",""1916""
","
","","","540.3000001907349","","","15","5285","3128","&#9733;","elianto","#3366ff99","-1"," ","0","0","[1390.4000000953674]","1","1","","","5285","2","2","2","win","no-go","0"
"pit-trial","120","1753885","0.0-6.0","battery-v0.2","","""event"",""trial"",""time""
""fullscreenenter"",""1"",""1916""
","
","
","""event"",""trial"",""time""
""fullscreenenter"",""1"",""1916""
","
","","","787.5","","","15","5285","3128","&#9752;","elianto","#f73b6a7A"," "," ","1","0","[1646]","1","1","","","5285","3","3","3","lose","go","0"
"pit-trial","121","1757582","0.0-7.0","battery-v0.2","","""event"",""trial"",""time""
""fullscreenenter"",""1"",""1916""
","
","
","""event"",""trial"",""time""
""fullscreenenter"",""1"",""1916""
","
","","","825.0999999046326","","","15","5285","3128","&#9730;","elianto","#3366ff99"," "," ","1","+10","[1677]","1","1","","","5285","4","1","1","win","go","0"
"pit-trial","122","1761458","0.0-8.0","battery-v0.2","","""event"",""trial"",""time""
""fullscreenenter"",""1"",""1916""
","
","
","""event"",""trial"",""time""
""fullscreenenter"",""1"",""1916""
","
","","","997.0999999046326","","","15","5285","3128","&#9752;","elianto","#f73b6a7A"," "," ","1","-10","[1850.5999999046326]","1","1","","","5285","5","3","3","lose","go","1"
"pit-trial","123","1766150","0.0-9.0","battery-v0.2","","""event"",""trial"",""time""
""fullscreenenter"",""1"",""1916""
","
","
","""event"",""trial"",""time""
""fullscreenenter"",""1"",""1916""
","
","","","1814.8999996185303","","","15","5285","3128","&#9730;","elianto","#3366ff99"," "," ","1","+10","[2671.5]","1","1","","","5285","6","1","1","win","go","0"
"pit-trial","124","1771020","0.0-10.0","battery-v0.2","","""event"",""trial"",""time""
""fullscreenenter"",""1"",""1916""
","
","
","""event"",""trial"",""time""
""fullscreenenter"",""1"",""1916""
","
","","","-1","","","15","5285","3128","&#9728;","elianto","#f73b6a7A","-1","-1","1","0","[]","0","1","","","5285","7","0","4","lose","no-go","0"
"pit-trial","125","1774828","0.0-11.0","battery-v0.2","","""event"",""trial"",""time""
""fullscreenenter"",""1"",""1916""
","
","
","""event"",""trial"",""time""
""fullscreenenter"",""1"",""1916""
","
","","","950.8000001907349","","","15","5285","3128","&#9733;","elianto","#3366ff99","-1"," ","0","0","[1803.5]","1","1","","","5285","8","2","2","win","no-go","0"
"pit-trial","126","1779692","0.0-12.0","battery-v0.2","","""event"",""trial"",""time""
""fullscreenenter"",""1"",""1916""
","
","
","""event"",""trial"",""time""
""fullscreenenter"",""1"",""1916""
","
","","","-1","","","15","5285","3128","&#9733;","elianto","#3366ff99","-1","-1","1","+10","[]","0","1","","","5285","9","2","2","win","no-go","0"
"pit-trial","127","1784556","0.0-13.0","battery-v0.2","","""event"",""trial"",""time""
""fullscreenenter"",""1"",""1916""
","
","
","""event"",""trial"",""time""
""fullscreenenter"",""1"",""1916""
","
","","","-1","","","15","5285","3128","&#9728;","elianto","#f73b6a7A","-1","-1","1","-10","[]","0","1","","","5285","10","0","4","lose","no-go","1"
"pit-trial","128","1789420","0.0-14.0","battery-v0.2","","""event"",""trial"",""time""
""fullscreenenter"",""1"",""1916""
","
","
","""event"",""trial"",""time""
""fullscreenenter"",""1"",""1916""
","
","","","-1","","","15","5285","3128","&#9752;","elianto","#f73b6a7A"," ","-1","0","0","[]","0","1","","","5285","11","3","3","lose","go","1"
"pit-trial","129","1793828","0.0-15.0","battery-v0.2","","""event"",""trial"",""time""
""fullscreenenter"",""1"",""1916""
","
","
","""event"",""trial"",""time""
""fullscreenenter"",""1"",""1916""
","
","","","1553.8000001907349","","","15","5285","3128","&#9730;","elianto","#3366ff99"," "," ","1","+10","[2405.2000002861023]","1","1","","","5285","12","1","1","win","go","0"
"pit-trial","130","1798692","0.0-16.0","battery-v0.2","","""event"",""trial"",""time""
""fullscreenenter"",""1"",""1916""
","
","
","""event"",""trial"",""time""
""fullscreenenter"",""1"",""1916""
","
","","","-1","","","15","5285","3128","&#9752;","elianto","#f73b6a7A"," ","-1","0","-10","[]","0","1","","","5285","13","3","3","lose","go","0"
"pit-trial","131","1802332","0.0-17.0","battery-v0.2","","""event"",""trial"",""time""
""fullscreenenter"",""1"",""1916""
","
","
","""event"",""trial"",""time""
""fullscreenenter"",""1"",""1916""
","
","","","786.9000000953674","","","15","5285","3128","&#9730;","elianto","#3366ff99"," "," ","1","+10","[1636.9000000953674]","1","1","","","5285","14","1","1","win","go","0"
"pit-trial","132","1807195","0.0-18.0","battery-v0.2","","""event"",""trial"",""time""
""fullscreenenter"",""1"",""1916""
","
","
","""event"",""trial"",""time""
""fullscreenenter"",""1"",""1916""
","
","","","-1","","","15","5285","3128","&#9728;","elianto","#f73b6a7A","-1","-1","1","0","[]","0","1","","","5285","15","0","4","lose","no-go","0"
"pit-trial","133","1811349","0.0-19.0","battery-v0.2","","""event"",""trial"",""time""
""fullscreenenter"",""1"",""1916""
","
","
","""event"",""trial"",""time""
""fullscreenenter"",""1"",""1916""
","
","","","1288.5999999046326","","","15","5285","3128","&#9733;","elianto","#3366ff99","-1"," ","0","0","[2142.300000190735]","1","1","","","5285","16","2","2","win","no-go","0"
"pit-trial","134","1816212","0.0-20.0","battery-v0.2","","""event"",""trial"",""time""
""fullscreenenter"",""1"",""1916""
","
","
","""event"",""trial"",""time""
""fullscreenenter"",""1"",""1916""
","
","","","-1","","","15","5285","3128","&#9728;","elianto","#f73b6a7A","-1","-1","1","0","[]","0","1","","","5285","17","0","4","lose","no-go","0"
"pit-trial","135","1821085","0.0-21.0","battery-v0.2","","""event"",""trial"",""time""
""fullscreenenter"",""1"",""1916""
","
","
","""event"",""trial"",""time""
""fullscreenenter"",""1"",""1916""
","
","","","-1","","","15","5285","3128","&#9752;","elianto","#f73b6a7A"," ","-1","0","-10","[]","0","1","","","5285","18","3","3","lose","go","0"
"pit-trial","136","1825172","0.0-22.0","battery-v0.2","","""event"",""trial"",""time""
""fullscreenenter"",""1"",""1916""
","
","
","""event"",""trial"",""time""
""fullscreenenter"",""1"",""1916""
","
","","","1224.8000001907349","","","15","5285","3128","&#9730;","elianto","#3366ff99"," "," ","1","+10","[2076.1000003814697]","1","1","","","5285","19","1","1","win","go","0"
"pit-trial","137","1830035","0.0-23.0","battery-v0.2","","""event"",""trial"",""time""
""fullscreenenter"",""1"",""1916""
","
","
","""event"",""trial"",""time""
""fullscreenenter"",""1"",""1916""
","
","","","-1","","","15","5285","3128","&#9733;","elianto","#3366ff99","-1","-1","1","+10","[]","0","1","","","5285","20","2","2","win","no-go","0"
"pit-instructions","138","2079451","0.0-24.0","battery-v0.2","","""event"",""trial"",""time""
""fullscreenenter"",""1"",""1916""
","
","
","""event"",""trial"",""time""
""fullscreenenter"",""1"",""1916""
","
","","[{""page_index"":0,""viewing_time"":240680.40000009537},{""page_index"":1,""viewing_time"":8732.599999904633}]","249413.59999990463","","","","","","","","","","","","","","","","","","","","","","","",""
"pit-trial","139","2083169","0.0-25.0","battery-v0.2","","""event"",""trial"",""time""
""fullscreenenter"",""1"",""1916""
","
","
","""event"",""trial"",""time""
""fullscreenenter"",""1"",""1916""
","
","","","842.6999998092651","","","15","5285","3128","n","elianto","#f73b6a7A","-1"," ","0","-10","[1698]","1","2","","","5285","21","0","4","lose","no-go","0"
"pit-trial","140","2087330","0.0-26.0","battery-v0.2","","""event"",""trial"",""time""
""fullscreenenter"",""1"",""1916""
","
","
","""event"",""trial"",""time""
""fullscreenenter"",""1"",""1916""
","
","","","1276.2999997138977","","","15","5285","3128","b","elianto","#f73b6a7A"," "," ","1","0","[2135.7999997138977]","1","2","","","5285","22","3","3","lose","go","0"
"pit-trial","141","2091002","0.0-27.0","battery-v0.2","","""event"",""trial"",""time""
""fullscreenenter"",""1"",""1916""
","
","
","""event"",""trial"",""time""
""fullscreenenter"",""1"",""1916""
","
","","","792","","","15","5285","3128","t","elianto","#f73b6a7A","-1"," ","0","-10","[1652.5999999046326]","1","2","","","5285","23","2","4","lose","no-go","0"
"pit-trial","142","2094678","0.0-28.0","battery-v0.2","","""event"",""trial"",""time""
""fullscreenenter"",""1"",""1916""
","
","
","""event"",""trial"",""time""
""fullscreenenter"",""1"",""1916""
","
","","","815.1999998092651","","","15","5285","3128","f","elianto","#3366ff99"," "," ","1","+10","[1666.4000000953674]","1","2","","","5285","24","1","1","win","go","0"
"pit-trial","143","2099548","0.0-29.0","battery-v0.2","","""event"",""trial"",""time""
""fullscreenenter"",""1"",""1916""
","
","
","""event"",""trial"",""time""
""fullscreenenter"",""1"",""1916""
","
","","","-1","","","15","5285","3128","t","elianto","#f73b6a7A","-1","-1","1","0","[]","0","2","","","5285","25","2","4","lose","no-go","0"
"pit-trial","144","2104437","0.0-30.0","battery-v0.2","","""event"",""trial"",""time""
""fullscreenenter"",""1"",""1916""
","
","
","""event"",""trial"",""time""
""fullscreenenter"",""1"",""1916""
","
","","","-1","","","15","5285","3128","n","elianto","#f73b6a7A","-1","-1","1","0","[]","0","2","","","5285","26","0","4","lose","no-go","0"
"pit-trial","145","2108128","0.0-31.0","battery-v0.2","","""event"",""trial"",""time""
""fullscreenenter"",""1"",""1916""
","
","
","""event"",""trial"",""time""
""fullscreenenter"",""1"",""1916""
","
","","","817.3000001907349","","","15","5285","3128","f","elianto","#3366ff99"," "," ","1","+10","[1667.3000001907349]","1","2","","","5285","27","1","1","win","go","0"
"pit-trial","146","2111987","0.0-32.0","battery-v0.2","","""event"",""trial"",""time""
""fullscreenenter"",""1"",""1916""
","
","
","""event"",""trial"",""time""
""fullscreenenter"",""1"",""1916""
","
","","","991.2999997138977","","","15","5285","3128","b","elianto","#f73b6a7A"," "," ","1","0","[1850.5999999046326]","1","2","","","5285","28","3","3","lose","go","0"
"pit-trial","147","2115732","0.0-33.0","battery-v0.2","","""event"",""trial"",""time""
""fullscreenenter"",""1"",""1916""
","
","
","""event"",""trial"",""time""
""fullscreenenter"",""1"",""1916""
","
","","","883.2000002861023","","","15","5285","3128","b","elianto","#f73b6a7A"," "," ","1","0","[1739]","1","2","","","5285","29","3","3","lose","go","0"
"pit-trial","148","2119053","0.0-34.0","battery-v0.2","","""event"",""trial"",""time""
""fullscreenenter"",""1"",""1916""
","
","
","""event"",""trial"",""time""
""fullscreenenter"",""1"",""1916""
","
","","","461","","","15","5285","3128","f","elianto","#3366ff99"," "," ","1","+10","[1316.0999999046326]","1","2","","","5285","30","1","1","win","go","0"
"pit-trial","149","2123916","0.0-35.0","battery-v0.2","","""event"",""trial"",""time""
""fullscreenenter"",""1"",""1916""
","
","
","""event"",""trial"",""time""
""fullscreenenter"",""1"",""1916""
","
","","","-1","","","15","5285","3128","t","elianto","#f73b6a7A","-1","-1","1","-10","[]","0","2","","","5285","31","2","4","lose","no-go","1"
"pit-trial","150","2128780","0.0-36.0","battery-v0.2","","""event"",""trial"",""time""
""fullscreenenter"",""1"",""1916""
","
","
","""event"",""trial"",""time""
""fullscreenenter"",""1"",""1916""
","
","","","-1","","","15","5285","3128","n","elianto","#f73b6a7A","-1","-1","1","0","[]","0","2","","","5285","32","0","4","lose","no-go","0"
"pit-trial","151","2132381","0.0-37.0","battery-v0.2","","""event"",""trial"",""time""
""fullscreenenter"",""1"",""1916""
","
","
","""event"",""trial"",""time""
""fullscreenenter"",""1"",""1916""
","
","","","745.4000000953674","","","15","5285","3128","f","elianto","#3366ff99"," "," ","1","0","[1596]","1","2","","","5285","33","1","1","win","go","1"
"pit-trial","152","2136108","0.0-38.0","battery-v0.2","","""event"",""trial"",""time""
""fullscreenenter"",""1"",""1916""
","
","
","""event"",""trial"",""time""
""fullscreenenter"",""1"",""1916""
","
","","","867.8000001907349","","","15","5285","3128","b","elianto","#f73b6a7A"," "," ","1","0","[1721.3999996185303]","1","2","","","5285","34","3","3","lose","go","0"
"pit-trial","153","2140972","0.0-39.0","battery-v0.2","","""event"",""trial"",""time""
""fullscreenenter"",""1"",""1916""
","
","
","""event"",""trial"",""time""
""fullscreenenter"",""1"",""1916""
","
","","","-1","","","15","5285","3128","n","elianto","#f73b6a7A","-1","-1","1","0","[]","0","2","","","5285","35","0","4","lose","no-go","0"
"pit-trial","154","2145837","0.0-40.0","battery-v0.2","","""event"",""trial"",""time""
""fullscreenenter"",""1"",""1916""
","
","
","""event"",""trial"",""time""
""fullscreenenter"",""1"",""1916""
","
","","","-1","","","15","5285","3128","t","elianto","#f73b6a7A","-1","-1","1","0","[]","0","2","","","5285","36","2","4","lose","no-go","0"
"pit-trial","155","2149419","0.0-41.0","battery-v0.2","","""event"",""trial"",""time""
""fullscreenenter"",""1"",""1916""
","
","
","""event"",""trial"",""time""
""fullscreenenter"",""1"",""1916""
","
","","","725.5999999046326","","","15","5285","3128","t","elianto","#f73b6a7A","-1"," ","0","-10","[1578.5]","1","2","","","5285","37","2","4","lose","no-go","0"
"pit-trial","156","2153060","0.0-42.0","battery-v0.2","","""event"",""trial"",""time""
""fullscreenenter"",""1"",""1916""
","
","
","""event"",""trial"",""time""
""fullscreenenter"",""1"",""1916""
","
","","","781","","","15","5285","3128","b","elianto","#f73b6a7A"," "," ","1","0","[1635.7999997138977]","1","2","","","5285","38","3","3","lose","go","0"
"pit-trial","157","2157924","0.0-43.0","battery-v0.2","","""event"",""trial"",""time""
""fullscreenenter"",""1"",""1916""
","
","
","""event"",""trial"",""time""
""fullscreenenter"",""1"",""1916""
","
","","","-1","","","15","5285","3128","n","elianto","#f73b6a7A","-1","-1","1","0","[]","0","2","","","5285","39","0","4","lose","no-go","0"
"pit-trial","158","2161316","0.0-44.0","battery-v0.2","","""event"",""trial"",""time""
""fullscreenenter"",""1"",""1916""
","
","
","""event"",""trial"",""time""
""fullscreenenter"",""1"",""1916""
","
","","","530.8000001907349","","","15","5285","3128","f","elianto","#3366ff99"," "," ","1","+10","[1384.5]","1","2","","","5285","40","1","1","win","go","0"
"pit-trial","159","2166180","0.0-45.0","battery-v0.2","","""event"",""trial"",""time""
""fullscreenenter"",""1"",""1916""
","
","
","""event"",""trial"",""time""
""fullscreenenter"",""1"",""1916""
","
","","","-1","","","15","5285","3128","n","elianto","#f73b6a7A","-1","-1","1","0","[]","0","2","","","5285","41","0","4","lose","no-go","0"
"pit-trial","160","2169884","0.0-46.0","battery-v0.2","","""event"",""trial"",""time""
""fullscreenenter"",""1"",""1916""
","
","
","""event"",""trial"",""time""
""fullscreenenter"",""1"",""1916""
","
","","","845.3000001907349","","","15","5285","3128","f","elianto","#3366ff99"," "," ","1","+10","[1698.4000000953674]","1","2","","","5285","42","1","1","win","go","0"
"pit-trial","161","2173245","0.0-47.0","battery-v0.2","","""event"",""trial"",""time""
""fullscreenenter"",""1"",""1916""
","
","
","""event"",""trial"",""time""
""fullscreenenter"",""1"",""1916""
","
","","","501","","","15","5285","3128","b","elianto","#f73b6a7A"," "," ","1","0","[1355.7999997138977]","1","2","","","5285","43","3","3","lose","go","0"
"pit-trial","162","2178107","0.0-48.0","battery-v0.2","","""event"",""trial"",""time""
""fullscreenenter"",""1"",""1916""
","
","
","""event"",""trial"",""time""
""fullscreenenter"",""1"",""1916""
","
","","","-1","","","15","5285","3128","t","elianto","#f73b6a7A","-1","-1","1","0","[]","0","2","","","5285","44","2","4","lose","no-go","0"
"pit-trial","163","2182028","0.0-49.0","battery-v0.2","","""event"",""trial"",""time""
""fullscreenenter"",""1"",""1916""
","
","
","""event"",""trial"",""time""
""fullscreenenter"",""1"",""1916""
","
","","","1058.2000002861023","","","15","5285","3128","c","elianto","#3366ff99","-1"," ","0","+10","[1913.0999999046326]","1","2","","","5285","45","4","2","win","no-go","1"
"pit-trial","164","2186892","0.0-50.0","battery-v0.2","","""event"",""trial"",""time""
""fullscreenenter"",""1"",""1916""
","
","
","""event"",""trial"",""time""
""fullscreenenter"",""1"",""1916""
","
","","","-1","","","15","5285","3128","t","elianto","#f73b6a7A","-1","-1","1","0","[]","0","2","","","5285","46","2","4","lose","no-go","0"
"pit-trial","165","2191756","0.0-51.0","battery-v0.2","","""event"",""trial"",""time""
""fullscreenenter"",""1"",""1916""
","
","
","""event"",""trial"",""time""
""fullscreenenter"",""1"",""1916""
","
","","","-1","","","15","5285","3128","n","elianto","#f73b6a7A","-1","-1","1","-10","[]","0","2","","","5285","47","0","4","lose","no-go","1"
"pit-trial","166","2195389","0.0-52.0","battery-v0.2","","""event"",""trial"",""time""
""fullscreenenter"",""1"",""1916""
","
","
","""event"",""trial"",""time""
""fullscreenenter"",""1"",""1916""
","
","","","771.5","","","15","5285","3128","b","elianto","#f73b6a7A"," "," ","1","-10","[1624.9000000953674]","1","2","","","5285","48","3","3","lose","go","1"
"pit-trial","167","2200252","0.0-53.0","battery-v0.2","","""event"",""trial"",""time""
""fullscreenenter"",""1"",""1916""
","
","
","""event"",""trial"",""time""
""fullscreenenter"",""1"",""1916""
","
","","","-1","","","15","5285","3128","b","elianto","#f73b6a7A"," ","-1","0","-10","[]","0","2","","","5285","49","3","3","lose","go","0"
"pit-trial","168","2203997","0.0-54.0","battery-v0.2","","""event"",""trial"",""time""
""fullscreenenter"",""1"",""1916""
","
","
","""event"",""trial"",""time""
""fullscreenenter"",""1"",""1916""
","
","","","884","","","15","5285","3128","c","elianto","#3366ff99","-1"," ","0","0","[1738.8000001907349]","1","2","","","5285","50","4","2","win","no-go","0"
"pit-trial","169","2207572","0.0-55.0","battery-v0.2","","""event"",""trial"",""time""
""fullscreenenter"",""1"",""1916""
","
","
","""event"",""trial"",""time""
""fullscreenenter"",""1"",""1916""
","
","","","714.7000002861023","","","15","5285","3128","f","elianto","#3366ff99"," "," ","1","+10","[1568.3000001907349]","1","2","","","5285","51","1","1","win","go","0"
"pit-trial","170","2212436","0.0-56.0","battery-v0.2","","""event"",""trial"",""time""
""fullscreenenter"",""1"",""1916""
","
","
","""event"",""trial"",""time""
""fullscreenenter"",""1"",""1916""
","
","","","-1","","","15","5285","3128","n","elianto","#f73b6a7A","-1","-1","1","0","[]","0","2","","","5285","52","0","4","lose","no-go","0"
"pit-trial","171","2217300","0.0-57.0","battery-v0.2","","""event"",""trial"",""time""
""fullscreenenter"",""1"",""1916""
","
","
","""event"",""trial"",""time""
""fullscreenenter"",""1"",""1916""
","
","","","-1","","","15","5285","3128","t","elianto","#f73b6a7A","-1","-1","1","-10","[]","0","2","","","5285","53","2","4","lose","no-go","1"
"pit-trial","172","2221060","0.0-58.0","battery-v0.2","","""event"",""trial"",""time""
""fullscreenenter"",""1"",""1916""
","
","
","""event"",""trial"",""time""
""fullscreenenter"",""1"",""1916""
","
","","","898.3000001907349","","","15","5285","3128","c","elianto","#3366ff99","-1"," ","0","+10","[1752.0999999046326]","1","2","","","5285","54","4","2","win","no-go","1"
"pit-trial","173","2225924","0.0-59.0","battery-v0.2","","""event"",""trial"",""time""
""fullscreenenter"",""1"",""1916""
","
","
","""event"",""trial"",""time""
""fullscreenenter"",""1"",""1916""
","
","","","-1","","","15","5285","3128","n","elianto","#f73b6a7A","-1","-1","1","-10","[]","0","2","","","5285","55","0","4","lose","no-go","1"
"pit-trial","174","2229988","0.0-60.0","battery-v0.2","","""event"",""trial"",""time""
""fullscreenenter"",""1"",""1916""
","
","
","""event"",""trial"",""time""
""fullscreenenter"",""1"",""1916""
","
","","","1202.7000002861023","","","15","5285","3128","f","elianto","#3366ff99"," "," ","1","+10","[2056]","1","2","","","5285","56","1","1","win","go","0"
"pit-trial","175","2234851","0.0-61.0","battery-v0.2","","""event"",""trial"",""time""
""fullscreenenter"",""1"",""1916""
","
","
","""event"",""trial"",""time""
""fullscreenenter"",""1"",""1916""
","
","","","-1","","","15","5285","3128","b","elianto","#f73b6a7A"," ","-1","0","0","[2997.2999997138977]","1","2","","","5285","57","3","3","lose","go","1"
"pit-trial","176","2238556","0.0-62.0","battery-v0.2","","""event"",""trial"",""time""
""fullscreenenter"",""1"",""1916""
","
","
","""event"",""trial"",""time""
""fullscreenenter"",""1"",""1916""
","
","","","844.1999998092651","","","15","5285","3128","f","elianto","#3366ff99"," "," ","1","0","[1699.5]","1","2","","","5285","58","1","1","win","go","1"
"pit-trial","177","2243420","0.0-63.0","battery-v0.2","","""event"",""trial"",""time""
""fullscreenenter"",""1"",""1916""
","
","
","""event"",""trial"",""time""
""fullscreenenter"",""1"",""1916""
","
","","","-1","","","15","5285","3128","n","elianto","#f73b6a7A","-1","-1","1","0","[]","0","2","","","5285","59","0","4","lose","no-go","0"
"pit-trial","178","2247676","0.0-64.0","battery-v0.2","","""event"",""trial"",""time""
""fullscreenenter"",""1"",""1916""
","
","
","""event"",""trial"",""time""
""fullscreenenter"",""1"",""1916""
","
","","","1394.9000000953674","","","15","5285","3128","c","elianto","#3366ff99","-1"," ","0","0","[2249.2000002861023]","1","2","","","5285","60","4","2","win","no-go","0"
"pit-trial","179","2252540","0.0-65.0","battery-v0.2","","""event"",""trial"",""time""
""fullscreenenter"",""1"",""1916""
","
","
","""event"",""trial"",""time""
""fullscreenenter"",""1"",""1916""
","
","","","-1","","","15","5285","3128","t","elianto","#f73b6a7A","-1","-1","1","0","[]","0","2","","","5285","61","2","4","lose","no-go","0"
"pit-trial","180","2256644","0.0-66.0","battery-v0.2","","""event"",""trial"",""time""
""fullscreenenter"",""1"",""1916""
","
","
","""event"",""trial"",""time""
""fullscreenenter"",""1"",""1916""
","
","","","1250.0999999046326","","","15","5285","3128","c","elianto","#3366ff99","-1"," ","0","0","[2100.5]","1","2","","","5285","62","4","2","win","no-go","0"
"pit-trial","181","2261149","0.0-67.0","battery-v0.2","","""event"",""trial"",""time""
""fullscreenenter"",""1"",""1916""
","
","
","""event"",""trial"",""time""
""fullscreenenter"",""1"",""1916""
","
","","","1641.5999999046326","","","15","5285","3128","f","elianto","#3366ff99"," "," ","1","+10","[2495.800000190735]","1","2","","","5285","63","1","1","win","go","0"
"pit-trial","182","2266011","0.0-68.0","battery-v0.2","","""event"",""trial"",""time""
""fullscreenenter"",""1"",""1916""
","
","
","""event"",""trial"",""time""
""fullscreenenter"",""1"",""1916""
","
","","","-1","","","15","5285","3128","b","elianto","#f73b6a7A"," ","-1","0","-10","[]","0","2","","","5285","64","3","3","lose","go","0"
"pit-trial","183","2269676","0.0-69.0","battery-v0.2","","""event"",""trial"",""time""
""fullscreenenter"",""1"",""1916""
","
","
","""event"",""trial"",""time""
""fullscreenenter"",""1"",""1916""
","
","","","802.1999998092651","","","15","5285","3128","f","elianto","#3366ff99"," "," ","1","+10","[1653.1999998092651]","1","2","","","5285","65","1","1","win","go","0"
"pit-trial","184","2273237","0.0-70.0","battery-v0.2","","""event"",""trial"",""time""
""fullscreenenter"",""1"",""1916""
","
","
","""event"",""trial"",""time""
""fullscreenenter"",""1"",""1916""
","
","","","698.9000000953674","","","15","5285","3128","c","elianto","#3366ff99","-1"," ","0","+10","[1552.4000000953674]","1","2","","","5285","66","4","2","win","no-go","1"
"pit-trial","185","2276795","0.0-71.0","battery-v0.2","","""event"",""trial"",""time""
""fullscreenenter"",""1"",""1916""
","
","
","""event"",""trial"",""time""
""fullscreenenter"",""1"",""1916""
","
","","","697.5999999046326","","","15","5285","3128","b","elianto","#f73b6a7A"," "," ","1","0","[1550.5]","1","2","","","5285","67","3","3","lose","go","0"
"pit-trial","186","2281660","0.0-72.0","battery-v0.2","","""event"",""trial"",""time""
""fullscreenenter"",""1"",""1916""
","
","
","""event"",""trial"",""time""
""fullscreenenter"",""1"",""1916""
","
","","","-1","","","15","5285","3128","t","elianto","#f73b6a7A","-1","-1","1","0","[]","0","2","","","5285","68","2","4","lose","no-go","0"
"pit-trial","187","2285372","0.0-73.0","battery-v0.2","","""event"",""trial"",""time""
""fullscreenenter"",""1"",""1916""
","
","
","""event"",""trial"",""time""
""fullscreenenter"",""1"",""1916""
","
","","","847.7000002861023","","","15","5285","3128","c","elianto","#3366ff99","-1"," ","0","0","[1704.0999999046326]","1","2","","","5285","69","4","2","win","no-go","0"
"pit-trial","188","2289500","0.0-74.0","battery-v0.2","","""event"",""trial"",""time""
""fullscreenenter"",""1"",""1916""
","
","
","""event"",""trial"",""time""
""fullscreenenter"",""1"",""1916""
","
","","","1264.5999999046326","","","15","5285","3128","b","elianto","#f73b6a7A"," "," ","1","0","[2119.800000190735]","1","2","","","5285","70","3","3","lose","go","0"
"pit-trial","189","2293492","0.0-75.0","battery-v0.2","","""event"",""trial"",""time""
""fullscreenenter"",""1"",""1916""
","
","
","""event"",""trial"",""time""
""fullscreenenter"",""1"",""1916""
","
","","","1131.8000001907349","","","15","5285","3128","f","elianto","#3366ff99"," "," ","1","+10","[1985.4000000953674]","1","2","","","5285","71","1","1","win","go","0"
"pit-trial","190","2297532","0.0-76.0","battery-v0.2","","""event"",""trial"",""time""
""fullscreenenter"",""1"",""1916""
","
","
","""event"",""trial"",""time""
""fullscreenenter"",""1"",""1916""
","
","","","1180.4000000953674","","","15","5285","3128","z","elianto","#3366ff99"," "," ","1","0","[2033.9000000953674]","1","2","","","5285","72","5","1","win","go","1"
"pit-trial","191","2301755","0.0-77.0","battery-v0.2","","""event"",""trial"",""time""
""fullscreenenter"",""1"",""1916""
","
","
","""event"",""trial"",""time""
""fullscreenenter"",""1"",""1916""
","
","","","1362.0999999046326","","","15","5285","3128","b","elianto","#f73b6a7A"," "," ","1","0","[2216.5999999046326]","1","2","","","5285","73","3","3","lose","go","0"
"pit-trial","192","2305468","0.0-78.0","battery-v0.2","","""event"",""trial"",""time""
""fullscreenenter"",""1"",""1916""
","
","
","""event"",""trial"",""time""
""fullscreenenter"",""1"",""1916""
","
","","","853.4000000953674","","","15","5285","3128","f","elianto","#3366ff99"," "," ","1","+10","[1706.3000001907349]","1","2","","","5285","74","1","1","win","go","0"
"pit-trial","193","2309284","0.0-79.0","battery-v0.2","","""event"",""trial"",""time""
""fullscreenenter"",""1"",""1916""
","
","
","""event"",""trial"",""time""
""fullscreenenter"",""1"",""1916""
","
","","","948.8999996185303","","","15","5285","3128","z","elianto","#3366ff99"," "," ","1","+10","[1804.2999997138977]","1","2","","","5285","75","5","1","win","go","0"
"pit-trial","194","2313531","0.0-80.0","battery-v0.2","","""event"",""trial"",""time""
""fullscreenenter"",""1"",""1916""
","
","
","""event"",""trial"",""time""
""fullscreenenter"",""1"",""1916""
","
","","","1386.6999998092651","","","15","5285","3128","c","elianto","#3366ff99","-1"," ","0","+10","[2240.4000000953674]","1","2","","","5285","76","4","2","win","no-go","1"
"pit-trial","195","2318396","0.0-81.0","battery-v0.2","","""event"",""trial"",""time""
""fullscreenenter"",""1"",""1916""
","
","
","""event"",""trial"",""time""
""fullscreenenter"",""1"",""1916""
","
","","","-1","","","15","5285","3128","z","elianto","#3366ff99"," ","-1","0","0","[]","0","2","","","5285","77","5","1","win","go","0"
"pit-trial","196","2322084","0.0-82.0","battery-v0.2","","""event"",""trial"",""time""
""fullscreenenter"",""1"",""1916""
","
","
","""event"",""trial"",""time""
""fullscreenenter"",""1"",""1916""
","
","","","828.8999996185303","","","15","5285","3128","c","elianto","#3366ff99","-1"," ","0","0","[1682.0999999046326]","1","2","","","5285","78","4","2","win","no-go","0"
"pit-trial","197","2326252","0.0-83.0","battery-v0.2","","""event"",""trial"",""time""
""fullscreenenter"",""1"",""1916""
","
","
","""event"",""trial"",""time""
""fullscreenenter"",""1"",""1916""
","
","","","1303.5999999046326","","","15","5285","3128","b","elianto","#f73b6a7A"," "," ","1","0","[2157.5999999046326]","1","2","","","5285","79","3","3","lose","go","0"
"pit-trial","198","2330651","0.0-84.0","battery-v0.2","","""event"",""trial"",""time""
""fullscreenenter"",""1"",""1916""
","
","
","""event"",""trial"",""time""
""fullscreenenter"",""1"",""1916""
","
","","","1537.7999997138977","","","15","5285","3128","h","elianto","#f73b6a7A","-1"," ","0","-10","[2388.5]","1","2","","","5285","80","6","4","lose","no-go","0"
"pit-trial","199","2334316","0.0-85.0","battery-v0.2","","""event"",""trial"",""time""
""fullscreenenter"",""1"",""1916""
","
","
","""event"",""trial"",""time""
""fullscreenenter"",""1"",""1916""
","
","","","797","","","15","5285","3128","c","elianto","#3366ff99","-1"," ","0","+10","[1655.1999998092651]","1","2","","","5285","81","4","2","win","no-go","1"
"pit-trial","200","2339179","0.0-86.0","battery-v0.2","","""event"",""trial"",""time""
""fullscreenenter"",""1"",""1916""
","
","
","""event"",""trial"",""time""
""fullscreenenter"",""1"",""1916""
","
","","","-1","","","15","5285","3128","y","elianto","#f73b6a7A"," ","-1","0","-10","[]","0","2","","","5285","82","7","3","lose","go","0"
"pit-trial","201","2342773","0.0-87.0","battery-v0.2","","""event"",""trial"",""time""
""fullscreenenter"",""1"",""1916""
","
","
","""event"",""trial"",""time""
""fullscreenenter"",""1"",""1916""
","
","","","731","","","15","5285","3128","h","elianto","#f73b6a7A","-1"," ","0","-10","[1585.7000002861023]","1","2","","","5285","83","6","4","lose","no-go","0"
"pit-trial","202","2346452","0.0-88.0","battery-v0.2","","""event"",""trial"",""time""
""fullscreenenter"",""1"",""1916""
","
","
","""event"",""trial"",""time""
""fullscreenenter"",""1"",""1916""
","
","","","819.2000002861023","","","15","5285","3128","z","elianto","#3366ff99"," "," ","1","+10","[1672]","1","2","","","5285","84","5","1","win","go","0"
"pit-trial","203","2349989","0.0-89.0","battery-v0.2","","""event"",""trial"",""time""
""fullscreenenter"",""1"",""1916""
","
","
","""event"",""trial"",""time""
""fullscreenenter"",""1"",""1916""
","
","","","673","","","15","5285","3128","c","elianto","#3366ff99","-1"," ","0","0","[1527.5]","1","2","","","5285","85","4","2","win","no-go","0"
"pit-trial","204","2354852","0.0-90.0","battery-v0.2","","""event"",""trial"",""time""
""fullscreenenter"",""1"",""1916""
","
","
","""event"",""trial"",""time""
""fullscreenenter"",""1"",""1916""
","
","","","-1","","","15","5285","3128","y","elianto","#f73b6a7A"," ","-1","0","-10","[]","0","2","","","5285","86","7","3","lose","go","0"
"pit-trial","205","2358436","0.0-91.0","battery-v0.2","","""event"",""trial"",""time""
""fullscreenenter"",""1"",""1916""
","
","
","""event"",""trial"",""time""
""fullscreenenter"",""1"",""1916""
","
","","","723.6000003814697","","","15","5285","3128","z","elianto","#3366ff99"," "," ","1","0","[1579.5]","1","2","","","5285","87","5","1","win","go","1"
"pit-trial","206","2363300","0.0-92.0","battery-v0.2","","""event"",""trial"",""time""
""fullscreenenter"",""1"",""1916""
","
","
","""event"",""trial"",""time""
""fullscreenenter"",""1"",""1916""
","
","","","-1","","","15","5285","3128","h","elianto","#f73b6a7A","-1","-1","1","0","[]","0","2","","","5285","88","6","4","lose","no-go","0"
"pit-trial","207","2367012","0.0-93.0","battery-v0.2","","""event"",""trial"",""time""
""fullscreenenter"",""1"",""1916""
","
","
","""event"",""trial"",""time""
""fullscreenenter"",""1"",""1916""
","
","","","854.0999999046326","","","15","5285","3128","z","elianto","#3366ff99"," "," ","1","+10","[1707.7999997138977]","1","2","","","5285","89","5","1","win","go","0"
"pit-trial","208","2370924","0.0-94.0","battery-v0.2","","""event"",""trial"",""time""
""fullscreenenter"",""1"",""1916""
","
","
","""event"",""trial"",""time""
""fullscreenenter"",""1"",""1916""
","
","","","1054.7999997138977","","","15","5285","3128","y","elianto","#f73b6a7A"," "," ","1","0","[1905.6999998092651]","1","2","","","5285","90","7","3","lose","go","0"
"pit-trial","209","2374852","0.0-95.0","battery-v0.2","","""event"",""trial"",""time""
""fullscreenenter"",""1"",""1916""
","
","
","""event"",""trial"",""time""
""fullscreenenter"",""1"",""1916""
","
","","","1067.5","","","15","5285","3128","c","elianto","#3366ff99","-1"," ","0","0","[1919]","1","2","","","5285","91","4","2","win","no-go","0"
"pit-trial","210","2379717","0.0-96.0","battery-v0.2","","""event"",""trial"",""time""
""fullscreenenter"",""1"",""1916""
","
","
","""event"",""trial"",""time""
""fullscreenenter"",""1"",""1916""
","
","","","-1","","","15","5285","3128","h","elianto","#f73b6a7A","-1","-1","1","0","[]","0","2","","","5285","92","6","4","lose","no-go","0"
"pit-trial","211","2383565","0.0-97.0","battery-v0.2","","""event"",""trial"",""time""
""fullscreenenter"",""1"",""1916""
","
","
","""event"",""trial"",""time""
""fullscreenenter"",""1"",""1916""
","
","","","990.2999997138977","","","15","5285","3128","r","elianto","#3366ff99","-1"," ","0","+10","[1843.9000000953674]","1","2","","","5285","93","8","2","win","no-go","1"
"pit-trial","212","2388429","0.0-98.0","battery-v0.2","","""event"",""trial"",""time""
""fullscreenenter"",""1"",""1916""
","
","
","""event"",""trial"",""time""
""fullscreenenter"",""1"",""1916""
","
","","","-1","","","15","5285","3128","h","elianto","#f73b6a7A","-1","-1","1","0","[]","0","2","","","5285","94","6","4","lose","no-go","0"
"pit-trial","213","2392148","0.0-99.0","battery-v0.2","","""event"",""trial"",""time""
""fullscreenenter"",""1"",""1916""
","
","
","""event"",""trial"",""time""
""fullscreenenter"",""1"",""1916""
","
","","","857.4000000953674","","","15","5285","3128","z","elianto","#3366ff99"," "," ","1","0","[1711.5]","1","2","","","5285","95","5","1","win","go","1"
"pit-trial","214","2396436","0.0-100.0","battery-v0.2","","""event"",""trial"",""time""
""fullscreenenter"",""1"",""1916""
","
","
","""event"",""trial"",""time""
""fullscreenenter"",""1"",""1916""
","
","","","1428.4000000953674","","","15","5285","3128","y","elianto","#f73b6a7A"," "," ","1","-10","[2285.0999999046326]","1","2","","","5285","96","7","3","lose","go","1"
"pit-trial","215","2401300","0.0-101.0","battery-v0.2","","""event"",""trial"",""time""
""fullscreenenter"",""1"",""1916""
","
","
","""event"",""trial"",""time""
""fullscreenenter"",""1"",""1916""
","
","","","-1","","","15","5285","3128","h","elianto","#f73b6a7A","-1","-1","1","-10","[]","0","2","","","5285","97","6","4","lose","no-go","1"
"pit-trial","216","2404718","0.0-102.0","battery-v0.2","","""event"",""trial"",""time""
""fullscreenenter"",""1"",""1916""
","
","
","""event"",""trial"",""time""
""fullscreenenter"",""1"",""1916""
","
","","","557.9000000953674","","","15","5285","3128","r","elianto","#3366ff99","-1"," ","0","0","[1413.5]","1","2","","","5285","98","8","2","win","no-go","0"
"pit-trial","217","2408989","0.0-103.0","battery-v0.2","","""event"",""trial"",""time""
""fullscreenenter"",""1"",""1916""
","
","
","""event"",""trial"",""time""
""fullscreenenter"",""1"",""1916""
","
","","","1413.8999996185303","","","15","5285","3128","y","elianto","#f73b6a7A"," "," ","1","0","[2266.0999999046326]","1","2","","","5285","99","7","3","lose","go","0"
"pit-trial","218","2412740","0.0-104.0","battery-v0.2","","""event"",""trial"",""time""
""fullscreenenter"",""1"",""1916""
","
","
","""event"",""trial"",""time""
""fullscreenenter"",""1"",""1916""
","
","","","886.2000002861023","","","15","5285","3128","z","elianto","#3366ff99"," "," ","1","+10","[1741.2999997138977]","1","2","","","5285","100","5","1","win","go","0"
"pit-trial","219","2416588","0.0-105.0","battery-v0.2","","""event"",""trial"",""time""
""fullscreenenter"",""1"",""1916""
","
","
","""event"",""trial"",""time""
""fullscreenenter"",""1"",""1916""
","
","","","986.1000003814697","","","15","5285","3128","z","elianto","#3366ff99"," "," ","1","+10","[1840.2000002861023]","1","2","","","5285","101","5","1","win","go","0"
"pit-trial","220","2420373","0.0-106.0","battery-v0.2","","""event"",""trial"",""time""
""fullscreenenter"",""1"",""1916""
","
","
","""event"",""trial"",""time""
""fullscreenenter"",""1"",""1916""
","
","","","921.7000002861023","","","15","5285","3128","r","elianto","#3366ff99","-1"," ","0","0","[1775.3999996185303]","1","2","","","5285","102","8","2","win","no-go","0"
"pit-trial","221","2425236","0.0-107.0","battery-v0.2","","""event"",""trial"",""time""
""fullscreenenter"",""1"",""1916""
","
","
","""event"",""trial"",""time""
""fullscreenenter"",""1"",""1916""
","
","","","-1","","","15","5285","3128","h","elianto","#f73b6a7A","-1","-1","1","0","[]","0","2","","","5285","103","6","4","lose","no-go","0"
"pit-trial","222","2429053","0.0-108.0","battery-v0.2","","""event"",""trial"",""time""
""fullscreenenter"",""1"",""1916""
","
","
","""event"",""trial"",""time""
""fullscreenenter"",""1"",""1916""
","
","","","957.5","","","15","5285","3128","m","elianto","#3366ff99","-1"," ","0","0","[1810.2999997138977]","1","2","","","5285","104","9","2","win","no-go","0"
"pit-trial","223","2433916","0.0-109.0","battery-v0.2","","""event"",""trial"",""time""
""fullscreenenter"",""1"",""1916""
","
","
","""event"",""trial"",""time""
""fullscreenenter"",""1"",""1916""
","
","","","-1","","","15","5285","3128","m","elianto","#3366ff99","-1","-1","1","+10","[]","0","2","","","5285","105","9","2","win","no-go","0"
"pit-trial","224","2438220","0.0-110.0","battery-v0.2","","""event"",""trial"",""time""
""fullscreenenter"",""1"",""1916""
","
","
","""event"",""trial"",""time""
""fullscreenenter"",""1"",""1916""
","
","","","1439.7000002861023","","","15","5285","3128","z","elianto","#3366ff99"," "," ","1","0","[2293.800000190735]","1","2","","","5285","106","5","1","win","go","1"
"pit-trial","225","2443084","0.0-111.0","battery-v0.2","","""event"",""trial"",""time""
""fullscreenenter"",""1"",""1916""
","
","
","""event"",""trial"",""time""
""fullscreenenter"",""1"",""1916""
","
","","","-1","","","15","5285","3128","h","elianto","#f73b6a7A","-1","-1","1","0","[]","0","2","","","5285","107","6","4","lose","no-go","0"
"pit-trial","226","2446764","0.0-112.0","battery-v0.2","","""event"",""trial"",""time""
""fullscreenenter"",""1"",""1916""
","
","
","""event"",""trial"",""time""
""fullscreenenter"",""1"",""1916""
","
","","","820.3000001907349","","","15","5285","3128","r","elianto","#3366ff99","-1"," ","0","0","[1670.5]","1","2","","","5285","108","8","2","win","no-go","0"
"pit-trial","227","2451628","0.0-113.0","battery-v0.2","","""event"",""trial"",""time""
""fullscreenenter"",""1"",""1916""
","
","
","""event"",""trial"",""time""
""fullscreenenter"",""1"",""1916""
","
","","","-1","","","15","5285","3128","r","elianto","#3366ff99","-1","-1","1","+10","[]","0","2","","","5285","109","8","2","win","no-go","0"
"pit-trial","228","2456493","0.0-114.0","battery-v0.2","","""event"",""trial"",""time""
""fullscreenenter"",""1"",""1916""
","
","
","""event"",""trial"",""time""
""fullscreenenter"",""1"",""1916""
","
","","","-1","","","15","5285","3128","h","elianto","#f73b6a7A","-1","-1","1","0","[]","0","2","","","5285","110","6","4","lose","no-go","0"
"pit-trial","229","2460252","0.0-115.0","battery-v0.2","","""event"",""trial"",""time""
""fullscreenenter"",""1"",""1916""
","
","
","""event"",""trial"",""time""
""fullscreenenter"",""1"",""1916""
","
","","","899.5999999046326","","","15","5285","3128","z","elianto","#3366ff99"," "," ","1","+10","[1752.3000001907349]","1","2","","","5285","111","5","1","win","go","0"
"pit-trial","230","2465116","0.0-116.0","battery-v0.2","","""event"",""trial"",""time""
""fullscreenenter"",""1"",""1916""
","
","
","""event"",""trial"",""time""
""fullscreenenter"",""1"",""1916""
","
","","","-1","","","15","5285","3128","m","elianto","#3366ff99","-1","-1","1","+10","[]","0","2","","","5285","112","9","2","win","no-go","0"
"pit-trial","231","2469884","0.0-117.0","battery-v0.2","","""event"",""trial"",""time""
""fullscreenenter"",""1"",""1916""
","
","
","""event"",""trial"",""time""
""fullscreenenter"",""1"",""1916""
","
","","","1908.4000000953674","","","15","5285","3128","y","elianto","#f73b6a7A"," "," ","1","0","[2761.7000002861023]","1","2","","","5285","113","7","3","lose","go","0"
"pit-trial","232","2474404","0.0-118.0","battery-v0.2","","""event"",""trial"",""time""
""fullscreenenter"",""1"",""1916""
","
","
","""event"",""trial"",""time""
""fullscreenenter"",""1"",""1916""
","
","","","1656.9000000953674","","","15","5285","3128","m","elianto","#3366ff99","-1"," ","0","+10","[2510.5]","1","2","","","5285","114","9","2","win","no-go","1"
"pit-trial","233","2479268","0.0-119.0","battery-v0.2","","""event"",""trial"",""time""
""fullscreenenter"",""1"",""1916""
","
","
","""event"",""trial"",""time""
""fullscreenenter"",""1"",""1916""
","
","","","-1","","","15","5285","3128","r","elianto","#3366ff99","-1","-1","1","+10","[]","0","2","","","5285","115","8","2","win","no-go","0"
"pit-trial","234","2483956","0.0-120.0","battery-v0.2","","""event"",""trial"",""time""
""fullscreenenter"",""1"",""1916""
","
","
","""event"",""trial"",""time""
""fullscreenenter"",""1"",""1916""
","
","","","1830","","","15","5285","3128","z","elianto","#3366ff99"," "," ","1","0","[2683.699999809265]","1","2","","","5285","116","5","1","win","go","1"
"pit-trial","235","2488819","0.0-121.0","battery-v0.2","","""event"",""trial"",""time""
""fullscreenenter"",""1"",""1916""
","
","
","""event"",""trial"",""time""
""fullscreenenter"",""1"",""1916""
","
","","","-1","","","15","5285","3128","z","elianto","#3366ff99"," ","-1","0","0","[]","0","2","","","5285","117","5","1","win","go","0"
"pit-trial","236","2493684","0.0-122.0","battery-v0.2","","""event"",""trial"",""time""
""fullscreenenter"",""1"",""1916""
","
","
","""event"",""trial"",""time""
""fullscreenenter"",""1"",""1916""
","
","","","-1","","","15","5285","3128","r","elianto","#3366ff99","-1","-1","1","+10","[]","0","2","","","5285","118","8","2","win","no-go","0"
"pit-trial","237","2498549","0.0-123.0","battery-v0.2","","""event"",""trial"",""time""
""fullscreenenter"",""1"",""1916""
","
","
","""event"",""trial"",""time""
""fullscreenenter"",""1"",""1916""
","
","","","-1","","","15","5285","3128","m","elianto","#3366ff99","-1","-1","1","+10","[]","0","2","","","5285","119","9","2","win","no-go","0"
"pit-trial","238","2503421","0.0-124.0","battery-v0.2","","""event"",""trial"",""time""
""fullscreenenter"",""1"",""1916""
","
","
","""event"",""trial"",""time""
""fullscreenenter"",""1"",""1916""
","
","","","-1","","","15","5285","3128","h","elianto","#f73b6a7A","-1","-1","1","-10","[]","0","2","","","5285","120","6","4","lose","no-go","1"
"pit-trial","239","2508284","0.0-125.0","battery-v0.2","","""event"",""trial"",""time""
""fullscreenenter"",""1"",""1916""
","
","
","""event"",""trial"",""time""
""fullscreenenter"",""1"",""1916""
","
","","","-1","","","15","5285","3128","z","elianto","#3366ff99"," ","-1","0","0","[]","0","2","","","5285","121","5","1","win","go","0"
"pit-trial","240","2513157","0.0-126.0","battery-v0.2","","""event"",""trial"",""time""
""fullscreenenter"",""1"",""1916""
","
","
","""event"",""trial"",""time""
""fullscreenenter"",""1"",""1916""
","
","","","-1","","","15","5285","3128","m","elianto","#3366ff99","-1","-1","1","+10","[]","0","2","","","5285","122","9","2","win","no-go","0"
"pit-trial","241","2518020","0.0-127.0","battery-v0.2","","""event"",""trial"",""time""
""fullscreenenter"",""1"",""1916""
","
","
","""event"",""trial"",""time""
""fullscreenenter"",""1"",""1916""
","
","","","-1","","","15","5285","3128","y","elianto","#f73b6a7A"," ","-1","0","-10","[]","0","2","","","5285","123","7","3","lose","go","0"
"pit-trial","242","2521724","0.0-128.0","battery-v0.2","","""event"",""trial"",""time""
""fullscreenenter"",""1"",""1916""
","
","
","""event"",""trial"",""time""
""fullscreenenter"",""1"",""1916""
","
","","","845.5999999046326","","","15","5285","3128","r","elianto","#3366ff99","-1"," ","0","0","[1699.0999999046326]","1","2","","","5285","124","8","2","win","no-go","0"
"pit-trial","243","2526588","0.0-129.0","battery-v0.2","","""event"",""trial"",""time""
""fullscreenenter"",""1"",""1916""
","
","
","""event"",""trial"",""time""
""fullscreenenter"",""1"",""1916""
","
","","","-1","","","15","5285","3128","m","elianto","#3366ff99","-1","-1","1","+10","[]","0","2","","","5285","125","9","2","win","no-go","0"
"pit-trial","244","2531453","0.0-130.0","battery-v0.2","","""event"",""trial"",""time""
""fullscreenenter"",""1"",""1916""
","
","
","""event"",""trial"",""time""
""fullscreenenter"",""1"",""1916""
","
","","","-1","","","15","5285","3128","h","elianto","#f73b6a7A","-1","-1","1","0","[]","0","2","","","5285","126","6","4","lose","no-go","0"
"pit-trial","245","2535924","0.0-131.0","battery-v0.2","","""event"",""trial"",""time""
""fullscreenenter"",""1"",""1916""
","
","
","""event"",""trial"",""time""
""fullscreenenter"",""1"",""1916""
","
","","","1613.1999998092651","","","15","5285","3128","y","elianto","#f73b6a7A"," "," ","1","-10","[2466.5]","1","2","","","5285","127","7","3","lose","go","1"
"pit-trial","246","2540788","0.0-132.0","battery-v0.2","","""event"",""trial"",""time""
""fullscreenenter"",""1"",""1916""
","
","
","""event"",""trial"",""time""
""fullscreenenter"",""1"",""1916""
","
","","","-1","","","15","5285","3128","r","elianto","#3366ff99","-1","-1","1","+10","[]","0","2","","","5285","128","8","2","win","no-go","0"
"pit-trial","247","2545654","0.0-133.0","battery-v0.2","","""event"",""trial"",""time""
""fullscreenenter"",""1"",""1916""
","
","
","""event"",""trial"",""time""
""fullscreenenter"",""1"",""1916""
","
","","","-1","","","15","5285","3128","y","elianto","#f73b6a7A"," ","-1","0","-10","[]","0","2","","","5285","129","7","3","lose","go","0"
"pit-trial","248","2550525","0.0-134.0","battery-v0.2","","""event"",""trial"",""time""
""fullscreenenter"",""1"",""1916""
","
","
","""event"",""trial"",""time""
""fullscreenenter"",""1"",""1916""
","
","","","-1","","","15","5285","3128","r","elianto","#3366ff99","-1","-1","1","0","[]","0","2","","","5285","130","8","2","win","no-go","1"
"pit-trial","249","2555388","0.0-135.0","battery-v0.2","","""event"",""trial"",""time""
""fullscreenenter"",""1"",""1916""
","
","
","""event"",""trial"",""time""
""fullscreenenter"",""1"",""1916""
","
","","","-1","","","15","5285","3128","h","elianto","#f73b6a7A","-1","-1","1","-10","[]","0","2","","","5285","131","6","4","lose","no-go","1"
"pit-trial","250","2560253","0.0-136.0","battery-v0.2","","""event"",""trial"",""time""
""fullscreenenter"",""1"",""1916""
","
","
","""event"",""trial"",""time""
""fullscreenenter"",""1"",""1916""
","
","","","-1","","","15","5285","3128","m","elianto","#3366ff99","-1","-1","1","+10","[]","0","2","","","5285","132","9","2","win","no-go","0"
"pit-trial","251","2564108","0.0-137.0","battery-v0.2","","""event"",""trial"",""time""
""fullscreenenter"",""1"",""1916""
","
","
","""event"",""trial"",""time""
""fullscreenenter"",""1"",""1916""
","
","","","992.2999997138977","","","15","5285","3128","y","elianto","#f73b6a7A"," "," ","1","0","[1844.8000001907349]","1","2","","","5285","133","7","3","lose","go","0"
"pit-trial","252","2568974","0.0-138.0","battery-v0.2","","""event"",""trial"",""time""
""fullscreenenter"",""1"",""1916""
","
","
","""event"",""trial"",""time""
""fullscreenenter"",""1"",""1916""
","
","","","-1","","","15","5285","3128","m","elianto","#3366ff99","-1","-1","1","+10","[]","0","2","","","5285","134","9","2","win","no-go","0"
"pit-trial","253","2573838","0.0-139.0","battery-v0.2","","""event"",""trial"",""time""
""fullscreenenter"",""1"",""1916""
","
","
","""event"",""trial"",""time""
""fullscreenenter"",""1"",""1916""
","
","","","-1","","","15","5285","3128","h","elianto","#f73b6a7A","-1","-1","1","0","[]","0","2","","","5285","135","6","4","lose","no-go","0"
"pit-trial","254","2578701","0.0-140.0","battery-v0.2","","""event"",""trial"",""time""
""fullscreenenter"",""1"",""1916""
","
","
","""event"",""trial"",""time""
""fullscreenenter"",""1"",""1916""
","
","","","-1","","","15","5285","3128","r","elianto","#3366ff99","-1","-1","1","+10","[]","0","2","","","5285","136","8","2","win","no-go","0"
"pit-trial","255","2583565","0.0-141.0","battery-v0.2","","""event"",""trial"",""time""
""fullscreenenter"",""1"",""1916""
","
","
","""event"",""trial"",""time""
""fullscreenenter"",""1"",""1916""
","
","","","-1","","","15","5285","3128","m","elianto","#3366ff99","-1","-1","1","+10","[]","0","2","","","5285","137","9","2","win","no-go","0"
"pit-trial","256","2588428","0.0-142.0","battery-v0.2","","""event"",""trial"",""time""
""fullscreenenter"",""1"",""1916""
","
","
","""event"",""trial"",""time""
""fullscreenenter"",""1"",""1916""
","
","","","-1","","","15","5285","3128","h","elianto","#f73b6a7A","-1","-1","1","0","[]","0","2","","","5285","138","6","4","lose","no-go","0"
"pit-trial","257","2593292","0.0-143.0","battery-v0.2","","""event"",""trial"",""time""
""fullscreenenter"",""1"",""1916""
","
","
","""event"",""trial"",""time""
""fullscreenenter"",""1"",""1916""
","
","","","-1","","","15","5285","3128","r","elianto","#3366ff99","-1","-1","1","+10","[]","0","2","","","5285","139","8","2","win","no-go","0"
"pit-trial","258","2596908","0.0-144.0","battery-v0.2","","""event"",""trial"",""time""
""fullscreenenter"",""1"",""1916""
","
","
","""event"",""trial"",""time""
""fullscreenenter"",""1"",""1916""
","
","","","753","","","15","5285","3128","y","elianto","#f73b6a7A"," "," ","1","0","[1609.8999996185303]","1","2","","","5285","140","7","3","lose","go","0"
"pit-instructions","259","2724435","0.0-145.0","battery-v0.2","","""event"",""trial"",""time""
""fullscreenenter"",""1"",""1916""
","
","
","""event"",""trial"",""time""
""fullscreenenter"",""1"",""1916""
","
","","[{""page_index"":0,""viewing_time"":119478.7000002861},{""page_index"":1,""viewing_time"":8046.799999713898}]","127525.90000009537","","","","","","","","","","","","","","","","","","","","","","","",""
"pit-trial","260","2727913","0.0-146.0","battery-v0.2","","""event"",""trial"",""time""
""fullscreenenter"",""1"",""1916""
","
","
","""event"",""trial"",""time""
""fullscreenenter"",""1"",""1916""
","
","","","612.0999999046326","","","15","5285","3128","e","elianto","#f73b6a7A"," "," ","1","0","[1463.1999998092651]","1","3","","","5285","141","2","3","lose","go","0"
"pit-trial","261","2731526","0.0-147.0","battery-v0.2","","""event"",""trial"",""time""
""fullscreenenter"",""1"",""1916""
","
","
","""event"",""trial"",""time""
""fullscreenenter"",""1"",""1916""
","
","","","744","","","15","5285","3128","w","elianto","#f73b6a7A","-1"," ","0","-10","[1602]","1","3","","","5285","142","3","4","lose","no-go","0"
"pit-trial","262","2735172","0.0-148.0","battery-v0.2","","""event"",""trial"",""time""
""fullscreenenter"",""1"",""1916""
","
","
","""event"",""trial"",""time""
""fullscreenenter"",""1"",""1916""
","
","","","786.3000001907349","","","15","5285","3128","j","elianto","#f73b6a7A"," "," ","1","-10","[1641.2000002861023]","1","3","","","5285","143","0","3","lose","go","1"
"pit-trial","263","2739056","0.0-149.0","battery-v0.2","","""event"",""trial"",""time""
""fullscreenenter"",""1"",""1916""
","
","
","""event"",""trial"",""time""
""fullscreenenter"",""1"",""1916""
","
","","","1021.1000003814697","","","15","5285","3128","d","elianto","#3366ff99","-1"," ","0","0","[1875.8999996185303]","1","3","","","5285","144","1","2","win","no-go","0"
"pit-trial","264","2743936","0.0-150.0","battery-v0.2","","""event"",""trial"",""time""
""fullscreenenter"",""1"",""1916""
","
","
","""event"",""trial"",""time""
""fullscreenenter"",""1"",""1916""
","
","","","-1","","","15","5285","3128","w","elianto","#f73b6a7A","-1","-1","1","-10","[]","0","3","","","5285","145","3","4","lose","no-go","1"
"pit-trial","265","2748102","0.0-151.0","battery-v0.2","","""event"",""trial"",""time""
""fullscreenenter"",""1"",""1916""
","
","
","""event"",""trial"",""time""
""fullscreenenter"",""1"",""1916""
","
","","","1300.5","","","15","5285","3128","j","elianto","#f73b6a7A"," "," ","1","0","[2153.4000000953674]","1","3","","","5285","146","0","3","lose","go","0"
"pit-trial","266","2752015","0.0-152.0","battery-v0.2","","""event"",""trial"",""time""
""fullscreenenter"",""1"",""1916""
","
","
","""event"",""trial"",""time""
""fullscreenenter"",""1"",""1916""
","
","","","1029.3000001907349","","","15","5285","3128","d","elianto","#3366ff99","-1"," ","0","0","[1891.1999998092651]","1","3","","","5285","147","1","2","win","no-go","0"
"pit-trial","267","2756621","0.0-153.0","battery-v0.2","","""event"",""trial"",""time""
""fullscreenenter"",""1"",""1916""
","
","
","""event"",""trial"",""time""
""fullscreenenter"",""1"",""1916""
","
