"trial_type","trial_index","time_elapsed","internal_node_id","task_version","subject_id","interactions","blur_events","focus_events","fullscreenenter_events","fullscreenexit_events","success","view_history","rt","responses","num_errors","age","subject","participantId","rune","rune_set","hex","correct","choice","accuracy","outcome","keys","total_keys","block","practice","value","sub","trial","stimulus","robot","valence","action","sham"
"pavlovia","0","15","0.0-0.0","battery-v0.2","","""event"",""trial"",""time""
""fullscreenenter"",""1"",""2813""
","
","
","""event"",""trial"",""time""
""fullscreenenter"",""1"",""2813""
","
","","","","","","","","","","","","","","","","","","","","","","","","","","",""
"fullscreen","1","3776","0.0-1.0","battery-v0.2","","""event"",""trial"",""time""
""fullscreenenter"",""1"",""2813""
","
","
","""event"",""trial"",""time""
""fullscreenenter"",""1"",""2813""
","
","true","","","","","","","","","","","","","","","","","","","","","","","","","",""
"pit-instructions","2","7878","0.0-2.0-0.0","battery-v0.2","","""event"",""trial"",""time""
""fullscreenenter"",""1"",""2813""
","
","
","""event"",""trial"",""time""
""fullscreenenter"",""1"",""2813""
","
","","[{""page_index"":0,""viewing_time"":4093}]","4093.7000000178814","","","","","","","","","","","","","","","","","","","","","","","",""
"pit-comprehension","3","13079","0.0-2.0-1.0-0.0","battery-v0.2","","""event"",""trial"",""time""
""fullscreenenter"",""1"",""2813""
","
","
","""event"",""trial"",""time""
""fullscreenenter"",""1"",""2813""
","
","","","5195.5","[""shark""]","0","10","6276","1848","","","","","","","","","","","","","","","","","","",""
"pit-instructions","4","14430","0.0-2.0-1.0-1.0","battery-v0.2","","""event"",""trial"",""time""
""fullscreenenter"",""1"",""2813""
","
","
","""event"",""trial"",""time""
""fullscreenenter"",""1"",""2813""
","
","","[{""page_index"":0,""viewing_time"":1331.7999999821186}]","1332.4000000059605","","","","","","","","","","","","","","","","","","","","","","","",""
"pit-comprehension","5","16887","0.0-2.0-2.0-0.0","battery-v0.2","","""event"",""trial"",""time""
""fullscreenenter"",""1"",""2813""
","
","
","""event"",""trial"",""time""
""fullscreenenter"",""1"",""2813""
","
","","","2450.800000011921","[""tiger""]","0","10","6276","1848","","","","","","","","","","","","","","","","","","",""
"pit-instructions","6","17734","0.0-2.0-2.0-1.0","battery-v0.2","","""event"",""trial"",""time""
""fullscreenenter"",""1"",""2813""
","
","
","""event"",""trial"",""time""
""fullscreenenter"",""1"",""2813""
","
","","[{""page_index"":0,""viewing_time"":841.3000000119209}]","841.9000000059605","","","","","","","","","","","","","","","","","","","","","","","",""
"pit-instructions","7","103158","0.0-2.0-3.0","battery-v0.2","","""event"",""trial"",""time""
""fullscreenenter"",""1"",""2813""
","
","
","""event"",""trial"",""time""
""fullscreenenter"",""1"",""2813""
","
","","[{""page_index"":0,""viewing_time"":7627.0999999940395},{""page_index"":1,""viewing_time"":5319.9000000059605},{""page_index"":2,""viewing_time"":6144},{""page_index"":3,""viewing_time"":5192.300000011921},{""page_index"":4,""viewing_time"":5095.799999982119},{""page_index"":5,""viewing_time"":5480.0999999940395},{""page_index"":6,""viewing_time"":6167.600000023842},{""page_index"":7,""viewing_time"":6096.399999976158},{""page_index"":8,""viewing_time"":6703.800000011921},{""page_index"":9,""viewing_time"":5096.0999999940395},{""page_index"":10,""viewing_time"":7208},{""page_index"":11,""viewing_time"":7192},{""page_index"":12,""viewing_time"":6383.4000000059605},{""page_index"":13,""viewing_time"":5712.5999999940395}]","85419.90000000596","","","","","","","","","","","","","","","","","","","","","","","",""
"pit-trial","8","106333","0.0-2.0-4.0-0.0","battery-v0.2","","""event"",""trial"",""time""
""fullscreenenter"",""1"",""2813""
","
","
","""event"",""trial"",""time""
""fullscreenenter"",""1"",""2813""
","
","","","314","","","10","6276","1848","&#9784;","elianto","#FFFFF080"," "," ","1","&#10004","[1164.2000000178814]","1","0","0","","","","","","","",""
"pit-trial","9","109789","0.0-2.0-4.1-0.1","battery-v0.2","","""event"",""trial"",""time""
""fullscreenenter"",""1"",""2813""
","
","
","""event"",""trial"",""time""
""fullscreenenter"",""1"",""2813""
","
","","","594.1000000238419","","","10","6276","1848","&#9784;","elianto","#FFFFF080"," "," ","1","&#10004","[1448.199999988079]","1","0","0","","","","","","","",""
"pit-trial","10","113142","0.0-2.0-4.2-0.2","battery-v0.2","","""event"",""trial"",""time""
""fullscreenenter"",""1"",""2813""
","
","
","""event"",""trial"",""time""
""fullscreenenter"",""1"",""2813""
","
","","","491.7000000178814","","","10","6276","1848","&#9784;","elianto","#FFFFF080"," "," ","1","&#10004","[1341.9000000059605]","1","0","0","","","","","","","",""
"pit-trial","11","117004","0.0-2.0-4.3-0.3","battery-v0.2","","""event"",""trial"",""time""
""fullscreenenter"",""1"",""2813""
","
","
","""event"",""trial"",""time""
""fullscreenenter"",""1"",""2813""
","
","","","995.3000000119209","","","10","6276","1848","&#9784;","elianto","#FFFFF080"," "," ","1","&#10004","[1845.5]","1","0","0","","","","","","","",""
"pit-trial","12","120405","0.0-2.0-4.4-0.4","battery-v0.2","","""event"",""trial"",""time""
""fullscreenenter"",""1"",""2813""
","
","
","""event"",""trial"",""time""
""fullscreenenter"",""1"",""2813""
","
","","","527.9000000059605","","","10","6276","1848","&#9784;","elianto","#FFFFF080"," "," ","1","&#10004","[1381.199999988079]","1","0","0","","","","","","","",""
"pit-instructions","13","154024","0.0-2.0-5.0","battery-v0.2","","""event"",""trial"",""time""
""fullscreenenter"",""1"",""2813""
","
","
","""event"",""trial"",""time""
""fullscreenenter"",""1"",""2813""
","
","","[{""page_index"":0,""viewing_time"":4386.5},{""page_index"":1,""viewing_time"":5231.800000011921},{""page_index"":2,""viewing_time"":18877.40000000596},{""page_index"":3,""viewing_time"":5116.699999988079}]","33613.30000001192","","","","","","","","","","","","","","","","","","","","","","","",""
"pit-trial","14","158903","0.0-2.0-6.0-0.0","battery-v0.2","","""event"",""trial"",""time""
""fullscreenenter"",""1"",""2813""
","
","
","""event"",""trial"",""time""
""fullscreenenter"",""1"",""2813""
","
","","","-1","","","10","6276","1848","&#9854;","elianto","#FFFFF080","-1","-1","1","&#10004","[]","0","0","1","","","","","","","",""
"pit-trial","15","163766","0.0-2.0-6.1-0.1","battery-v0.2","","""event"",""trial"",""time""
""fullscreenenter"",""1"",""2813""
","
","
","""event"",""trial"",""time""
""fullscreenenter"",""1"",""2813""
","
","","","-1","","","10","6276","1848","&#9854;","elianto","#FFFFF080","-1","-1","1","&#10004","[]","0","0","1","","","","","","","",""
"pit-trial","16","168638","0.0-2.0-6.2-0.2","battery-v0.2","","""event"",""trial"",""time""
""fullscreenenter"",""1"",""2813""
","
","
","""event"",""trial"",""time""
""fullscreenenter"",""1"",""2813""
","
","","","-1","","","10","6276","1848","&#9854;","elianto","#FFFFF080","-1","-1","1","&#10004","[]","0","0","1","","","","","","","",""
"pit-trial","17","173516","0.0-2.0-6.3-0.3","battery-v0.2","","""event"",""trial"",""time""
""fullscreenenter"",""1"",""2813""
","
","
","""event"",""trial"",""time""
""fullscreenenter"",""1"",""2813""
","
","","","-1","","","10","6276","1848","&#9854;","elianto","#FFFFF080","-1","-1","1","&#10004","[]","0","0","1","","","","","","","",""
"pit-trial","18","178382","0.0-2.0-6.4-0.4","battery-v0.2","","""event"",""trial"",""time""
""fullscreenenter"",""1"",""2813""
","
","
","""event"",""trial"",""time""
""fullscreenenter"",""1"",""2813""
","
","","","-1","","","10","6276","1848","&#9854;","elianto","#FFFFF080","-1","-1","1","&#10004","[]","0","0","1","","","","","","","",""
"pit-instructions","19","298494","0.0-2.0-7.0","battery-v0.2","","""event"",""trial"",""time""
""fullscreenenter"",""1"",""2813""
","
","
","""event"",""trial"",""time""
""fullscreenenter"",""1"",""2813""
","
","","[{""page_index"":0,""viewing_time"":5184.4000000059605},{""page_index"":1,""viewing_time"":11240.09999999404},{""page_index"":2,""viewing_time"":6319.9000000059605},{""page_index"":3,""viewing_time"":5304.0999999940395},{""page_index"":4,""viewing_time"":5224.0999999940395},{""page_index"":5,""viewing_time"":5160},{""page_index"":6,""viewing_time"":4664.200000017881},{""page_index"":7,""viewing_time"":7199.5999999940395},{""page_index"":8,""viewing_time"":6336.199999988079},{""page_index"":9,""viewing_time"":5975.800000011921},{""page_index"":10,""viewing_time"":6600.199999988079},{""page_index"":11,""viewing_time"":6079.9000000059605},{""page_index"":12,""viewing_time"":7047.700000017881},{""page_index"":13,""viewing_time"":6880.5},{""page_index"":14,""viewing_time"":7063.799999982119},{""page_index"":15,""viewing_time"":7552.300000011921},{""page_index"":16,""viewing_time"":6959.9000000059605},{""page_index"":17,""viewing_time"":9312.09999999404}]","120105.5","","","","","","","","","","","","","","","","","","","","","","","",""
"pit-trial","20","301964","0.0-2.0-8.0-0.0","battery-v0.2","","""event"",""trial"",""time""
""fullscreenenter"",""1"",""2813""
","
","
","""event"",""trial"",""time""
""fullscreenenter"",""1"",""2813""
","
","","","605.7999999821186","","","10","6276","1848","&#9776;","elianto","#3366ff99"," "," ","1","+10","[1460.2000000178814]","1","0","1","","","","","","","",""
"pit-trial","21","305520","0.0-2.0-8.0-1.0","battery-v0.2","","""event"",""trial"",""time""
""fullscreenenter"",""1"",""2813""
","
","
","""event"",""trial"",""time""
""fullscreenenter"",""1"",""2813""
","
","","","698","","","10","6276","1848","&#9776;","elianto","#3366ff99"," "," ","1","+10","[1552.5]","1","0","1","","","","","","","",""
"pit-trial","22","308887","0.0-2.0-8.0-2.0","battery-v0.2","","""event"",""trial"",""time""
""fullscreenenter"",""1"",""2813""
","
","
","""event"",""trial"",""time""
""fullscreenenter"",""1"",""2813""
","
","","","500.89999997615814","","","10","6276","1848","&#9776;","elianto","#3366ff99"," "," ","1","+10","[1353.0999999940395]","1","0","1","","","","","","","",""
"pit-trial","23","312522","0.0-2.0-8.0-3.0","battery-v0.2","","""event"",""trial"",""time""
""fullscreenenter"",""1"",""2813""
","
","
","""event"",""trial"",""time""
""fullscreenenter"",""1"",""2813""
","
","","","768.9000000059605","","","10","6276","1848","&#9776;","elianto","#3366ff99"," "," ","1","0","[1620.300000011921]","1","0","1","","","","","","","",""
"pit-trial","24","317116","0.0-2.0-8.0-4.0","battery-v0.2","","""event"",""trial"",""time""
""fullscreenenter"",""1"",""2813""
","
","
","""event"",""trial"",""time""
""fullscreenenter"",""1"",""2813""
","
","","","1734.5","","","10","6276","1848","&#9776;","elianto","#3366ff99"," "," ","1","+10","[2584.699999988079]","1","0","1","","","","","","","",""
"pit-trial","25","321653","0.0-2.0-8.1-0.1","battery-v0.2","","""event"",""trial"",""time""
""fullscreenenter"",""1"",""2813""
","
","
","""event"",""trial"",""time""
""fullscreenenter"",""1"",""2813""
","
","","","1678.2999999821186","","","10","6276","1848","&#9776;","elianto","#3366ff99"," "," ","1","+10","[2529.5]","1","0","1","","","","","","","",""
"pit-trial","26","325040","0.0-2.0-8.1-1.1","battery-v0.2","","""event"",""trial"",""time""
""fullscreenenter"",""1"",""2813""
","
","
","""event"",""trial"",""time""
""fullscreenenter"",""1"",""2813""
","
","","","524.8000000119209","","","10","6276","1848","&#9776;","elianto","#3366ff99"," "," ","1","+10","[1381.699999988079,3336.699999988079]","2","0","1","","","","","","","",""
"pit-trial","27","327998","0.0-2.0-8.1-2.1","battery-v0.2","","""event"",""trial"",""time""
""fullscreenenter"",""1"",""2813""
","
","
","""event"",""trial"",""time""
""fullscreenenter"",""1"",""2813""
","
","","","93.2999999821186","","","10","6276","1848","&#9776;","elianto","#3366ff99"," "," ","1","+10","[145.09999999403954,511.7000000178814,736.4000000059605,948.5,1171.9000000059605,1422.7000000178814,1586.9000000059605,1812.800000011921,2092.800000011921,2645.5999999940395,2884.5]","11","0","1","","","","","","","",""
"pit-trial","28","330869","0.0-2.0-8.1-3.1","battery-v0.2","","""event"",""trial"",""time""
""fullscreenenter"",""1"",""2813""
","
","
","""event"",""trial"",""time""
""fullscreenenter"",""1"",""2813""
","
","","","12.5","","","10","6276","1848","&#9776;","elianto","#3366ff99"," "," ","1","0","[169,396.69999998807907,623.5999999940395,864.5999999940395,1059.9000000059605,1276.4000000059605,1502.5,1913.0999999940395,2082.4000000059605,2321.5999999940395,2527.7999999821186,2866.9000000059605]","12","0","1","","","","","","","",""
"pit-trial","29","333832","0.0-2.0-8.1-4.1","battery-v0.2","","""event"",""trial"",""time""
""fullscreenenter"",""1"",""2813""
","
","
","""event"",""trial"",""time""
""fullscreenenter"",""1"",""2813""
","
","","","108","","","10","6276","1848","&#9776;","elianto","#3366ff99"," "," ","1","+10","[311.30000001192093,958.3000000119209,1316.2000000178814]","3","0","1","","","","","","","",""
"pit-trial","30","338038","0.0-2.0-8.2-0.2","battery-v0.2","","""event"",""trial"",""time""
""fullscreenenter"",""1"",""2813""
","
","
","""event"",""trial"",""time""
""fullscreenenter"",""1"",""2813""
","
","","","1346.6000000238419","","","10","6276","1848","&#9776;","elianto","#3366ff99"," "," ","1","+10","[2196.600000023842,2989.7000000178814,3242.5,3455.600000023842,3687.300000011921,3944.4000000059605,4189.600000023842]","7","0","1","","","","","","","",""
"pit-trial","31","340988","0.0-2.0-8.2-1.2","battery-v0.2","","""event"",""trial"",""time""
""fullscreenenter"",""1"",""2813""
","
","
","""event"",""trial"",""time""
""fullscreenenter"",""1"",""2813""
","
","","","87.7999999821186","","","10","6276","1848","&#9776;","elianto","#3366ff99"," "," ","1","+10","[218.40000000596046,692.2999999821186,941.0999999940395,1232,1501,1981.2999999821186,2252,2528]","8","0","1","","","","","","","",""
"pit-trial","32","345299","0.0-2.0-8.2-2.2","battery-v0.2","","""event"",""trial"",""time""
""fullscreenenter"",""1"",""2813""
","
","
","""event"",""trial"",""time""
""fullscreenenter"",""1"",""2813""
","
","","","1448.300000011921","","","10","6276","1848","&#9776;","elianto","#3366ff99"," "," ","1","+10","[2301.0999999940395,2547.7000000178814]","2","0","1","","","","","","","",""
"pit-trial","33","348635","0.0-2.0-8.2-3.2","battery-v0.2","","""event"",""trial"",""time""
""fullscreenenter"",""1"",""2813""
","
","
","""event"",""trial"",""time""
""fullscreenenter"",""1"",""2813""
","
","","","469.09999999403954","","","10","6276","1848","&#9776;","elianto","#3366ff99"," "," ","1","0","[1325.5999999940395,1702.7000000178814,2685.5]","3","0","1","","","","","","","",""
"pit-trial","34","352006","0.0-2.0-8.2-4.2","battery-v0.2","","""event"",""trial"",""time""
""fullscreenenter"",""1"",""2813""
","
","
","""event"",""trial"",""time""
""fullscreenenter"",""1"",""2813""
","
","","","508.7000000178814","","","10","6276","1848","&#9776;","elianto","#3366ff99"," "," ","1","+10","[160.09999999403954,716,1361.300000011921,1899.4000000059605,2310.5999999940395,2740.4000000059605,3253.7000000178814]","7","0","1","","","","","","","",""
"call-function","35","352009","0.0-2.0-9.0","battery-v0.2","","""event"",""trial"",""time""
""fullscreenenter"",""1"",""2813""
","
","
","""event"",""trial"",""time""
""fullscreenenter"",""1"",""2813""
","
","","","","","","","","","","","","","","","","","","","","","","","","","","",""
"pit-instructions","36","393510","0.0-2.0-10.0","battery-v0.2","","""event"",""trial"",""time""
""fullscreenenter"",""1"",""2813""
","
","
","""event"",""trial"",""time""
""fullscreenenter"",""1"",""2813""
","
","","[{""page_index"":0,""viewing_time"":6587.399999976158},{""page_index"":1,""viewing_time"":6055.700000017881},{""page_index"":2,""viewing_time"":11328.5},{""page_index"":3,""viewing_time"":9711.90000000596},{""page_index"":4,""viewing_time"":7815.899999976158}]","41500.09999999404","","","","","","","","","","","","","","","","","","","","","","","",""
"pit-trial","37","396970","0.0-2.0-11.0-0.0","battery-v0.2","","""event"",""trial"",""time""
""fullscreenenter"",""1"",""2813""
","
","
","""event"",""trial"",""time""
""fullscreenenter"",""1"",""2813""
","
","","","600.3000000119209","","","10","6276","1848","&#9761;","elianto","#3366ff99","-1"," ","0","0","[1453]","1","0","2","","","","","","","",""
"pit-trial","38","400426","0.0-2.0-11.0-1.0","battery-v0.2","","""event"",""trial"",""time""
""fullscreenenter"",""1"",""2813""
","
","
","""event"",""trial"",""time""
""fullscreenenter"",""1"",""2813""
","
","","","589.1999999880791","","","10","6276","1848","&#9761;","elianto","#3366ff99","-1"," ","0","0","[1443.699999988079]","1","0","2","","","","","","","",""
"pit-trial","39","405306","0.0-2.0-11.0-2.0","battery-v0.2","","""event"",""trial"",""time""
""fullscreenenter"",""1"",""2813""
","
","
","""event"",""trial"",""time""
""fullscreenenter"",""1"",""2813""
","
","","","-1","","","10","6276","1848","&#9761;","elianto","#3366ff99","-1","-1","1","+10","[]","0","0","2","","","","","","","",""
"pit-trial","40","410177","0.0-2.0-11.0-3.0","battery-v0.2","","""event"",""trial"",""time""
""fullscreenenter"",""1"",""2813""
","
","
","""event"",""trial"",""time""
""fullscreenenter"",""1"",""2813""
","
","","","-1","","","10","6276","1848","&#9761;","elianto","#3366ff99","-1","-1","1","0","[]","0","0","2","","","","","","","",""
"pit-trial","41","415040","0.0-2.0-11.0-4.0","battery-v0.2","","""event"",""trial"",""time""
""fullscreenenter"",""1"",""2813""
","
","
","""event"",""trial"",""time""
""fullscreenenter"",""1"",""2813""
","
","","","-1","","","10","6276","1848","&#9761;","elianto","#3366ff99","-1","-1","1","+10","[]","0","0","2","","","","","","","",""
"pit-trial","42","419900","0.0-2.0-11.1-0.1","battery-v0.2","","""event"",""trial"",""time""
""fullscreenenter"",""1"",""2813""
","
","
","""event"",""trial"",""time""
""fullscreenenter"",""1"",""2813""
","
","","","-1","","","10","6276","1848","&#9761;","elianto","#3366ff99","-1","-1","1","+10","[]","0","0","2","","","","","","","",""
"pit-trial","43","424763","0.0-2.0-11.1-1.1","battery-v0.2","","""event"",""trial"",""time""
""fullscreenenter"",""1"",""2813""
","
","
","""event"",""trial"",""time""
""fullscreenenter"",""1"",""2813""
","
","","","-1","","","10","6276","1848","&#9761;","elianto","#3366ff99","-1","-1","1","+10","[]","0","0","2","","","","","","","",""
"pit-trial","44","429620","0.0-2.0-11.1-2.1","battery-v0.2","","""event"",""trial"",""time""
""fullscreenenter"",""1"",""2813""
","
","
","""event"",""trial"",""time""
""fullscreenenter"",""1"",""2813""
","
","","","-1","","","10","6276","1848","&#9761;","elianto","#3366ff99","-1","-1","1","+10","[]","0","0","2","","","","","","","",""
"pit-trial","45","434481","0.0-2.0-11.1-3.1","battery-v0.2","","""event"",""trial"",""time""
""fullscreenenter"",""1"",""2813""
","
","
","""event"",""trial"",""time""
""fullscreenenter"",""1"",""2813""
","
","","","-1","","","10","6276","1848","&#9761;","elianto","#3366ff99","-1","-1","1","0","[]","0","0","2","","","","","","","",""
"pit-trial","46","438128","0.0-2.0-11.1-4.1","battery-v0.2","","""event"",""trial"",""time""
""fullscreenenter"",""1"",""2813""
","
","
","""event"",""trial"",""time""
""fullscreenenter"",""1"",""2813""
","
","","","786","","","10","6276","1848","&#9761;","elianto","#3366ff99","-1"," ","0","0","[1636.9000000059605]","1","0","2","","","","","","","",""
"pit-trial","47","442993","0.0-2.0-11.2-0.2","battery-v0.2","","""event"",""trial"",""time""
""fullscreenenter"",""1"",""2813""
","
","
","""event"",""trial"",""time""
""fullscreenenter"",""1"",""2813""
","
","","","-1","","","10","6276","1848","&#9761;","elianto","#3366ff99","-1","-1","1","+10","[]","0","0","2","","","","","","","",""
"pit-trial","48","447858","0.0-2.0-11.2-1.2","battery-v0.2","","""event"",""trial"",""time""
""fullscreenenter"",""1"",""2813""
","
","
","""event"",""trial"",""time""
""fullscreenenter"",""1"",""2813""
","
","","","-1","","","10","6276","1848","&#9761;","elianto","#3366ff99","-1","-1","1","+10","[]","0","0","2","","","","","","","",""
"pit-trial","49","452725","0.0-2.0-11.2-2.2","battery-v0.2","","""event"",""trial"",""time""
""fullscreenenter"",""1"",""2813""
","
","
","""event"",""trial"",""time""
""fullscreenenter"",""1"",""2813""
","
","","","-1","","","10","6276","1848","&#9761;","elianto","#3366ff99","-1","-1","1","+10","[]","0","0","2","","","","","","","",""
"pit-trial","50","457589","0.0-2.0-11.2-3.2","battery-v0.2","","""event"",""trial"",""time""
""fullscreenenter"",""1"",""2813""
","
","
","""event"",""trial"",""time""
""fullscreenenter"",""1"",""2813""
","
","","","-1","","","10","6276","1848","&#9761;","elianto","#3366ff99","-1","-1","1","0","[]","0","0","2","","","","","","","",""
"pit-trial","51","462459","0.0-2.0-11.2-4.2","battery-v0.2","","""event"",""trial"",""time""
""fullscreenenter"",""1"",""2813""
","
","
","""event"",""trial"",""time""
""fullscreenenter"",""1"",""2813""
","
","","","-1","","","10","6276","1848","&#9761;","elianto","#3366ff99","-1","-1","1","+10","[]","0","0","2","","","","","","","",""
"pit-trial","52","467319","0.0-2.0-11.3-0.3","battery-v0.2","","""event"",""trial"",""time""
""fullscreenenter"",""1"",""2813""
","
","
","""event"",""trial"",""time""
""fullscreenenter"",""1"",""2813""
","
","","","-1","","","10","6276","1848","&#9761;","elianto","#3366ff99","-1","-1","1","+10","[]","0","0","2","","","","","","","",""
"pit-trial","53","472175","0.0-2.0-11.3-1.3","battery-v0.2","","""event"",""trial"",""time""
""fullscreenenter"",""1"",""2813""
","
","
","""event"",""trial"",""time""
""fullscreenenter"",""1"",""2813""
","
","","","-1","","","10","6276","1848","&#9761;","elianto","#3366ff99","-1","-1","1","+10","[]","0","0","2","","","","","","","",""
"pit-trial","54","477039","0.0-2.0-11.3-2.3","battery-v0.2","","""event"",""trial"",""time""
""fullscreenenter"",""1"",""2813""
","
","
","""event"",""trial"",""time""
""fullscreenenter"",""1"",""2813""
","
","","","-1","","","10","6276","1848","&#9761;","elianto","#3366ff99","-1","-1","1","+10","[]","0","0","2","","","","","","","",""
"pit-trial","55","481902","0.0-2.0-11.3-3.3","battery-v0.2","","""event"",""trial"",""time""
""fullscreenenter"",""1"",""2813""
","
","
","""event"",""trial"",""time""
""fullscreenenter"",""1"",""2813""
","
","","","-1","","","10","6276","1848","&#9761;","elianto","#3366ff99","-1","-1","1","0","[]","0","0","2","","","","","","","",""
"pit-trial","56","486762","0.0-2.0-11.3-4.3","battery-v0.2","","""event"",""trial"",""time""
""fullscreenenter"",""1"",""2813""
","
","
","""event"",""trial"",""time""
""fullscreenenter"",""1"",""2813""
","
","","","-1","","","10","6276","1848","&#9761;","elianto","#3366ff99","-1","-1","1","+10","[]","0","0","2","","","","","","","",""
"call-function","57","486765","0.0-2.0-12.0","battery-v0.2","","""event"",""trial"",""time""
""fullscreenenter"",""1"",""2813""
","
","
","""event"",""trial"",""time""
""fullscreenenter"",""1"",""2813""
","
","","","","","","","","","","","","","","","","","","","","","","","","","","",""
"pit-instructions","58","526214","0.0-2.0-13.0","battery-v0.2","","""event"",""trial"",""time""
""fullscreenenter"",""1"",""2813""
","
","
","""event"",""trial"",""time""
""fullscreenenter"",""1"",""2813""
","
","","[{""page_index"":0,""viewing_time"":8175.9000000059605},{""page_index"":1,""viewing_time"":11047.800000011921},{""page_index"":2,""viewing_time"":3336},{""page_index"":3,""viewing_time"":11823.799999982119},{""page_index"":4,""viewing_time"":5064.300000011921}]","39448.5","","","","","","","","","","","","","","","","","","","","","","","",""
"pit-trial","59","531095","0.0-2.0-14.0-0.0","battery-v0.2","","""event"",""trial"",""time""
""fullscreenenter"",""1"",""2813""
","
","
","""event"",""trial"",""time""
""fullscreenenter"",""1"",""2813""
","
","","","-1","","","10","6276","1848","&#9826;","elianto","#f73b6a7A","-1","-1","1","0","[]","0","0","3","","","","","","","",""
"pit-trial","60","534981","0.0-2.0-14.0-1.0","battery-v0.2","","""event"",""trial"",""time""
""fullscreenenter"",""1"",""2813""
","
","
","""event"",""trial"",""time""
""fullscreenenter"",""1"",""2813""
","
","","","1015.4000000059605","","","10","6276","1848","&#9826;","elianto","#f73b6a7A","-1"," ","0","-10","[1871.5]","1","0","3","","","","","","","",""
"pit-trial","61","539859","0.0-2.0-14.0-2.0","battery-v0.2","","""event"",""trial"",""time""
""fullscreenenter"",""1"",""2813""
","
","
","""event"",""trial"",""time""
""fullscreenenter"",""1"",""2813""
","
","","","-1","","","10","6276","1848","&#9826;","elianto","#f73b6a7A","-1","-1","1","0","[]","0","0","3","","","","","","","",""
"pit-trial","62","544735","0.0-2.0-14.0-3.0","battery-v0.2","","""event"",""trial"",""time""
""fullscreenenter"",""1"",""2813""
","
","
","""event"",""trial"",""time""
""fullscreenenter"",""1"",""2813""
","
","","","-1","","","10","6276","1848","&#9826;","elianto","#f73b6a7A","-1","-1","1","-10","[]","0","0","3","","","","","","","",""
"pit-trial","63","549607","0.0-2.0-14.0-4.0","battery-v0.2","","""event"",""trial"",""time""
""fullscreenenter"",""1"",""2813""
","
","
","""event"",""trial"",""time""
""fullscreenenter"",""1"",""2813""
","
","","","-1","","","10","6276","1848","&#9826;","elianto","#f73b6a7A","-1","-1","1","0","[]","0","0","3","","","","","","","",""
"pit-trial","64","554465","0.0-2.0-14.1-0.1","battery-v0.2","","""event"",""trial"",""time""
""fullscreenenter"",""1"",""2813""
","
","
","""event"",""trial"",""time""
""fullscreenenter"",""1"",""2813""
","
","","","-1","","","10","6276","1848","&#9826;","elianto","#f73b6a7A","-1","-1","1","0","[]","0","0","3","","","","","","","",""
"pit-trial","65","559337","0.0-2.0-14.1-1.1","battery-v0.2","","""event"",""trial"",""time""
""fullscreenenter"",""1"",""2813""
","
","
","""event"",""trial"",""time""
""fullscreenenter"",""1"",""2813""
","
","","","-1","","","10","6276","1848","&#9826;","elianto","#f73b6a7A","-1","-1","1","0","[]","0","0","3","","","","","","","",""
"pit-trial","66","564197","0.0-2.0-14.1-2.1","battery-v0.2","","""event"",""trial"",""time""
""fullscreenenter"",""1"",""2813""
","
","
","""event"",""trial"",""time""
""fullscreenenter"",""1"",""2813""
","
","","","-1","","","10","6276","1848","&#9826;","elianto","#f73b6a7A","-1","-1","1","0","[]","0","0","3","","","","","","","",""
"pit-trial","67","569058","0.0-2.0-14.1-3.1","battery-v0.2","","""event"",""trial"",""time""
""fullscreenenter"",""1"",""2813""
","
","
","""event"",""trial"",""time""
""fullscreenenter"",""1"",""2813""
","
","","","-1","","","10","6276","1848","&#9826;","elianto","#f73b6a7A","-1","-1","1","-10","[]","0","0","3","","","","","","","",""
"pit-trial","68","573924","0.0-2.0-14.1-4.1","battery-v0.2","","""event"",""trial"",""time""
""fullscreenenter"",""1"",""2813""
","
","
","""event"",""trial"",""time""
""fullscreenenter"",""1"",""2813""
","
","","","-1","","","10","6276","1848","&#9826;","elianto","#f73b6a7A","-1","-1","1","0","[]","0","0","3","","","","","","","",""
"pit-trial","69","578790","0.0-2.0-14.2-0.2","battery-v0.2","","""event"",""trial"",""time""
""fullscreenenter"",""1"",""2813""
","
","
","""event"",""trial"",""time""
""fullscreenenter"",""1"",""2813""
","
","","","-1","","","10","6276","1848","&#9826;","elianto","#f73b6a7A","-1","-1","1","0","[]","0","0","3","","","","","","","",""
"pit-trial","70","583659","0.0-2.0-14.2-1.2","battery-v0.2","","""event"",""trial"",""time""
""fullscreenenter"",""1"",""2813""
","
","
","""event"",""trial"",""time""
""fullscreenenter"",""1"",""2813""
","
","","","-1","","","10","6276","1848","&#9826;","elianto","#f73b6a7A","-1","-1","1","0","[]","0","0","3","","","","","","","",""
"pit-trial","71","588518","0.0-2.0-14.2-2.2","battery-v0.2","","""event"",""trial"",""time""
""fullscreenenter"",""1"",""2813""
","
","
","""event"",""trial"",""time""
""fullscreenenter"",""1"",""2813""
","
","","","-1","","","10","6276","1848","&#9826;","elianto","#f73b6a7A","-1","-1","1","0","[]","0","0","3","","","","","","","",""
"pit-trial","72","593384","0.0-2.0-14.2-3.2","battery-v0.2","","""event"",""trial"",""time""
""fullscreenenter"",""1"",""2813""
","
","
","""event"",""trial"",""time""
""fullscreenenter"",""1"",""2813""
","
","","","-1","","","10","6276","1848","&#9826;","elianto","#f73b6a7A","-1","-1","1","-10","[]","0","0","3","","","","","","","",""
"pit-trial","73","598249","0.0-2.0-14.2-4.2","battery-v0.2","","""event"",""trial"",""time""
""fullscreenenter"",""1"",""2813""
","
","
","""event"",""trial"",""time""
""fullscreenenter"",""1"",""2813""
","
","","","-1","","","10","6276","1848","&#9826;","elianto","#f73b6a7A","-1","-1","1","0","[]","0","0","3","","","","","","","",""
"pit-trial","74","603113","0.0-2.0-14.3-0.3","battery-v0.2","","""event"",""trial"",""time""
""fullscreenenter"",""1"",""2813""
","
","
","""event"",""trial"",""time""
""fullscreenenter"",""1"",""2813""
","
","","","-1","","","10","6276","1848","&#9826;","elianto","#f73b6a7A","-1","-1","1","0","[]","0","0","3","","","","","","","",""
"pit-trial","75","607973","0.0-2.0-14.3-1.3","battery-v0.2","","""event"",""trial"",""time""
""fullscreenenter"",""1"",""2813""
","
","
","""event"",""trial"",""time""
""fullscreenenter"",""1"",""2813""
","
","","","-1","","","10","6276","1848","&#9826;","elianto","#f73b6a7A","-1","-1","1","0","[]","0","0","3","","","","","","","",""
"pit-trial","76","612830","0.0-2.0-14.3-2.3","battery-v0.2","","""event"",""trial"",""time""
""fullscreenenter"",""1"",""2813""
","
","
","""event"",""trial"",""time""
""fullscreenenter"",""1"",""2813""
","
","","","-1","","","10","6276","1848","&#9826;","elianto","#f73b6a7A","-1","-1","1","0","[]","0","0","3","","","","","","","",""
"pit-trial","77","617696","0.0-2.0-14.3-3.3","battery-v0.2","","""event"",""trial"",""time""
""fullscreenenter"",""1"",""2813""
","
","
","""event"",""trial"",""time""
""fullscreenenter"",""1"",""2813""
","
","","","-1","","","10","6276","1848","&#9826;","elianto","#f73b6a7A","-1","-1","1","-10","[]","0","0","3","","","","","","","",""
"pit-trial","78","622551","0.0-2.0-14.3-4.3","battery-v0.2","","""event"",""trial"",""time""
""fullscreenenter"",""1"",""2813""
","
","
","""event"",""trial"",""time""
""fullscreenenter"",""1"",""2813""
","
","","","-1","","","10","6276","1848","&#9826;","elianto","#f73b6a7A","-1","-1","1","0","[]","0","0","3","","","","","","","",""
"call-function","79","622554","0.0-2.0-15.0","battery-v0.2","","""event"",""trial"",""time""
""fullscreenenter"",""1"",""2813""
","
","
","""event"",""trial"",""time""
""fullscreenenter"",""1"",""2813""
","
","","","","","","","","","","","","","","","","","","","","","","","","","","",""
"pit-instructions","80","656374","0.0-2.0-16.0","battery-v0.2","","""event"",""trial"",""time""
""fullscreenenter"",""1"",""2813""
","
","
","""event"",""trial"",""time""
""fullscreenenter"",""1"",""2813""
","
","","[{""page_index"":0,""viewing_time"":12496.90000000596},{""page_index"":1,""viewing_time"":8511.800000011921},{""page_index"":2,""viewing_time"":7200.0999999940395},{""page_index"":3,""viewing_time"":5608.0999999940395}]","33817.59999999404","","","","","","","","","","","","","","","","","","","","","","","",""
"pit-trial","81","661249","0.0-2.0-17.0-0.0","battery-v0.2","","""event"",""trial"",""time""
""fullscreenenter"",""1"",""2813""
","
","
","""event"",""trial"",""time""
""fullscreenenter"",""1"",""2813""
","
","","","-1","","","10","6276","1848","&#9789;","elianto","#f73b6a7A"," ","-1","0","-10","[]","0","0","4","","","","","","","",""
"pit-trial","82","664533","0.0-2.0-17.0-1.0","battery-v0.2","","""event"",""trial"",""time""
""fullscreenenter"",""1"",""2813""
","
","
","""event"",""trial"",""time""
""fullscreenenter"",""1"",""2813""
","
","","","414.90000000596046","","","10","6276","1848","&#9789;","elianto","#f73b6a7A"," "," ","1","0","[1266.2999999821186]","1","0","4","","","","","","","",""
"pit-trial","83","667942","0.0-2.0-17.0-2.0","battery-v0.2","","""event"",""trial"",""time""
""fullscreenenter"",""1"",""2813""
","
","
","""event"",""trial"",""time""
""fullscreenenter"",""1"",""2813""
","
","","","540.8999999761581","","","10","6276","1848","&#9789;","elianto","#f73b6a7A"," "," ","1","0","[1391.9000000059605,1947.9000000059605,2326,2503,2663.7000000178814,2988.800000011921,3147.800000011921,3303.300000011921]","8","0","4","","","","","","","",""
"pit-trial","84","670928","0.0-2.0-17.0-3.0","battery-v0.2","","""event"",""trial"",""time""
""fullscreenenter"",""1"",""2813""
","
","
","""event"",""trial"",""time""
""fullscreenenter"",""1"",""2813""
","
","","","129","","","10","6276","1848","&#9789;","elianto","#f73b6a7A"," "," ","1","-10","[77.30000001192093,241.90000000596046,458.90000000596046,645.4000000059605,808.6000000238419,979.7000000178814,1161.4000000059605,1335.300000011921,1502.1000000238419,1688.800000011921,1925.800000011921,2105.600000023842,2324.4000000059605,2750.5]","14","0","4","","","","","","","",""
"pit-trial","85","673808","0.0-2.0-17.0-4.0","battery-v0.2","","""event"",""trial"",""time""
""fullscreenenter"",""1"",""2813""
","
","
","""event"",""trial"",""time""
""fullscreenenter"",""1"",""2813""
","
","","","19.799999982118607","","","10","6276","1848","&#9789;","elianto","#f73b6a7A"," "," ","1","0","[22.599999994039536,253.7999999821186,503,672.5,872.7999999821186,1113.2999999821186,1304.5999999940395,1552,1824.5,2074.0999999940395,2307.5999999940395,2518.5999999940395,2704.899999976158]","13","0","4","","","","","","","",""
"pit-trial","86","676855","0.0-2.0-17.1-0.1","battery-v0.2","","""event"",""trial"",""time""
""fullscreenenter"",""1"",""2813""
","
","
","""event"",""trial"",""time""
""fullscreenenter"",""1"",""2813""
","
","","","181","","","10","6276","1848","&#9789;","elianto","#f73b6a7A"," "," ","1","0","[0.29999998211860657,198.09999999403954,398.09999999403954,605.0999999940395,822.1999999880791,1032.199999988079,1264.199999988079,1483.2999999821186,1701.9000000059605,1914.699999988079,2131.199999988079,2317.5,2499.9000000059605,2690.5999999940395,2887.5]","15","0","4","","","","","","","",""
"pit-trial","87","679823","0.0-2.0-17.1-1.1","battery-v0.2","","""event"",""trial"",""time""
""fullscreenenter"",""1"",""2813""
","
","
","""event"",""trial"",""time""
""fullscreenenter"",""1"",""2813""
","
","","","104.80000001192093","","","10","6276","1848","&#9789;","elianto","#f73b6a7A"," "," ","1","0","[25.599999994039536,217.80000001192093,411.59999999403954,598.8000000119209,769,955.7000000178814,1148.9000000059605,1348.4000000059605,1548.9000000059605,1746.4000000059605,1955.5,2180,2427,2677.800000011921,2920.5]","15","0","4","","","","","","","",""
"pit-trial","88","682931","0.0-2.0-17.1-2.1","battery-v0.2","","""event"",""trial"",""time""
""fullscreenenter"",""1"",""2813""
","
","
","""event"",""trial"",""time""
""fullscreenenter"",""1"",""2813""
","
","","","245.19999998807907","","","10","6276","1848","&#9789;","elianto","#f73b6a7A"," "," ","1","0","[172.69999998807907,422.59999999403954,1101.5,1288.300000011921,1494.199999988079,1695.699999988079,1879.0999999940395,2034.300000011921,2258.5999999940395]","9","0","4","","","","","","","",""
"pit-trial","89","686020","0.0-2.0-17.1-3.1","battery-v0.2","","""event"",""trial"",""time""
""fullscreenenter"",""1"",""2813""
","
","
","""event"",""trial"",""time""
""fullscreenenter"",""1"",""2813""
","
","","","221.69999998807907","","","10","6276","1848","&#9789;","elianto","#f73b6a7A"," "," ","1","-10","[1086.5,1233.4000000059605,1319.9000000059605,2255.9000000059605]","4","0","4","","","","","","","",""
"pit-trial","90","689128","0.0-2.0-17.1-4.1","battery-v0.2","","""event"",""trial"",""time""
""fullscreenenter"",""1"",""2813""
","
","
","""event"",""trial"",""time""
""fullscreenenter"",""1"",""2813""
","
","","","249.60000002384186","","","10","6276","1848","&#9789;","elianto","#f73b6a7A"," "," ","1","0","[274.5,701.7000000178814,1103.0999999940395,1398.800000011921,2541.2000000178814,2782.0999999940395,3051.0999999940395]","7","0","4","","","","","","","",""
"pit-trial","91","692367","0.0-2.0-17.2-0.2","battery-v0.2","","""event"",""trial"",""time""
""fullscreenenter"",""1"",""2813""
","
","
","""event"",""trial"",""time""
""fullscreenenter"",""1"",""2813""
","
","","","381.5","","","10","6276","1848","&#9789;","elianto","#f73b6a7A"," "," ","1","0","[255.40000000596046,532.8000000119209,752.9000000059605,1232.1000000238419,1592.7000000178814,1777.2000000178814,2027.2000000178814,2266.5,2538.800000011921,2794.800000011921,3026]","11","0","4","","","","","","","",""
"pit-trial","92","695339","0.0-2.0-17.2-1.2","battery-v0.2","","""event"",""trial"",""time""
""fullscreenenter"",""1"",""2813""
","
","
","""event"",""trial"",""time""
""fullscreenenter"",""1"",""2813""
","
","","","110.69999998807907","","","10","6276","1848","&#9789;","elianto","#f73b6a7A"," "," ","1","0","[24.700000017881393,278.09999999403954,549.9000000059605,963.8000000119209,1177.300000011921,1457.800000011921,1740.800000011921,2004.5,2304.2000000178814,2602.4000000059605,2883.300000011921]","11","0","4","","","","","","","",""
"pit-trial","93","698822","0.0-2.0-17.2-2.2","battery-v0.2","","""event"",""trial"",""time""
""fullscreenenter"",""1"",""2813""
","
","
","""event"",""trial"",""time""
""fullscreenenter"",""1"",""2813""
","
","","","619.1999999880791","","","10","6276","1848","&#9789;","elianto","#f73b6a7A"," "," ","1","0","[201.7000000178814,504.7000000178814,774.9000000059605,1470.5,1677.800000011921,1973.5999999940395,2218.2000000178814,2379.7000000178814,3083.4000000059605,3331]","10","0","4","","","","","","","",""
"pit-trial","94","702004","0.0-2.0-17.2-3.2","battery-v0.2","","""event"",""trial"",""time""
""fullscreenenter"",""1"",""2813""
","
","
","""event"",""trial"",""time""
""fullscreenenter"",""1"",""2813""
","
","","","322.09999999403954","","","10","6276","1848","&#9789;","elianto","#f73b6a7A"," "," ","1","-10","[1174.800000011921,1425.5,1697.800000011921,2109.7000000178814,2476.9000000059605,2827.2000000178814,3114.9000000059605]","7","0","4","","","","","","","",""
"pit-trial","95","705471","0.0-2.0-17.2-4.2","battery-v0.2","","""event"",""trial"",""time""
""fullscreenenter"",""1"",""2813""
","
","
","""event"",""trial"",""time""
""fullscreenenter"",""1"",""2813""
","
","","","610.8000000119209","","","10","6276","1848","&#9789;","elianto","#f73b6a7A"," "," ","1","0","[369.90000000596046,1463.0999999940395,2909.5999999940395,3428.699999988079]","4","0","4","","","","","","","",""
"pit-trial","96","708336","0.0-2.0-17.3-0.3","battery-v0.2","","""event"",""trial"",""time""
""fullscreenenter"",""1"",""2813""
","
","
","""event"",""trial"",""time""
""fullscreenenter"",""1"",""2813""
","
","","","2.199999988079071","","","10","6276","1848","&#9789;","elianto","#f73b6a7A"," "," ","1","0","[348.7000000178814,482.7000000178814,852.4000000059605,1057.5,1644.1000000238419,1931,2220.300000011921,2574.600000023842]","8","0","4","","","","","","","",""
"pit-trial","97","711537","0.0-2.0-17.3-1.3","battery-v0.2","","""event"",""trial"",""time""
""fullscreenenter"",""1"",""2813""
","
","
","""event"",""trial"",""time""
""fullscreenenter"",""1"",""2813""
","
","","","348.2000000178814","","","10","6276","1848","&#9789;","elianto","#f73b6a7A"," "," ","1","0","[37,289.19999998807907,601.1999999880791,1199.0999999940395,1602.0999999940395,1905.5999999940395,2210.2999999821186,2484,2780.2999999821186,3059.2999999821186]","10","0","4","","","","","","","",""
"pit-trial","98","714420","0.0-2.0-17.3-2.3","battery-v0.2","","""event"",""trial"",""time""
""fullscreenenter"",""1"",""2813""
","
","
","""event"",""trial"",""time""
""fullscreenenter"",""1"",""2813""
","
","","","28.30000001192093","","","10","6276","1848","&#9789;","elianto","#f73b6a7A"," "," ","1","0","[136.5,325.09999999403954,591.6999999880791,879.0999999940395,1205.199999988079,1508.0999999940395,1721.5999999940395,1982.0999999940395,2221.9000000059605]","9","0","4","","","","","","","",""
"pit-trial","99","717907","0.0-2.0-17.3-3.3","battery-v0.2","","""event"",""trial"",""time""
""fullscreenenter"",""1"",""2813""
","
","
","""event"",""trial"",""time""
""fullscreenenter"",""1"",""2813""
","
","","","619.9000000059605","","","10","6276","1848","&#9789;","elianto","#f73b6a7A"," "," ","1","-10","[119.5,533.5999999940395,1475.2000000178814,1835,2155.4000000059605,3254.5999999940395]","6","0","4","","","","","","","",""
"pit-trial","100","721096","0.0-2.0-17.3-4.3","battery-v0.2","","""event"",""trial"",""time""
""fullscreenenter"",""1"",""2813""
","
","
","""event"",""trial"",""time""
""fullscreenenter"",""1"",""2813""
","
","","","324.30000001192093","","","10","6276","1848","&#9789;","elianto","#f73b6a7A"," "," ","1","0","[80.5,412,815.3000000119209,1180.1000000238419,1518.300000011921,1738.300000011921,2160.2000000178814,2492.9000000059605,2838.4000000059605,3096.7000000178814]","10","0","4","","","","","","","",""
"call-function","101","721099","0.0-2.0-18.0","battery-v0.2","","""event"",""trial"",""time""
""fullscreenenter"",""1"",""2813""
","
","
","""event"",""trial"",""time""
""fullscreenenter"",""1"",""2813""
","
","","","","","","","","","","","","","","","","","","","","","","","","","","",""
"pit-instructions","102","797639","0.0-2.0-19.0","battery-v0.2","","""event"",""trial"",""time""
""fullscreenenter"",""1"",""2813""
","
","
","""event"",""trial"",""time""
""fullscreenenter"",""1"",""2813""
","
","","[{""page_index"":0,""viewing_time"":9024.300000011921},{""page_index"":1,""viewing_time"":6895.5},{""page_index"":2,""viewing_time"":17112.19999998808},{""page_index"":3,""viewing_time"":7647.700000017881},{""page_index"":4,""viewing_time"":9344.199999988079},{""page_index"":5,""viewing_time"":8023.5},{""page_index"":6,""viewing_time"":7136.300000011921},{""page_index"":7,""viewing_time"":6512},{""page_index"":8,""viewing_time"":4840.199999988079}]","76536.5","","","","","","","","","","","","","","","","","","","","","","","",""
"pit-comprehension","103","802089","0.0-2.0-20.0-0.0","battery-v0.2","","""event"",""trial"",""time""
""fullscreenenter"",""1"",""2813""
","
","
","""event"",""trial"",""time""
""fullscreenenter"",""1"",""2813""
","
","","","4445.800000011921","[""SPACE""]","0","10","6276","1848","","","","","","","","","","","","","","","","","","",""
"pit-instructions","104","804687","0.0-2.0-20.0-1.0","battery-v0.2","","""event"",""trial"",""time""
""fullscreenenter"",""1"",""2813""
","
","
","""event"",""trial"",""time""
""fullscreenenter"",""1"",""2813""
","
","","[{""page_index"":0,""viewing_time"":2552.600000023842}]","2553.300000011921","","","","","","","","","","","","","","","","","","","","","","","",""
"pit-comprehension","105","811104","0.0-2.0-21.0-0.0","battery-v0.2","","""event"",""trial"",""time""
""fullscreenenter"",""1"",""2813""
","
","
","""event"",""trial"",""time""
""fullscreenenter"",""1"",""2813""
","
","","","6410.4000000059605","[""10""]","0","10","6276","1848","","","","","","","","","","","","","","","","","","",""
"pit-instructions","106","812287","0.0-2.0-21.0-1.0","battery-v0.2","","""event"",""trial"",""time""
""fullscreenenter"",""1"",""2813""
","
","
","""event"",""trial"",""time""
""fullscreenenter"",""1"",""2813""
","
","","[{""page_index"":0,""viewing_time"":1137.199999988079}]","1137.699999988079","","","","","","","","","","","","","","","","","","","","","","","",""
"pit-comprehension","107","818463","0.0-2.0-22.0-0.0","battery-v0.2","","""event"",""trial"",""time""
""fullscreenenter"",""1"",""2813""
","
","
","""event"",""trial"",""time""
""fullscreenenter"",""1"",""2813""
","
","","","6170.799999982119","[""-10""]","1","10","6276","1848","","","","","","","","","","","","","","","","","","",""
"pit-instructions","108","825007","0.0-2.0-22.0-1.0","battery-v0.2","","""event"",""trial"",""time""
""fullscreenenter"",""1"",""2813""
","
","
","""event"",""trial"",""time""
""fullscreenenter"",""1"",""2813""
","
","","[{""page_index"":0,""viewing_time"":6491.199999988079}]","6491.800000011921","","","","","","","","","","","","","","","","","","","","","","","",""
"pit-instructions","109","825255","0.0-2.0-22.0-2.0-0.0","battery-v0.2","","""event"",""trial"",""time""
""fullscreenenter"",""1"",""2813""
","
","
","""event"",""trial"",""time""
""fullscreenenter"",""1"",""2813""
","
","","[{""page_index"":0,""viewing_time"":244.5}]","245","","","","","","","","","","","","","","","","","","","","","","","",""
"pit-comprehension","110","831279","0.0-2.0-22.1-0.1","battery-v0.2","","""event"",""trial"",""time""
""fullscreenenter"",""1"",""2813""
","
","
","""event"",""trial"",""time""
""fullscreenenter"",""1"",""2813""
","
","","","6020.5","[""0""]","0","10","6276","1848","","","","","","","","","","","","","","","","","","",""
"pit-instructions","111","832942","0.0-2.0-22.1-1.1","battery-v0.2","","""event"",""trial"",""time""
""fullscreenenter"",""1"",""2813""
","
","
","""event"",""trial"",""time""
""fullscreenenter"",""1"",""2813""
","
","","[{""page_index"":0,""viewing_time"":1619.699999988079}]","1620","","","","","","","","","","","","","","","","","","","","","","","",""
"pit-comprehension","112","844175","0.0-2.0-23.0-0.0","battery-v0.2","","""event"",""trial"",""time""
""fullscreenenter"",""1"",""2813""
","
","
","""event"",""trial"",""time""
""fullscreenenter"",""1"",""2813""
","
","","","11229.5","[""False""]","1","10","6276","1848","","","","","","","","","","","","","","","","","","",""
"pit-instructions","113","846710","0.0-2.0-23.0-1.0","battery-v0.2","","""event"",""trial"",""time""
""fullscreenenter"",""1"",""2813""
","
","
","""event"",""trial"",""time""
""fullscreenenter"",""1"",""2813""
","
","","[{""page_index"":0,""viewing_time"":2489.2000000178814}]","2489.7000000178814","","","","","","","","","","","","","","","","","","","","","","","",""
"pit-instructions","114","848046","0.0-2.0-23.0-2.0-0.0","battery-v0.2","","""event"",""trial"",""time""
""fullscreenenter"",""1"",""2813""
","
","
","""event"",""trial"",""time""
""fullscreenenter"",""1"",""2813""
","
","","[{""page_index"":0,""viewing_time"":1333.199999988079}]","1333.9000000059605","","","","","","","","","","","","","","","","","","","","","","","",""
"pit-comprehension","115","856383","0.0-2.0-23.1-0.1","battery-v0.2","","""event"",""trial"",""time""
""fullscreenenter"",""1"",""2813""
","
","
","""event"",""trial"",""time""
""fullscreenenter"",""1"",""2813""
","
","","","8332.59999999404","[""True""]","0","10","6276","1848","","","","","","","","","","","","","","","","","","",""
"pit-instructions","116","857558","0.0-2.0-23.1-1.1","battery-v0.2","","""event"",""trial"",""time""
""fullscreenenter"",""1"",""2813""
","
","
","""event"",""trial"",""time""
""fullscreenenter"",""1"",""2813""
","
","","[{""page_index"":0,""viewing_time"":1129}]","1129.4000000059605","","","","","","","","","","","","","","","","","","","","","","","",""
"pit-comprehension","117","867039","0.0-2.0-24.0-0.0","battery-v0.2","","""event"",""trial"",""time""
""fullscreenenter"",""1"",""2813""
","
","
","""event"",""trial"",""time""
""fullscreenenter"",""1"",""2813""
","
","","","9475.800000011921","[""True""]","0","10","6276","1848","","","","","","","","","","","","","","","","","","",""
"pit-instructions","118","868518","0.0-2.0-24.0-1.0","battery-v0.2","","""event"",""trial"",""time""
""fullscreenenter"",""1"",""2813""
","
","
","""event"",""trial"",""time""
""fullscreenenter"",""1"",""2813""
","
","","[{""page_index"":0,""viewing_time"":1428.300000011921}]","1428.9000000059605","","","","","","","","","","","","","","","","","","","","","","","",""
"pit-comprehension","119","874910","0.0-2.0-25.0-0.0","battery-v0.2","","""event"",""trial"",""time""
""fullscreenenter"",""1"",""2813""
","
","
","""event"",""trial"",""time""
""fullscreenenter"",""1"",""2813""
","
","","","6387.5","[""True""]","0","10","6276","1848","","","","","","","","","","","","","","","","","","",""
"pit-instructions","120","876526","0.0-2.0-25.0-1.0","battery-v0.2","","""event"",""trial"",""time""
""fullscreenenter"",""1"",""2813""
","
","
","""event"",""trial"",""time""
""fullscreenenter"",""1"",""2813""
","
","","[{""page_index"":0,""viewing_time"":1574.7999999821186}]","1575.3999999761581","","","","","","","","","","","","","","","","","","","","","","","",""
"pit-comprehension","121","881911","0.0-2.0-26.0-0.0","battery-v0.2","","""event"",""trial"",""time""
""fullscreenenter"",""1"",""2813""
","
","
","""event"",""trial"",""time""
""fullscreenenter"",""1"",""2813""
","
","","","5379","[""False""]","0","10","6276","1848","","","","","","","","","","","","","","","","","","",""
"pit-instructions","122","883510","0.0-2.0-26.0-1.0","battery-v0.2","","""event"",""trial"",""time""
""fullscreenenter"",""1"",""2813""
","
","
","""event"",""trial"",""time""
""fullscreenenter"",""1"",""2813""
","
","","[{""page_index"":0,""viewing_time"":1550}]","1550.5","","","","","","","","","","","","","","","","","","","","","","","",""
"pit-instructions","123","899422","0.0-3.0","battery-v0.2","","""event"",""trial"",""time""
""fullscreenenter"",""1"",""2813""
","
","
","""event"",""trial"",""time""
""fullscreenenter"",""1"",""2813""
","
","","[{""page_index"":0,""viewing_time"":4316.200000017881},{""page_index"":1,""viewing_time"":5440},{""page_index"":2,""viewing_time"":6152.399999976158}]","15909.200000017881","","","","","","","","","","","","","","","","","","","","","","","",""
"pit-trial","124","903392","0.0-4.0","battery-v0.2","","""event"",""trial"",""time""
""fullscreenenter"",""1"",""2813""
","
","
","""event"",""trial"",""time""
""fullscreenenter"",""1"",""2813""
","
","","","1098.300000011921","","","10","6276","1848","&#9730;","elianto","#3366ff99"," "," ","1","+10","[1953.5,3648.5]","2","1","","","6276","1","1","1","win","go","0"
"pit-trial","125","908268","0.0-5.0","battery-v0.2","","""event"",""trial"",""time""
""fullscreenenter"",""1"",""2813""
","
","
","""event"",""trial"",""time""
""fullscreenenter"",""1"",""2813""
","
","","","-1","","","10","6276","1848","&#9752;","elianto","#f73b6a7A"," ","-1","0","-10","[]","0","1","","","6276","2","3","3","lose","go","0"
"pit-trial","126","912218","0.0-6.0","battery-v0.2","","""event"",""trial"",""time""
""fullscreenenter"",""1"",""2813""
","
","
","""event"",""trial"",""time""
""fullscreenenter"",""1"",""2813""
","
","","","1078","","","10","6276","1848","&#9728;","elianto","#f73b6a7A","-1"," ","0","-10","[1935.2000000178814]","1","1","","","6276","3","0","4","lose","no-go","0"
"pit-trial","127","916036","0.0-7.0","battery-v0.2","","""event"",""trial"",""time""
""fullscreenenter"",""1"",""2813""
","
","
","""event"",""trial"",""time""
""fullscreenenter"",""1"",""2813""
","
","","","948.4000000059605","","","10","6276","1848","&#9733;","elianto","#3366ff99","-1"," ","0","0","[1800]","1","1","","","6276","4","2","2","win","no-go","0"
"pit-trial","128","920897","0.0-8.0","battery-v0.2","","""event"",""trial"",""time""
""fullscreenenter"",""1"",""2813""
","
","
","""event"",""trial"",""time""
""fullscreenenter"",""1"",""2813""
","
","","","-1","","","10","6276","1848","&#9728;","elianto","#f73b6a7A","-1","-1","1","0","[]","0","1","","","6276","5","0","4","lose","no-go","0"
"pit-trial","129","924668","0.0-9.0","battery-v0.2","","""event"",""trial"",""time""
""fullscreenenter"",""1"",""2813""
","
","
","""event"",""trial"",""time""
""fullscreenenter"",""1"",""2813""
","
","","","909.5999999940395","","","10","6276","1848","&#9730;","elianto","#3366ff99"," "," ","1","0","[1764.1000000238419]","1","1","","","6276","6","1","1","win","go","1"
"pit-trial","130","929059","0.0-10.0","battery-v0.2","","""event"",""trial"",""time""
""fullscreenenter"",""1"",""2813""
","
","
","""event"",""trial"",""time""
""fullscreenenter"",""1"",""2813""
","
","","","1520","","","10","6276","1848","&#9752;","elianto","#f73b6a7A"," "," ","1","0","[2377.699999988079]","1","1","","","6276","7","3","3","lose","go","0"
"pit-trial","131","933914","0.0-11.0","battery-v0.2","","""event"",""trial"",""time""
""fullscreenenter"",""1"",""2813""
","
","
","""event"",""trial"",""time""
""fullscreenenter"",""1"",""2813""
","
","","","-1","","","10","6276","1848","&#9733;","elianto","#3366ff99","-1","-1","1","+10","[]","0","1","","","6276","8","2","2","win","no-go","0"
"pit-trial","132","938768","0.0-12.0","battery-v0.2","","""event"",""trial"",""time""
""fullscreenenter"",""1"",""2813""
","
","
","""event"",""trial"",""time""
""fullscreenenter"",""1"",""2813""
","
","","","-1","","","10","6276","1848","&#9733;","elianto","#3366ff99","-1","-1","1","0","[]","0","1","","","6276","9","2","2","win","no-go","1"
"pit-trial","133","943626","0.0-13.0","battery-v0.2","","""event"",""trial"",""time""
""fullscreenenter"",""1"",""2813""
","
","
","""event"",""trial"",""time""
""fullscreenenter"",""1"",""2813""
","
","","","-1","","","10","6276","1848","&#9752;","elianto","#f73b6a7A"," ","-1","0","-10","[]","0","1","","","6276","10","3","3","lose","go","0"
"pit-trial","134","948491","0.0-14.0","battery-v0.2","","""event"",""trial"",""time""
""fullscreenenter"",""1"",""2813""
","
","
","""event"",""trial"",""time""
""fullscreenenter"",""1"",""2813""
","
","","","-1","","","10","6276","1848","&#9728;","elianto","#f73b6a7A","-1","-1","1","0","[]","0","1","","","6276","11","0","4","lose","no-go","0"
"pit-trial","135","952174","0.0-15.0","battery-v0.2","","""event"",""trial"",""time""
""fullscreenenter"",""1"",""2813""
","
","
","""event"",""trial"",""time""
""fullscreenenter"",""1"",""2813""
","
","","","815.2999999821186","","","10","6276","1848","&#9730;","elianto","#3366ff99"," "," ","1","+10","[1671.9000000059605]","1","1","","","6276","12","1","1","win","go","0"
"pit-trial","136","955906","0.0-16.0","battery-v0.2","","""event"",""trial"",""time""
""fullscreenenter"",""1"",""2813""
","
","
","""event"",""trial"",""time""
""fullscreenenter"",""1"",""2813""
","
","","","867.1999999880791","","","10","6276","1848","&#9752;","elianto","#f73b6a7A"," "," ","1","0","[1723.199999988079]","1","1","","","6276","13","3","3","lose","go","0"
"pit-trial","137","960771","0.0-17.0","battery-v0.2","","""event"",""trial"",""time""
""fullscreenenter"",""1"",""2813""
","
","
","""event"",""trial"",""time""
""fullscreenenter"",""1"",""2813""
","
","","","-1","","","10","6276","1848","&#9728;","elianto","#f73b6a7A","-1","-1","1","0","[]","0","1","","","6276","14","0","4","lose","no-go","0"
"pit-trial","138","964097","0.0-18.0","battery-v0.2","","""event"",""trial"",""time""
""fullscreenenter"",""1"",""2813""
","
","
","""event"",""trial"",""time""
""fullscreenenter"",""1"",""2813""
","
","","","469.90000000596046","","","10","6276","1848","&#9730;","elianto","#3366ff99"," "," ","1","0","[1322.199999988079]","1","1","","","6276","15","1","1","win","go","1"
"pit-trial","139","967418","0.0-19.0","battery-v0.2","","""event"",""trial"",""time""
""fullscreenenter"",""1"",""2813""
","
","
","""event"",""trial"",""time""
""fullscreenenter"",""1"",""2813""
","
","","","465.2000000178814","","","10","6276","1848","&#9733;","elianto","#3366ff99","-1"," ","0","0","[1315.3999999761581]","1","1","","","6276","16","2","2","win","no-go","0"
"pit-trial","140","971022","0.0-20.0","battery-v0.2","","""event"",""trial"",""time""
""fullscreenenter"",""1"",""2813""
","
","
","""event"",""trial"",""time""
""fullscreenenter"",""1"",""2813""
","
","","","744.5999999940395","","","10","6276","1848","&#9730;","elianto","#3366ff99"," "," ","1","+10","[1596.7000000178814]","1","1","","","6276","17","1","1","win","go","0"
"pit-trial","141","975892","0.0-21.0","battery-v0.2","","""event"",""trial"",""time""
""fullscreenenter"",""1"",""2813""
","
","
","""event"",""trial"",""time""
""fullscreenenter"",""1"",""2813""
","
","","","-1","","","10","6276","1848","&#9728;","elianto","#f73b6a7A","-1","-1","1","0","[]","0","1","","","6276","18","0","4","lose","no-go","0"
"pit-trial","142","979795","0.0-22.0","battery-v0.2","","""event"",""trial"",""time""
""fullscreenenter"",""1"",""2813""
","
","
","""event"",""trial"",""time""
""fullscreenenter"",""1"",""2813""
","
","","","1049.2000000178814","","","10","6276","1848","&#9752;","elianto","#f73b6a7A"," "," ","1","0","[1899.5]","1","1","","","6276","19","3","3","lose","go","0"
"pit-trial","143","983647","0.0-23.0","battery-v0.2","","""event"",""trial"",""time""
""fullscreenenter"",""1"",""2813""
","
","
","""event"",""trial"",""time""
""fullscreenenter"",""1"",""2813""
","
","","","998.9000000059605","","","10","6276","1848","&#9733;","elianto","#3366ff99","-1"," ","0","0","[1849.6000000238419]","1","1","","","6276","20","2","2","win","no-go","0"
"pit-instructions","144","998702","0.0-24.0","battery-v0.2","","""event"",""trial"",""time""
""fullscreenenter"",""1"",""2813""
","
","
","""event"",""trial"",""time""
""fullscreenenter"",""1"",""2813""
","
","","[{""page_index"":0,""viewing_time"":8907.90000000596},{""page_index"":1,""viewing_time"":6144}]","15052.59999999404","","","","","","","","","","","","","","","","","","","","","","","",""
"pit-trial","145","1003575","0.0-25.0","battery-v0.2","","""event"",""trial"",""time""
""fullscreenenter"",""1"",""2813""
","
","
","""event"",""trial"",""time""
""fullscreenenter"",""1"",""2813""
","
","","","-1","","","10","6276","1848","n","elianto","#f73b6a7A"," ","-1","0","0","[]","0","2","","","6276","21","0","3","lose","go","1"
"pit-trial","146","1007675","0.0-26.0","battery-v0.2","","""event"",""trial"",""time""
""fullscreenenter"",""1"",""2813""
","
","
","""event"",""trial"",""time""
""fullscreenenter"",""1"",""2813""
","
","","","1233.7000000178814","","","10","6276","1848","b","elianto","#f73b6a7A","-1"," ","0","0","[2090.9000000059605]","1","2","","","6276","22","3","4","lose","no-go","1"
"pit-trial","147","1012548","0.0-27.0","battery-v0.2","","""event"",""trial"",""time""
""fullscreenenter"",""1"",""2813""
","
","
","""event"",""trial"",""time""
""fullscreenenter"",""1"",""2813""
","
","","","-1","","","10","6276","1848","t","elianto","#f73b6a7A"," ","-1","0","-10","[]","0","2","","","6276","23","2","3","lose","go","0"
"pit-trial","148","1016502","0.0-28.0","battery-v0.2","","""event"",""trial"",""time""
""fullscreenenter"",""1"",""2813""
","
","
","""event"",""trial"",""time""
""fullscreenenter"",""1"",""2813""
","
","","","1083.5999999940395","","","10","6276","1848","f","elianto","#3366ff99","-1"," ","0","0","[1936.6000000238419]","1","2","","","6276","24","1","2","win","no-go","0"
"pit-trial","149","1020340","0.0-29.0","battery-v0.2","","""event"",""trial"",""time""
""fullscreenenter"",""1"",""2813""
","
","
","""event"",""trial"",""time""
""fullscreenenter"",""1"",""2813""
","
","","","973.3999999761581","","","10","6276","1848","b","elianto","#f73b6a7A","-1"," ","0","-10","[1832.199999988079]","1","2","","","6276","25","3","4","lose","no-go","0"
"pit-trial","150","1025204","0.0-30.0","battery-v0.2","","""event"",""trial"",""time""
""fullscreenenter"",""1"",""2813""
","
","
","""event"",""trial"",""time""
""fullscreenenter"",""1"",""2813""
","
","","","-1","","","10","6276","1848","n","elianto","#f73b6a7A"," ","-1","0","0","[]","0","2","","","6276","26","0","3","lose","go","1"
"pit-trial","151","1030077","0.0-31.0","battery-v0.2","","""event"",""trial"",""time""
""fullscreenenter"",""1"",""2813""
","
","
","""event"",""trial"",""time""
""fullscreenenter"",""1"",""2813""
","
","","","-1","","","10","6276","1848","t","elianto","#f73b6a7A"," ","-1","0","0","[]","0","2","","","6276","27","2","3","lose","go","1"
"pit-trial","152","1034943","0.0-32.0","battery-v0.2","","""event"",""trial"",""time""
""fullscreenenter"",""1"",""2813""
","
","
","""event"",""trial"",""time""
""fullscreenenter"",""1"",""2813""
","
","","","-1","","","10","6276","1848","f","elianto","#3366ff99","-1","-1","1","0","[]","0","2","","","6276","28","1","2","win","no-go","1"
"pit-trial","153","1039453","0.0-33.0","battery-v0.2","","""event"",""trial"",""time""
""fullscreenenter"",""1"",""2813""
","
","
","""event"",""trial"",""time""
""fullscreenenter"",""1"",""2813""
","
","","","1652.300000011921","","","10","6276","1848","t","elianto","#f73b6a7A"," "," ","1","0","[2502.800000011921]","1","2","","","6276","29","2","3","lose","go","0"
"pit-trial","154","1043073","0.0-34.0","battery-v0.2","","""event"",""trial"",""time""
""fullscreenenter"",""1"",""2813""
","
","
","""event"",""trial"",""time""
""fullscreenenter"",""1"",""2813""
","
","","","757.7999999821186","","","10","6276","1848","f","elianto","#3366ff99","-1"," ","0","+10","[1610.2999999821186]","1","2","","","6276","30","1","2","win","no-go","1"
"pit-trial","155","1047070","0.0-35.0","battery-v0.2","","""event"",""trial"",""time""
""fullscreenenter"",""1"",""2813""
","
","
","""event"",""trial"",""time""
""fullscreenenter"",""1"",""2813""
","
","","","1136.7999999821186","","","10","6276","1848","b","elianto","#f73b6a7A","-1"," ","0","-10","[1987.0999999940395]","1","2","","","6276","31","3","4","lose","no-go","0"
"pit-trial","156","1051929","0.0-36.0","battery-v0.2","","""event"",""trial"",""time""
""fullscreenenter"",""1"",""2813""
","
","
","""event"",""trial"",""time""
""fullscreenenter"",""1"",""2813""
","
","","","-1","","","10","6276","1848","n","elianto","#f73b6a7A"," ","-1","0","-10","[]","0","2","","","6276","32","0","3","lose","go","0"
"pit-trial","157","1056019","0.0-37.0","battery-v0.2","","""event"",""trial"",""time""
""fullscreenenter"",""1"",""2813""
","
","
","""event"",""trial"",""time""
""fullscreenenter"",""1"",""2813""
","
","","","1226.5","","","10","6276","1848","n","elianto","#f73b6a7A"," "," ","1","-10","[2080.199999988079]","1","2","","","6276","33","0","3","lose","go","1"
"pit-trial","158","1059787","0.0-38.0","battery-v0.2","","""event"",""trial"",""time""
""fullscreenenter"",""1"",""2813""
","
","
","""event"",""trial"",""time""
""fullscreenenter"",""1"",""2813""
","
","","","903.6999999880791","","","10","6276","1848","b","elianto","#f73b6a7A","-1"," ","0","-10","[1756.199999988079]","1","2","","","6276","34","3","4","lose","no-go","0"
"pit-trial","159","1063694","0.0-39.0","battery-v0.2","","""event"",""trial"",""time""
""fullscreenenter"",""1"",""2813""
","
","
","""event"",""trial"",""time""
""fullscreenenter"",""1"",""2813""
","
","","","1052.5999999940395","","","10","6276","1848","t","elianto","#f73b6a7A"," "," ","1","-10","[1902.800000011921]","1","2","","","6276","35","2","3","lose","go","1"
"pit-trial","160","1067340","0.0-40.0","battery-v0.2","","""event"",""trial"",""time""
""fullscreenenter"",""1"",""2813""
","
","
","""event"",""trial"",""time""
""fullscreenenter"",""1"",""2813""
","
","","","785.2999999821186","","","10","6276","1848","f","elianto","#3366ff99","-1"," ","0","0","[1638.5]","1","2","","","6276","36","1","2","win","no-go","0"
"pit-trial","161","1072204","0.0-41.0","battery-v0.2","","""event"",""trial"",""time""
""fullscreenenter"",""1"",""2813""
","
","
","""event"",""trial"",""time""
""fullscreenenter"",""1"",""2813""
","
","","","-1","","","10","6276","1848","n","elianto","#f73b6a7A"," ","-1","0","-10","[]","0","2","","","6276","37","0","3","lose","go","0"
"pit-trial","162","1077064","0.0-42.0","battery-v0.2","","""event"",""trial"",""time""
""fullscreenenter"",""1"",""2813""
","
","
","""event"",""trial"",""time""
""fullscreenenter"",""1"",""2813""
","
","","","-1","","","10","6276","1848","t","elianto","#f73b6a7A"," ","-1","0","0","[]","0","2","","","6276","38","2","3","lose","go","1"
"pit-trial","163","1081923","0.0-43.0","battery-v0.2","","""event"",""trial"",""time""
""fullscreenenter"",""1"",""2813""
","
","
","""event"",""trial"",""time""
""fullscreenenter"",""1"",""2813""
","
","","","-1","","","10","6276","1848","b","elianto","#f73b6a7A","-1","-1","1","-10","[]","0","2","","","6276","39","3","4","lose","no-go","1"
"pit-trial","164","1086792","0.0-44.0","battery-v0.2","","""event"",""trial"",""time""
""fullscreenenter"",""1"",""2813""
","
","
","""event"",""trial"",""time""
""fullscreenenter"",""1"",""2813""
","
","","","-1","","","10","6276","1848","f","elianto","#3366ff99","-1","-1","1","+10","[]","0","2","","","6276","40","1","2","win","no-go","0"
"pit-trial","165","1091656","0.0-45.0","battery-v0.2","","""event"",""trial"",""time""
""fullscreenenter"",""1"",""2813""
","
","
","""event"",""trial"",""time""
""fullscreenenter"",""1"",""2813""
","
","","","-1","","","10","6276","1848","t","elianto","#f73b6a7A"," ","-1","0","-10","[]","0","2","","","6276","41","2","3","lose","go","0"
"pit-trial","166","1095330","0.0-46.0","battery-v0.2","","""event"",""trial"",""time""
""fullscreenenter"",""1"",""2813""
","
","
","""event"",""trial"",""time""
""fullscreenenter"",""1"",""2813""
","
","","","810.8000000119209","","","10","6276","1848","n","elianto","#f73b6a7A"," "," ","1","0","[1663.2000000178814]","1","2","","","6276","42","0","3","lose","go","0"
"pit-trial","167","1099146","0.0-47.0","battery-v0.2","","""event"",""trial"",""time""
""fullscreenenter"",""1"",""2813""
","
","
","""event"",""trial"",""time""
""fullscreenenter"",""1"",""2813""
","
","","","959.5","","","10","6276","1848","f","elianto","#3366ff99","-1"," ","0","+10","[1811]","1","2","","","6276","43","1","2","win","no-go","1"
"pit-trial","168","1104009","0.0-48.0","battery-v0.2","","""event"",""trial"",""time""
""fullscreenenter"",""1"",""2813""
","
","
","""event"",""trial"",""time""
""fullscreenenter"",""1"",""2813""
","
","","","-1","","","10","6276","1848","b","elianto","#f73b6a7A","-1","-1","1","0","[]","0","2","","","6276","44","3","4","lose","no-go","0"
"pit-trial","169","1107883","0.0-49.0","battery-v0.2","","""event"",""trial"",""time""
""fullscreenenter"",""1"",""2813""
","
","
","""event"",""trial"",""time""
""fullscreenenter"",""1"",""2813""
","
","","","1006.6999999880791","","","10","6276","1848","f","elianto","#3366ff99","-1"," ","0","+10","[1862.5999999940395]","1","2","","","6276","45","1","2","win","no-go","1"
"pit-trial","170","1112750","0.0-50.0","battery-v0.2","","""event"",""trial"",""time""
""fullscreenenter"",""1"",""2813""
","
","
","""event"",""trial"",""time""
""fullscreenenter"",""1"",""2813""
","
","","","-1","","","10","6276","1848","t","elianto","#f73b6a7A"," ","-1","0","-10","[]","0","2","","","6276","46","2","3","lose","go","0"
"pit-trial","171","1117616","0.0-51.0","battery-v0.2","","""event"",""trial"",""time""
""fullscreenenter"",""1"",""2813""
","
","
","""event"",""trial"",""time""
""fullscreenenter"",""1"",""2813""
","
","","","-1","","","10","6276","1848","b","elianto","#f73b6a7A","-1","-1","1","0","[]","0","2","","","6276","47","3","4","lose","no-go","0"
"pit-trial","172","1121231","0.0-52.0","battery-v0.2","","""event"",""trial"",""time""
""fullscreenenter"",""1"",""2813""
","
","
","""event"",""trial"",""time""
""fullscreenenter"",""1"",""2813""
","
","","","759.5","","","10","6276","1848","n","elianto","#f73b6a7A"," "," ","1","0","[1609.8999999761581]","1","2","","","6276","48","0","3","lose","go","0"
"pit-trial","173","1125962","0.0-53.0","battery-v0.2","","""event"",""trial"",""time""
""fullscreenenter"",""1"",""2813""
","
","
","""event"",""trial"",""time""
""fullscreenenter"",""1"",""2813""
","
","","","1876.300000011921","","","10","6276","1848","t","elianto","#f73b6a7A"," "," ","1","-10","[2728]","1","2","","","6276","49","2","3","lose","go","1"
"pit-trial","174","1129312","0.0-54.0","battery-v0.2","","""event"",""trial"",""time""
""fullscreenenter"",""1"",""2813""
","
","
","""event"",""trial"",""time""
""fullscreenenter"",""1"",""2813""
","
","","","493.7999999821186","","","10","6276","1848","f","elianto","#3366ff99","-1"," ","0","0","[1346.4000000059605]","1","2","","","6276","50","1","2","win","no-go","0"
"pit-trial","175","1134172","0.0-55.0","battery-v0.2","","""event"",""trial"",""time""
""fullscreenenter"",""1"",""2813""
","
","
","""event"",""trial"",""time""
""fullscreenenter"",""1"",""2813""
","
","","","-1","","","10","6276","1848","n","elianto","#f73b6a7A"," ","-1","0","-10","[]","0","2","","","6276","51","0","3","lose","go","0"
"pit-trial","176","1139036","0.0-56.0","battery-v0.2","","""event"",""trial"",""time""
""fullscreenenter"",""1"",""2813""
","
","
","""event"",""trial"",""time""
""fullscreenenter"",""1"",""2813""
","
","","","-1","","","10","6276","1848","b","elianto","#f73b6a7A","-1","-1","1","-10","[]","0","2","","","6276","52","3","4","lose","no-go","1"
"pit-trial","177","1143903","0.0-57.0","battery-v0.2","","""event"",""trial"",""time""
""fullscreenenter"",""1"",""2813""
","
","
","""event"",""trial"",""time""
""fullscreenenter"",""1"",""2813""
","
","","","-1","","","10","6276","1848","t","elianto","#f73b6a7A"," ","-1","0","-10","[]","0","2","","","6276","53","2","3","lose","go","0"
"pit-trial","178","1148775","0.0-58.0","battery-v0.2","","""event"",""trial"",""time""
""fullscreenenter"",""1"",""2813""
","
","
","""event"",""trial"",""time""
""fullscreenenter"",""1"",""2813""
","
","","","-1","","","10","6276","1848","f","elianto","#3366ff99","-1","-1","1","+10","[]","0","2","","","6276","54","1","2","win","no-go","0"
"pit-trial","179","1152216","0.0-59.0","battery-v0.2","","""event"",""trial"",""time""
""fullscreenenter"",""1"",""2813""
","
","
","""event"",""trial"",""time""
""fullscreenenter"",""1"",""2813""
","
","","","580.9000000059605","","","10","6276","1848","n","elianto","#f73b6a7A"," "," ","1","0","[1432.300000011921]","1","2","","","6276","55","0","3","lose","go","0"
"pit-trial","180","1155685","0.0-60.0","battery-v0.2","","""event"",""trial"",""time""
""fullscreenenter"",""1"",""2813""
","
","
","""event"",""trial"",""time""
""fullscreenenter"",""1"",""2813""
","
","","","604.4000000059605","","","10","6276","1848","b","elianto","#f73b6a7A","-1"," ","0","-10","[1458.300000011921]","1","2","","","6276","56","3","4","lose","no-go","0"
"pit-trial","181","1159430","0.0-61.0","battery-v0.2","","""event"",""trial"",""time""
""fullscreenenter"",""1"",""2813""
","
","
","""event"",""trial"",""time""
""fullscreenenter"",""1"",""2813""
","
","","","883.5","","","10","6276","1848","n","elianto","#f73b6a7A"," "," ","1","0","[1735.699999988079]","1","2","","","6276","57","0","3","lose","go","0"
"pit-trial","182","1163438","0.0-62.0","battery-v0.2","","""event"",""trial"",""time""
""fullscreenenter"",""1"",""2813""
","
","
","""event"",""trial"",""time""
""fullscreenenter"",""1"",""2813""
","
","","","1147.199999988079","","","10","6276","1848","t","elianto","#f73b6a7A"," "," ","1","0","[2000.800000011921]","1","2","","","6276","58","2","3","lose","go","0"
"pit-trial","183","1168300","0.0-63.0","battery-v0.2","","""event"",""trial"",""time""
""fullscreenenter"",""1"",""2813""
","
","
","""event"",""trial"",""time""
""fullscreenenter"",""1"",""2813""
","
","","","-1","","","10","6276","1848","b","elianto","#f73b6a7A","-1","-1","1","0","[]","0","2","","","6276","59","3","4","lose","no-go","0"
"pit-trial","184","1173168","0.0-64.0","battery-v0.2","","""event"",""trial"",""time""
""fullscreenenter"",""1"",""2813""
","
","
","""event"",""trial"",""time""
""fullscreenenter"",""1"",""2813""
","
","","","-1","","","10","6276","1848","c","elianto","#3366ff99"," ","-1","0","0","[]","0","2","","","6276","60","4","1","win","go","0"
"pit-trial","185","1178027","0.0-65.0","battery-v0.2","","""event"",""trial"",""time""
""fullscreenenter"",""1"",""2813""
","
","
","""event"",""trial"",""time""
""fullscreenenter"",""1"",""2813""
","
","","","-1","","","10","6276","1848","t","elianto","#f73b6a7A"," ","-1","0","-10","[]","0","2","","","6276","61","2","3","lose","go","0"
"pit-trial","186","1181724","0.0-66.0","battery-v0.2","","""event"",""trial"",""time""
""fullscreenenter"",""1"",""2813""
","
","
","""event"",""trial"",""time""
""fullscreenenter"",""1"",""2813""
","
","","","835.7999999821186","","","10","6276","1848","c","elianto","#3366ff99"," "," ","1","+10","[1689]","1","2","","","6276","62","4","1","win","go","0"
"pit-trial","187","1185364","0.0-67.0","battery-v0.2","","""event"",""trial"",""time""
""fullscreenenter"",""1"",""2813""
","
","
","""event"",""trial"",""time""
""fullscreenenter"",""1"",""2813""
","
","","","779.8000000119209","","","10","6276","1848","f","elianto","#3366ff99","-1"," ","0","0","[1634.0999999940395]","1","2","","","6276","63","1","2","win","no-go","0"
"pit-trial","188","1189663","0.0-68.0","battery-v0.2","","""event"",""trial"",""time""
""fullscreenenter"",""1"",""2813""
","
","
","""event"",""trial"",""time""
""fullscreenenter"",""1"",""2813""
","
","","","1439.199999988079","","","10","6276","1848","b","elianto","#f73b6a7A","-1"," ","0","-10","[2291.0999999940395]","1","2","","","6276","64","3","4","lose","no-go","0"
"pit-trial","189","1193209","0.0-69.0","battery-v0.2","","""event"",""trial"",""time""
""fullscreenenter"",""1"",""2813""
","
","
","""event"",""trial"",""time""
""fullscreenenter"",""1"",""2813""
","
","","","688.2000000178814","","","10","6276","1848","c","elianto","#3366ff99"," "," ","1","+10","[1539.199999988079]","1","2","","","6276","65","4","1","win","go","0"
"pit-trial","190","1198073","0.0-70.0","battery-v0.2","","""event"",""trial"",""time""
""fullscreenenter"",""1"",""2813""
","
","
","""event"",""trial"",""time""
""fullscreenenter"",""1"",""2813""
","
","","","-1","","","10","6276","1848","z","elianto","#3366ff99","-1","-1","1","0","[]","0","2","","","6276","66","5","2","win","no-go","1"
"pit-trial","191","1202935","0.0-71.0","battery-v0.2","","""event"",""trial"",""time""
""fullscreenenter"",""1"",""2813""
","
","
","""event"",""trial"",""time""
""fullscreenenter"",""1"",""2813""
","
","","","-1","","","10","6276","1848","b","elianto","#f73b6a7A","-1","-1","1","0","[]","0","2","","","6276","67","3","4","lose","no-go","0"
"pit-trial","192","1207800","0.0-72.0","battery-v0.2","","""event"",""trial"",""time""
""fullscreenenter"",""1"",""2813""
","
","
","""event"",""trial"",""time""
""fullscreenenter"",""1"",""2813""
","
","","","-1","","","10","6276","1848","f","elianto","#3366ff99","-1","-1","1","0","[]","0","2","","","6276","68","1","2","win","no-go","1"
"pit-trial","193","1211778","0.0-73.0","battery-v0.2","","""event"",""trial"",""time""
""fullscreenenter"",""1"",""2813""
","
","
","""event"",""trial"",""time""
""fullscreenenter"",""1"",""2813""
","
","","","1114.5","","","10","6276","1848","f","elianto","#3366ff99","-1"," ","0","0","[1966.5]","1","2","","","6276","69","1","2","win","no-go","0"
"pit-trial","194","1215573","0.0-74.0","battery-v0.2","","""event"",""trial"",""time""
""fullscreenenter"",""1"",""2813""
","
","
","""event"",""trial"",""time""
""fullscreenenter"",""1"",""2813""
","
","","","933.0999999940395","","","10","6276","1848","c","elianto","#3366ff99"," "," ","1","+10","[1784.4000000059605]","1","2","","","6276","70","4","1","win","go","0"
"pit-trial","195","1219141","0.0-75.0","battery-v0.2","","""event"",""trial"",""time""
""fullscreenenter"",""1"",""2813""
","
","
","""event"",""trial"",""time""
""fullscreenenter"",""1"",""2813""
","
","","","708.9000000059605","","","10","6276","1848","z","elianto","#3366ff99","-1"," ","0","0","[1561.5]","1","2","","","6276","71","5","2","win","no-go","0"
"pit-trial","196","1223995","0.0-76.0","battery-v0.2","","""event"",""trial"",""time""
""fullscreenenter"",""1"",""2813""
","
","
","""event"",""trial"",""time""
""fullscreenenter"",""1"",""2813""
","
","","","-1","","","10","6276","1848","t","elianto","#f73b6a7A"," ","-1","0","-10","[]","0","2","","","6276","72","2","3","lose","go","0"
"pit-trial","197","1228859","0.0-77.0","battery-v0.2","","""event"",""trial"",""time""
""fullscreenenter"",""1"",""2813""
","
","
","""event"",""trial"",""time""
""fullscreenenter"",""1"",""2813""
","
","","","-1","","","10","6276","1848","z","elianto","#3366ff99","-1","-1","1","+10","[]","0","2","","","6276","73","5","2","win","no-go","0"
"pit-trial","198","1232818","0.0-78.0","battery-v0.2","","""event"",""trial"",""time""
""fullscreenenter"",""1"",""2813""
","
","
","""event"",""trial"",""time""
""fullscreenenter"",""1"",""2813""
","
","","","1101.5","","","10","6276","1848","c","elianto","#3366ff99"," "," ","1","0","[1951.699999988079]","1","2","","","6276","74","4","1","win","go","1"
"pit-trial","199","1237687","0.0-79.0","battery-v0.2","","""event"",""trial"",""time""
""fullscreenenter"",""1"",""2813""
","
","
","""event"",""trial"",""time""
""fullscreenenter"",""1"",""2813""
","
","","","-1","","","10","6276","1848","b","elianto","#f73b6a7A","-1","-1","1","0","[]","0","2","","","6276","75","3","4","lose","no-go","0"
"pit-trial","200","1242549","0.0-80.0","battery-v0.2","","""event"",""trial"",""time""
""fullscreenenter"",""1"",""2813""
","
","
","""event"",""trial"",""time""
""fullscreenenter"",""1"",""2813""
","
","","","-1","","","10","6276","1848","f","elianto","#3366ff99","-1","-1","1","+10","[]","0","2","","","6276","76","1","2","win","no-go","0"
"pit-trial","201","1247414","0.0-81.0","battery-v0.2","","""event"",""trial"",""time""
""fullscreenenter"",""1"",""2813""
","
","
","""event"",""trial"",""time""
""fullscreenenter"",""1"",""2813""
","
","","","-1","","","10","6276","1848","b","elianto","#f73b6a7A","-1","-1","1","-10","[]","0","2","","","6276","77","3","4","lose","no-go","1"
"pit-trial","202","1251396","0.0-82.0","battery-v0.2","","""event"",""trial"",""time""
""fullscreenenter"",""1"",""2813""
","
","
","""event"",""trial"",""time""
""fullscreenenter"",""1"",""2813""
","
","","","1128.5999999940395","","","10","6276","1848","c","elianto","#3366ff99"," "," ","1","+10","[1978.9000000059605]","1","2","","","6276","78","4","1","win","go","0"
"pit-trial","203","1256277","0.0-83.0","battery-v0.2","","""event"",""trial"",""time""
""fullscreenenter"",""1"",""2813""
","
","
","""event"",""trial"",""time""
""fullscreenenter"",""1"",""2813""
","
","","","-1","","","10","6276","1848","c","elianto","#3366ff99"," ","-1","0","0","[]","0","2","","","6276","79","4","1","win","go","0"
"pit-trial","204","1261143","0.0-84.0","battery-v0.2","","""event"",""trial"",""time""
""fullscreenenter"",""1"",""2813""
","
","
","""event"",""trial"",""time""
""fullscreenenter"",""1"",""2813""
","
","","","-1","","","10","6276","1848","z","elianto","#3366ff99","-1","-1","1","0","[4131.5999999940395]","1","2","","","6276","80","5","2","win","no-go","1"
"pit-trial","205","1264741","0.0-85.0","battery-v0.2","","""event"",""trial"",""time""
""fullscreenenter"",""1"",""2813""
","
","
","""event"",""trial"",""time""
""fullscreenenter"",""1"",""2813""
","
","","","740.7999999821186","","","10","6276","1848","z","elianto","#3366ff99","-1"," ","0","0","[1591.2000000178814]","1","2","","","6276","81","5","2","win","no-go","0"
"pit-trial","206","1269603","0.0-86.0","battery-v0.2","","""event"",""trial"",""time""
""fullscreenenter"",""1"",""2813""
","
","
","""event"",""trial"",""time""
""fullscreenenter"",""1"",""2813""
","
","","","-1","","","10","6276","1848","b","elianto","#f73b6a7A","-1","-1","1","0","[]","0","2","","","6276","82","3","4","lose","no-go","0"
"pit-trial","207","1273313","0.0-87.0","battery-v0.2","","""event"",""trial"",""time""
""fullscreenenter"",""1"",""2813""
","
","
","""event"",""trial"",""time""
""fullscreenenter"",""1"",""2813""
","
","","","851.2000000178814","","","10","6276","1848","c","elianto","#3366ff99"," "," ","1","0","[1702.4000000059605,2409.199999988079,2764.4000000059605]","3","2","","","6276","83","4","1","win","go","1"
"pit-trial","208","1278176","0.0-88.0","battery-v0.2","","""event"",""trial"",""time""
""fullscreenenter"",""1"",""2813""
","
","
","""event"",""trial"",""time""
""fullscreenenter"",""1"",""2813""
","
","","","-1","","","10","6276","1848","y","elianto","#f73b6a7A","-1","-1","1","-10","[]","0","2","","","6276","84","7","4","lose","no-go","1"
"pit-trial","209","1281966","0.0-89.0","battery-v0.2","","""event"",""trial"",""time""
""fullscreenenter"",""1"",""2813""
","
","
","""event"",""trial"",""time""
""fullscreenenter"",""1"",""2813""
","
","","","927.6999999880791","","","10","6276","1848","y","elianto","#f73b6a7A","-1"," ","0","-10","[1783.2999999821186,3080.0999999940395]","2","2","","","6276","85","7","4","lose","no-go","0"
"pit-trial","210","1286825","0.0-90.0","battery-v0.2","","""event"",""trial"",""time""
""fullscreenenter"",""1"",""2813""
","
","
","""event"",""trial"",""time""
""fullscreenenter"",""1"",""2813""
","
","","","-1","","","10","6276","1848","z","elianto","#3366ff99","-1","-1","1","0","[]","0","2","","","6276","86","5","2","win","no-go","1"
"pit-trial","211","1291692","0.0-91.0","battery-v0.2","","""event"",""trial"",""time""
""fullscreenenter"",""1"",""2813""
","
","
","""event"",""trial"",""time""
""fullscreenenter"",""1"",""2813""
","
","","","-1","","","10","6276","1848","h","elianto","#f73b6a7A"," ","-1","0","-10","[]","0","2","","","6276","87","6","3","lose","go","0"
"pit-trial","212","1295958","0.0-92.0","battery-v0.2","","""event"",""trial"",""time""
""fullscreenenter"",""1"",""2813""
","
","
","""event"",""trial"",""time""
""fullscreenenter"",""1"",""2813""
","
","","","1400.5","","","10","6276","1848","c","elianto","#3366ff99"," "," ","1","0","[2254.5]","1","2","","","6276","88","4","1","win","go","1"
"pit-trial","213","1300817","0.0-93.0","battery-v0.2","","""event"",""trial"",""time""
""fullscreenenter"",""1"",""2813""
","
","
","""event"",""trial"",""time""
""fullscreenenter"",""1"",""2813""
","
","","","-1","","","10","6276","1848","y","elianto","#f73b6a7A","-1","-1","1","0","[]","0","2","","","6276","89","7","4","lose","no-go","0"
"pit-trial","214","1305112","0.0-94.0","battery-v0.2","","""event"",""trial"",""time""
""fullscreenenter"",""1"",""2813""
","
","
","""event"",""trial"",""time""
""fullscreenenter"",""1"",""2813""
","
","","","1435.7000000178814","","","10","6276","1848","h","elianto","#f73b6a7A"," "," ","1","-10","[2286]","1","2","","","6276","90","6","3","lose","go","1"
"pit-trial","215","1309979","0.0-95.0","battery-v0.2","","""event"",""trial"",""time""
""fullscreenenter"",""1"",""2813""
","
","
","""event"",""trial"",""time""
""fullscreenenter"",""1"",""2813""
","
","","","-1","","","10","6276","1848","z","elianto","#3366ff99","-1","-1","1","+10","[]","0","2","","","6276","91","5","2","win","no-go","0"
"pit-trial","216","1313961","0.0-96.0","battery-v0.2","","""event"",""trial"",""time""
""fullscreenenter"",""1"",""2813""
","
","
","""event"",""trial"",""time""
""fullscreenenter"",""1"",""2813""
","
","","","1111.4000000059605","","","10","6276","1848","c","elianto","#3366ff99"," "," ","1","0","[1966.3999999761581]","1","2","","","6276","92","4","1","win","go","1"
"pit-trial","217","1318470","0.0-97.0","battery-v0.2","","""event"",""trial"",""time""
""fullscreenenter"",""1"",""2813""
","
","
","""event"",""trial"",""time""
""fullscreenenter"",""1"",""2813""
","
","","","1657.2999999821186","","","10","6276","1848","r","elianto","#3366ff99"," "," ","1","+10","[2507.5999999940395]","1","2","","","6276","93","8","1","win","go","0"
"pit-trial","218","1323333","0.0-98.0","battery-v0.2","","""event"",""trial"",""time""
""fullscreenenter"",""1"",""2813""
","
","
","""event"",""trial"",""time""
""fullscreenenter"",""1"",""2813""
","
","","","-1","","","10","6276","1848","y","elianto","#f73b6a7A","-1","-1","1","0","[]","0","2","","","6276","94","7","4","lose","no-go","0"
"pit-trial","219","1327300","0.0-99.0","battery-v0.2","","""event"",""trial"",""time""
""fullscreenenter"",""1"",""2813""
","
","
","""event"",""trial"",""time""
""fullscreenenter"",""1"",""2813""
","
","","","1101","","","10","6276","1848","z","elianto","#3366ff99","-1"," ","0","0","[1955.2999999821186]","1","2","","","6276","95","5","2","win","no-go","0"
"pit-trial","220","1332167","0.0-100.0","battery-v0.2","","""event"",""trial"",""time""
""fullscreenenter"",""1"",""2813""
","
","
","""event"",""trial"",""time""
""fullscreenenter"",""1"",""2813""
","
","","","-1","","","10","6276","1848","h","elianto","#f73b6a7A"," ","-1","0","-10","[]","0","2","","","6276","96","6","3","lose","go","0"
"pit-trial","221","1337030","0.0-101.0","battery-v0.2","","""event"",""trial"",""time""
""fullscreenenter"",""1"",""2813""
","
","
","""event"",""trial"",""time""
""fullscreenenter"",""1"",""2813""
","
","","","-1","","","10","6276","1848","r","elianto","#3366ff99"," ","-1","0","+10","[]","0","2","","","6276","97","8","1","win","go","1"
"pit-trial","222","1341891","0.0-102.0","battery-v0.2","","""event"",""trial"",""time""
""fullscreenenter"",""1"",""2813""
","
","
","""event"",""trial"",""time""
""fullscreenenter"",""1"",""2813""
","
","","","-1","","","10","6276","1848","z","elianto","#3366ff99","-1","-1","1","+10","[]","0","2","","","6276","98","5","2","win","no-go","0"
"pit-trial","223","1346250","0.0-103.0","battery-v0.2","","""event"",""trial"",""time""
""fullscreenenter"",""1"",""2813""
","
","
","""event"",""trial"",""time""
""fullscreenenter"",""1"",""2813""
","
","","","1496.9000000059605","","","10","6276","1848","h","elianto","#f73b6a7A"," "," ","1","0","[2352.7000000178814]","1","2","","","6276","99","6","3","lose","go","0"
"pit-trial","224","1351106","0.0-104.0","battery-v0.2","","""event"",""trial"",""time""
""fullscreenenter"",""1"",""2813""
","
","
","""event"",""trial"",""time""
""fullscreenenter"",""1"",""2813""
","
","","","-1","","","10","6276","1848","y","elianto","#f73b6a7A","-1","-1","1","0","[]","0","2","","","6276","100","7","4","lose","no-go","0"
"pit-trial","225","1355042","0.0-105.0","battery-v0.2","","""event"",""trial"",""time""
""fullscreenenter"",""1"",""2813""
","
","
","""event"",""trial"",""time""
""fullscreenenter"",""1"",""2813""
","
","","","1074.5","","","10","6276","1848","z","elianto","#3366ff99","-1"," ","0","0","[1927.7000000178814]","1","2","","","6276","101","5","2","win","no-go","0"
"pit-trial","226","1359898","0.0-106.0","battery-v0.2","","""event"",""trial"",""time""
""fullscreenenter"",""1"",""2813""
","
","
","""event"",""trial"",""time""
""fullscreenenter"",""1"",""2813""
","
","","","-1","","","10","6276","1848","m","elianto","#3366ff99"," ","-1","0","0","[]","0","2","","","6276","102","9","1","win","go","0"
"pit-trial","227","1363403","0.0-107.0","battery-v0.2","","""event"",""trial"",""time""
""fullscreenenter"",""1"",""2813""
","
","
","""event"",""trial"",""time""
""fullscreenenter"",""1"",""2813""
","
","","","646.9000000059605","","","10","6276","1848","r","elianto","#3366ff99"," "," ","1","0","[1499.2999999821186]","1","2","","","6276","103","8","1","win","go","1"
"pit-trial","228","1368272","0.0-108.0","battery-v0.2","","""event"",""trial"",""time""
""fullscreenenter"",""1"",""2813""
","
","
","""event"",""trial"",""time""
""fullscreenenter"",""1"",""2813""
","
","","","-1","","","10","6276","1848","y","elianto","#f73b6a7A","-1","-1","1","0","[2942.0999999940395]","1","2","","","6276","104","7","4","lose","no-go","0"
"pit-trial","229","1373134","0.0-109.0","battery-v0.2","","""event"",""trial"",""time""
""fullscreenenter"",""1"",""2813""
","
","
","""event"",""trial"",""time""
""fullscreenenter"",""1"",""2813""
","
","","","-1","","","10","6276","1848","h","elianto","#f73b6a7A"," ","-1","0","-10","[]","0","2","","","6276","105","6","3","lose","go","0"
"pit-trial","230","1377092","0.0-110.0","battery-v0.2","","""event"",""trial"",""time""
""fullscreenenter"",""1"",""2813""
","
","
","""event"",""trial"",""time""
""fullscreenenter"",""1"",""2813""
","
","","","1103.5","","","10","6276","1848","m","elianto","#3366ff99"," "," ","1","0","[1956.5]","1","2","","","6276","106","9","1","win","go","1"
"pit-trial","231","1381954","0.0-111.0","battery-v0.2","","""event"",""trial"",""time""
""fullscreenenter"",""1"",""2813""
","
","
","""event"",""trial"",""time""
""fullscreenenter"",""1"",""2813""
","
","","","-1","","","10","6276","1848","r","elianto","#3366ff99"," ","-1","0","0","[407]","1","2","","","6276","107","8","1","win","go","0"
"pit-trial","232","1386820","0.0-112.0","battery-v0.2","","""event"",""trial"",""time""
""fullscreenenter"",""1"",""2813""
","
","
","""event"",""trial"",""time""
""fullscreenenter"",""1"",""2813""
","
","","","-1","","","10","6276","1848","c","elianto","#3366ff99"," ","-1","0","+10","[]","0","2","","","6276","108","4","1","win","go","1"
"pit-trial","233","1391682","0.0-113.0","battery-v0.2","","""event"",""trial"",""time""
""fullscreenenter"",""1"",""2813""
","
","
","""event"",""trial"",""time""
""fullscreenenter"",""1"",""2813""
","
","","","-1","","","10","6276","1848","m","elianto","#3366ff99"," ","-1","0","0","[3528.199999988079]","1","2","","","6276","109","9","1","win","go","0"
"pit-trial","234","1395971","0.0-114.0","battery-v0.2","","""event"",""trial"",""time""
""fullscreenenter"",""1"",""2813""
","
","
","""event"",""trial"",""time""
""fullscreenenter"",""1"",""2813""
","
","","","1427.300000011921","","","10","6276","1848","h","elianto","#f73b6a7A"," "," ","1","0","[2277.5]","1","2","","","6276","110","6","3","lose","go","0"
"pit-trial","235","1398882","0.0-115.0","battery-v0.2","","""event"",""trial"",""time""
""fullscreenenter"",""1"",""2813""
","
","
","""event"",""trial"",""time""
""fullscreenenter"",""1"",""2813""
","
","","","57","","","10","6276","1848","z","elianto","#3366ff99","-1"," ","0","0","[907.3000000119209]","1","2","","","6276","111","5","2","win","no-go","0"
"pit-trial","236","1403749","0.0-116.0","battery-v0.2","","""event"",""trial"",""time""
""fullscreenenter"",""1"",""2813""
","
","
","""event"",""trial"",""time""
""fullscreenenter"",""1"",""2813""
","
","","","-1","","","10","6276","1848","r","elianto","#3366ff99"," ","-1","0","0","[3437.5]","1","2","","","6276","112","8","1","win","go","0"
"pit-trial","237","1408613","0.0-117.0","battery-v0.2","","""event"",""trial"",""time""
""fullscreenenter"",""1"",""2813""
","
","
","""event"",""trial"",""time""
""fullscreenenter"",""1"",""2813""
","
","","","-1","","","10","6276","1848","h","elianto","#f73b6a7A"," ","-1","0","0","[]","0","2","","","6276","113","6","3","lose","go","1"
"pit-trial","238","1412137","0.0-118.0","battery-v0.2","","""event"",""trial"",""time""
""fullscreenenter"",""1"",""2813""
","
","
","""event"",""trial"",""time""
""fullscreenenter"",""1"",""2813""
","
","","","664","","","10","6276","1848","z","elianto","#3366ff99","-1"," ","0","+10","[1515.199999988079]","1","2","","","6276","114","5","2","win","no-go","1"
"pit-trial","239","1415705","0.0-119.0","battery-v0.2","","""event"",""trial"",""time""
""fullscreenenter"",""1"",""2813""
","
","
","""event"",""trial"",""time""
""fullscreenenter"",""1"",""2813""
","
","","","708.5","","","10","6276","1848","r","elianto","#3366ff99"," "," ","1","+10","[1562.2000000178814]","1","2","","","6276","115","8","1","win","go","0"
"pit-trial","240","1420197","0.0-120.0","battery-v0.2","","""event"",""trial"",""time""
""fullscreenenter"",""1"",""2813""
","
","
","""event"",""trial"",""time""
""fullscreenenter"",""1"",""2813""
","
","","","1636.2999999821186","","","10","6276","1848","m","elianto","#3366ff99"," "," ","1","+10","[2487.9000000059605]","1","2","","","6276","116","9","1","win","go","0"
"pit-trial","241","1424035","0.0-121.0","battery-v0.2","","""event"",""trial"",""time""
""fullscreenenter"",""1"",""2813""
","
","
","""event"",""trial"",""time""
""fullscreenenter"",""1"",""2813""
","
","","","976.8000000119209","","","10","6276","1848","z","elianto","#3366ff99","-1"," ","0","0","[1827.8999999761581]","1","2","","","6276","117","5","2","win","no-go","0"
"pit-trial","242","1428895","0.0-122.0","battery-v0.2","","""event"",""trial"",""time""
""fullscreenenter"",""1"",""2813""
","
","
","""event"",""trial"",""time""
""fullscreenenter"",""1"",""2813""
","
","","","-1","","","10","6276","1848","h","elianto","#f73b6a7A"," ","-1","0","-10","[]","0","2","","","6276","118","6","3","lose","go","0"
"pit-trial","243","1433765","0.0-123.0","battery-v0.2","","""event"",""trial"",""time""
""fullscreenenter"",""1"",""2813""
","
","
","""event"",""trial"",""time""
""fullscreenenter"",""1"",""2813""
","
","","","-1","","","10","6276","1848","m","elianto","#3366ff99"," ","-1","0","0","[345.89999997615814]","1","2","","","6276","119","9","1","win","go","0"
"pit-trial","244","1437596","0.0-124.0","battery-v0.2","","""event"",""trial"",""time""
""fullscreenenter"",""1"",""2813""
","
","
","""event"",""trial"",""time""
""fullscreenenter"",""1"",""2813""
","
","","","968.9000000059605","","","10","6276","1848","r","elianto","#3366ff99"," "," ","1","+10","[1824.800000011921]","1","2","","","6276","120","8","1","win","go","0"
"pit-trial","245","1442183","0.0-125.0","battery-v0.2","","""event"",""trial"",""time""
""fullscreenenter"",""1"",""2813""
","
","
","""event"",""trial"",""time""
""fullscreenenter"",""1"",""2813""
","
","","","1722.7000000178814","","","10","6276","1848","y","elianto","#f73b6a7A","-1"," ","0","-10","[2579.0999999940395,3243.2999999821186,4344.0999999940395]","3","2","","","6276","121","7","4","lose","no-go","0"
"pit-trial","246","1446005","0.0-126.0","battery-v0.2","","""event"",""trial"",""time""
""fullscreenenter"",""1"",""2813""
","
","
","""event"",""trial"",""time""
""fullscreenenter"",""1"",""2813""
","
","","","963.1999999880791","","","10","6276","1848","h","elianto","#f73b6a7A"," "," ","1","0","[1815]","1","2","","","6276","122","6","3","lose","go","0"
"pit-trial","247","1449776","0.0-127.0","battery-v0.2","","""event"",""trial"",""time""
""fullscreenenter"",""1"",""2813""
","
","
","""event"",""trial"",""time""
""fullscreenenter"",""1"",""2813""
","
","","","912.0999999940395","","","10","6276","1848","r","elianto","#3366ff99"," "," ","1","+10","[1763.5]","1","2","","","6276","123","8","1","win","go","0"
"pit-trial","248","1453198","0.0-128.0","battery-v0.2","","""event"",""trial"",""time""
""fullscreenenter"",""1"",""2813""
","
","
","""event"",""trial"",""time""
""fullscreenenter"",""1"",""2813""
","
","","","558.2000000178814","","","10","6276","1848","m","elianto","#3366ff99"," "," ","1","+10","[1416]","1","2","","","6276","124","9","1","win","go","0"
"pit-trial","249","1456702","0.0-129.0","battery-v0.2","","""event"",""trial"",""time""
""fullscreenenter"",""1"",""2813""
","
","
","""event"",""trial"",""time""
""fullscreenenter"",""1"",""2813""
","
","","","643.9000000059605","","","10","6276","1848","m","elianto","#3366ff99"," "," ","1","+10","[1497.2000000178814]","1","2","","","6276","125","9","1","win","go","0"
"pit-trial","250","1460068","0.0-130.0","battery-v0.2","","""event"",""trial"",""time""
""fullscreenenter"",""1"",""2813""
","
","
","""event"",""trial"",""time""
""fullscreenenter"",""1"",""2813""
","
","","","512.5","","","10","6276","1848","r","elianto","#3366ff99"," "," ","1","+10","[1363.0999999940395]","1","2","","","6276","126","8","1","win","go","0"
"pit-trial","251","1464936","0.0-131.0","battery-v0.2","","""event"",""trial"",""time""
""fullscreenenter"",""1"",""2813""
","
","
","""event"",""trial"",""time""
""fullscreenenter"",""1"",""2813""
","
","","","-1","","","10","6276","1848","h","elianto","#f73b6a7A"," ","-1","0","-10","[]","0","2","","","6276","127","6","3","lose","go","0"
"pit-trial","252","1468773","0.0-132.0","battery-v0.2","","""event"",""trial"",""time""
""fullscreenenter"",""1"",""2813""
","
","
","""event"",""trial"",""time""
""fullscreenenter"",""1"",""2813""
","
","","","977","","","10","6276","1848","y","elianto","#f73b6a7A","-1"," ","0","-10","[1829.300000011921]","1","2","","","6276","128","7","4","lose","no-go","0"
"pit-trial","253","1472364","0.0-133.0","battery-v0.2","","""event"",""trial"",""time""
""fullscreenenter"",""1"",""2813""
","
","
","""event"",""trial"",""time""
""fullscreenenter"",""1"",""2813""
","
","","","735","","","10","6276","1848","r","elianto","#3366ff99"," "," ","1","+10","[1587.300000011921]","1","2","","","6276","129","8","1","win","go","0"
"pit-trial","254","1476963","0.0-134.0","battery-v0.2","","""event"",""trial"",""time""
""fullscreenenter"",""1"",""2813""
","
","
","""event"",""trial"",""time""
""fullscreenenter"",""1"",""2813""
","
","","","1737.5999999940395","","","10","6276","1848","h","elianto","#f73b6a7A"," "," ","1","0","[2589.300000011921]","1","2","","","6276","130","6","3","lose","go","0"
"pit-trial","255","1481471","0.0-135.0","battery-v0.2","","""event"",""trial"",""time""
""fullscreenenter"",""1"",""2813""
","
","
","""event"",""trial"",""time""
""fullscreenenter"",""1"",""2813""
","
","","","1648.1000000238419","","","10","6276","1848","m","elianto","#3366ff99"," "," ","1","0","[2498.800000011921]","1","2","","","6276","131","9","1","win","go","1"
"pit-trial","256","1485241","0.0-136.0","battery-v0.2","","""event"",""trial"",""time""
""fullscreenenter"",""1"",""2813""
","
","
","""event"",""trial"",""time""
""fullscreenenter"",""1"",""2813""
","
","","","912.8000000119209","","","10","6276","1848","y","elianto","#f73b6a7A","-1"," ","0","-10","[1764.800000011921]","1","2","","","6276","132","7","4","lose","no-go","0"
"pit-trial","257","1488738","0.0-137.0","battery-v0.2","","""event"",""trial"",""time""
""fullscreenenter"",""1"",""2813""
","
","
","""event"",""trial"",""time""
""fullscreenenter"",""1"",""2813""
","
","","","638.5999999940395","","","10","6276","1848","m","elianto","#3366ff99"," "," ","1","+10","[1489.699999988079]","1","2","","","6276","133","9","1","win","go","0"
"pit-trial","258","1492218","0.0-138.0","battery-v0.2","","""event"",""trial"",""time""
""fullscreenenter"",""1"",""2813""
","
","
","""event"",""trial"",""time""
""fullscreenenter"",""1"",""2813""
","
","","","621.5","","","10","6276","1848","r","elianto","#3366ff99"," "," ","1","+10","[1473.800000011921]","1","2","","","6276","134","8","1","win","go","0"
"pit-trial","259","1497081","0.0-139.0","battery-v0.2","","""event"",""trial"",""time""
""fullscreenenter"",""1"",""2813""
","
","
","""event"",""trial"",""time""
""fullscreenenter"",""1"",""2813""
","
