"trial_type","trial_index","time_elapsed","internal_node_id","task_version","subject_id","interactions","blur_events","focus_events","fullscreenenter_events","fullscreenexit_events","success","view_history","rt","responses","num_errors","age","subject","participantId","rune","rune_set","hex","correct","choice","accuracy","outcome","keys","total_keys","block","practice","value","sub","trial","stimulus","robot","valence","action","sham"
"pavlovia","0","6","0.0-0.0","battery-v0.2","","""event"",""trial"",""time""
""fullscreenenter"",""1"",""4149""
","
","
","""event"",""trial"",""time""
""fullscreenenter"",""1"",""4149""
","
","","","","","","","","","","","","","","","","","","","","","","","","","","",""
"fullscreen","1","5137","0.0-1.0","battery-v0.2","","""event"",""trial"",""time""
""fullscreenenter"",""1"",""4149""
","
","
","""event"",""trial"",""time""
""fullscreenenter"",""1"",""4149""
","
","true","","","","","","","","","","","","","","","","","","","","","","","","","",""
"pit-instructions","2","12080","0.0-2.0-0.0","battery-v0.2","","""event"",""trial"",""time""
""fullscreenenter"",""1"",""4149""
","
","
","""event"",""trial"",""time""
""fullscreenenter"",""1"",""4149""
","
","","[{""page_index"":0,""viewing_time"":6932.599999964237}]","6933.199999988079","","","","","","","","","","","","","","","","","","","","","","","",""
"pit-comprehension","3","15756","0.0-2.0-1.0-0.0","battery-v0.2","","""event"",""trial"",""time""
""fullscreenenter"",""1"",""4149""
","
","
","""event"",""trial"",""time""
""fullscreenenter"",""1"",""4149""
","
","","","3671","[""shark""]","0","15","9905","4678","","","","","","","","","","","","","","","","","","",""
"pit-instructions","4","21560","0.0-2.0-1.0-1.0","battery-v0.2","","""event"",""trial"",""time""
""fullscreenenter"",""1"",""4149""
","
","
","""event"",""trial"",""time""
""fullscreenenter"",""1"",""4149""
","
","","[{""page_index"":0,""viewing_time"":5786.5}]","5787","","","","","","","","","","","","","","","","","","","","","","","",""
"pit-comprehension","5","24425","0.0-2.0-2.0-0.0","battery-v0.2","","""event"",""trial"",""time""
""fullscreenenter"",""1"",""4149""
","
","
","""event"",""trial"",""time""
""fullscreenenter"",""1"",""4149""
","
","","","2859.399999976158","[""tiger""]","0","15","9905","4678","","","","","","","","","","","","","","","","","","",""
"pit-instructions","6","27010","0.0-2.0-2.0-1.0","battery-v0.2","","""event"",""trial"",""time""
""fullscreenenter"",""1"",""4149""
","
","
","""event"",""trial"",""time""
""fullscreenenter"",""1"",""4149""
","
","","[{""page_index"":0,""viewing_time"":2580.199999988079}]","2580.800000011921","","","","","","","","","","","","","","","","","","","","","","","",""
"pit-instructions","7","127457","0.0-2.0-3.0","battery-v0.2","","""event"",""trial"",""time""
""fullscreenenter"",""1"",""4149""
","
","
","""event"",""trial"",""time""
""fullscreenenter"",""1"",""4149""
","
","","[{""page_index"":0,""viewing_time"":8577.699999988079},{""page_index"":1,""viewing_time"":6287.900000035763},{""page_index"":2,""viewing_time"":6557.099999964237},{""page_index"":3,""viewing_time"":6236.200000047684},{""page_index"":4,""viewing_time"":6493.899999976158},{""page_index"":5,""viewing_time"":6416.899999976158},{""page_index"":6,""viewing_time"":8567.5},{""page_index"":7,""viewing_time"":6932.700000047684},{""page_index"":8,""viewing_time"":6585.599999964237},{""page_index"":9,""viewing_time"":9146.699999988079},{""page_index"":10,""viewing_time"":7515},{""page_index"":11,""viewing_time"":7667.900000035763},{""page_index"":12,""viewing_time"":6213.5},{""page_index"":13,""viewing_time"":7241.399999976158}]","100440.60000002384","","","","","","","","","","","","","","","","","","","","","","","",""
"pit-trial","8","131029","0.0-2.0-4.0-0.0","battery-v0.2","","""event"",""trial"",""time""
""fullscreenenter"",""1"",""4149""
","
","
","""event"",""trial"",""time""
""fullscreenenter"",""1"",""4149""
","
","","","701.4000000357628","","","15","9905","4678","&#9784;","elianto","#FFFFF080"," "," ","1","&#10004","[1553.3999999761581]","1","0","0","","","","","","","",""
"pit-trial","9","134742","0.0-2.0-4.1-0.1","battery-v0.2","","""event"",""trial"",""time""
""fullscreenenter"",""1"",""4149""
","
","
","""event"",""trial"",""time""
""fullscreenenter"",""1"",""4149""
","
","","","842.8000000119209","","","15","9905","4678","&#9784;","elianto","#FFFFF080"," "," ","1","&#10004","[1695.800000011921]","1","0","0","","","","","","","",""
"pit-trial","10","138410","0.0-2.0-4.2-0.2","battery-v0.2","","""event"",""trial"",""time""
""fullscreenenter"",""1"",""4149""
","
","
","""event"",""trial"",""time""
""fullscreenenter"",""1"",""4149""
","
","","","797.8999999761581","","","15","9905","4678","&#9784;","elianto","#FFFFF080"," "," ","1","&#10004","[1649]","1","0","0","","","","","","","",""
"pit-trial","11","141936","0.0-2.0-4.3-0.3","battery-v0.2","","""event"",""trial"",""time""
""fullscreenenter"",""1"",""4149""
","
","
","""event"",""trial"",""time""
""fullscreenenter"",""1"",""4149""
","
","","","658.1000000238419","","","15","9905","4678","&#9784;","elianto","#FFFFF080"," "," ","1","&#10004","[1508.5]","1","0","0","","","","","","","",""
"pit-trial","12","145563","0.0-2.0-4.4-0.4","battery-v0.2","","""event"",""trial"",""time""
""fullscreenenter"",""1"",""4149""
","
","
","""event"",""trial"",""time""
""fullscreenenter"",""1"",""4149""
","
","","","759.8999999761581","","","15","9905","4678","&#9784;","elianto","#FFFFF080"," "," ","1","&#10004","[1611.6000000238419]","1","0","0","","","","","","","",""
"pit-instructions","13","168548","0.0-2.0-5.0","battery-v0.2","","""event"",""trial"",""time""
""fullscreenenter"",""1"",""4149""
","
","
","""event"",""trial"",""time""
""fullscreenenter"",""1"",""4149""
","
","","[{""page_index"":0,""viewing_time"":5219.5},{""page_index"":1,""viewing_time"":6492.199999988079},{""page_index"":2,""viewing_time"":5609.300000011921},{""page_index"":3,""viewing_time"":5657.399999976158}]","22979.099999964237","","","","","","","","","","","","","","","","","","","","","","","",""
"pit-trial","14","173430","0.0-2.0-6.0-0.0","battery-v0.2","","""event"",""trial"",""time""
""fullscreenenter"",""1"",""4149""
","
","
","""event"",""trial"",""time""
""fullscreenenter"",""1"",""4149""
","
","","","-1","","","15","9905","4678","&#9854;","elianto","#FFFFF080","-1","-1","1","&#10004","[]","0","0","1","","","","","","","",""
"pit-trial","15","178300","0.0-2.0-6.1-0.1","battery-v0.2","","""event"",""trial"",""time""
""fullscreenenter"",""1"",""4149""
","
","
","""event"",""trial"",""time""
""fullscreenenter"",""1"",""4149""
","
","","","-1","","","15","9905","4678","&#9854;","elianto","#FFFFF080","-1","-1","1","&#10004","[]","0","0","1","","","","","","","",""
"pit-trial","16","183171","0.0-2.0-6.2-0.2","battery-v0.2","","""event"",""trial"",""time""
""fullscreenenter"",""1"",""4149""
","
","
","""event"",""trial"",""time""
""fullscreenenter"",""1"",""4149""
","
","","","-1","","","15","9905","4678","&#9854;","elianto","#FFFFF080","-1","-1","1","&#10004","[]","0","0","1","","","","","","","",""
"pit-trial","17","188037","0.0-2.0-6.3-0.3","battery-v0.2","","""event"",""trial"",""time""
""fullscreenenter"",""1"",""4149""
","
","
","""event"",""trial"",""time""
""fullscreenenter"",""1"",""4149""
","
","","","-1","","","15","9905","4678","&#9854;","elianto","#FFFFF080","-1","-1","1","&#10004","[]","0","0","1","","","","","","","",""
"pit-trial","18","192897","0.0-2.0-6.4-0.4","battery-v0.2","","""event"",""trial"",""time""
""fullscreenenter"",""1"",""4149""
","
","
","""event"",""trial"",""time""
""fullscreenenter"",""1"",""4149""
","
","","","-1","","","15","9905","4678","&#9854;","elianto","#FFFFF080","-1","-1","1","&#10004","[]","0","0","1","","","","","","","",""
"pit-instructions","19","323910","0.0-2.0-7.0","battery-v0.2","","""event"",""trial"",""time""
""fullscreenenter"",""1"",""4149""
","
","
","""event"",""trial"",""time""
""fullscreenenter"",""1"",""4149""
","
","","[{""page_index"":0,""viewing_time"":6176},{""page_index"":1,""viewing_time"":7948.199999988079},{""page_index"":2,""viewing_time"":6913.600000023842},{""page_index"":3,""viewing_time"":7557.399999976158},{""page_index"":4,""viewing_time"":6174.400000035763},{""page_index"":5,""viewing_time"":6982.800000011921},{""page_index"":6,""viewing_time"":5405.5},{""page_index"":7,""viewing_time"":8344.699999988079},{""page_index"":8,""viewing_time"":7141.699999988079},{""page_index"":9,""viewing_time"":5944.399999976158},{""page_index"":10,""viewing_time"":6723.900000035763},{""page_index"":11,""viewing_time"":5404.399999976158},{""page_index"":12,""viewing_time"":7312.699999988079},{""page_index"":13,""viewing_time"":7597.900000035763},{""page_index"":14,""viewing_time"":7857.099999964237},{""page_index"":15,""viewing_time"":9110.300000011921},{""page_index"":16,""viewing_time"":10178},{""page_index"":17,""viewing_time"":8232.900000035763}]","131006.40000003576","","","","","","","","","","","","","","","","","","","","","","","",""
"pit-trial","20","327626","0.0-2.0-8.0-0.0","battery-v0.2","","""event"",""trial"",""time""
""fullscreenenter"",""1"",""4149""
","
","
","""event"",""trial"",""time""
""fullscreenenter"",""1"",""4149""
","
","","","859.4000000357628","","","15","9905","4678","&#9776;","elianto","#3366ff99"," "," ","1","+10","[1710.800000011921]","1","0","1","","","","","","","",""
"pit-trial","21","331185","0.0-2.0-8.0-1.0","battery-v0.2","","""event"",""trial"",""time""
""fullscreenenter"",""1"",""4149""
","
","
","""event"",""trial"",""time""
""fullscreenenter"",""1"",""4149""
","
","","","700.0999999642372","","","15","9905","4678","&#9776;","elianto","#3366ff99"," "," ","1","+10","[1550.300000011921]","1","0","1","","","","","","","",""
"pit-trial","22","334577","0.0-2.0-8.0-2.0","battery-v0.2","","""event"",""trial"",""time""
""fullscreenenter"",""1"",""4149""
","
","
","""event"",""trial"",""time""
""fullscreenenter"",""1"",""4149""
","
","","","523.8000000119209","","","15","9905","4678","&#9776;","elianto","#3366ff99"," "," ","1","+10","[1378.6000000238419]","1","0","1","","","","","","","",""
"pit-trial","23","337952","0.0-2.0-8.0-3.0","battery-v0.2","","""event"",""trial"",""time""
""fullscreenenter"",""1"",""4149""
","
","
","""event"",""trial"",""time""
""fullscreenenter"",""1"",""4149""
","
","","","513.5","","","15","9905","4678","&#9776;","elianto","#3366ff99"," "," ","1","0","[1364.300000011921]","1","0","1","","","","","","","",""
"pit-trial","24","342820","0.0-2.0-8.0-4.0","battery-v0.2","","""event"",""trial"",""time""
""fullscreenenter"",""1"",""4149""
","
","
","""event"",""trial"",""time""
""fullscreenenter"",""1"",""4149""
","
","","","-1","","","15","9905","4678","&#9776;","elianto","#3366ff99"," ","-1","0","0","[]","0","0","1","","","","","","","",""
"pit-trial","25","347693","0.0-2.0-8.1-0.1","battery-v0.2","","""event"",""trial"",""time""
""fullscreenenter"",""1"",""4149""
","
","
","""event"",""trial"",""time""
""fullscreenenter"",""1"",""4149""
","
","","","-1","","","15","9905","4678","&#9776;","elianto","#3366ff99"," ","-1","0","0","[]","0","0","1","","","","","","","",""
"pit-trial","26","352550","0.0-2.0-8.1-1.1","battery-v0.2","","""event"",""trial"",""time""
""fullscreenenter"",""1"",""4149""
","
","
","""event"",""trial"",""time""
""fullscreenenter"",""1"",""4149""
","
","","","-1","","","15","9905","4678","&#9776;","elianto","#3366ff99"," ","-1","0","0","[]","0","0","1","","","","","","","",""
"pit-trial","27","357403","0.0-2.0-8.1-2.1","battery-v0.2","","""event"",""trial"",""time""
""fullscreenenter"",""1"",""4149""
","
","
","""event"",""trial"",""time""
""fullscreenenter"",""1"",""4149""
","
","","","-1","","","15","9905","4678","&#9776;","elianto","#3366ff99"," ","-1","0","0","[]","0","0","1","","","","","","","",""
"pit-trial","28","362259","0.0-2.0-8.1-3.1","battery-v0.2","","""event"",""trial"",""time""
""fullscreenenter"",""1"",""4149""
","
","
","""event"",""trial"",""time""
""fullscreenenter"",""1"",""4149""
","
","","","-1","","","15","9905","4678","&#9776;","elianto","#3366ff99"," ","-1","0","+10","[]","0","0","1","","","","","","","",""
"pit-trial","29","367113","0.0-2.0-8.1-4.1","battery-v0.2","","""event"",""trial"",""time""
""fullscreenenter"",""1"",""4149""
","
","
","""event"",""trial"",""time""
""fullscreenenter"",""1"",""4149""
","
","","","-1","","","15","9905","4678","&#9776;","elianto","#3366ff99"," ","-1","0","0","[]","0","0","1","","","","","","","",""
"pit-trial","30","371267","0.0-2.0-8.2-0.2","battery-v0.2","","""event"",""trial"",""time""
""fullscreenenter"",""1"",""4149""
","
","
","""event"",""trial"",""time""
""fullscreenenter"",""1"",""4149""
","
","","","1299.300000011921","","","15","9905","4678","&#9776;","elianto","#3366ff99"," "," ","1","+10","[2150.300000011921]","1","0","1","","","","","","","",""
"pit-trial","31","376121","0.0-2.0-8.2-1.2","battery-v0.2","","""event"",""trial"",""time""
""fullscreenenter"",""1"",""4149""
","
","
","""event"",""trial"",""time""
""fullscreenenter"",""1"",""4149""
","
","","","-1","","","15","9905","4678","&#9776;","elianto","#3366ff99"," ","-1","0","0","[]","0","0","1","","","","","","","",""
"pit-trial","32","380173","0.0-2.0-8.2-2.2","battery-v0.2","","""event"",""trial"",""time""
""fullscreenenter"",""1"",""4149""
","
","
","""event"",""trial"",""time""
""fullscreenenter"",""1"",""4149""
","
","","","1199.2999999523163","","","15","9905","4678","&#9776;","elianto","#3366ff99"," "," ","1","+10","[2050.600000023842]","1","0","1","","","","","","","",""
"pit-trial","33","385029","0.0-2.0-8.2-3.2","battery-v0.2","","""event"",""trial"",""time""
""fullscreenenter"",""1"",""4149""
","
","
","""event"",""trial"",""time""
""fullscreenenter"",""1"",""4149""
","
","","","-1","","","15","9905","4678","&#9776;","elianto","#3366ff99"," ","-1","0","+10","[]","0","0","1","","","","","","","",""
"pit-trial","34","389884","0.0-2.0-8.2-4.2","battery-v0.2","","""event"",""trial"",""time""
""fullscreenenter"",""1"",""4149""
","
","
","""event"",""trial"",""time""
""fullscreenenter"",""1"",""4149""
","
","","","-1","","","15","9905","4678","&#9776;","elianto","#3366ff99"," ","-1","0","0","[3033.699999988079]","1","0","1","","","","","","","",""
"call-function","35","389887","0.0-2.0-9.0","battery-v0.2","","""event"",""trial"",""time""
""fullscreenenter"",""1"",""4149""
","
","
","""event"",""trial"",""time""
""fullscreenenter"",""1"",""4149""
","
","","","","","","","","","","","","","","","","","","","","","","","","","","",""
"pit-instructions","36","434899","0.0-2.0-10.0","battery-v0.2","","""event"",""trial"",""time""
""fullscreenenter"",""1"",""4149""
","
","
","""event"",""trial"",""time""
""fullscreenenter"",""1"",""4149""
","
","","[{""page_index"":0,""viewing_time"":7463.900000035763},{""page_index"":1,""viewing_time"":8365.099999964237},{""page_index"":2,""viewing_time"":10152.300000011921},{""page_index"":3,""viewing_time"":9996},{""page_index"":4,""viewing_time"":9034.900000035763}]","45012.60000002384","","","","","","","","","","","","","","","","","","","","","","","",""
"pit-trial","37","438460","0.0-2.0-11.0-0.0","battery-v0.2","","""event"",""trial"",""time""
""fullscreenenter"",""1"",""4149""
","
","
","""event"",""trial"",""time""
""fullscreenenter"",""1"",""4149""
","
","","","697.5","","","15","9905","4678","&#9761;","elianto","#3366ff99","-1"," ","0","0","[1549.5999999642372]","1","0","2","","","","","","","",""
"pit-trial","38","443324","0.0-2.0-11.0-1.0","battery-v0.2","","""event"",""trial"",""time""
""fullscreenenter"",""1"",""4149""
","
","
","""event"",""trial"",""time""
""fullscreenenter"",""1"",""4149""
","
","","","-1","","","15","9905","4678","&#9761;","elianto","#3366ff99","-1","-1","1","+10","[]","0","0","2","","","","","","","",""
"pit-trial","39","446743","0.0-2.0-11.0-2.0","battery-v0.2","","""event"",""trial"",""time""
""fullscreenenter"",""1"",""4149""
","
","
","""event"",""trial"",""time""
""fullscreenenter"",""1"",""4149""
","
","","","548","","","15","9905","4678","&#9761;","elianto","#3366ff99","-1"," ","0","0","[1399.5999999642372]","1","0","2","","","","","","","",""
"pit-trial","40","451610","0.0-2.0-11.0-3.0","battery-v0.2","","""event"",""trial"",""time""
""fullscreenenter"",""1"",""4149""
","
","
","""event"",""trial"",""time""
""fullscreenenter"",""1"",""4149""
","
","","","-1","","","15","9905","4678","&#9761;","elianto","#3366ff99","-1","-1","1","0","[]","0","0","2","","","","","","","",""
"pit-trial","41","455484","0.0-2.0-11.0-4.0","battery-v0.2","","""event"",""trial"",""time""
""fullscreenenter"",""1"",""4149""
","
","
","""event"",""trial"",""time""
""fullscreenenter"",""1"",""4149""
","
","","","1009.8000000119209","","","15","9905","4678","&#9761;","elianto","#3366ff99","-1"," ","0","0","[1862.3999999761581]","1","0","2","","","","","","","",""
"pit-trial","42","460352","0.0-2.0-11.1-0.1","battery-v0.2","","""event"",""trial"",""time""
""fullscreenenter"",""1"",""4149""
","
","
","""event"",""trial"",""time""
""fullscreenenter"",""1"",""4149""
","
","","","-1","","","15","9905","4678","&#9761;","elianto","#3366ff99","-1","-1","1","+10","[]","0","0","2","","","","","","","",""
"pit-trial","43","465219","0.0-2.0-11.1-1.1","battery-v0.2","","""event"",""trial"",""time""
""fullscreenenter"",""1"",""4149""
","
","
","""event"",""trial"",""time""
""fullscreenenter"",""1"",""4149""
","
","","","-1","","","15","9905","4678","&#9761;","elianto","#3366ff99","-1","-1","1","+10","[]","0","0","2","","","","","","","",""
"pit-trial","44","469194","0.0-2.0-11.1-2.1","battery-v0.2","","""event"",""trial"",""time""
""fullscreenenter"",""1"",""4149""
","
","
","""event"",""trial"",""time""
""fullscreenenter"",""1"",""4149""
","
","","","1120.800000011921","","","15","9905","4678","&#9761;","elianto","#3366ff99","-1"," ","0","0","[1972.199999988079]","1","0","2","","","","","","","",""
"pit-trial","45","472561","0.0-2.0-11.1-3.1","battery-v0.2","","""event"",""trial"",""time""
""fullscreenenter"",""1"",""4149""
","
","
","""event"",""trial"",""time""
""fullscreenenter"",""1"",""4149""
","
","","","512.3000000119209","","","15","9905","4678","&#9761;","elianto","#3366ff99","-1"," ","0","+10","[1363.300000011921]","1","0","2","","","","","","","",""
"pit-trial","46","477414","0.0-2.0-11.1-4.1","battery-v0.2","","""event"",""trial"",""time""
""fullscreenenter"",""1"",""4149""
","
","
","""event"",""trial"",""time""
""fullscreenenter"",""1"",""4149""
","
","","","-1","","","15","9905","4678","&#9761;","elianto","#3366ff99","-1","-1","1","+10","[]","0","0","2","","","","","","","",""
"pit-trial","47","482282","0.0-2.0-11.2-0.2","battery-v0.2","","""event"",""trial"",""time""
""fullscreenenter"",""1"",""4149""
","
","
","""event"",""trial"",""time""
""fullscreenenter"",""1"",""4149""
","
","","","-1","","","15","9905","4678","&#9761;","elianto","#3366ff99","-1","-1","1","+10","[]","0","0","2","","","","","","","",""
"pit-trial","48","485464","0.0-2.0-11.2-1.2","battery-v0.2","","""event"",""trial"",""time""
""fullscreenenter"",""1"",""4149""
","
","
","""event"",""trial"",""time""
""fullscreenenter"",""1"",""4149""
","
","","","328","","","15","9905","4678","&#9761;","elianto","#3366ff99","-1"," ","0","0","[1178.5]","1","0","2","","","","","","","",""
"pit-trial","49","488618","0.0-2.0-11.2-2.2","battery-v0.2","","""event"",""trial"",""time""
""fullscreenenter"",""1"",""4149""
","
","
","""event"",""trial"",""time""
""fullscreenenter"",""1"",""4149""
","
","","","297.80000001192093","","","15","9905","4678","&#9761;","elianto","#3366ff99","-1"," ","0","0","[1149.199999988079]","1","0","2","","","","","","","",""
"pit-trial","50","491880","0.0-2.0-11.2-3.2","battery-v0.2","","""event"",""trial"",""time""
""fullscreenenter"",""1"",""4149""
","
","
","""event"",""trial"",""time""
""fullscreenenter"",""1"",""4149""
","
","","","407.19999998807907","","","15","9905","4678","&#9761;","elianto","#3366ff99","-1"," ","0","+10","[1258.1000000238419]","1","0","2","","","","","","","",""
"pit-trial","51","495093","0.0-2.0-11.2-4.2","battery-v0.2","","""event"",""trial"",""time""
""fullscreenenter"",""1"",""4149""
","
","
","""event"",""trial"",""time""
""fullscreenenter"",""1"",""4149""
","
","","","358.5","","","15","9905","4678","&#9761;","elianto","#3366ff99","-1"," ","0","0","[1208.7000000476837]","1","0","2","","","","","","","",""
"pit-trial","52","498163","0.0-2.0-11.3-0.3","battery-v0.2","","""event"",""trial"",""time""
""fullscreenenter"",""1"",""4149""
","
","
","""event"",""trial"",""time""
""fullscreenenter"",""1"",""4149""
","
","","","214","","","15","9905","4678","&#9761;","elianto","#3366ff99","-1"," ","0","0","[1065]","1","0","2","","","","","","","",""
"pit-trial","53","501166","0.0-2.0-11.3-1.3","battery-v0.2","","""event"",""trial"",""time""
""fullscreenenter"",""1"",""4149""
","
","
","""event"",""trial"",""time""
""fullscreenenter"",""1"",""4149""
","
","","","149.30000001192093","","","15","9905","4678","&#9761;","elianto","#3366ff99","-1"," ","0","0","[999.5]","1","0","2","","","","","","","",""
"pit-trial","54","505702","0.0-2.0-11.3-2.3","battery-v0.2","","""event"",""trial"",""time""
""fullscreenenter"",""1"",""4149""
","
","
","""event"",""trial"",""time""
""fullscreenenter"",""1"",""4149""
","
","","","1681.300000011921","","","15","9905","4678","&#9761;","elianto","#3366ff99","-1"," ","0","0","[2531.600000023842]","1","0","2","","","","","","","",""
"pit-trial","55","510556","0.0-2.0-11.3-3.3","battery-v0.2","","""event"",""trial"",""time""
""fullscreenenter"",""1"",""4149""
","
","
","""event"",""trial"",""time""
""fullscreenenter"",""1"",""4149""
","
","","","-1","","","15","9905","4678","&#9761;","elianto","#3366ff99","-1","-1","1","0","[]","0","0","2","","","","","","","",""
"pit-trial","56","513797","0.0-2.0-11.3-4.3","battery-v0.2","","""event"",""trial"",""time""
""fullscreenenter"",""1"",""4149""
","
","
","""event"",""trial"",""time""
""fullscreenenter"",""1"",""4149""
","
","","","388.5999999642372","","","15","9905","4678","&#9761;","elianto","#3366ff99","-1"," ","0","0","[1239.1000000238419]","1","0","2","","","","","","","",""
"call-function","57","513799","0.0-2.0-12.0","battery-v0.2","","""event"",""trial"",""time""
""fullscreenenter"",""1"",""4149""
","
","
","""event"",""trial"",""time""
""fullscreenenter"",""1"",""4149""
","
","","","","","","","","","","","","","","","","","","","","","","","","","","",""
"pit-instructions","58","558568","0.0-2.0-13.0","battery-v0.2","","""event"",""trial"",""time""
""fullscreenenter"",""1"",""4149""
","
","
","""event"",""trial"",""time""
""fullscreenenter"",""1"",""4149""
","
","","[{""page_index"":0,""viewing_time"":5145.199999988079},{""page_index"":1,""viewing_time"":8205.600000023842},{""page_index"":2,""viewing_time"":13180.300000011921},{""page_index"":3,""viewing_time"":11924.799999952316},{""page_index"":4,""viewing_time"":6310.400000035763}]","44767","","","","","","","","","","","","","","","","","","","","","","","",""
"pit-trial","59","563437","0.0-2.0-14.0-0.0","battery-v0.2","","""event"",""trial"",""time""
""fullscreenenter"",""1"",""4149""
","
","
","""event"",""trial"",""time""
""fullscreenenter"",""1"",""4149""
","
","","","-1","","","15","9905","4678","&#9826;","elianto","#f73b6a7A","-1","-1","1","0","[]","0","0","3","","","","","","","",""
"pit-trial","60","568315","0.0-2.0-14.0-1.0","battery-v0.2","","""event"",""trial"",""time""
""fullscreenenter"",""1"",""4149""
","
","
","""event"",""trial"",""time""
""fullscreenenter"",""1"",""4149""
","
","","","-1","","","15","9905","4678","&#9826;","elianto","#f73b6a7A","-1","-1","1","0","[]","0","0","3","","","","","","","",""
"pit-trial","61","573183","0.0-2.0-14.0-2.0","battery-v0.2","","""event"",""trial"",""time""
""fullscreenenter"",""1"",""4149""
","
","
","""event"",""trial"",""time""
""fullscreenenter"",""1"",""4149""
","
","","","-1","","","15","9905","4678","&#9826;","elianto","#f73b6a7A","-1","-1","1","0","[]","0","0","3","","","","","","","",""
"pit-trial","62","578055","0.0-2.0-14.0-3.0","battery-v0.2","","""event"",""trial"",""time""
""fullscreenenter"",""1"",""4149""
","
","
","""event"",""trial"",""time""
""fullscreenenter"",""1"",""4149""
","
","","","-1","","","15","9905","4678","&#9826;","elianto","#f73b6a7A","-1","-1","1","-10","[]","0","0","3","","","","","","","",""
"pit-trial","63","581570","0.0-2.0-14.0-4.0","battery-v0.2","","""event"",""trial"",""time""
""fullscreenenter"",""1"",""4149""
","
","
","""event"",""trial"",""time""
""fullscreenenter"",""1"",""4149""
","
","","","655.5999999642372","","","15","9905","4678","&#9826;","elianto","#f73b6a7A","-1"," ","0","-10","[1506]","1","0","3","","","","","","","",""
"pit-trial","64","586440","0.0-2.0-14.1-0.1","battery-v0.2","","""event"",""trial"",""time""
""fullscreenenter"",""1"",""4149""
","
","
","""event"",""trial"",""time""
""fullscreenenter"",""1"",""4149""
","
","","","-1","","","15","9905","4678","&#9826;","elianto","#f73b6a7A","-1","-1","1","0","[]","0","0","3","","","","","","","",""
"pit-trial","65","591297","0.0-2.0-14.1-1.1","battery-v0.2","","""event"",""trial"",""time""
""fullscreenenter"",""1"",""4149""
","
","
","""event"",""trial"",""time""
""fullscreenenter"",""1"",""4149""
","
","","","-1","","","15","9905","4678","&#9826;","elianto","#f73b6a7A","-1","-1","1","0","[]","0","0","3","","","","","","","",""
"pit-trial","66","596150","0.0-2.0-14.1-2.1","battery-v0.2","","""event"",""trial"",""time""
""fullscreenenter"",""1"",""4149""
","
","
","""event"",""trial"",""time""
""fullscreenenter"",""1"",""4149""
","
","","","-1","","","15","9905","4678","&#9826;","elianto","#f73b6a7A","-1","-1","1","0","[]","0","0","3","","","","","","","",""
"pit-trial","67","601004","0.0-2.0-14.1-3.1","battery-v0.2","","""event"",""trial"",""time""
""fullscreenenter"",""1"",""4149""
","
","
","""event"",""trial"",""time""
""fullscreenenter"",""1"",""4149""
","
","","","-1","","","15","9905","4678","&#9826;","elianto","#f73b6a7A","-1","-1","1","-10","[]","0","0","3","","","","","","","",""
"pit-trial","68","604935","0.0-2.0-14.1-4.1","battery-v0.2","","""event"",""trial"",""time""
""fullscreenenter"",""1"",""4149""
","
","
","""event"",""trial"",""time""
""fullscreenenter"",""1"",""4149""
","
","","","1077.6000000238419","","","15","9905","4678","&#9826;","elianto","#f73b6a7A","-1"," ","0","-10","[1927.5999999642372]","1","0","3","","","","","","","",""
"pit-trial","69","609791","0.0-2.0-14.2-0.2","battery-v0.2","","""event"",""trial"",""time""
""fullscreenenter"",""1"",""4149""
","
","
","""event"",""trial"",""time""
""fullscreenenter"",""1"",""4149""
","
","","","-1","","","15","9905","4678","&#9826;","elianto","#f73b6a7A","-1","-1","1","0","[]","0","0","3","","","","","","","",""
"pit-trial","70","614259","0.0-2.0-14.2-1.2","battery-v0.2","","""event"",""trial"",""time""
""fullscreenenter"",""1"",""4149""
","
","
","""event"",""trial"",""time""
""fullscreenenter"",""1"",""4149""
","
","","","1613.699999988079","","","15","9905","4678","&#9826;","elianto","#f73b6a7A","-1"," ","0","-10","[2464.300000011921]","1","0","3","","","","","","","",""
"pit-trial","71","619116","0.0-2.0-14.2-2.2","battery-v0.2","","""event"",""trial"",""time""
""fullscreenenter"",""1"",""4149""
","
","
","""event"",""trial"",""time""
""fullscreenenter"",""1"",""4149""
","
","","","-1","","","15","9905","4678","&#9826;","elianto","#f73b6a7A","-1","-1","1","0","[]","0","0","3","","","","","","","",""
"pit-trial","72","623971","0.0-2.0-14.2-3.2","battery-v0.2","","""event"",""trial"",""time""
""fullscreenenter"",""1"",""4149""
","
","
","""event"",""trial"",""time""
""fullscreenenter"",""1"",""4149""
","
","","","-1","","","15","9905","4678","&#9826;","elianto","#f73b6a7A","-1","-1","1","-10","[]","0","0","3","","","","","","","",""
"pit-trial","73","628826","0.0-2.0-14.2-4.2","battery-v0.2","","""event"",""trial"",""time""
""fullscreenenter"",""1"",""4149""
","
","
","""event"",""trial"",""time""
""fullscreenenter"",""1"",""4149""
","
","","","-1","","","15","9905","4678","&#9826;","elianto","#f73b6a7A","-1","-1","1","0","[]","0","0","3","","","","","","","",""
"pit-trial","74","633681","0.0-2.0-14.3-0.3","battery-v0.2","","""event"",""trial"",""time""
""fullscreenenter"",""1"",""4149""
","
","
","""event"",""trial"",""time""
""fullscreenenter"",""1"",""4149""
","
","","","-1","","","15","9905","4678","&#9826;","elianto","#f73b6a7A","-1","-1","1","0","[]","0","0","3","","","","","","","",""
"pit-trial","75","638536","0.0-2.0-14.3-1.3","battery-v0.2","","""event"",""trial"",""time""
""fullscreenenter"",""1"",""4149""
","
","
","""event"",""trial"",""time""
""fullscreenenter"",""1"",""4149""
","
","","","-1","","","15","9905","4678","&#9826;","elianto","#f73b6a7A","-1","-1","1","0","[]","0","0","3","","","","","","","",""
"pit-trial","76","643391","0.0-2.0-14.3-2.3","battery-v0.2","","""event"",""trial"",""time""
""fullscreenenter"",""1"",""4149""
","
","
","""event"",""trial"",""time""
""fullscreenenter"",""1"",""4149""
","
","","","-1","","","15","9905","4678","&#9826;","elianto","#f73b6a7A","-1","-1","1","0","[]","0","0","3","","","","","","","",""
"pit-trial","77","648246","0.0-2.0-14.3-3.3","battery-v0.2","","""event"",""trial"",""time""
""fullscreenenter"",""1"",""4149""
","
","
","""event"",""trial"",""time""
""fullscreenenter"",""1"",""4149""
","
","","","-1","","","15","9905","4678","&#9826;","elianto","#f73b6a7A","-1","-1","1","-10","[]","0","0","3","","","","","","","",""
"pit-trial","78","653100","0.0-2.0-14.3-4.3","battery-v0.2","","""event"",""trial"",""time""
""fullscreenenter"",""1"",""4149""
","
","
","""event"",""trial"",""time""
""fullscreenenter"",""1"",""4149""
","
","","","-1","","","15","9905","4678","&#9826;","elianto","#f73b6a7A","-1","-1","1","0","[]","0","0","3","","","","","","","",""
"call-function","79","653102","0.0-2.0-15.0","battery-v0.2","","""event"",""trial"",""time""
""fullscreenenter"",""1"",""4149""
","
","
","""event"",""trial"",""time""
""fullscreenenter"",""1"",""4149""
","
","","","","","","","","","","","","","","","","","","","","","","","","","","",""
"pit-instructions","80","680737","0.0-2.0-16.0","battery-v0.2","","""event"",""trial"",""time""
""fullscreenenter"",""1"",""4149""
","
","
","""event"",""trial"",""time""
""fullscreenenter"",""1"",""4149""
","
","","[{""page_index"":0,""viewing_time"":6774.699999988079},{""page_index"":1,""viewing_time"":8847.899999976158},{""page_index"":2,""viewing_time"":5549.700000047684},{""page_index"":3,""viewing_time"":6461.199999988079}]","27634.30000001192","","","","","","","","","","","","","","","","","","","","","","","",""
"pit-trial","81","685605","0.0-2.0-17.0-0.0","battery-v0.2","","""event"",""trial"",""time""
""fullscreenenter"",""1"",""4149""
","
","
","""event"",""trial"",""time""
""fullscreenenter"",""1"",""4149""
","
","","","-1","","","15","9905","4678","&#9789;","elianto","#f73b6a7A"," ","-1","0","-10","[]","0","0","4","","","","","","","",""
"pit-trial","82","688857","0.0-2.0-17.0-1.0","battery-v0.2","","""event"",""trial"",""time""
""fullscreenenter"",""1"",""4149""
","
","
","""event"",""trial"",""time""
""fullscreenenter"",""1"",""4149""
","
","","","389.80000001192093","","","15","9905","4678","&#9789;","elianto","#f73b6a7A"," "," ","1","0","[1240.800000011921]","1","0","4","","","","","","","",""
"pit-trial","83","691970","0.0-2.0-17.0-2.0","battery-v0.2","","""event"",""trial"",""time""
""fullscreenenter"",""1"",""4149""
","
","
","""event"",""trial"",""time""
""fullscreenenter"",""1"",""4149""
","
","","","249.79999995231628","","","15","9905","4678","&#9789;","elianto","#f73b6a7A"," "," ","1","0","[1100.9000000357628]","1","0","4","","","","","","","",""
"pit-trial","84","695375","0.0-2.0-17.0-3.0","battery-v0.2","","""event"",""trial"",""time""
""fullscreenenter"",""1"",""4149""
","
","
","""event"",""trial"",""time""
""fullscreenenter"",""1"",""4149""
","
","","","537.6000000238419","","","15","9905","4678","&#9789;","elianto","#f73b6a7A"," "," ","1","-10","[1388.5]","1","0","4","","","","","","","",""
"pit-trial","85","698678","0.0-2.0-17.0-4.0","battery-v0.2","","""event"",""trial"",""time""
""fullscreenenter"",""1"",""4149""
","
","
","""event"",""trial"",""time""
""fullscreenenter"",""1"",""4149""
","
","","","442.60000002384186","","","15","9905","4678","&#9789;","elianto","#f73b6a7A"," "," ","1","0","[1294]","1","0","4","","","","","","","",""
"pit-trial","86","701945","0.0-2.0-17.1-0.1","battery-v0.2","","""event"",""trial"",""time""
""fullscreenenter"",""1"",""4149""
","
","
","""event"",""trial"",""time""
""fullscreenenter"",""1"",""4149""
","
","","","401.69999998807907","","","15","9905","4678","&#9789;","elianto","#f73b6a7A"," "," ","1","0","[1255.5]","1","0","4","","","","","","","",""
"pit-trial","87","705090","0.0-2.0-17.1-1.1","battery-v0.2","","""event"",""trial"",""time""
""fullscreenenter"",""1"",""4149""
","
","
","""event"",""trial"",""time""
""fullscreenenter"",""1"",""4149""
","
","","","289.39999997615814","","","15","9905","4678","&#9789;","elianto","#f73b6a7A"," "," ","1","0","[1140.0999999642372]","1","0","4","","","","","","","",""
"pit-trial","88","709930","0.0-2.0-17.1-2.1","battery-v0.2","","""event"",""trial"",""time""
""fullscreenenter"",""1"",""4149""
","
","
","""event"",""trial"",""time""
""fullscreenenter"",""1"",""4149""
","
","","","1982.5","","","15","9905","4678","&#9789;","elianto","#f73b6a7A"," "," ","1","0","[2836.699999988079]","1","0","4","","","","","","","",""
"pit-trial","89","714785","0.0-2.0-17.1-3.1","battery-v0.2","","""event"",""trial"",""time""
""fullscreenenter"",""1"",""4149""
","
","
","""event"",""trial"",""time""
""fullscreenenter"",""1"",""4149""
","
","","","-1","","","15","9905","4678","&#9789;","elianto","#f73b6a7A"," ","-1","0","0","[]","0","0","4","","","","","","","",""
"pit-trial","90","718330","0.0-2.0-17.1-4.1","battery-v0.2","","""event"",""trial"",""time""
""fullscreenenter"",""1"",""4149""
","
","
","""event"",""trial"",""time""
""fullscreenenter"",""1"",""4149""
","
","","","692.4000000357628","","","15","9905","4678","&#9789;","elianto","#f73b6a7A"," "," ","1","0","[1542.300000011921]","1","0","4","","","","","","","",""
"pit-trial","91","721577","0.0-2.0-17.2-0.2","battery-v0.2","","""event"",""trial"",""time""
""fullscreenenter"",""1"",""4149""
","
","
","""event"",""trial"",""time""
""fullscreenenter"",""1"",""4149""
","
","","","385.4000000357628","","","15","9905","4678","&#9789;","elianto","#f73b6a7A"," "," ","1","0","[1236.5]","1","0","4","","","","","","","",""
"pit-trial","92","724645","0.0-2.0-17.2-1.2","battery-v0.2","","""event"",""trial"",""time""
""fullscreenenter"",""1"",""4149""
","
","
","""event"",""trial"",""time""
""fullscreenenter"",""1"",""4149""
","
","","","215.30000001192093","","","15","9905","4678","&#9789;","elianto","#f73b6a7A"," "," ","1","0","[1065.7000000476837]","1","0","4","","","","","","","",""
"pit-trial","93","727794","0.0-2.0-17.2-2.2","battery-v0.2","","""event"",""trial"",""time""
""fullscreenenter"",""1"",""4149""
","
","
","""event"",""trial"",""time""
""fullscreenenter"",""1"",""4149""
","
","","","294.10000002384186","","","15","9905","4678","&#9789;","elianto","#f73b6a7A"," "," ","1","0","[1144.800000011921]","1","0","4","","","","","","","",""
"pit-trial","94","732649","0.0-2.0-17.2-3.2","battery-v0.2","","""event"",""trial"",""time""
""fullscreenenter"",""1"",""4149""
","
","
","""event"",""trial"",""time""
""fullscreenenter"",""1"",""4149""
","
","","","-1","","","15","9905","4678","&#9789;","elianto","#f73b6a7A"," ","-1","0","0","[]","0","0","4","","","","","","","",""
"pit-trial","95","736186","0.0-2.0-17.2-4.2","battery-v0.2","","""event"",""trial"",""time""
""fullscreenenter"",""1"",""4149""
","
","
","""event"",""trial"",""time""
""fullscreenenter"",""1"",""4149""
","
","","","683.6999999880791","","","15","9905","4678","&#9789;","elianto","#f73b6a7A"," "," ","1","0","[1533.699999988079]","1","0","4","","","","","","","",""
"pit-trial","96","740183","0.0-2.0-17.3-0.3","battery-v0.2","","""event"",""trial"",""time""
""fullscreenenter"",""1"",""4149""
","
","
","""event"",""trial"",""time""
""fullscreenenter"",""1"",""4149""
","
","","","1141.300000011921","","","15","9905","4678","&#9789;","elianto","#f73b6a7A"," "," ","1","0","[1992.199999988079]","1","0","4","","","","","","","",""
"pit-trial","97","743406","0.0-2.0-17.3-1.3","battery-v0.2","","""event"",""trial"",""time""
""fullscreenenter"",""1"",""4149""
","
","
","""event"",""trial"",""time""
""fullscreenenter"",""1"",""4149""
","
","","","367.9000000357628","","","15","9905","4678","&#9789;","elianto","#f73b6a7A"," "," ","1","0","[1218.5]","1","0","4","","","","","","","",""
"pit-trial","98","746888","0.0-2.0-17.3-2.3","battery-v0.2","","""event"",""trial"",""time""
""fullscreenenter"",""1"",""4149""
","
","
","""event"",""trial"",""time""
""fullscreenenter"",""1"",""4149""
","
","","","626.8000000119209","","","15","9905","4678","&#9789;","elianto","#f73b6a7A"," "," ","1","0","[1477.699999988079]","1","0","4","","","","","","","",""
"pit-trial","99","751743","0.0-2.0-17.3-3.3","battery-v0.2","","""event"",""trial"",""time""
""fullscreenenter"",""1"",""4149""
","
","
","""event"",""trial"",""time""
""fullscreenenter"",""1"",""4149""
","
","","","-1","","","15","9905","4678","&#9789;","elianto","#f73b6a7A"," ","-1","0","0","[]","0","0","4","","","","","","","",""
"pit-trial","100","755107","0.0-2.0-17.3-4.3","battery-v0.2","","""event"",""trial"",""time""
""fullscreenenter"",""1"",""4149""
","
","
","""event"",""trial"",""time""
""fullscreenenter"",""1"",""4149""
","
","","","509.39999997615814","","","15","9905","4678","&#9789;","elianto","#f73b6a7A"," "," ","1","0","[1360.5]","1","0","4","","","","","","","",""
"call-function","101","755109","0.0-2.0-18.0","battery-v0.2","","""event"",""trial"",""time""
""fullscreenenter"",""1"",""4149""
","
","
","""event"",""trial"",""time""
""fullscreenenter"",""1"",""4149""
","
","","","","","","","","","","","","","","","","","","","","","","","","","","",""
"pit-instructions","102","826469","0.0-2.0-19.0","battery-v0.2","","""event"",""trial"",""time""
""fullscreenenter"",""1"",""4149""
","
","
","""event"",""trial"",""time""
""fullscreenenter"",""1"",""4149""
","
","","[{""page_index"":0,""viewing_time"":6645.200000047684},{""page_index"":1,""viewing_time"":7046.399999976158},{""page_index"":2,""viewing_time"":10298.5},{""page_index"":3,""viewing_time"":8486.399999976158},{""page_index"":4,""viewing_time"":8743.5},{""page_index"":5,""viewing_time"":8069.200000047684},{""page_index"":6,""viewing_time"":8855.199999988079},{""page_index"":7,""viewing_time"":7162.800000011921},{""page_index"":8,""viewing_time"":6051.699999988079}]","71359.10000002384","","","","","","","","","","","","","","","","","","","","","","","",""
"pit-comprehension","103","832784","0.0-2.0-20.0-0.0","battery-v0.2","","""event"",""trial"",""time""
""fullscreenenter"",""1"",""4149""
","
","
","""event"",""trial"",""time""
""fullscreenenter"",""1"",""4149""
","
","","","6311.599999964237","[""SPACE""]","0","15","9905","4678","","","","","","","","","","","","","","","","","","",""
"pit-instructions","104","836999","0.0-2.0-20.0-1.0","battery-v0.2","","""event"",""trial"",""time""
""fullscreenenter"",""1"",""4149""
","
","
","""event"",""trial"",""time""
""fullscreenenter"",""1"",""4149""
","
","","[{""page_index"":0,""viewing_time"":4170.599999964237}]","4171.199999988079","","","","","","","","","","","","","","","","","","","","","","","",""
"pit-comprehension","105","841840","0.0-2.0-21.0-0.0","battery-v0.2","","""event"",""trial"",""time""
""fullscreenenter"",""1"",""4149""
","
","
","""event"",""trial"",""time""
""fullscreenenter"",""1"",""4149""
","
","","","4834.800000011921","[""10""]","0","15","9905","4678","","","","","","","","","","","","","","","","","","",""
"pit-instructions","106","843609","0.0-2.0-21.0-1.0","battery-v0.2","","""event"",""trial"",""time""
""fullscreenenter"",""1"",""4149""
","
","
","""event"",""trial"",""time""
""fullscreenenter"",""1"",""4149""
","
","","[{""page_index"":0,""viewing_time"":1746.800000011921}]","1747.5","","","","","","","","","","","","","","","","","","","","","","","",""
"pit-comprehension","107","851359","0.0-2.0-22.0-0.0","battery-v0.2","","""event"",""trial"",""time""
""fullscreenenter"",""1"",""4149""
","
","
","""event"",""trial"",""time""
""fullscreenenter"",""1"",""4149""
","
","","","7743.300000011921","[""0""]","0","15","9905","4678","","","","","","","","","","","","","","","","","","",""
"pit-instructions","108","853093","0.0-2.0-22.0-1.0","battery-v0.2","","""event"",""trial"",""time""
""fullscreenenter"",""1"",""4149""
","
","
","""event"",""trial"",""time""
""fullscreenenter"",""1"",""4149""
","
","","[{""page_index"":0,""viewing_time"":1712.9000000357628}]","1713.5","","","","","","","","","","","","","","","","","","","","","","","",""
"pit-comprehension","109","861815","0.0-2.0-23.0-0.0","battery-v0.2","","""event"",""trial"",""time""
""fullscreenenter"",""1"",""4149""
","
","
","""event"",""trial"",""time""
""fullscreenenter"",""1"",""4149""
","
","","","8717.800000011921","[""True""]","0","15","9905","4678","","","","","","","","","","","","","","","","","","",""
"pit-instructions","110","863482","0.0-2.0-23.0-1.0","battery-v0.2","","""event"",""trial"",""time""
""fullscreenenter"",""1"",""4149""
","
","
","""event"",""trial"",""time""
""fullscreenenter"",""1"",""4149""
","
","","[{""page_index"":0,""viewing_time"":1640.7999999523163}]","1641.199999988079","","","","","","","","","","","","","","","","","","","","","","","",""
"pit-comprehension","111","872653","0.0-2.0-24.0-0.0","battery-v0.2","","""event"",""trial"",""time""
""fullscreenenter"",""1"",""4149""
","
","
","""event"",""trial"",""time""
""fullscreenenter"",""1"",""4149""
","
","","","9167.200000047684","[""True""]","0","15","9905","4678","","","","","","","","","","","","","","","","","","",""
"pit-instructions","112","874337","0.0-2.0-24.0-1.0","battery-v0.2","","""event"",""trial"",""time""
""fullscreenenter"",""1"",""4149""
","
","
","""event"",""trial"",""time""
""fullscreenenter"",""1"",""4149""
","
","","[{""page_index"":0,""viewing_time"":1658.5}]","1659","","","","","","","","","","","","","","","","","","","","","","","",""
"pit-comprehension","113","880898","0.0-2.0-25.0-0.0","battery-v0.2","","""event"",""trial"",""time""
""fullscreenenter"",""1"",""4149""
","
","
","""event"",""trial"",""time""
""fullscreenenter"",""1"",""4149""
","
","","","6556.899999976158","[""True""]","0","15","9905","4678","","","","","","","","","","","","","","","","","","",""
"pit-instructions","114","882594","0.0-2.0-25.0-1.0","battery-v0.2","","""event"",""trial"",""time""
""fullscreenenter"",""1"",""4149""
","
","
","""event"",""trial"",""time""
""fullscreenenter"",""1"",""4149""
","
","","[{""page_index"":0,""viewing_time"":1667.0999999642372}]","1667.699999988079","","","","","","","","","","","","","","","","","","","","","","","",""
"pit-comprehension","115","888491","0.0-2.0-26.0-0.0","battery-v0.2","","""event"",""trial"",""time""
""fullscreenenter"",""1"",""4149""
","
","
","""event"",""trial"",""time""
""fullscreenenter"",""1"",""4149""
","
","","","5893.099999964237","[""True""]","1","15","9905","4678","","","","","","","","","","","","","","","","","","",""
"pit-instructions","116","891195","0.0-2.0-26.0-1.0","battery-v0.2","","""event"",""trial"",""time""
""fullscreenenter"",""1"",""4149""
","
","
","""event"",""trial"",""time""
""fullscreenenter"",""1"",""4149""
","
","","[{""page_index"":0,""viewing_time"":2677.5}]","2678","","","","","","","","","","","","","","","","","","","","","","","",""
"pit-instructions","117","892345","0.0-2.0-26.0-2.0-0.0","battery-v0.2","","""event"",""trial"",""time""
""fullscreenenter"",""1"",""4149""
","
","
","""event"",""trial"",""time""
""fullscreenenter"",""1"",""4149""
","
","","[{""page_index"":0,""viewing_time"":1146.800000011921}]","1147.3999999761581","","","","","","","","","","","","","","","","","","","","","","","",""
"pit-comprehension","118","897060","0.0-2.0-26.1-0.1","battery-v0.2","","""event"",""trial"",""time""
""fullscreenenter"",""1"",""4149""
","
","
","""event"",""trial"",""time""
""fullscreenenter"",""1"",""4149""
","
","","","4711.599999964237","[""False""]","0","15","9905","4678","","","","","","","","","","","","","","","","","","",""
"pit-instructions","119","898739","0.0-2.0-26.1-1.1","battery-v0.2","","""event"",""trial"",""time""
""fullscreenenter"",""1"",""4149""
","
","
","""event"",""trial"",""time""
""fullscreenenter"",""1"",""4149""
","
","","[{""page_index"":0,""viewing_time"":1654.5}]","1655.199999988079","","","","","","","","","","","","","","","","","","","","","","","",""
"pit-instructions","120","917446","0.0-3.0","battery-v0.2","","""event"",""trial"",""time""
""fullscreenenter"",""1"",""4149""
","
","
","""event"",""trial"",""time""
""fullscreenenter"",""1"",""4149""
","
","","[{""page_index"":0,""viewing_time"":4847.5},{""page_index"":1,""viewing_time"":5923.5},{""page_index"":2,""viewing_time"":7933.200000047684}]","18704.80000001192","","","","","","","","","","","","","","","","","","","","","","","",""
"pit-trial","121","921083","0.0-4.0","battery-v0.2","","""event"",""trial"",""time""
""fullscreenenter"",""1"",""4149""
","
","
","""event"",""trial"",""time""
""fullscreenenter"",""1"",""4149""
","
","","","772","","","15","9905","4678","&#9733;","elianto","#3366ff99","-1"," ","0","+10","[1625.6000000238419]","1","1","","","9905","1","2","2","win","no-go","1"
"pit-trial","122","924818","0.0-5.0","battery-v0.2","","""event"",""trial"",""time""
""fullscreenenter"",""1"",""4149""
","
","
","""event"",""trial"",""time""
""fullscreenenter"",""1"",""4149""
","
","","","866.7999999523163","","","15","9905","4678","&#9730;","elianto","#3366ff99"," "," ","1","+10","[1720.199999988079]","1","1","","","9905","2","1","1","win","go","0"
"pit-trial","123","929684","0.0-6.0","battery-v0.2","","""event"",""trial"",""time""
""fullscreenenter"",""1"",""4149""
","
","
","""event"",""trial"",""time""
""fullscreenenter"",""1"",""4149""
","
","","","-1","","","15","9905","4678","&#9752;","elianto","#f73b6a7A"," ","-1","0","-10","[]","0","1","","","9905","3","3","3","lose","go","0"
"pit-trial","124","934553","0.0-7.0","battery-v0.2","","""event"",""trial"",""time""
""fullscreenenter"",""1"",""4149""
","
","
","""event"",""trial"",""time""
""fullscreenenter"",""1"",""4149""
","
","","","-1","","","15","9905","4678","&#9728;","elianto","#f73b6a7A","-1","-1","1","0","[]","0","1","","","9905","4","0","4","lose","no-go","0"
"pit-trial","125","938721","0.0-8.0","battery-v0.2","","""event"",""trial"",""time""
""fullscreenenter"",""1"",""4149""
","
","
","""event"",""trial"",""time""
""fullscreenenter"",""1"",""4149""
","
","","","1299.1000000238419","","","15","9905","4678","&#9752;","elianto","#f73b6a7A"," "," ","1","0","[2149.699999988079]","1","1","","","9905","5","3","3","lose","go","0"
"pit-trial","126","943587","0.0-9.0","battery-v0.2","","""event"",""trial"",""time""
""fullscreenenter"",""1"",""4149""
","
","
","""event"",""trial"",""time""
""fullscreenenter"",""1"",""4149""
","
","","","-1","","","15","9905","4678","&#9728;","elianto","#f73b6a7A","-1","-1","1","0","[]","0","1","","","9905","6","0","4","lose","no-go","0"
"pit-trial","127","947579","0.0-10.0","battery-v0.2","","""event"",""trial"",""time""
""fullscreenenter"",""1"",""4149""
","
","
","""event"",""trial"",""time""
""fullscreenenter"",""1"",""4149""
","
","","","1139.1000000238419","","","15","9905","4678","&#9730;","elianto","#3366ff99"," "," ","1","+10","[1989.5]","1","1","","","9905","7","1","1","win","go","0"
"pit-trial","128","951047","0.0-11.0","battery-v0.2","","""event"",""trial"",""time""
""fullscreenenter"",""1"",""4149""
","
","
","""event"",""trial"",""time""
""fullscreenenter"",""1"",""4149""
","
","","","613.3000000119209","","","15","9905","4678","&#9733;","elianto","#3366ff99","-1"," ","0","0","[1464]","1","1","","","9905","8","2","2","win","no-go","0"
"pit-trial","129","955901","0.0-12.0","battery-v0.2","","""event"",""trial"",""time""
""fullscreenenter"",""1"",""4149""
","
","
","""event"",""trial"",""time""
""fullscreenenter"",""1"",""4149""
","
","","","-1","","","15","9905","4678","&#9728;","elianto","#f73b6a7A","-1","-1","1","0","[]","0","1","","","9905","9","0","4","lose","no-go","0"
"pit-trial","130","959829","0.0-13.0","battery-v0.2","","""event"",""trial"",""time""
""fullscreenenter"",""1"",""4149""
","
","
","""event"",""trial"",""time""
""fullscreenenter"",""1"",""4149""
","
","","","1072","","","15","9905","4678","&#9730;","elianto","#3366ff99"," "," ","1","+10","[1922.3999999761581]","1","1","","","9905","10","1","1","win","go","0"
"pit-trial","131","963703","0.0-14.0","battery-v0.2","","""event"",""trial"",""time""
""fullscreenenter"",""1"",""4149""
","
","
","""event"",""trial"",""time""
""fullscreenenter"",""1"",""4149""
","
","","","1018.3999999761581","","","15","9905","4678","&#9733;","elianto","#3366ff99","-1"," ","0","0","[1869.7999999523163]","1","1","","","9905","11","2","2","win","no-go","0"
"pit-trial","132","968249","0.0-15.0","battery-v0.2","","""event"",""trial"",""time""
""fullscreenenter"",""1"",""4149""
","
","
","""event"",""trial"",""time""
""fullscreenenter"",""1"",""4149""
","
","","","1692.300000011921","","","15","9905","4678","&#9752;","elianto","#f73b6a7A"," "," ","1","0","[2542.899999976158]","1","1","","","9905","12","3","3","lose","go","0"
"pit-trial","133","973103","0.0-16.0","battery-v0.2","","""event"",""trial"",""time""
""fullscreenenter"",""1"",""4149""
","
","
","""event"",""trial"",""time""
""fullscreenenter"",""1"",""4149""
","
","","","-1","","","15","9905","4678","&#9728;","elianto","#f73b6a7A","-1","-1","1","0","[]","0","1","","","9905","13","0","4","lose","no-go","0"
"pit-trial","134","977958","0.0-17.0","battery-v0.2","","""event"",""trial"",""time""
""fullscreenenter"",""1"",""4149""
","
","
","""event"",""trial"",""time""
""fullscreenenter"",""1"",""4149""
","
","","","-1","","","15","9905","4678","&#9733;","elianto","#3366ff99","-1","-1","1","+10","[]","0","1","","","9905","14","2","2","win","no-go","0"
"pit-trial","135","981469","0.0-18.0","battery-v0.2","","""event"",""trial"",""time""
""fullscreenenter"",""1"",""4149""
","
","
","""event"",""trial"",""time""
""fullscreenenter"",""1"",""4149""
","
","","","657.5","","","15","9905","4678","&#9730;","elianto","#3366ff99"," "," ","1","0","[1508]","1","1","","","9905","15","1","1","win","go","1"
"pit-trial","136","986325","0.0-19.0","battery-v0.2","","""event"",""trial"",""time""
""fullscreenenter"",""1"",""4149""
","
","
","""event"",""trial"",""time""
""fullscreenenter"",""1"",""4149""
","
","","","-1","","","15","9905","4678","&#9752;","elianto","#f73b6a7A"," ","-1","0","-10","[]","0","1","","","9905","16","3","3","lose","go","0"
"pit-trial","137","990207","0.0-20.0","battery-v0.2","","""event"",""trial"",""time""
""fullscreenenter"",""1"",""4149""
","
","
","""event"",""trial"",""time""
""fullscreenenter"",""1"",""4149""
","
","","","1028.3999999761581","","","15","9905","4678","&#9730;","elianto","#3366ff99"," "," ","1","+10","[1878.9000000357628]","1","1","","","9905","17","1","1","win","go","0"
"pit-trial","138","995063","0.0-21.0","battery-v0.2","","""event"",""trial"",""time""
""fullscreenenter"",""1"",""4149""
","
","
","""event"",""trial"",""time""
""fullscreenenter"",""1"",""4149""
","
","","","-1","","","15","9905","4678","&#9752;","elianto","#f73b6a7A"," ","-1","0","-10","[]","0","1","","","9905","18","3","3","lose","go","0"
"pit-trial","139","999918","0.0-22.0","battery-v0.2","","""event"",""trial"",""time""
""fullscreenenter"",""1"",""4149""
","
","
","""event"",""trial"",""time""
""fullscreenenter"",""1"",""4149""
","
","","","-1","","","15","9905","4678","&#9728;","elianto","#f73b6a7A","-1","-1","1","0","[]","0","1","","","9905","19","0","4","lose","no-go","0"
"pit-trial","140","1004345","0.0-23.0","battery-v0.2","","""event"",""trial"",""time""
""fullscreenenter"",""1"",""4149""
","
","
","""event"",""trial"",""time""
""fullscreenenter"",""1"",""4149""
","
","","","1572.6000000238419","","","15","9905","4678","&#9733;","elianto","#3366ff99","-1"," ","0","0","[2423.600000023842]","1","1","","","9905","20","2","2","win","no-go","0"
"pit-instructions","141","1018846","0.0-24.0","battery-v0.2","","""event"",""trial"",""time""
""fullscreenenter"",""1"",""4149""
","
","
","""event"",""trial"",""time""
""fullscreenenter"",""1"",""4149""
","
","","[{""page_index"":0,""viewing_time"":5831.800000011921},{""page_index"":1,""viewing_time"":8665.399999976158}]","14497.899999976158","","","","","","","","","","","","","","","","","","","","","","","",""
"pit-trial","142","1023719","0.0-25.0","battery-v0.2","","""event"",""trial"",""time""
""fullscreenenter"",""1"",""4149""
","
","
","""event"",""trial"",""time""
""fullscreenenter"",""1"",""4149""
","
","","","-1","","","15","9905","4678","u","elianto","#f73b6a7A","-1","-1","1","-10","[]","0","2","","","9905","21","0","4","lose","no-go","1"
"pit-trial","143","1027216","0.0-26.0","battery-v0.2","","""event"",""trial"",""time""
""fullscreenenter"",""1"",""4149""
","
","
","""event"",""trial"",""time""
""fullscreenenter"",""1"",""4149""
","
","","","628.1999999880791","","","15","9905","4678","l","elianto","#3366ff99"," "," ","1","+10","[1484.5999999642372]","1","2","","","9905","22","1","1","win","go","0"
"pit-trial","144","1032073","0.0-27.0","battery-v0.2","","""event"",""trial"",""time""
""fullscreenenter"",""1"",""4149""
","
","
","""event"",""trial"",""time""
""fullscreenenter"",""1"",""4149""
","
","","","-1","","","15","9905","4678","g","elianto","#f73b6a7A"," ","-1","0","-10","[]","0","2","","","9905","23","3","3","lose","go","0"
"pit-trial","145","1036941","0.0-28.0","battery-v0.2","","""event"",""trial"",""time""
""fullscreenenter"",""1"",""4149""
","
","
","""event"",""trial"",""time""
""fullscreenenter"",""1"",""4149""
","
","","","-1","","","15","9905","4678","a","elianto","#f73b6a7A","-1","-1","1","0","[]","0","2","","","9905","24","2","4","lose","no-go","0"
"pit-trial","146","1040637","0.0-29.0","battery-v0.2","","""event"",""trial"",""time""
""fullscreenenter"",""1"",""4149""
","
","
","""event"",""trial"",""time""
""fullscreenenter"",""1"",""4149""
","
","","","830","","","15","9905","4678","u","elianto","#f73b6a7A","-1"," ","0","-10","[1682.5]","1","2","","","9905","25","0","4","lose","no-go","0"
"pit-trial","147","1045502","0.0-30.0","battery-v0.2","","""event"",""trial"",""time""
""fullscreenenter"",""1"",""4149""
","
","
","""event"",""trial"",""time""
""fullscreenenter"",""1"",""4149""
","
","","","-1","","","15","9905","4678","a","elianto","#f73b6a7A","-1","-1","1","0","[]","0","2","","","9905","26","2","4","lose","no-go","0"
"pit-trial","148","1050213","0.0-31.0","battery-v0.2","","""event"",""trial"",""time""
""fullscreenenter"",""1"",""4149""
","
","
","""event"",""trial"",""time""
""fullscreenenter"",""1"",""4149""
","
","","","1854.800000011921","","","15","9905","4678","g","elianto","#f73b6a7A"," "," ","1","0","[2707.400000035763]","1","2","","","9905","27","3","3","lose","go","0"
"pit-trial","149","1053861","0.0-32.0","battery-v0.2","","""event"",""trial"",""time""
""fullscreenenter"",""1"",""4149""
","
","
","""event"",""trial"",""time""
""fullscreenenter"",""1"",""4149""
","
","","","793.6000000238419","","","15","9905","4678","l","elianto","#3366ff99"," "," ","1","+10","[1644.300000011921]","1","2","","","9905","28","1","1","win","go","0"
"pit-trial","150","1057919","0.0-33.0","battery-v0.2","","""event"",""trial"",""time""
""fullscreenenter"",""1"",""4149""
","
","
","""event"",""trial"",""time""
""fullscreenenter"",""1"",""4149""
","
","","","1202","","","15","9905","4678","g","elianto","#f73b6a7A"," "," ","1","-10","[2053.300000011921]","1","2","","","9905","29","3","3","lose","go","1"
"pit-trial","151","1062774","0.0-34.0","battery-v0.2","","""event"",""trial"",""time""
""fullscreenenter"",""1"",""4149""
","
","
","""event"",""trial"",""time""
""fullscreenenter"",""1"",""4149""
","
","","","-1","","","15","9905","4678","a","elianto","#f73b6a7A","-1","-1","1","0","[]","0","2","","","9905","30","2","4","lose","no-go","0"
"pit-trial","152","1067628","0.0-35.0","battery-v0.2","","""event"",""trial"",""time""
""fullscreenenter"",""1"",""4149""
","
","
","""event"",""trial"",""time""
""fullscreenenter"",""1"",""4149""
","
","","","-1","","","15","9905","4678","u","elianto","#f73b6a7A","-1","-1","1","0","[]","0","2","","","9905","31","0","4","lose","no-go","0"
"pit-trial","153","1071440","0.0-36.0","battery-v0.2","","""event"",""trial"",""time""
""fullscreenenter"",""1"",""4149""
","
","
","""event"",""trial"",""time""
""fullscreenenter"",""1"",""4149""
","
","","","958.3999999761581","","","15","9905","4678","l","elianto","#3366ff99"," "," ","1","+10","[1808.5999999642372]","1","2","","","9905","32","1","1","win","go","0"
"pit-trial","154","1076296","0.0-37.0","battery-v0.2","","""event"",""trial"",""time""
""fullscreenenter"",""1"",""4149""
","
","
","""event"",""trial"",""time""
""fullscreenenter"",""1"",""4149""
","
","","","-1","","","15","9905","4678","g","elianto","#f73b6a7A"," ","-1","0","-10","[]","0","2","","","9905","33","3","3","lose","go","0"
"pit-trial","155","1081150","0.0-38.0","battery-v0.2","","""event"",""trial"",""time""
""fullscreenenter"",""1"",""4149""
","
","
","""event"",""trial"",""time""
""fullscreenenter"",""1"",""4149""
","
","","","-1","","","15","9905","4678","a","elianto","#f73b6a7A","-1","-1","1","0","[]","0","2","","","9905","34","2","4","lose","no-go","0"
"pit-trial","156","1086004","0.0-39.0","battery-v0.2","","""event"",""trial"",""time""
""fullscreenenter"",""1"",""4149""
","
","
","""event"",""trial"",""time""
""fullscreenenter"",""1"",""4149""
","
","","","-1","","","15","9905","4678","u","elianto","#f73b6a7A","-1","-1","1","0","[]","0","2","","","9905","35","0","4","lose","no-go","0"
"pit-trial","157","1089341","0.0-40.0","battery-v0.2","","""event"",""trial"",""time""
""fullscreenenter"",""1"",""4149""
","
","
","""event"",""trial"",""time""
""fullscreenenter"",""1"",""4149""
","
","","","481.5","","","15","9905","4678","l","elianto","#3366ff99"," "," ","1","+10","[1333]","1","2","","","9905","36","1","1","win","go","0"
"pit-trial","158","1094196","0.0-41.0","battery-v0.2","","""event"",""trial"",""time""
""fullscreenenter"",""1"",""4149""
","
","
","""event"",""trial"",""time""
""fullscreenenter"",""1"",""4149""
","
","","","-1","","","15","9905","4678","a","elianto","#f73b6a7A","-1","-1","1","0","[]","0","2","","","9905","37","2","4","lose","no-go","0"
"pit-trial","159","1097813","0.0-42.0","battery-v0.2","","""event"",""trial"",""time""
""fullscreenenter"",""1"",""4149""
","
","
","""event"",""trial"",""time""
""fullscreenenter"",""1"",""4149""
","
","","","762","","","15","9905","4678","g","elianto","#f73b6a7A"," "," ","1","-10","[1614]","1","2","","","9905","38","3","3","lose","go","1"
"pit-trial","160","1102668","0.0-43.0","battery-v0.2","","""event"",""trial"",""time""
""fullscreenenter"",""1"",""4149""
","
","
","""event"",""trial"",""time""
""fullscreenenter"",""1"",""4149""
","
","","","-1","","","15","9905","4678","u","elianto","#f73b6a7A","-1","-1","1","0","[]","0","2","","","9905","39","0","4","lose","no-go","0"
"pit-trial","161","1106186","0.0-44.0","battery-v0.2","","""event"",""trial"",""time""
""fullscreenenter"",""1"",""4149""
","
","
","""event"",""trial"",""time""
""fullscreenenter"",""1"",""4149""
","
","","","663.1000000238419","","","15","9905","4678","l","elianto","#3366ff99"," "," ","1","+10","[1514]","1","2","","","9905","40","1","1","win","go","0"
"pit-trial","162","1111053","0.0-45.0","battery-v0.2","","""event"",""trial"",""time""
""fullscreenenter"",""1"",""4149""
","
","
","""event"",""trial"",""time""
""fullscreenenter"",""1"",""4149""
","
","","","-1","","","15","9905","4678","a","elianto","#f73b6a7A","-1","-1","1","-10","[]","0","2","","","9905","41","2","4","lose","no-go","1"
"pit-trial","163","1115003","0.0-46.0","battery-v0.2","","""event"",""trial"",""time""
""fullscreenenter"",""1"",""4149""
","
","
","""event"",""trial"",""time""
""fullscreenenter"",""1"",""4149""
","
","","","1094.300000011921","","","15","9905","4678","l","elianto","#3366ff99"," "," ","1","+10","[1945.2000000476837]","1","2","","","9905","42","1","1","win","go","0"
"pit-trial","164","1119857","0.0-47.0","battery-v0.2","","""event"",""trial"",""time""
""fullscreenenter"",""1"",""4149""
","
","
","""event"",""trial"",""time""
""fullscreenenter"",""1"",""4149""
","
","","","-1","","","15","9905","4678","u","elianto","#f73b6a7A","-1","-1","1","-10","[]","0","2","","","9905","43","0","4","lose","no-go","1"
"pit-trial","165","1124194","0.0-48.0","battery-v0.2","","""event"",""trial"",""time""
""fullscreenenter"",""1"",""4149""
","
","
","""event"",""trial"",""time""
""fullscreenenter"",""1"",""4149""
","
","","","1483.800000011921","","","15","9905","4678","g","elianto","#f73b6a7A"," "," ","1","0","[2334.100000023842]","1","2","","","9905","44","3","3","lose","go","0"
"pit-trial","166","1129048","0.0-49.0","battery-v0.2","","""event"",""trial"",""time""
""fullscreenenter"",""1"",""4149""
","
","
","""event"",""trial"",""time""
""fullscreenenter"",""1"",""4149""
","
","","","-1","","","15","9905","4678","g","elianto","#f73b6a7A"," ","-1","0","0","[]","0","2","","","9905","45","3","3","lose","go","1"
"pit-trial","167","1132983","0.0-50.0","battery-v0.2","","""event"",""trial"",""time""
""fullscreenenter"",""1"",""4149""
","
","
","""event"",""trial"",""time""
""fullscreenenter"",""1"",""4149""
","
","","","1080.199999988079","","","15","9905","4678","p","elianto","#3366ff99","-1"," ","0","+10","[1930.3999999761581]","1","2","","","9905","46","4","2","win","no-go","1"
"pit-trial","168","1137736","0.0-51.0","battery-v0.2","","""event"",""trial"",""time""
""fullscreenenter"",""1"",""4149""
","
","
","""event"",""trial"",""time""
""fullscreenenter"",""1"",""4149""
","
","","","1898.7999999523163","","","15","9905","4678","u","elianto","#f73b6a7A","-1"," ","0","-10","[2749.599999964237]","1","2","","","9905","47","0","4","lose","no-go","0"
"pit-trial","169","1142590","0.0-52.0","battery-v0.2","","""event"",""trial"",""time""
""fullscreenenter"",""1"",""4149""
","
","
","""event"",""trial"",""time""
""fullscreenenter"",""1"",""4149""
","
","","","-1","","","15","9905","4678","a","elianto","#f73b6a7A","-1","-1","1","0","[]","0","2","","","9905","48","2","4","lose","no-go","0"
"pit-trial","170","1146188","0.0-53.0","battery-v0.2","","""event"",""trial"",""time""
""fullscreenenter"",""1"",""4149""
","
","
","""event"",""trial"",""time""
""fullscreenenter"",""1"",""4149""
","
","","","744.3000000119209","","","15","9905","4678","l","elianto","#3366ff99"," "," ","1","0","[1594.7000000476837]","1","2","","","9905","49","1","1","win","go","1"
"pit-trial","171","1150864","0.0-54.0","battery-v0.2","","""event"",""trial"",""time""
""fullscreenenter"",""1"",""4149""
","
","
","""event"",""trial"",""time""
""fullscreenenter"",""1"",""4149""
","
","","","1823.1000000238419","","","15","9905","4678","g","elianto","#f73b6a7A"," "," ","1","0","[2673.199999988079]","1","2","","","9905","50","3","3","lose","go","0"
"pit-trial","172","1155721","0.0-55.0","battery-v0.2","","""event"",""trial"",""time""
""fullscreenenter"",""1"",""4149""
","
","
","""event"",""trial"",""time""
""fullscreenenter"",""1"",""4149""
","
","","","-1","","","15","9905","4678","u","elianto","#f73b6a7A","-1","-1","1","0","[]","0","2","","","9905","51","0","4","lose","no-go","0"
"pit-trial","173","1159421","0.0-56.0","battery-v0.2","","""event"",""trial"",""time""
""fullscreenenter"",""1"",""4149""
","
","
","""event"",""trial"",""time""
""fullscreenenter"",""1"",""4149""
","
","","","845.6000000238419","","","15","9905","4678","p","elianto","#3366ff99","-1"," ","0","+10","[1695.5999999642372]","1","2","","","9905","52","4","2","win","no-go","1"
"pit-trial","174","1164276","0.0-57.0","battery-v0.2","","""event"",""trial"",""time""
""fullscreenenter"",""1"",""4149""
","
","
","""event"",""trial"",""time""
""fullscreenenter"",""1"",""4149""
","
","","","-1","","","15","9905","4678","u","elianto","#f73b6a7A","-1","-1","1","-10","[]","0","2","","","9905","53","0","4","lose","no-go","1"
"pit-trial","175","1167930","0.0-58.0","battery-v0.2","","""event"",""trial"",""time""
""fullscreenenter"",""1"",""4149""
","
","
","""event"",""trial"",""time""
""fullscreenenter"",""1"",""4149""
","
","","","799.7000000476837","","","15","9905","4678","l","elianto","#3366ff99"," "," ","1","+10","[1650.800000011921]","1","2","","","9905","54","1","1","win","go","0"
"pit-trial","176","1172786","0.0-59.0","battery-v0.2","","""event"",""trial"",""time""
""fullscreenenter"",""1"",""4149""
","
","
","""event"",""trial"",""time""
""fullscreenenter"",""1"",""4149""
","
","","","-1","","","15","9905","4678","a","elianto","#f73b6a7A","-1","-1","1","0","[]","0","2","","","9905","55","2","4","lose","no-go","0"
"pit-trial","177","1176481","0.0-60.0","battery-v0.2","","""event"",""trial"",""time""
""fullscreenenter"",""1"",""4149""
","
","
","""event"",""trial"",""time""
""fullscreenenter"",""1"",""4149""
","
","","","840.3999999761581","","","15","9905","4678","p","elianto","#3366ff99","-1"," ","0","0","[1690.8999999761581]","1","2","","","9905","56","4","2","win","no-go","0"
"pit-trial","178","1180620","0.0-61.0","battery-v0.2","","""event"",""trial"",""time""
""fullscreenenter"",""1"",""4149""
","
","
","""event"",""trial"",""time""
""fullscreenenter"",""1"",""4149""
","
","","","1284","","","15","9905","4678","p","elianto","#3366ff99","-1"," ","0","0","[2135]","1","2","","","9905","57","4","2","win","no-go","0"
"pit-trial","179","1185476","0.0-62.0","battery-v0.2","","""event"",""trial"",""time""
""fullscreenenter"",""1"",""4149""
","
","
","""event"",""trial"",""time""
""fullscreenenter"",""1"",""4149""
","
","","","-1","","","15","9905","4678","u","elianto","#f73b6a7A","-1","-1","1","-10","[]","0","2","","","9905","58","0","4","lose","no-go","1"
"pit-trial","180","1188880","0.0-63.0","battery-v0.2","","""event"",""trial"",""time""
""fullscreenenter"",""1"",""4149""
","
","
","""event"",""trial"",""time""
""fullscreenenter"",""1"",""4149""
","
","","","550.3000000119209","","","15","9905","4678","l","elianto","#3366ff99"," "," ","1","+10","[1400.9000000357628]","1","2","","","9905","59","1","1","win","go","0"
"pit-trial","181","1193429","0.0-64.0","battery-v0.2","","""event"",""trial"",""time""
""fullscreenenter"",""1"",""4149""
","
","
","""event"",""trial"",""time""
""fullscreenenter"",""1"",""4149""
","
","","","1694.8999999761581","","","15","9905","4678","g","elianto","#f73b6a7A"," "," ","1","0","[2546.199999988079]","1","2","","","9905","60","3","3","lose","go","0"
"pit-trial","182","1197336","0.0-65.0","battery-v0.2","","""event"",""trial"",""time""
""fullscreenenter"",""1"",""4149""
","
","
","""event"",""trial"",""time""
""fullscreenenter"",""1"",""4149""
","
","","","1052.199999988079","","","15","9905","4678","p","elianto","#3366ff99","-1"," ","0","+10","[1902.8999999761581]","1","2","","","9905","61","4","2","win","no-go","1"
"pit-trial","183","1202189","0.0-66.0","battery-v0.2","","""event"",""trial"",""time""
""fullscreenenter"",""1"",""4149""
","
","
","""event"",""trial"",""time""
""fullscreenenter"",""1"",""4149""
","
","","","-1","","","15","9905","4678","a","elianto","#f73b6a7A","-1","-1","1","0","[]","0","2","","","9905","62","2","4","lose","no-go","0"
"pit-trial","184","1205751","0.0-67.0","battery-v0.2","","""event"",""trial"",""time""
""fullscreenenter"",""1"",""4149""
","
","
","""event"",""trial"",""time""
""fullscreenenter"",""1"",""4149""
","
","","","706.8000000119209","","","15","9905","4678","l","elianto","#3366ff99"," "," ","1","+10","[1557.4000000357628]","1","2","","","9905","63","1","1","win","go","0"
"pit-trial","185","1210252","0.0-68.0","battery-v0.2","","""event"",""trial"",""time""
""fullscreenenter"",""1"",""4149""
","
","
","""event"",""trial"",""time""
""fullscreenenter"",""1"",""4149""
","
","","","1646.3999999761581","","","15","9905","4678","g","elianto","#f73b6a7A"," "," ","1","0","[2498.2999999523163]","1","2","","","9905","64","3","3","lose","go","0"
"pit-trial","186","1213987","0.0-69.0","battery-v0.2","","""event"",""trial"",""time""
""fullscreenenter"",""1"",""4149""
","
","
","""event"",""trial"",""time""
""fullscreenenter"",""1"",""4149""
","
","","","881.1000000238419","","","15","9905","4678","p","elianto","#3366ff99","-1"," ","0","+10","[1731.7999999523163]","1","2","","","9905","65","4","2","win","no-go","1"
"pit-trial","187","1217490","0.0-70.0","battery-v0.2","","""event"",""trial"",""time""
""fullscreenenter"",""1"",""4149""
","
","
","""event"",""trial"",""time""
""fullscreenenter"",""1"",""4149""
","
","","","648","","","15","9905","4678","l","elianto","#3366ff99"," "," ","1","+10","[1499.8999999761581]","1","2","","","9905","66","1","1","win","go","0"
"pit-trial","188","1222346","0.0-71.0","battery-v0.2","","""event"",""trial"",""time""
""fullscreenenter"",""1"",""4149""
","
","
","""event"",""trial"",""time""
""fullscreenenter"",""1"",""4149""
","
","","","-1","","","15","9905","4678","a","elianto","#f73b6a7A","-1","-1","1","-10","[]","0","2","","","9905","67","2","4","lose","no-go","1"
"pit-trial","189","1226087","0.0-72.0","battery-v0.2","","""event"",""trial"",""time""
""fullscreenenter"",""1"",""4149""
","
","
","""event"",""trial"",""time""
""fullscreenenter"",""1"",""4149""
","
","","","887","","","15","9905","4678","g","elianto","#f73b6a7A"," "," ","1","0","[1737.3999999761581]","1","2","","","9905","68","3","3","lose","go","0"
"pit-trial","190","1230386","0.0-73.0","battery-v0.2","","""event"",""trial"",""time""
""fullscreenenter"",""1"",""4149""
","
","
","""event"",""trial"",""time""
""fullscreenenter"",""1"",""4149""
","
","","","1444.199999988079","","","15","9905","4678","g","elianto","#f73b6a7A"," "," ","1","0","[2296.199999988079]","1","2","","","9905","69","3","3","lose","go","0"
"pit-trial","191","1234162","0.0-74.0","battery-v0.2","","""event"",""trial"",""time""
""fullscreenenter"",""1"",""4149""
","
","
","""event"",""trial"",""time""
""fullscreenenter"",""1"",""4149""
","
","","","920.4000000357628","","","15","9905","4678","s","elianto","#3366ff99"," "," ","1","+10","[1771.5999999642372]","1","2","","","9905","70","5","1","win","go","0"
"pit-trial","192","1237739","0.0-75.0","battery-v0.2","","""event"",""trial"",""time""
""fullscreenenter"",""1"",""4149""
","
","
","""event"",""trial"",""time""
""fullscreenenter"",""1"",""4149""
","
","","","722","","","15","9905","4678","l","elianto","#3366ff99"," "," ","1","0","[1572.199999988079]","1","2","","","9905","71","1","1","win","go","1"
"pit-trial","193","1241552","0.0-76.0","battery-v0.2","","""event"",""trial"",""time""
""fullscreenenter"",""1"",""4149""
","
","
","""event"",""trial"",""time""
""fullscreenenter"",""1"",""4149""
","
","","","957.1999999880791","","","15","9905","4678","p","elianto","#3366ff99","-1"," ","0","0","[1808.8999999761581]","1","2","","","9905","72","4","2","win","no-go","0"
"pit-trial","194","1245158","0.0-77.0","battery-v0.2","","""event"",""trial"",""time""
""fullscreenenter"",""1"",""4149""
","
","
","""event"",""trial"",""time""
""fullscreenenter"",""1"",""4149""
","
","","","750.1000000238419","","","15","9905","4678","l","elianto","#3366ff99"," "," ","1","+10","[1602.300000011921]","1","2","","","9905","73","1","1","win","go","0"
"pit-trial","195","1248650","0.0-78.0","battery-v0.2","","""event"",""trial"",""time""
""fullscreenenter"",""1"",""4149""
","
","
","""event"",""trial"",""time""
""fullscreenenter"",""1"",""4149""
","
","","","639.3000000119209","","","15","9905","4678","s","elianto","#3366ff99"," "," ","1","+10","[1489.5]","1","2","","","9905","74","5","1","win","go","0"
"pit-trial","196","1252329","0.0-79.0","battery-v0.2","","""event"",""trial"",""time""
""fullscreenenter"",""1"",""4149""
","
","
","""event"",""trial"",""time""
""fullscreenenter"",""1"",""4149""
","
","","","824.8000000119209","","","15","9905","4678","p","elianto","#3366ff99","-1"," ","0","0","[1675.300000011921]","1","2","","","9905","75","4","2","win","no-go","0"
"pit-trial","197","1255910","0.0-80.0","battery-v0.2","","""event"",""trial"",""time""
""fullscreenenter"",""1"",""4149""
","
","
","""event"",""trial"",""time""
""fullscreenenter"",""1"",""4149""
","
","","","727.0999999642372","","","15","9905","4678","g","elianto","#f73b6a7A"," "," ","1","0","[1577.800000011921]","1","2","","","9905","76","3","3","lose","go","0"
"pit-trial","198","1259608","0.0-81.0","battery-v0.2","","""event"",""trial"",""time""
""fullscreenenter"",""1"",""4149""
","
","
","""event"",""trial"",""time""
""fullscreenenter"",""1"",""4149""
","
","","","844.5999999642372","","","15","9905","4678","p","elianto","#3366ff99","-1"," ","0","0","[1694.7999999523163]","1","2","","","9905","77","4","2","win","no-go","0"
"pit-trial","199","1264463","0.0-82.0","battery-v0.2","","""event"",""trial"",""time""
""fullscreenenter"",""1"",""4149""
","
","
","""event"",""trial"",""time""
""fullscreenenter"",""1"",""4149""
","
","","","-1","","","15","9905","4678","w","elianto","#f73b6a7A","-1","-1","1","-10","[]","0","2","","","9905","78","6","4","lose","no-go","1"
"pit-trial","200","1268104","0.0-83.0","battery-v0.2","","""event"",""trial"",""time""
""fullscreenenter"",""1"",""4149""
","
","
","""event"",""trial"",""time""
""fullscreenenter"",""1"",""4149""
","
","","","787.7000000476837","","","15","9905","4678","g","elianto","#f73b6a7A"," "," ","1","0","[1637.699999988079]","1","2","","","9905","79","3","3","lose","go","0"
"pit-trial","201","1271506","0.0-84.0","battery-v0.2","","""event"",""trial"",""time""
""fullscreenenter"",""1"",""4149""
","
","
","""event"",""trial"",""time""
""fullscreenenter"",""1"",""4149""
","
","","","547.3000000119209","","","15","9905","4678","s","elianto","#3366ff99"," "," ","1","+10","[1397.5999999642372]","1","2","","","9905","80","5","1","win","go","0"
"pit-trial","202","1276361","0.0-85.0","battery-v0.2","","""event"",""trial"",""time""
""fullscreenenter"",""1"",""4149""
","
","
","""event"",""trial"",""time""
""fullscreenenter"",""1"",""4149""
","
","","","-1","","","15","9905","4678","p","elianto","#3366ff99","-1","-1","1","+10","[]","0","2","","","9905","81","4","2","win","no-go","0"
"pit-trial","203","1279935","0.0-86.0","battery-v0.2","","""event"",""trial"",""time""
""fullscreenenter"",""1"",""4149""
","
","
","""event"",""trial"",""time""
""fullscreenenter"",""1"",""4149""
","
","","","720","","","15","9905","4678","s","elianto","#3366ff99"," "," ","1","+10","[1570.4000000357628]","1","2","","","9905","82","5","1","win","go","0"
"pit-trial","204","1283834","0.0-87.0","battery-v0.2","","""event"",""trial"",""time""
""fullscreenenter"",""1"",""4149""
","
","
","""event"",""trial"",""time""
""fullscreenenter"",""1"",""4149""
","
","","","1045.8999999761581","","","15","9905","4678","w","elianto","#f73b6a7A","-1"," ","0","-10","[1896.0999999642372]","1","2","","","9905","83","6","4","lose","no-go","0"
"pit-trial","205","1288689","0.0-88.0","battery-v0.2","","""event"",""trial"",""time""
""fullscreenenter"",""1"",""4149""
","
","
","""event"",""trial"",""time""
""fullscreenenter"",""1"",""4149""
","
","","","-1","","","15","9905","4678","e","elianto","#f73b6a7A"," ","-1","0","0","[]","0","2","","","9905","84","7","3","lose","go","1"
"pit-trial","206","1292874","0.0-89.0","battery-v0.2","","""event"",""trial"",""time""
""fullscreenenter"",""1"",""4149""
","
","
","""event"",""trial"",""time""
""fullscreenenter"",""1"",""4149""
","
","","","1331","","","15","9905","4678","s","elianto","#3366ff99"," "," ","1","+10","[2181.099999964237]","1","2","","","9905","85","5","1","win","go","0"
"pit-trial","207","1297729","0.0-90.0","battery-v0.2","","""event"",""trial"",""time""
""fullscreenenter"",""1"",""4149""
","
","
","""event"",""trial"",""time""
""fullscreenenter"",""1"",""4149""
","
","","","-1","","","15","9905","4678","p","elianto","#3366ff99","-1","-1","1","+10","[]","0","2","","","9905","86","4","2","win","no-go","0"
"pit-trial","208","1302582","0.0-91.0","battery-v0.2","","""event"",""trial"",""time""
""fullscreenenter"",""1"",""4149""
","
","
","""event"",""trial"",""time""
""fullscreenenter"",""1"",""4149""
","
","","","-1","","","15","9905","4678","w","elianto","#f73b6a7A","-1","-1","1","0","[]","0","2","","","9905","87","6","4","lose","no-go","0"
"pit-trial","209","1307358","0.0-92.0","battery-v0.2","","""event"",""trial"",""time""
""fullscreenenter"",""1"",""4149""
","
","
","""event"",""trial"",""time""
""fullscreenenter"",""1"",""4149""
","
","","","1920.6000000238419","","","15","9905","4678","e","elianto","#f73b6a7A"," "," ","1","-10","[2771.600000023842]","1","2","","","9905","88","7","3","lose","go","1"
"pit-trial","210","1311194","0.0-93.0","battery-v0.2","","""event"",""trial"",""time""
""fullscreenenter"",""1"",""4149""
","
","
","""event"",""trial"",""time""
""fullscreenenter"",""1"",""4149""
","
","","","980.6999999880791","","","15","9905","4678","s","elianto","#3366ff99"," "," ","1","0","[1832.5]","1","2","","","9905","89","5","1","win","go","1"
"pit-trial","211","1316049","0.0-94.0","battery-v0.2","","""event"",""trial"",""time""
""fullscreenenter"",""1"",""4149""
","
","
","""event"",""trial"",""time""
""fullscreenenter"",""1"",""4149""
","
","","","-1","","","15","9905","4678","e","elianto","#f73b6a7A"," ","-1","0","-10","[]","0","2","","","9905","90","7","3","lose","go","0"
"pit-trial","212","1320903","0.0-95.0","battery-v0.2","","""event"",""trial"",""time""
""fullscreenenter"",""1"",""4149""
","
","
","""event"",""trial"",""time""
""fullscreenenter"",""1"",""4149""
","
","","","-1","","","15","9905","4678","p","elianto","#3366ff99","-1","-1","1","+10","[]","0","2","","","9905","91","4","2","win","no-go","0"
"pit-trial","213","1325072","0.0-96.0","battery-v0.2","","""event"",""trial"",""time""
""fullscreenenter"",""1"",""4149""
","
","
","""event"",""trial"",""time""
""fullscreenenter"",""1"",""4149""
","
","","","1313.3999999761581","","","15","9905","4678","w","elianto","#f73b6a7A","-1"," ","0","-10","[2164.100000023842]","1","2","","","9905","92","6","4","lose","no-go","0"
"pit-trial","214","1328750","0.0-97.0","battery-v0.2","","""event"",""trial"",""time""
""fullscreenenter"",""1"",""4149""
","
","
","""event"",""trial"",""time""
""fullscreenenter"",""1"",""4149""
","
","","","824.7000000476837","","","15","9905","4678","d","elianto","#3366ff99","-1"," ","0","0","[1675.300000011921]","1","2","","","9905","93","8","2","win","no-go","0"
"pit-trial","215","1333606","0.0-98.0","battery-v0.2","","""event"",""trial"",""time""
""fullscreenenter"",""1"",""4149""
","
","
","""event"",""trial"",""time""
""fullscreenenter"",""1"",""4149""
","
","","","-1","","","15","9905","4678","e","elianto","#f73b6a7A"," ","-1","0","-10","[]","0","2","","","9905","94","7","3","lose","go","0"
"pit-trial","216","1337169","0.0-99.0","battery-v0.2","","""event"",""trial"",""time""
""fullscreenenter"",""1"",""4149""
","
","
","""event"",""trial"",""time""
""fullscreenenter"",""1"",""4149""
","
","","","708.5","","","15","9905","4678","s","elianto","#3366ff99"," "," ","1","+10","[1559]","1","2","","","9905","95","5","1","win","go","0"
"pit-trial","217","1342024","0.0-100.0","battery-v0.2","","""event"",""trial"",""time""
""fullscreenenter"",""1"",""4149""
","
","
","""event"",""trial"",""time""
""fullscreenenter"",""1"",""4149""
","
","","","-1","","","15","9905","4678","w","elianto","#f73b6a7A","-1","-1","1","0","[]","0","2","","","9905","96","6","4","lose","no-go","0"
"pit-trial","218","1345978","0.0-101.0","battery-v0.2","","""event"",""trial"",""time""
""fullscreenenter"",""1"",""4149""
","
","
","""event"",""trial"",""time""
""fullscreenenter"",""1"",""4149""
","
","","","1098.3999999761581","","","15","9905","4678","s","elianto","#3366ff99"," "," ","1","+10","[1948.7999999523163]","1","2","","","9905","97","5","1","win","go","0"
"pit-trial","219","1349931","0.0-102.0","battery-v0.2","","""event"",""trial"",""time""
""fullscreenenter"",""1"",""4149""
","
","
","""event"",""trial"",""time""
""fullscreenenter"",""1"",""4149""
","
","","","1098.5999999642372","","","15","9905","4678","d","elianto","#3366ff99","-1"," ","0","+10","[1950.2999999523163]","1","2","","","9905","98","8","2","win","no-go","1"
"pit-trial","220","1354786","0.0-103.0","battery-v0.2","","""event"",""trial"",""time""
""fullscreenenter"",""1"",""4149""
","
","
","""event"",""trial"",""time""
""fullscreenenter"",""1"",""4149""
","
","","","-1","","","15","9905","4678","w","elianto","#f73b6a7A","-1","-1","1","0","[]","0","2","","","9905","99","6","4","lose","no-go","0"
"pit-trial","221","1359640","0.0-104.0","battery-v0.2","","""event"",""trial"",""time""
""fullscreenenter"",""1"",""4149""
","
","
","""event"",""trial"",""time""
""fullscreenenter"",""1"",""4149""
","
","","","-1","","","15","9905","4678","e","elianto","#f73b6a7A"," ","-1","0","-10","[]","0","2","","","9905","100","7","3","lose","go","0"
"pit-trial","222","1364495","0.0-105.0","battery-v0.2","","""event"",""trial"",""time""
""fullscreenenter"",""1"",""4149""
","
","
","""event"",""trial"",""time""
""fullscreenenter"",""1"",""4149""
","
","","","-1","","","15","9905","4678","w","elianto","#f73b6a7A","-1","-1","1","0","[]","0","2","","","9905","101","6","4","lose","no-go","0"
"pit-trial","223","1368079","0.0-106.0","battery-v0.2","","""event"",""trial"",""time""
""fullscreenenter"",""1"",""4149""
","
","
","""event"",""trial"",""time""
""fullscreenenter"",""1"",""4149""
","
","","","728.5","","","15","9905","4678","d","elianto","#3366ff99","-1"," ","0","0","[1579.5]","1","2","","","9905","102","8","2","win","no-go","0"
"pit-trial","224","1371573","0.0-107.0","battery-v0.2","","""event"",""trial"",""time""
""fullscreenenter"",""1"",""4149""
","
","
","""event"",""trial"",""time""
""fullscreenenter"",""1"",""4149""
","
","","","637.4000000357628","","","15","9905","4678","s","elianto","#3366ff99"," "," ","1","+10","[1489.5]","1","2","","","9905","103","5","1","win","go","0"
"pit-trial","225","1375498","0.0-108.0","battery-v0.2","","""event"",""trial"",""time""
""fullscreenenter"",""1"",""4149""
","
","
","""event"",""trial"",""time""
""fullscreenenter"",""1"",""4149""
","
","","","1072.1000000238419","","","15","9905","4678","j","elianto","#3366ff99","-1"," ","0","0","[1922.1000000238419]","1","2","","","9905","104","9","2","win","no-go","0"
"pit-trial","226","1379200","0.0-109.0","battery-v0.2","","""event"",""trial"",""time""
""fullscreenenter"",""1"",""4149""
","
","
","""event"",""trial"",""time""
""fullscreenenter"",""1"",""4149""
","
","","","847","","","15","9905","4678","s","elianto","#3366ff99"," "," ","1","+10","[1697.800000011921]","1","2","","","9905","105","5","1","win","go","0"
"pit-trial","227","1384055","0.0-110.0","battery-v0.2","","""event"",""trial"",""time""
""fullscreenenter"",""1"",""4149""
","
","
","""event"",""trial"",""time""
""fullscreenenter"",""1"",""4149""
","
","","","-1","","","15","9905","4678","d","elianto","#3366ff99","-1","-1","1","0","[]","0","2","","","9905","106","8","2","win","no-go","1"
"pit-trial","228","1388911","0.0-111.0","battery-v0.2","","""event"",""trial"",""time""
""fullscreenenter"",""1"",""4149""
","
","
","""event"",""trial"",""time""
""fullscreenenter"",""1"",""4149""
","
","","","-1","","","15","9905","4678","w","elianto","#f73b6a7A","-1","-1","1","0","[]","0","2","","","9905","107","6","4","lose","no-go","0"
"pit-trial","229","1392677","0.0-112.0","battery-v0.2","","""event"",""trial"",""time""
""fullscreenenter"",""1"",""4149""
","
","
","""event"",""trial"",""time""
""fullscreenenter"",""1"",""4149""
","
","","","910.1000000238419","","","15","9905","4678","j","elianto","#3366ff99","-1"," ","0","0","[1761.699999988079]","1","2","","","9905","108","9","2","win","no-go","0"
"pit-trial","230","1397531","0.0-113.0","battery-v0.2","","""event"",""trial"",""time""
""fullscreenenter"",""1"",""4149""
","
","
","""event"",""trial"",""time""
""fullscreenenter"",""1"",""4149""
","
","","","-1","","","15","9905","4678","w","elianto","#f73b6a7A","-1","-1","1","-10","[]","0","2","","","9905","109","6","4","lose","no-go","1"
"pit-trial","231","1401214","0.0-114.0","battery-v0.2","","""event"",""trial"",""time""
""fullscreenenter"",""1"",""4149""
","
","
","""event"",""trial"",""time""
""fullscreenenter"",""1"",""4149""
","
","","","827.9000000357628","","","15","9905","4678","s","elianto","#3366ff99"," "," ","1","0","[1679]","1","2","","","9905","110","5","1","win","go","1"
"pit-trial","232","1405474","0.0-115.0","battery-v0.2","","""event"",""trial"",""time""
""fullscreenenter"",""1"",""4149""
","
","
","""event"",""trial"",""time""
""fullscreenenter"",""1"",""4149""
","
","","","1404.8999999761581","","","15","9905","4678","j","elianto","#3366ff99","-1"," ","0","0","[2257.399999976158]","1","2","","","9905","111","9","2","win","no-go","0"
"pit-trial","233","1410190","0.0-116.0","battery-v0.2","","""event"",""trial"",""time""
""fullscreenenter"",""1"",""4149""
","
","
","""event"",""trial"",""time""
""fullscreenenter"",""1"",""4149""
","
","","","1859.8999999761581","","","15","9905","4678","d","elianto","#3366ff99","-1"," ","0","0","[2710.7000000476837]","1","2","","","9905","112","8","2","win","no-go","0"
"pit-trial","234","1415043","0.0-117.0","battery-v0.2","","""event"",""trial"",""time""
""fullscreenenter"",""1"",""4149""
","
","
","""event"",""trial"",""time""
""fullscreenenter"",""1"",""4149""
","
","","","-1","","","15","9905","4678","d","elianto","#3366ff99","-1","-1","1","+10","[]","0","2","","","9905","113","8","2","win","no-go","0"
"pit-trial","235","1419899","0.0-118.0","battery-v0.2","","""event"",""trial"",""time""
""fullscreenenter"",""1"",""4149""
","
","
","""event"",""trial"",""time""
""fullscreenenter"",""1"",""4149""
","
","","","-1","","","15","9905","4678","j","elianto","#3366ff99","-1","-1","1","+10","[]","0","2","","","9905","114","9","2","win","no-go","0"
"pit-trial","236","1424480","0.0-119.0","battery-v0.2","","""event"",""trial"",""time""
""fullscreenenter"",""1"",""4149""
","
","
","""event"",""trial"",""time""
""fullscreenenter"",""1"",""4149""
","
","","","1725.2000000476837","","","15","9905","4678","s","elianto","#3366ff99"," "," ","1","0","[2575.800000011921]","1","2","","","9905","115","5","1","win","go","1"
"pit-trial","237","1429335","0.0-120.0","battery-v0.2","","""event"",""trial"",""time""
""fullscreenenter"",""1"",""4149""
","
","
","""event"",""trial"",""time""
""fullscreenenter"",""1"",""4149""
","
","","","-1","","","15","9905","4678","e","elianto","#f73b6a7A"," ","-1","0","-10","[]","0","2","","","9905","116","7","3","lose","go","0"
"pit-trial","238","1434074","0.0-121.0","battery-v0.2","","""event"",""trial"",""time""
""fullscreenenter"",""1"",""4149""
","
","
","""event"",""trial"",""time""
""fullscreenenter"",""1"",""4149""
","
","","","1875.1000000238419","","","15","9905","4678","d","elianto","#3366ff99","-1"," ","0","0","[2726.199999988079]","1","2","","","9905","117","8","2","win","no-go","0"
"pit-trial","239","1438932","0.0-122.0","battery-v0.2","","""event"",""trial"",""time""
""fullscreenenter"",""1"",""4149""
","
","
","""event"",""trial"",""time""
""fullscreenenter"",""1"",""4149""
","
","","","-1","","","15","9905","4678","j","elianto","#3366ff99","-1","-1","1","+10","[]","0","2","","","9905","118","9","2","win","no-go","0"
"pit-trial","240","1443788","0.0-123.0","battery-v0.2","","""event"",""trial"",""time""
""fullscreenenter"",""1"",""4149""
","
","
","""event"",""trial"",""time""
""fullscreenenter"",""1"",""4149""
","
","","","-1","","","15","9905","4678","w","elianto","#f73b6a7A","-1","-1","1","0","[]","0","2","","","9905","119","6","4","lose","no-go","0"
"pit-trial","241","1448643","0.0-124.0","battery-v0.2","","""event"",""trial"",""time""
""fullscreenenter"",""1"",""4149""
","
","
","""event"",""trial"",""time""
""fullscreenenter"",""1"",""4149""
","
","","","-1","","","15","9905","4678","s","elianto","#3366ff99"," ","-1","0","0","[]","0","2","","","9905","120","5","1","win","go","0"
"pit-trial","242","1452931","0.0-125.0","battery-v0.2","","""event"",""trial"",""time""
""fullscreenenter"",""1"",""4149""
","
","
","""event"",""trial"",""time""
""fullscreenenter"",""1"",""4149""
","
","","","1433.5999999642372","","","15","9905","4678","d","elianto","#3366ff99","-1"," ","0","0","[2283.899999976158]","1","2","","","9905","121","8","2","win","no-go","0"
"pit-trial","243","1457786","0.0-126.0","battery-v0.2","","""event"",""trial"",""time""
""fullscreenenter"",""1"",""4149""
","
","
","""event"",""trial"",""time""
""fullscreenenter"",""1"",""4149""
","
","","","-1","","","15","9905","4678","s","elianto","#3366ff99"," ","-1","0","+10","[]","0","2","","","9905","122","5","1","win","go","1"
"pit-trial","244","1462641","0.0-127.0","battery-v0.2","","""event"",""trial"",""time""
""fullscreenenter"",""1"",""4149""
","
","
","""event"",""trial"",""time""
""fullscreenenter"",""1"",""4149""
","
","","","-1","","","15","9905","4678","j","elianto","#3366ff99","-1","-1","1","+10","[]","0","2","","","9905","123","9","2","win","no-go","0"
"pit-trial","245","1467499","0.0-128.0","battery-v0.2","","""event"",""trial"",""time""
""fullscreenenter"",""1"",""4149""
","
","
","""event"",""trial"",""time""
""fullscreenenter"",""1"",""4149""
","
","","","-1","","","15","9905","4678","e","elianto","#f73b6a7A"," ","-1","0","-10","[]","0","2","","","9905","124","7","3","lose","go","0"
"pit-trial","246","1472353","0.0-129.0","battery-v0.2","","""event"",""trial"",""time""
""fullscreenenter"",""1"",""4149""
","
","
","""event"",""trial"",""time""
""fullscreenenter"",""1"",""4149""
","
","","","-1","","","15","9905","4678","j","elianto","#3366ff99","-1","-1","1","+10","[]","0","2","","","9905","125","9","2","win","no-go","0"
"pit-trial","247","1476756","0.0-130.0","battery-v0.2","","""event"",""trial"",""time""
""fullscreenenter"",""1"",""4149""
","
","
","""event"",""trial"",""time""
""fullscreenenter"",""1"",""4149""
","
","","","1549.7000000476837","","","15","9905","4678","w","elianto","#f73b6a7A","-1"," ","0","-10","[2400.100000023842]","1","2","","","9905","126","6","4","lose","no-go","0"
"pit-trial","248","1481612","0.0-131.0","battery-v0.2","","""event"",""trial"",""time""
""fullscreenenter"",""1"",""4149""
","
","
","""event"",""trial"",""time""
""fullscreenenter"",""1"",""4149""
","
","","","-1","","","15","9905","4678","d","elianto","#3366ff99","-1","-1","1","+10","[]","0","2","","","9905","127","8","2","win","no-go","0"
"pit-trial","249","1486468","0.0-132.0","battery-v0.2","","""event"",""trial"",""time""
""fullscreenenter"",""1"",""4149""
","
","
","""event"",""trial"",""time""
""fullscreenenter"",""1"",""4149""
","
","","","-1","","","15","9905","4678","e","elianto","#f73b6a7A"," ","-1","0","-10","[]","0","2","","","9905","128","7","3","lose","go","0"
"pit-trial","250","1491323","0.0-133.0","battery-v0.2","","""event"",""trial"",""time""
""fullscreenenter"",""1"",""4149""
","
","
","""event"",""trial"",""time""
""fullscreenenter"",""1"",""4149""
","
","","","-1","","","15","9905","4678","j","elianto","#3366ff99","-1","-1","1","+10","[]","0","2","","","9905","129","9","2","win","no-go","0"
"pit-trial","251","1495302","0.0-134.0","battery-v0.2","","""event"",""trial"",""time""
""fullscreenenter"",""1"",""4149""
","
","
","""event"",""trial"",""time""
""fullscreenenter"",""1"",""4149""
","
","","","1122.4000000357628","","","15","9905","4678","e","elianto","#f73b6a7A"," "," ","1","0","[1974.699999988079]","1","2","","","9905","130","7","3","lose","go","0"
"pit-trial","252","1500157","0.0-135.0","battery-v0.2","","""event"",""trial"",""time""
""fullscreenenter"",""1"",""4149""
","
","
","""event"",""trial"",""time""
""fullscreenenter"",""1"",""4149""
","
","","","-1","","","15","9905","4678","d","elianto","#3366ff99","-1","-1","1","+10","[]","0","2","","","9905","131","8","2","win","no-go","0"
"pit-trial","253","1505012","0.0-136.0","battery-v0.2","","""event"",""trial"",""time""
""fullscreenenter"",""1"",""4149""
","
","
","""event"",""trial"",""time""
""fullscreenenter"",""1"",""4149""
","
","","","-1","","","15","9905","4678","w","elianto","#f73b6a7A","-1","-1","1","0","[]","0","2","","","9905","132","6","4","lose","no-go","0"
"pit-trial","254","1509867","0.0-137.0","battery-v0.2","","""event"",""trial"",""time""
""fullscreenenter"",""1"",""4149""
","
","
","""event"",""trial"",""time""
""fullscreenenter"",""1"",""4149""
","
","","","-1","","","15","9905","4678","j","elianto","#3366ff99","-1","-1","1","0","[]","0","2","","","9905","133","9","2","win","no-go","1"
"pit-trial","255","1513939","0.0-138.0","battery-v0.2","","""event"",""trial"",""time""
""fullscreenenter"",""1"",""4149""
","
","
","""event"",""trial"",""time""
""fullscreenenter"",""1"",""4149""
","
","","","1214.300000011921","","","15","9905","4678","e","elianto","#f73b6a7A"," "," ","1","0","[2064.900000035763]","1","2","","","9905","134","7","3","lose","go","0"
"pit-trial","256","1518792","0.0-139.0","battery-v0.2","","""event"",""trial"",""time""
""fullscreenenter"",""1"",""4149""
","
","
","""event"",""trial"",""time""
""fullscreenenter"",""1"",""4149""
","
","","","-1","","","15","9905","4678","d","elianto","#3366ff99","-1","-1","1","+10","[]","0","2","","","9905","135","8","2","win","no-go","0"
"pit-trial","257","1523647","0.0-140.0","battery-v0.2","","""event"",""trial"",""time""
""fullscreenenter"",""1"",""4149""
","
","
","""event"",""trial"",""time""
""fullscreenenter"",""1"",""4149""
","
","","","-1","","","15","9905","4678","w","elianto","#f73b6a7A","-1","-1","1","-10","[]","0","2","","","9905","136","6","4","lose","no-go","1"
"pit-trial","258","1527088","0.0-141.0","battery-v0.2","","""event"",""trial"",""time""
""fullscreenenter"",""1"",""4149""
","
","
","""event"",""trial"",""time""
""fullscreenenter"",""1"",""4149""
","
","","","587.6999999880791","","","15","9905","4678","e","elianto","#f73b6a7A"," "," ","1","0","[1437.699999988079]","1","2","","","9905","137","7","3","lose","go","0"
"pit-trial","259","1530734","0.0-142.0","battery-v0.2","","""event"",""trial"",""time""
""fullscreenenter"",""1"",""4149""
","
","
","""event"",""trial"",""time""
""fullscreenenter"",""1"",""4149""
","
","","","792.9000000357628","","","15","9905","4678","j","elianto","#3366ff99","-1"," ","0","0","[1644]","1","2","","","9905","138","9","2","win","no-go","0"
"pit-trial","260","1535437","0.0-143.0","battery-v0.2","","""event"",""trial"",""time""
""fullscreenenter"",""1"",""4149""
","
","
","""event"",""trial"",""time""
""fullscreenenter"",""1"",""4149""
","
","","","1849.699999988079","","","15","9905","4678","w","elianto","#f73b6a7A","-1"," ","0","-10","[2700.900000035763]","1","2","","","9905","139","6","4","lose","no-go","0"
"pit-trial","261","1540289","0.0-144.0","battery-v0.2","","""event"",""trial"",""time""
""fullscreenenter"",""1"",""4149""
""blur"",""262"",""1843578""
""focus"",""262"",""1942669""
","""event"",""trial"",""time""
""blur"",""262"",""1843578""
","""event"",""trial"",""time""
""focus"",""262"",""1942669""
","""event"",""trial"",""time""
""fullscreenenter"",""1"",""4149""
","
","","","-1","","","15","9905","4678","d","elianto","#3366ff99","-1","-1","1","+10","[]","0","2","","","9905","140","8","2","win","no-go","0"
"pit-instructions","262","2108469","0.0-145.0","battery-v0.2","","""event"",""trial"",""time""
""fullscreenenter"",""1"",""4149""
""blur"",""262"",""1843578""
""focus"",""262"",""1942669""
","""event"",""trial"",""time""
""blur"",""262"",""1843578""
","""event"",""trial"",""time""
""focus"",""262"",""1942669""
","""event"",""trial"",""time""
""fullscreenenter"",""1"",""4149""
","
","","[{""page_index"":0,""viewing_time"":558979.4000000358},{""page_index"":1,""viewing_time"":9198.099999964237}]","568178.3000000119","","","","","","","","","","","","","","","","","","","","","","","",""
"pit-trial","263","2113341","0.0-146.0","battery-v0.2","","""event"",""trial"",""time""
""fullscreenenter"",""1"",""4149""
""blur"",""262"",""1843578""
""focus"",""262"",""1942669""
","""event"",""trial"",""time""
""blur"",""262"",""1843578""
","""event"",""trial"",""time""
""focus"",""262"",""1942669""
","""event"",""trial"",""time""
""fullscreenenter"",""1"",""4149""
","
","","","-1","","","15","9905","4678","h","elianto","#f73b6a7A","-1","-1","1","-10","[]","0","3","","","9905","141","3","4","lose","no-go","1"
"pit-trial","264","2118205","0.0-147.0","battery-v0.2","","""event"",""trial"",""time""
""fullscreenenter"",""1"",""4149""
""blur"",""262"",""1843578""
""focus"",""262"",""1942669""
","""event"",""trial"",""time""
""blur"",""262"",""1843578""
","""event"",""trial"",""time""
""focus"",""262"",""1942669""
","""event"",""trial"",""time""
""fullscreenenter"",""1"",""4149""
","
","","","-1","","","15","9905","4678","y","elianto","#f73b6a7A"," ","-1","0","-10","[]","0","3","","","9905","142","2","3","lose","go","0"
"pit-trial","265","2123072","0.0-148.0","battery-v0.2","","""event"",""trial"",""time""
""fullscreenenter"",""1"",""4149""
""blur"",""262"",""1843578""
""focus"",""262"",""1942669""
","""event"",""trial"",""time""
""blur"",""262"",""1843578""
","""event"",""trial"",""time""
""focus"",""262"",""1942669""
","""event"",""trial"",""time""
""fullscreenenter"",""1"",""4149""
","
","","","-1","","","15","9905","4678","m","elianto","#f73b6a7A"," ","-1","0","-10","[]","0","3","","","9905","143","0","3","lose","go","0"
"pit-trial","266","2126538","0.0-149.0","battery-v0.2","","""event"",""trial"",""time""
