"trial_type","trial_index","time_elapsed","internal_node_id","task_version","subject_id","interactions","blur_events","focus_events","fullscreenenter_events","fullscreenexit_events","success","view_history","rt","responses","num_errors","age","subject","participantId","rune","rune_set","hex","correct","choice","accuracy","outcome","keys","total_keys","block","practice","value","sub","trial","stimulus","robot","valence","action","sham"
"pavlovia","0","10","0.0-0.0","battery-v0.2","","""event"",""trial"",""time""
""fullscreenenter"",""1"",""4108""
","
","
","""event"",""trial"",""time""
""fullscreenenter"",""1"",""4108""
","
","","","","","","","","","","","","","","","","","","","","","","","","","","",""
"fullscreen","1","5089","0.0-1.0","battery-v0.2","","""event"",""trial"",""time""
""fullscreenenter"",""1"",""4108""
","
","
","""event"",""trial"",""time""
""fullscreenenter"",""1"",""4108""
","
","true","","","","","","","","","","","","","","","","","","","","","","","","","",""
"pit-instructions","2","8940","0.0-2.0-0.0","battery-v0.2","","""event"",""trial"",""time""
""fullscreenenter"",""1"",""4108""
","
","
","""event"",""trial"",""time""
""fullscreenenter"",""1"",""4108""
","
","","[{""page_index"":0,""viewing_time"":3847.5}]","3847.7999999523163","","","","","","","","","","","","","","","","","","","","","","","",""
"pit-comprehension","3","11238","0.0-2.0-1.0-0.0","battery-v0.2","","""event"",""trial"",""time""
""fullscreenenter"",""1"",""4108""
","
","
","""event"",""trial"",""time""
""fullscreenenter"",""1"",""4108""
","
","","","2296","[""shark""]","0","21","5874","2451","","","","","","","","","","","","","","","","","","",""
"pit-instructions","4","12354","0.0-2.0-1.0-1.0","battery-v0.2","","""event"",""trial"",""time""
""fullscreenenter"",""1"",""4108""
","
","
","""event"",""trial"",""time""
""fullscreenenter"",""1"",""4108""
","
","","[{""page_index"":0,""viewing_time"":1106.300000011921}]","1106.5","","","","","","","","","","","","","","","","","","","","","","","",""
"pit-comprehension","5","14901","0.0-2.0-2.0-0.0","battery-v0.2","","""event"",""trial"",""time""
""fullscreenenter"",""1"",""4108""
","
","
","""event"",""trial"",""time""
""fullscreenenter"",""1"",""4108""
","
","","","2545.400000035763","[""tiger""]","0","21","5874","2451","","","","","","","","","","","","","","","","","","",""
"pit-instructions","6","15838","0.0-2.0-2.0-1.0","battery-v0.2","","""event"",""trial"",""time""
""fullscreenenter"",""1"",""4108""
","
","
","""event"",""trial"",""time""
""fullscreenenter"",""1"",""4108""
","
","","[{""page_index"":0,""viewing_time"":934.5}]","934.8000000119209","","","","","","","","","","","","","","","","","","","","","","","",""
"pit-instructions","7","119377","0.0-2.0-3.0","battery-v0.2","","""event"",""trial"",""time""
""fullscreenenter"",""1"",""4108""
","
","
","""event"",""trial"",""time""
""fullscreenenter"",""1"",""4108""
","
","","[{""page_index"":0,""viewing_time"":16732.80000001192},{""page_index"":1,""viewing_time"":6873.099999964237},{""page_index"":2,""viewing_time"":6940.900000035763},{""page_index"":3,""viewing_time"":5171},{""page_index"":4,""viewing_time"":5859.299999952316},{""page_index"":5,""viewing_time"":5647.600000023842},{""page_index"":6,""viewing_time"":7012.100000023842},{""page_index"":7,""viewing_time"":6432},{""page_index"":8,""viewing_time"":6742},{""page_index"":9,""viewing_time"":8000.099999964237},{""page_index"":10,""viewing_time"":7381.800000011921},{""page_index"":11,""viewing_time"":8978.199999988079},{""page_index"":12,""viewing_time"":6166.900000035763},{""page_index"":13,""viewing_time"":5599}]","103537.30000001192","","","","","","","","","","","","","","","","","","","","","","","",""
"pit-trial","8","122899","0.0-2.0-4.0-0.0","battery-v0.2","","""event"",""trial"",""time""
""fullscreenenter"",""1"",""4108""
","
","
","""event"",""trial"",""time""
""fullscreenenter"",""1"",""4108""
","
","","","650.6999999880791","","","21","5874","2451","&#9784;","elianto","#FFFFF080"," "," ","1","&#10004","[1501.300000011921]","1","0","0","","","","","","","",""
"pit-trial","9","126360","0.0-2.0-4.1-0.1","battery-v0.2","","""event"",""trial"",""time""
""fullscreenenter"",""1"",""4108""
","
","
","""event"",""trial"",""time""
""fullscreenenter"",""1"",""4108""
","
","","","600","","","21","5874","2451","&#9784;","elianto","#FFFFF080"," "," ","1","&#10004","[1457.6000000238419]","1","0","0","","","","","","","",""
"pit-trial","10","129756","0.0-2.0-4.2-0.2","battery-v0.2","","""event"",""trial"",""time""
""fullscreenenter"",""1"",""4108""
","
","
","""event"",""trial"",""time""
""fullscreenenter"",""1"",""4108""
","
","","","525.5","","","21","5874","2451","&#9784;","elianto","#FFFFF080"," "," ","1","&#10004","[1387.4000000357628]","1","0","0","","","","","","","",""
"pit-trial","11","133366","0.0-2.0-4.3-0.3","battery-v0.2","","""event"",""trial"",""time""
""fullscreenenter"",""1"",""4108""
","
","
","""event"",""trial"",""time""
""fullscreenenter"",""1"",""4108""
","
","","","737.1000000238419","","","21","5874","2451","&#9784;","elianto","#FFFFF080"," "," ","1","&#10004","[1600.199999988079]","1","0","0","","","","","","","",""
"pit-trial","12","136757","0.0-2.0-4.4-0.4","battery-v0.2","","""event"",""trial"",""time""
""fullscreenenter"",""1"",""4108""
","
","
","""event"",""trial"",""time""
""fullscreenenter"",""1"",""4108""
","
","","","527","","","21","5874","2451","&#9784;","elianto","#FFFFF080"," "," ","1","&#10004","[1378.3999999761581]","1","0","0","","","","","","","",""
"pit-instructions","13","162814","0.0-2.0-5.0","battery-v0.2","","""event"",""trial"",""time""
""fullscreenenter"",""1"",""4108""
","
","
","""event"",""trial"",""time""
""fullscreenenter"",""1"",""4108""
","
","","[{""page_index"":0,""viewing_time"":5320.800000011921},{""page_index"":1,""viewing_time"":7053.899999976158},{""page_index"":2,""viewing_time"":6410.100000023842},{""page_index"":3,""viewing_time"":7270.599999964237}]","26055.599999964237","","","","","","","","","","","","","","","","","","","","","","","",""
"pit-trial","14","167681","0.0-2.0-6.0-0.0","battery-v0.2","","""event"",""trial"",""time""
""fullscreenenter"",""1"",""4108""
","
","
","""event"",""trial"",""time""
""fullscreenenter"",""1"",""4108""
","
","","","-1","","","21","5874","2451","&#9854;","elianto","#FFFFF080","-1","-1","1","&#10004","[]","0","0","1","","","","","","","",""
"pit-trial","15","172546","0.0-2.0-6.1-0.1","battery-v0.2","","""event"",""trial"",""time""
""fullscreenenter"",""1"",""4108""
","
","
","""event"",""trial"",""time""
""fullscreenenter"",""1"",""4108""
","
","","","-1","","","21","5874","2451","&#9854;","elianto","#FFFFF080","-1","-1","1","&#10004","[]","0","0","1","","","","","","","",""
"pit-trial","16","177410","0.0-2.0-6.2-0.2","battery-v0.2","","""event"",""trial"",""time""
""fullscreenenter"",""1"",""4108""
","
","
","""event"",""trial"",""time""
""fullscreenenter"",""1"",""4108""
","
","","","-1","","","21","5874","2451","&#9854;","elianto","#FFFFF080","-1","-1","1","&#10004","[]","0","0","1","","","","","","","",""
"pit-trial","17","182292","0.0-2.0-6.3-0.3","battery-v0.2","","""event"",""trial"",""time""
""fullscreenenter"",""1"",""4108""
","
","
","""event"",""trial"",""time""
""fullscreenenter"",""1"",""4108""
","
","","","-1","","","21","5874","2451","&#9854;","elianto","#FFFFF080","-1","-1","1","&#10004","[]","0","0","1","","","","","","","",""
"pit-trial","18","187178","0.0-2.0-6.4-0.4","battery-v0.2","","""event"",""trial"",""time""
""fullscreenenter"",""1"",""4108""
","
","
","""event"",""trial"",""time""
""fullscreenenter"",""1"",""4108""
","
","","","-1","","","21","5874","2451","&#9854;","elianto","#FFFFF080","-1","-1","1","&#10004","[]","0","0","1","","","","","","","",""
"pit-instructions","19","320222","0.0-2.0-7.0","battery-v0.2","","""event"",""trial"",""time""
""fullscreenenter"",""1"",""4108""
","
","
","""event"",""trial"",""time""
""fullscreenenter"",""1"",""4108""
","
","","[{""page_index"":0,""viewing_time"":7827.100000023842},{""page_index"":1,""viewing_time"":7170.199999988079},{""page_index"":2,""viewing_time"":6429.300000011921},{""page_index"":3,""viewing_time"":6711.599999964237},{""page_index"":4,""viewing_time"":5529},{""page_index"":5,""viewing_time"":6374.100000023842},{""page_index"":6,""viewing_time"":5232.800000011921},{""page_index"":7,""viewing_time"":10106},{""page_index"":8,""viewing_time"":7650},{""page_index"":9,""viewing_time"":5702.099999964237},{""page_index"":10,""viewing_time"":7510.100000023842},{""page_index"":11,""viewing_time"":6934},{""page_index"":12,""viewing_time"":12048.800000011921},{""page_index"":13,""viewing_time"":6448.899999976158},{""page_index"":14,""viewing_time"":7829.300000011921},{""page_index"":15,""viewing_time"":7753.800000011921},{""page_index"":16,""viewing_time"":6646.899999976158},{""page_index"":17,""viewing_time"":9137.800000011921}]","133042.30000001192","","","","","","","","","","","","","","","","","","","","","","","",""
"pit-trial","20","323561","0.0-2.0-8.0-0.0","battery-v0.2","","""event"",""trial"",""time""
""fullscreenenter"",""1"",""4108""
","
","
","""event"",""trial"",""time""
""fullscreenenter"",""1"",""4108""
","
","","","457.19999998807907","","","21","5874","2451","&#9776;","elianto","#3366ff99"," "," ","1","+10","[1320.300000011921]","1","0","1","","","","","","","",""
"pit-trial","21","326678","0.0-2.0-8.0-1.0","battery-v0.2","","""event"",""trial"",""time""
""fullscreenenter"",""1"",""4108""
","
","
","""event"",""trial"",""time""
""fullscreenenter"",""1"",""4108""
","
","","","245.5999999642372","","","21","5874","2451","&#9776;","elianto","#3366ff99"," "," ","1","+10","[1100.199999988079]","1","0","1","","","","","","","",""
"pit-trial","22","329883","0.0-2.0-8.0-2.0","battery-v0.2","","""event"",""trial"",""time""
""fullscreenenter"",""1"",""4108""
","
","
","""event"",""trial"",""time""
""fullscreenenter"",""1"",""4108""
","
","","","334","","","21","5874","2451","&#9776;","elianto","#3366ff99"," "," ","1","+10","[1185.5]","1","0","1","","","","","","","",""
"pit-trial","23","332883","0.0-2.0-8.0-3.0","battery-v0.2","","""event"",""trial"",""time""
""fullscreenenter"",""1"",""4108""
","
","
","""event"",""trial"",""time""
""fullscreenenter"",""1"",""4108""
","
","","","130.39999997615814","","","21","5874","2451","&#9776;","elianto","#3366ff99"," "," ","1","0","[991.5]","1","0","1","","","","","","","",""
"pit-trial","24","335956","0.0-2.0-8.0-4.0","battery-v0.2","","""event"",""trial"",""time""
""fullscreenenter"",""1"",""4108""
","
","
","""event"",""trial"",""time""
""fullscreenenter"",""1"",""4108""
","
","","","205","","","21","5874","2451","&#9776;","elianto","#3366ff99"," "," ","1","+10","[1063.4000000357628]","1","0","1","","","","","","","",""
"pit-trial","25","339183","0.0-2.0-8.1-0.1","battery-v0.2","","""event"",""trial"",""time""
""fullscreenenter"",""1"",""4108""
","
","
","""event"",""trial"",""time""
""fullscreenenter"",""1"",""4108""
","
","","","358.60000002384186","","","21","5874","2451","&#9776;","elianto","#3366ff99"," "," ","1","+10","[1209.0999999642372]","1","0","1","","","","","","","",""
"pit-trial","26","342197","0.0-2.0-8.1-1.1","battery-v0.2","","""event"",""trial"",""time""
""fullscreenenter"",""1"",""4108""
","
","
","""event"",""trial"",""time""
""fullscreenenter"",""1"",""4108""
","
","","","145.60000002384186","","","21","5874","2451","&#9776;","elianto","#3366ff99"," "," ","1","+10","[998.0999999642372]","1","0","1","","","","","","","",""
"pit-trial","27","345194","0.0-2.0-8.1-2.1","battery-v0.2","","""event"",""trial"",""time""
""fullscreenenter"",""1"",""4108""
","
","
","""event"",""trial"",""time""
""fullscreenenter"",""1"",""4108""
","
","","","125.10000002384186","","","21","5874","2451","&#9776;","elianto","#3366ff99"," "," ","1","+10","[978.0999999642372]","1","0","1","","","","","","","",""
"pit-trial","28","348367","0.0-2.0-8.1-3.1","battery-v0.2","","""event"",""trial"",""time""
""fullscreenenter"",""1"",""4108""
","
","
","""event"",""trial"",""time""
""fullscreenenter"",""1"",""4108""
","
","","","310.5999999642372","","","21","5874","2451","&#9776;","elianto","#3366ff99"," "," ","1","0","[1163.8999999761581]","1","0","1","","","","","","","",""
"pit-trial","29","351456","0.0-2.0-8.1-4.1","battery-v0.2","","""event"",""trial"",""time""
""fullscreenenter"",""1"",""4108""
","
","
","""event"",""trial"",""time""
""fullscreenenter"",""1"",""4108""
","
","","","228.10000002384186","","","21","5874","2451","&#9776;","elianto","#3366ff99"," "," ","1","+10","[1083.9000000357628]","1","0","1","","","","","","","",""
"pit-trial","30","354504","0.0-2.0-8.2-0.2","battery-v0.2","","""event"",""trial"",""time""
""fullscreenenter"",""1"",""4108""
","
","
","""event"",""trial"",""time""
""fullscreenenter"",""1"",""4108""
","
","","","186.39999997615814","","","21","5874","2451","&#9776;","elianto","#3366ff99"," "," ","1","+10","[1038.7999999523163]","1","0","1","","","","","","","",""
"pit-trial","31","357768","0.0-2.0-8.2-1.2","battery-v0.2","","""event"",""trial"",""time""
""fullscreenenter"",""1"",""4108""
","
","
","""event"",""trial"",""time""
""fullscreenenter"",""1"",""4108""
","
","","","402.80000001192093","","","21","5874","2451","&#9776;","elianto","#3366ff99"," "," ","1","+10","[1255.300000011921]","1","0","1","","","","","","","",""
"pit-trial","32","360744","0.0-2.0-8.2-2.2","battery-v0.2","","""event"",""trial"",""time""
""fullscreenenter"",""1"",""4108""
","
","
","""event"",""trial"",""time""
""fullscreenenter"",""1"",""4108""
","
","","","115.09999996423721","","","21","5874","2451","&#9776;","elianto","#3366ff99"," "," ","1","+10","[967,2494.400000035763]","2","0","1","","","","","","","",""
"pit-trial","33","363632","0.0-2.0-8.2-3.2","battery-v0.2","","""event"",""trial"",""time""
""fullscreenenter"",""1"",""4108""
","
","
","""event"",""trial"",""time""
""fullscreenenter"",""1"",""4108""
","
","","","27.099999964237213","","","21","5874","2451","&#9776;","elianto","#3366ff99"," "," ","1","0","[373.2000000476837,881.8000000119209,1930]","3","0","1","","","","","","","",""
"pit-trial","34","366576","0.0-2.0-8.2-4.2","battery-v0.2","","""event"",""trial"",""time""
""fullscreenenter"",""1"",""4108""
","
","
","""event"",""trial"",""time""
""fullscreenenter"",""1"",""4108""
","
","","","84.29999995231628","","","21","5874","2451","&#9776;","elianto","#3366ff99"," "," ","1","+10","[736.3999999761581,936.0999999642372,1170.300000011921]","3","0","1","","","","","","","",""
"call-function","35","366577","0.0-2.0-9.0","battery-v0.2","","""event"",""trial"",""time""
""fullscreenenter"",""1"",""4108""
","
","
","""event"",""trial"",""time""
""fullscreenenter"",""1"",""4108""
","
","","","","","","","","","","","","","","","","","","","","","","","","","","",""
"pit-instructions","36","408281","0.0-2.0-10.0","battery-v0.2","","""event"",""trial"",""time""
""fullscreenenter"",""1"",""4108""
","
","
","""event"",""trial"",""time""
""fullscreenenter"",""1"",""4108""
","
","","[{""page_index"":0,""viewing_time"":5823},{""page_index"":1,""viewing_time"":7354.899999976158},{""page_index"":2,""viewing_time"":9483.100000023842},{""page_index"":3,""viewing_time"":8940},{""page_index"":4,""viewing_time"":10101.699999988079}]","41703","","","","","","","","","","","","","","","","","","","","","","","",""
"pit-trial","37","413155","0.0-2.0-11.0-0.0","battery-v0.2","","""event"",""trial"",""time""
""fullscreenenter"",""1"",""4108""
","
","
","""event"",""trial"",""time""
""fullscreenenter"",""1"",""4108""
","
","","","-1","","","21","5874","2451","&#9761;","elianto","#3366ff99","-1","-1","1","+10","[]","0","0","2","","","","","","","",""
"pit-trial","38","418018","0.0-2.0-11.0-1.0","battery-v0.2","","""event"",""trial"",""time""
""fullscreenenter"",""1"",""4108""
","
","
","""event"",""trial"",""time""
""fullscreenenter"",""1"",""4108""
","
","","","-1","","","21","5874","2451","&#9761;","elianto","#3366ff99","-1","-1","1","+10","[]","0","0","2","","","","","","","",""
"pit-trial","39","422902","0.0-2.0-11.0-2.0","battery-v0.2","","""event"",""trial"",""time""
""fullscreenenter"",""1"",""4108""
","
","
","""event"",""trial"",""time""
""fullscreenenter"",""1"",""4108""
","
","","","-1","","","21","5874","2451","&#9761;","elianto","#3366ff99","-1","-1","1","+10","[]","0","0","2","","","","","","","",""
"pit-trial","40","426878","0.0-2.0-11.0-3.0","battery-v0.2","","""event"",""trial"",""time""
""fullscreenenter"",""1"",""4108""
","
","
","""event"",""trial"",""time""
""fullscreenenter"",""1"",""4108""
","
","","","1103.300000011921","","","21","5874","2451","&#9761;","elianto","#3366ff99","-1"," ","0","+10","[1960.5]","1","0","2","","","","","","","",""
"pit-trial","41","431744","0.0-2.0-11.0-4.0","battery-v0.2","","""event"",""trial"",""time""
""fullscreenenter"",""1"",""4108""
","
","
","""event"",""trial"",""time""
""fullscreenenter"",""1"",""4108""
","
","","","-1","","","21","5874","2451","&#9761;","elianto","#3366ff99","-1","-1","1","+10","[]","0","0","2","","","","","","","",""
"pit-trial","42","436600","0.0-2.0-11.1-0.1","battery-v0.2","","""event"",""trial"",""time""
""fullscreenenter"",""1"",""4108""
","
","
","""event"",""trial"",""time""
""fullscreenenter"",""1"",""4108""
","
","","","-1","","","21","5874","2451","&#9761;","elianto","#3366ff99","-1","-1","1","+10","[]","0","0","2","","","","","","","",""
"pit-trial","43","441464","0.0-2.0-11.1-1.1","battery-v0.2","","""event"",""trial"",""time""
""fullscreenenter"",""1"",""4108""
","
","
","""event"",""trial"",""time""
""fullscreenenter"",""1"",""4108""
","
","","","-1","","","21","5874","2451","&#9761;","elianto","#3366ff99","-1","-1","1","+10","[]","0","0","2","","","","","","","",""
"pit-trial","44","446327","0.0-2.0-11.1-2.1","battery-v0.2","","""event"",""trial"",""time""
""fullscreenenter"",""1"",""4108""
","
","
","""event"",""trial"",""time""
""fullscreenenter"",""1"",""4108""
","
","","","-1","","","21","5874","2451","&#9761;","elianto","#3366ff99","-1","-1","1","+10","[]","0","0","2","","","","","","","",""
"pit-trial","45","451191","0.0-2.0-11.1-3.1","battery-v0.2","","""event"",""trial"",""time""
""fullscreenenter"",""1"",""4108""
","
","
","""event"",""trial"",""time""
""fullscreenenter"",""1"",""4108""
","
","","","-1","","","21","5874","2451","&#9761;","elianto","#3366ff99","-1","-1","1","0","[]","0","0","2","","","","","","","",""
"pit-trial","46","456056","0.0-2.0-11.1-4.1","battery-v0.2","","""event"",""trial"",""time""
""fullscreenenter"",""1"",""4108""
","
","
","""event"",""trial"",""time""
""fullscreenenter"",""1"",""4108""
","
","","","-1","","","21","5874","2451","&#9761;","elianto","#3366ff99","-1","-1","1","+10","[]","0","0","2","","","","","","","",""
"pit-trial","47","460920","0.0-2.0-11.2-0.2","battery-v0.2","","""event"",""trial"",""time""
""fullscreenenter"",""1"",""4108""
","
","
","""event"",""trial"",""time""
""fullscreenenter"",""1"",""4108""
","
","","","-1","","","21","5874","2451","&#9761;","elianto","#3366ff99","-1","-1","1","+10","[]","0","0","2","","","","","","","",""
"pit-trial","48","465784","0.0-2.0-11.2-1.2","battery-v0.2","","""event"",""trial"",""time""
""fullscreenenter"",""1"",""4108""
","
","
","""event"",""trial"",""time""
""fullscreenenter"",""1"",""4108""
","
","","","-1","","","21","5874","2451","&#9761;","elianto","#3366ff99","-1","-1","1","+10","[]","0","0","2","","","","","","","",""
"pit-trial","49","470647","0.0-2.0-11.2-2.2","battery-v0.2","","""event"",""trial"",""time""
""fullscreenenter"",""1"",""4108""
","
","
","""event"",""trial"",""time""
""fullscreenenter"",""1"",""4108""
","
","","","-1","","","21","5874","2451","&#9761;","elianto","#3366ff99","-1","-1","1","+10","[]","0","0","2","","","","","","","",""
"pit-trial","50","475511","0.0-2.0-11.2-3.2","battery-v0.2","","""event"",""trial"",""time""
""fullscreenenter"",""1"",""4108""
","
","
","""event"",""trial"",""time""
""fullscreenenter"",""1"",""4108""
","
","","","-1","","","21","5874","2451","&#9761;","elianto","#3366ff99","-1","-1","1","0","[]","0","0","2","","","","","","","",""
"pit-trial","51","480384","0.0-2.0-11.2-4.2","battery-v0.2","","""event"",""trial"",""time""
""fullscreenenter"",""1"",""4108""
","
","
","""event"",""trial"",""time""
""fullscreenenter"",""1"",""4108""
","
","","","-1","","","21","5874","2451","&#9761;","elianto","#3366ff99","-1","-1","1","+10","[]","0","0","2","","","","","","","",""
"pit-trial","52","485248","0.0-2.0-11.3-0.3","battery-v0.2","","""event"",""trial"",""time""
""fullscreenenter"",""1"",""4108""
","
","
","""event"",""trial"",""time""
""fullscreenenter"",""1"",""4108""
","
","","","-1","","","21","5874","2451","&#9761;","elianto","#3366ff99","-1","-1","1","+10","[]","0","0","2","","","","","","","",""
"pit-trial","53","490112","0.0-2.0-11.3-1.3","battery-v0.2","","""event"",""trial"",""time""
""fullscreenenter"",""1"",""4108""
","
","
","""event"",""trial"",""time""
""fullscreenenter"",""1"",""4108""
","
","","","-1","","","21","5874","2451","&#9761;","elianto","#3366ff99","-1","-1","1","+10","[]","0","0","2","","","","","","","",""
"pit-trial","54","494977","0.0-2.0-11.3-2.3","battery-v0.2","","""event"",""trial"",""time""
""fullscreenenter"",""1"",""4108""
","
","
","""event"",""trial"",""time""
""fullscreenenter"",""1"",""4108""
","
","","","-1","","","21","5874","2451","&#9761;","elianto","#3366ff99","-1","-1","1","+10","[]","0","0","2","","","","","","","",""
"pit-trial","55","499840","0.0-2.0-11.3-3.3","battery-v0.2","","""event"",""trial"",""time""
""fullscreenenter"",""1"",""4108""
","
","
","""event"",""trial"",""time""
""fullscreenenter"",""1"",""4108""
","
","","","-1","","","21","5874","2451","&#9761;","elianto","#3366ff99","-1","-1","1","0","[]","0","0","2","","","","","","","",""
"pit-trial","56","504703","0.0-2.0-11.3-4.3","battery-v0.2","","""event"",""trial"",""time""
""fullscreenenter"",""1"",""4108""
","
","
","""event"",""trial"",""time""
""fullscreenenter"",""1"",""4108""
","
","","","-1","","","21","5874","2451","&#9761;","elianto","#3366ff99","-1","-1","1","+10","[]","0","0","2","","","","","","","",""
"call-function","57","504704","0.0-2.0-12.0","battery-v0.2","","""event"",""trial"",""time""
""fullscreenenter"",""1"",""4108""
","
","
","""event"",""trial"",""time""
""fullscreenenter"",""1"",""4108""
","
","","","","","","","","","","","","","","","","","","","","","","","","","","",""
"pit-instructions","58","558556","0.0-2.0-13.0","battery-v0.2","","""event"",""trial"",""time""
""fullscreenenter"",""1"",""4108""
","
","
","""event"",""trial"",""time""
""fullscreenenter"",""1"",""4108""
","
","","[{""page_index"":0,""viewing_time"":8119.900000035763},{""page_index"":1,""viewing_time"":15167.699999988079},{""page_index"":2,""viewing_time"":3044},{""page_index"":3,""viewing_time"":16654.899999976158},{""page_index"":4,""viewing_time"":10865.100000023842}]","53851.90000003576","","","","","","","","","","","","","","","","","","","","","","","",""
"pit-trial","59","562139","0.0-2.0-14.0-0.0","battery-v0.2","","""event"",""trial"",""time""
""fullscreenenter"",""1"",""4108""
","
","
","""event"",""trial"",""time""
""fullscreenenter"",""1"",""4108""
","
","","","711.6999999880791","","","21","5874","2451","&#9826;","elianto","#f73b6a7A","-1"," ","0","-10","[1566.699999988079]","1","0","3","","","","","","","",""
"pit-trial","60","567013","0.0-2.0-14.0-1.0","battery-v0.2","","""event"",""trial"",""time""
""fullscreenenter"",""1"",""4108""
","
","
","""event"",""trial"",""time""
""fullscreenenter"",""1"",""4108""
","
","","","-1","","","21","5874","2451","&#9826;","elianto","#f73b6a7A","-1","-1","1","0","[]","0","0","3","","","","","","","",""
"pit-trial","61","571880","0.0-2.0-14.0-2.0","battery-v0.2","","""event"",""trial"",""time""
""fullscreenenter"",""1"",""4108""
","
","
","""event"",""trial"",""time""
""fullscreenenter"",""1"",""4108""
","
","","","-1","","","21","5874","2451","&#9826;","elianto","#f73b6a7A","-1","-1","1","0","[]","0","0","3","","","","","","","",""
"pit-trial","62","576753","0.0-2.0-14.0-3.0","battery-v0.2","","""event"",""trial"",""time""
""fullscreenenter"",""1"",""4108""
","
","
","""event"",""trial"",""time""
""fullscreenenter"",""1"",""4108""
","
","","","-1","","","21","5874","2451","&#9826;","elianto","#f73b6a7A","-1","-1","1","-10","[]","0","0","3","","","","","","","",""
"pit-trial","63","581623","0.0-2.0-14.0-4.0","battery-v0.2","","""event"",""trial"",""time""
""fullscreenenter"",""1"",""4108""
","
","
","""event"",""trial"",""time""
""fullscreenenter"",""1"",""4108""
","
","","","-1","","","21","5874","2451","&#9826;","elianto","#f73b6a7A","-1","-1","1","0","[]","0","0","3","","","","","","","",""
"pit-trial","64","586488","0.0-2.0-14.1-0.1","battery-v0.2","","""event"",""trial"",""time""
""fullscreenenter"",""1"",""4108""
","
","
","""event"",""trial"",""time""
""fullscreenenter"",""1"",""4108""
","
","","","-1","","","21","5874","2451","&#9826;","elianto","#f73b6a7A","-1","-1","1","0","[]","0","0","3","","","","","","","",""
"pit-trial","65","591352","0.0-2.0-14.1-1.1","battery-v0.2","","""event"",""trial"",""time""
""fullscreenenter"",""1"",""4108""
","
","
","""event"",""trial"",""time""
""fullscreenenter"",""1"",""4108""
","
","","","-1","","","21","5874","2451","&#9826;","elianto","#f73b6a7A","-1","-1","1","0","[]","0","0","3","","","","","","","",""
"pit-trial","66","596216","0.0-2.0-14.1-2.1","battery-v0.2","","""event"",""trial"",""time""
""fullscreenenter"",""1"",""4108""
","
","
","""event"",""trial"",""time""
""fullscreenenter"",""1"",""4108""
","
","","","-1","","","21","5874","2451","&#9826;","elianto","#f73b6a7A","-1","-1","1","0","[]","0","0","3","","","","","","","",""
"pit-trial","67","601080","0.0-2.0-14.1-3.1","battery-v0.2","","""event"",""trial"",""time""
""fullscreenenter"",""1"",""4108""
","
","
","""event"",""trial"",""time""
""fullscreenenter"",""1"",""4108""
","
","","","-1","","","21","5874","2451","&#9826;","elianto","#f73b6a7A","-1","-1","1","-10","[]","0","0","3","","","","","","","",""
"pit-trial","68","605944","0.0-2.0-14.1-4.1","battery-v0.2","","""event"",""trial"",""time""
""fullscreenenter"",""1"",""4108""
","
","
","""event"",""trial"",""time""
""fullscreenenter"",""1"",""4108""
","
","","","-1","","","21","5874","2451","&#9826;","elianto","#f73b6a7A","-1","-1","1","0","[]","0","0","3","","","","","","","",""
"pit-trial","69","610808","0.0-2.0-14.2-0.2","battery-v0.2","","""event"",""trial"",""time""
""fullscreenenter"",""1"",""4108""
","
","
","""event"",""trial"",""time""
""fullscreenenter"",""1"",""4108""
","
","","","-1","","","21","5874","2451","&#9826;","elianto","#f73b6a7A","-1","-1","1","0","[]","0","0","3","","","","","","","",""
"pit-trial","70","615672","0.0-2.0-14.2-1.2","battery-v0.2","","""event"",""trial"",""time""
""fullscreenenter"",""1"",""4108""
","
","
","""event"",""trial"",""time""
""fullscreenenter"",""1"",""4108""
","
","","","-1","","","21","5874","2451","&#9826;","elianto","#f73b6a7A","-1","-1","1","0","[]","0","0","3","","","","","","","",""
"pit-trial","71","620536","0.0-2.0-14.2-2.2","battery-v0.2","","""event"",""trial"",""time""
""fullscreenenter"",""1"",""4108""
","
","
","""event"",""trial"",""time""
""fullscreenenter"",""1"",""4108""
","
","","","-1","","","21","5874","2451","&#9826;","elianto","#f73b6a7A","-1","-1","1","0","[]","0","0","3","","","","","","","",""
"pit-trial","72","625400","0.0-2.0-14.2-3.2","battery-v0.2","","""event"",""trial"",""time""
""fullscreenenter"",""1"",""4108""
","
","
","""event"",""trial"",""time""
""fullscreenenter"",""1"",""4108""
","
","","","-1","","","21","5874","2451","&#9826;","elianto","#f73b6a7A","-1","-1","1","-10","[]","0","0","3","","","","","","","",""
"pit-trial","73","630264","0.0-2.0-14.2-4.2","battery-v0.2","","""event"",""trial"",""time""
""fullscreenenter"",""1"",""4108""
","
","
","""event"",""trial"",""time""
""fullscreenenter"",""1"",""4108""
","
","","","-1","","","21","5874","2451","&#9826;","elianto","#f73b6a7A","-1","-1","1","0","[]","0","0","3","","","","","","","",""
"pit-trial","74","635128","0.0-2.0-14.3-0.3","battery-v0.2","","""event"",""trial"",""time""
""fullscreenenter"",""1"",""4108""
","
","
","""event"",""trial"",""time""
""fullscreenenter"",""1"",""4108""
","
","","","-1","","","21","5874","2451","&#9826;","elianto","#f73b6a7A","-1","-1","1","0","[]","0","0","3","","","","","","","",""
"pit-trial","75","639992","0.0-2.0-14.3-1.3","battery-v0.2","","""event"",""trial"",""time""
""fullscreenenter"",""1"",""4108""
","
","
","""event"",""trial"",""time""
""fullscreenenter"",""1"",""4108""
","
","","","-1","","","21","5874","2451","&#9826;","elianto","#f73b6a7A","-1","-1","1","0","[]","0","0","3","","","","","","","",""
"pit-trial","76","644856","0.0-2.0-14.3-2.3","battery-v0.2","","""event"",""trial"",""time""
""fullscreenenter"",""1"",""4108""
","
","
","""event"",""trial"",""time""
""fullscreenenter"",""1"",""4108""
","
","","","-1","","","21","5874","2451","&#9826;","elianto","#f73b6a7A","-1","-1","1","0","[]","0","0","3","","","","","","","",""
"pit-trial","77","649720","0.0-2.0-14.3-3.3","battery-v0.2","","""event"",""trial"",""time""
""fullscreenenter"",""1"",""4108""
","
","
","""event"",""trial"",""time""
""fullscreenenter"",""1"",""4108""
","
","","","-1","","","21","5874","2451","&#9826;","elianto","#f73b6a7A","-1","-1","1","-10","[]","0","0","3","","","","","","","",""
"pit-trial","78","654583","0.0-2.0-14.3-4.3","battery-v0.2","","""event"",""trial"",""time""
""fullscreenenter"",""1"",""4108""
","
","
","""event"",""trial"",""time""
""fullscreenenter"",""1"",""4108""
","
","","","-1","","","21","5874","2451","&#9826;","elianto","#f73b6a7A","-1","-1","1","0","[]","0","0","3","","","","","","","",""
"call-function","79","654584","0.0-2.0-15.0","battery-v0.2","","""event"",""trial"",""time""
""fullscreenenter"",""1"",""4108""
","
","
","""event"",""trial"",""time""
""fullscreenenter"",""1"",""4108""
","
","","","","","","","","","","","","","","","","","","","","","","","","","","",""
"pit-instructions","80","708766","0.0-2.0-16.0","battery-v0.2","","""event"",""trial"",""time""
""fullscreenenter"",""1"",""4108""
","
","
","""event"",""trial"",""time""
""fullscreenenter"",""1"",""4108""
","
","","[{""page_index"":0,""viewing_time"":10305.100000023842},{""page_index"":1,""viewing_time"":12729},{""page_index"":2,""viewing_time"":10574},{""page_index"":3,""viewing_time"":20573.19999998808}]","54181.69999998808","","","","","","","","","","","","","","","","","","","","","","","",""
"pit-trial","81","712241","0.0-2.0-17.0-0.0","battery-v0.2","","""event"",""trial"",""time""
""fullscreenenter"",""1"",""4108""
","
","
","""event"",""trial"",""time""
""fullscreenenter"",""1"",""4108""
","
","","","606.5","","","21","5874","2451","&#9789;","elianto","#f73b6a7A"," "," ","1","0","[1467.8999999761581]","1","0","4","","","","","","","",""
"pit-trial","82","715136","0.0-2.0-17.0-1.0","battery-v0.2","","""event"",""trial"",""time""
""fullscreenenter"",""1"",""4108""
","
","
","""event"",""trial"",""time""
""fullscreenenter"",""1"",""4108""
","
","","","39","","","21","5874","2451","&#9789;","elianto","#f73b6a7A"," "," ","1","0","[890.8000000119209]","1","0","4","","","","","","","",""
"pit-trial","83","718281","0.0-2.0-17.0-2.0","battery-v0.2","","""event"",""trial"",""time""
""fullscreenenter"",""1"",""4108""
","
","
","""event"",""trial"",""time""
""fullscreenenter"",""1"",""4108""
","
","","","273.7000000476837","","","21","5874","2451","&#9789;","elianto","#f73b6a7A"," "," ","1","0","[1128.9000000357628]","1","0","4","","","","","","","",""
"pit-trial","84","721996","0.0-2.0-17.0-3.0","battery-v0.2","","""event"",""trial"",""time""
""fullscreenenter"",""1"",""4108""
","
","
","""event"",""trial"",""time""
""fullscreenenter"",""1"",""4108""
","
","","","844.8000000119209","","","21","5874","2451","&#9789;","elianto","#f73b6a7A"," "," ","1","-10","[1702.5]","1","0","4","","","","","","","",""
"pit-trial","85","725679","0.0-2.0-17.0-4.0","battery-v0.2","","""event"",""trial"",""time""
""fullscreenenter"",""1"",""4108""
","
","
","""event"",""trial"",""time""
""fullscreenenter"",""1"",""4108""
","
","","","821.8999999761581","","","21","5874","2451","&#9789;","elianto","#f73b6a7A"," "," ","1","0","[1677.8999999761581]","1","0","4","","","","","","","",""
"pit-trial","86","730488","0.0-2.0-17.1-0.1","battery-v0.2","","""event"",""trial"",""time""
""fullscreenenter"",""1"",""4108""
","
","
","""event"",""trial"",""time""
""fullscreenenter"",""1"",""4108""
","
","","","1946.199999988079","","","21","5874","2451","&#9789;","elianto","#f73b6a7A"," "," ","1","0","[2798.699999988079]","1","0","4","","","","","","","",""
"pit-trial","87","733648","0.0-2.0-17.1-1.1","battery-v0.2","","""event"",""trial"",""time""
""fullscreenenter"",""1"",""4108""
","
","
","""event"",""trial"",""time""
""fullscreenenter"",""1"",""4108""
","
","","","297.5","","","21","5874","2451","&#9789;","elianto","#f73b6a7A"," "," ","1","0","[1151.300000011921]","1","0","4","","","","","","","",""
"pit-trial","88","736943","0.0-2.0-17.1-2.1","battery-v0.2","","""event"",""trial"",""time""
""fullscreenenter"",""1"",""4108""
","
","
","""event"",""trial"",""time""
""fullscreenenter"",""1"",""4108""
","
","","","435","","","21","5874","2451","&#9789;","elianto","#f73b6a7A"," "," ","1","0","[1289.800000011921]","1","0","4","","","","","","","",""
"pit-trial","89","741160","0.0-2.0-17.1-3.1","battery-v0.2","","""event"",""trial"",""time""
""fullscreenenter"",""1"",""4108""
","
","
","""event"",""trial"",""time""
""fullscreenenter"",""1"",""4108""
","
","","","1357.800000011921","","","21","5874","2451","&#9789;","elianto","#f73b6a7A"," "," ","1","-10","[2213.699999988079]","1","0","4","","","","","","","",""
"pit-trial","90","744049","0.0-2.0-17.1-4.1","battery-v0.2","","""event"",""trial"",""time""
""fullscreenenter"",""1"",""4108""
","
","
","""event"",""trial"",""time""
""fullscreenenter"",""1"",""4108""
","
","","","25.099999964237213","","","21","5874","2451","&#9789;","elianto","#f73b6a7A"," "," ","1","0","[880.5,1469.3999999761581,1770.199999988079]","3","0","4","","","","","","","",""
"pit-trial","91","747824","0.0-2.0-17.2-0.2","battery-v0.2","","""event"",""trial"",""time""
""fullscreenenter"",""1"",""4108""
","
","
","""event"",""trial"",""time""
""fullscreenenter"",""1"",""4108""
","
","","","916.3000000119209","","","21","5874","2451","&#9789;","elianto","#f73b6a7A"," "," ","1","0","[1766.800000011921]","1","0","4","","","","","","","",""
"pit-trial","92","751744","0.0-2.0-17.2-1.2","battery-v0.2","","""event"",""trial"",""time""
""fullscreenenter"",""1"",""4108""
","
","
","""event"",""trial"",""time""
""fullscreenenter"",""1"",""4108""
","
","","","1061","","","21","5874","2451","&#9789;","elianto","#f73b6a7A"," "," ","1","0","[26.899999976158142,1915.699999988079]","2","0","4","","","","","","","",""
"pit-trial","93","755416","0.0-2.0-17.2-2.2","battery-v0.2","","""event"",""trial"",""time""
""fullscreenenter"",""1"",""4108""
","
","
","""event"",""trial"",""time""
""fullscreenenter"",""1"",""4108""
","
","","","812.5","","","21","5874","2451","&#9789;","elianto","#f73b6a7A"," "," ","1","0","[1667.199999988079,2424.699999988079]","2","0","4","","","","","","","",""
"pit-trial","94","760216","0.0-2.0-17.2-3.2","battery-v0.2","","""event"",""trial"",""time""
""fullscreenenter"",""1"",""4108""
","
","
","""event"",""trial"",""time""
""fullscreenenter"",""1"",""4108""
","
","","","1940.6000000238419","","","21","5874","2451","&#9789;","elianto","#f73b6a7A"," "," ","1","-10","[44.200000047683716,2795.2000000476837]","2","0","4","","","","","","","",""
"pit-trial","95","764168","0.0-2.0-17.2-4.2","battery-v0.2","","""event"",""trial"",""time""
""fullscreenenter"",""1"",""4108""
","
","
","""event"",""trial"",""time""
""fullscreenenter"",""1"",""4108""
","
","","","1091.300000011921","","","21","5874","2451","&#9789;","elianto","#f73b6a7A"," "," ","1","0","[1944.1000000238419,2183.800000011921]","2","0","4","","","","","","","",""
"pit-trial","96","767399","0.0-2.0-17.3-0.3","battery-v0.2","","""event"",""trial"",""time""
""fullscreenenter"",""1"",""4108""
","
","
","""event"",""trial"",""time""
""fullscreenenter"",""1"",""4108""
","
","","","374.5","","","21","5874","2451","&#9789;","elianto","#f73b6a7A"," "," ","1","0","[571.6000000238419,1228,2059]","3","0","4","","","","","","","",""
"pit-trial","97","770888","0.0-2.0-17.3-1.3","battery-v0.2","","""event"",""trial"",""time""
""fullscreenenter"",""1"",""4108""
","
","
","""event"",""trial"",""time""
""fullscreenenter"",""1"",""4108""
","
","","","623.1000000238419","","","21","5874","2451","&#9789;","elianto","#f73b6a7A"," "," ","1","0","[28,1479,2011.1000000238419,2520.800000011921,3092.300000011921]","5","0","4","","","","","","","",""
"pit-trial","98","774160","0.0-2.0-17.3-2.3","battery-v0.2","","""event"",""trial"",""time""
""fullscreenenter"",""1"",""4108""
","
","
","""event"",""trial"",""time""
""fullscreenenter"",""1"",""4108""
","
","","","412.5","","","21","5874","2451","&#9789;","elianto","#f73b6a7A"," "," ","1","0","[107.09999996423721,416.5,1267.199999988079,2250.2999999523163,3209.5]","5","0","4","","","","","","","",""
"pit-trial","99","777032","0.0-2.0-17.3-3.3","battery-v0.2","","""event"",""trial"",""time""
""fullscreenenter"",""1"",""4108""
","
","
","""event"",""trial"",""time""
""fullscreenenter"",""1"",""4108""
","
","","","14.100000023841858","","","21","5874","2451","&#9789;","elianto","#f73b6a7A"," "," ","1","-10","[868.7000000476837,1559.4000000357628,2228.800000011921,2722.800000011921]","4","0","4","","","","","","","",""
"pit-trial","100","780438","0.0-2.0-17.3-4.3","battery-v0.2","","""event"",""trial"",""time""
""fullscreenenter"",""1"",""4108""
","
","
","""event"",""trial"",""time""
""fullscreenenter"",""1"",""4108""
","
","","","532.2999999523163","","","21","5874","2451","&#9789;","elianto","#f73b6a7A"," "," ","1","0","[454.30000001192093,1387,2916.900000035763]","3","0","4","","","","","","","",""
"call-function","101","780439","0.0-2.0-18.0","battery-v0.2","","""event"",""trial"",""time""
""fullscreenenter"",""1"",""4108""
","
","
","""event"",""trial"",""time""
""fullscreenenter"",""1"",""4108""
","
","","","","","","","","","","","","","","","","","","","","","","","","","","",""
"pit-instructions","102","844024","0.0-2.0-19.0","battery-v0.2","","""event"",""trial"",""time""
""fullscreenenter"",""1"",""4108""
","
","
","""event"",""trial"",""time""
""fullscreenenter"",""1"",""4108""
","
","","[{""page_index"":0,""viewing_time"":7034.699999988079},{""page_index"":1,""viewing_time"":6252.800000011921},{""page_index"":2,""viewing_time"":9990.899999976158},{""page_index"":3,""viewing_time"":4331.399999976158},{""page_index"":4,""viewing_time"":9437.900000035763},{""page_index"":5,""viewing_time"":8550.399999976158},{""page_index"":6,""viewing_time"":7759.300000011921},{""page_index"":7,""viewing_time"":5788},{""page_index"":8,""viewing_time"":4440}]","63585.799999952316","","","","","","","","","","","","","","","","","","","","","","","",""
"pit-comprehension","103","848376","0.0-2.0-20.0-0.0","battery-v0.2","","""event"",""trial"",""time""
""fullscreenenter"",""1"",""4108""
","
","
","""event"",""trial"",""time""
""fullscreenenter"",""1"",""4108""
","
","","","4349.199999988079","[""SPACE""]","0","21","5874","2451","","","","","","","","","","","","","","","","","","",""
"pit-instructions","104","850452","0.0-2.0-20.0-1.0","battery-v0.2","","""event"",""trial"",""time""
""fullscreenenter"",""1"",""4108""
","
","
","""event"",""trial"",""time""
""fullscreenenter"",""1"",""4108""
","
","","[{""page_index"":0,""viewing_time"":2038.5}]","2038.699999988079","","","","","","","","","","","","","","","","","","","","","","","",""
"pit-comprehension","105","854689","0.0-2.0-21.0-0.0","battery-v0.2","","""event"",""trial"",""time""
""fullscreenenter"",""1"",""4108""
","
","
","""event"",""trial"",""time""
""fullscreenenter"",""1"",""4108""
","
","","","4234.700000047684","[""10""]","0","21","5874","2451","","","","","","","","","","","","","","","","","","",""
"pit-instructions","106","857070","0.0-2.0-21.0-1.0","battery-v0.2","","""event"",""trial"",""time""
""fullscreenenter"",""1"",""4108""
","
","
","""event"",""trial"",""time""
""fullscreenenter"",""1"",""4108""
","
","","[{""page_index"":0,""viewing_time"":2348.300000011921}]","2348.5","","","","","","","","","","","","","","","","","","","","","","","",""
"pit-comprehension","107","863083","0.0-2.0-22.0-0.0","battery-v0.2","","""event"",""trial"",""time""
""fullscreenenter"",""1"",""4108""
","
","
","""event"",""trial"",""time""
""fullscreenenter"",""1"",""4108""
","
","","","6010.400000035763","[""0""]","0","21","5874","2451","","","","","","","","","","","","","","","","","","",""
"pit-instructions","108","865033","0.0-2.0-22.0-1.0","battery-v0.2","","""event"",""trial"",""time""
""fullscreenenter"",""1"",""4108""
","
","
","""event"",""trial"",""time""
""fullscreenenter"",""1"",""4108""
","
","","[{""page_index"":0,""viewing_time"":1913.3999999761581}]","1913.6000000238419","","","","","","","","","","","","","","","","","","","","","","","",""
"pit-comprehension","109","876916","0.0-2.0-23.0-0.0","battery-v0.2","","""event"",""trial"",""time""
""fullscreenenter"",""1"",""4108""
","
","
","""event"",""trial"",""time""
""fullscreenenter"",""1"",""4108""
","
","","","11880","[""True""]","0","21","5874","2451","","","","","","","","","","","","","","","","","","",""
"pit-instructions","110","879009","0.0-2.0-23.0-1.0","battery-v0.2","","""event"",""trial"",""time""
""fullscreenenter"",""1"",""4108""
","
","
","""event"",""trial"",""time""
""fullscreenenter"",""1"",""4108""
","
","","[{""page_index"":0,""viewing_time"":2059.699999988079}]","2059.899999976158","","","","","","","","","","","","","","","","","","","","","","","",""
"pit-comprehension","111","886322","0.0-2.0-24.0-0.0","battery-v0.2","","""event"",""trial"",""time""
""fullscreenenter"",""1"",""4108""
","
","
","""event"",""trial"",""time""
""fullscreenenter"",""1"",""4108""
","
","","","7311","[""True""]","0","21","5874","2451","","","","","","","","","","","","","","","","","","",""
"pit-instructions","112","889144","0.0-2.0-24.0-1.0","battery-v0.2","","""event"",""trial"",""time""
""fullscreenenter"",""1"",""4108""
","
","
","""event"",""trial"",""time""
""fullscreenenter"",""1"",""4108""
","
","","[{""page_index"":0,""viewing_time"":2788}]","2788.199999988079","","","","","","","","","","","","","","","","","","","","","","","",""
"pit-comprehension","113","895187","0.0-2.0-25.0-0.0","battery-v0.2","","""event"",""trial"",""time""
""fullscreenenter"",""1"",""4108""
","
","
","""event"",""trial"",""time""
""fullscreenenter"",""1"",""4108""
","
","","","6040.600000023842","[""True""]","0","21","5874","2451","","","","","","","","","","","","","","","","","","",""
"pit-instructions","114","897384","0.0-2.0-25.0-1.0","battery-v0.2","","""event"",""trial"",""time""
""fullscreenenter"",""1"",""4108""
","
","
","""event"",""trial"",""time""
""fullscreenenter"",""1"",""4108""
","
","","[{""page_index"":0,""viewing_time"":2162.400000035763}]","2162.699999988079","","","","","","","","","","","","","","","","","","","","","","","",""
"pit-comprehension","115","901536","0.0-2.0-26.0-0.0","battery-v0.2","","""event"",""trial"",""time""
""fullscreenenter"",""1"",""4108""
","
","
","""event"",""trial"",""time""
""fullscreenenter"",""1"",""4108""
","
","","","4150.300000011921","[""False""]","0","21","5874","2451","","","","","","","","","","","","","","","","","","",""
"pit-instructions","116","903226","0.0-2.0-26.0-1.0","battery-v0.2","","""event"",""trial"",""time""
""fullscreenenter"",""1"",""4108""
","
","
","""event"",""trial"",""time""
""fullscreenenter"",""1"",""4108""
","
","","[{""page_index"":0,""viewing_time"":1642.800000011921}]","1643","","","","","","","","","","","","","","","","","","","","","","","",""
"pit-instructions","117","919257","0.0-3.0","battery-v0.2","","""event"",""trial"",""time""
""fullscreenenter"",""1"",""4108""
","
","
","""event"",""trial"",""time""
""fullscreenenter"",""1"",""4108""
","
","","[{""page_index"":0,""viewing_time"":3958.600000023842},{""page_index"":1,""viewing_time"":5440.899999976158},{""page_index"":2,""viewing_time"":6630}]","16029.800000011921","","","","","","","","","","","","","","","","","","","","","","","",""
"pit-trial","118","922977","0.0-4.0","battery-v0.2","","""event"",""trial"",""time""
""fullscreenenter"",""1"",""4108""
","
","
","""event"",""trial"",""time""
""fullscreenenter"",""1"",""4108""
","
","","","849","","","21","5874","2451","&#9733;","elianto","#3366ff99","-1"," ","0","0","[1701.800000011921]","1","1","","","5874","1","2","2","win","no-go","0"
"pit-trial","119","926868","0.0-5.0","battery-v0.2","","""event"",""trial"",""time""
""fullscreenenter"",""1"",""4108""
","
","
","""event"",""trial"",""time""
""fullscreenenter"",""1"",""4108""
","
","","","1020.3000000119209","","","21","5874","2451","&#9728;","elianto","#f73b6a7A","-1"," ","0","0","[1871.1000000238419]","1","1","","","5874","2","0","4","lose","no-go","1"
"pit-trial","120","930819","0.0-6.0","battery-v0.2","","""event"",""trial"",""time""
""fullscreenenter"",""1"",""4108""
","
","
","""event"",""trial"",""time""
""fullscreenenter"",""1"",""4108""
","
","","","1076.699999988079","","","21","5874","2451","&#9752;","elianto","#f73b6a7A"," "," ","1","0","[1931.9000000357628]","1","1","","","5874","3","3","3","lose","go","0"
"pit-trial","121","934496","0.0-7.0","battery-v0.2","","""event"",""trial"",""time""
""fullscreenenter"",""1"",""4108""
","
","
","""event"",""trial"",""time""
""fullscreenenter"",""1"",""4108""
","
","","","808.5999999642372","","","21","5874","2451","&#9730;","elianto","#3366ff99"," "," ","1","+10","[1659]","1","1","","","5874","4","1","1","win","go","0"
"pit-trial","122","938266","0.0-8.0","battery-v0.2","","""event"",""trial"",""time""
""fullscreenenter"",""1"",""4108""
","
","
","""event"",""trial"",""time""
""fullscreenenter"",""1"",""4108""
","
","","","911.6000000238419","","","21","5874","2451","&#9728;","elianto","#f73b6a7A","-1"," ","0","0","[1765.3999999761581]","1","1","","","5874","5","0","4","lose","no-go","1"
"pit-trial","123","941778","0.0-9.0","battery-v0.2","","""event"",""trial"",""time""
""fullscreenenter"",""1"",""4108""
","
","
","""event"",""trial"",""time""
""fullscreenenter"",""1"",""4108""
","
","","","640.5","","","21","5874","2451","&#9752;","elianto","#f73b6a7A"," "," ","1","0","[1494.1000000238419]","1","1","","","5874","6","3","3","lose","go","0"
"pit-trial","124","945323","0.0-10.0","battery-v0.2","","""event"",""trial"",""time""
""fullscreenenter"",""1"",""4108""
","
","
","""event"",""trial"",""time""
""fullscreenenter"",""1"",""4108""
","
","","","673.6999999880791","","","21","5874","2451","&#9730;","elianto","#3366ff99"," "," ","1","+10","[1528.699999988079]","1","1","","","5874","7","1","1","win","go","0"
"pit-trial","125","948746","0.0-11.0","battery-v0.2","","""event"",""trial"",""time""
""fullscreenenter"",""1"",""4108""
","
","
","""event"",""trial"",""time""
""fullscreenenter"",""1"",""4108""
","
","","","555.6999999880791","","","21","5874","2451","&#9733;","elianto","#3366ff99","-1"," ","0","0","[1406.199999988079]","1","1","","","5874","8","2","2","win","no-go","0"
"pit-trial","126","953608","0.0-12.0","battery-v0.2","","""event"",""trial"",""time""
""fullscreenenter"",""1"",""4108""
","
","
","""event"",""trial"",""time""
""fullscreenenter"",""1"",""4108""
","
","","","-1","","","21","5874","2451","&#9733;","elianto","#3366ff99","-1","-1","1","+10","[]","0","1","","","5874","9","2","2","win","no-go","0"
"pit-trial","127","957223","0.0-13.0","battery-v0.2","","""event"",""trial"",""time""
""fullscreenenter"",""1"",""4108""
","
","
","""event"",""trial"",""time""
""fullscreenenter"",""1"",""4108""
","
","","","757.8000000119209","","","21","5874","2451","&#9730;","elianto","#3366ff99"," "," ","1","+10","[1612.3999999761581]","1","1","","","5874","10","1","1","win","go","0"
"pit-trial","128","960735","0.0-14.0","battery-v0.2","","""event"",""trial"",""time""
""fullscreenenter"",""1"",""4108""
","
","
","""event"",""trial"",""time""
""fullscreenenter"",""1"",""4108""
","
","","","647.0999999642372","","","21","5874","2451","&#9728;","elianto","#f73b6a7A","-1"," ","0","0","[1502.8999999761581]","1","1","","","5874","11","0","4","lose","no-go","1"
"pit-trial","129","964640","0.0-15.0","battery-v0.2","","""event"",""trial"",""time""
""fullscreenenter"",""1"",""4108""
","
","
","""event"",""trial"",""time""
""fullscreenenter"",""1"",""4108""
","
","","","1043.699999988079","","","21","5874","2451","&#9752;","elianto","#f73b6a7A"," "," ","1","0","[1899.2999999523163]","1","1","","","5874","12","3","3","lose","go","0"
"pit-trial","130","968351","0.0-16.0","battery-v0.2","","""event"",""trial"",""time""
""fullscreenenter"",""1"",""4108""
","
","
","""event"",""trial"",""time""
""fullscreenenter"",""1"",""4108""
","
","","","850.6000000238419","","","21","5874","2451","&#9752;","elianto","#f73b6a7A"," "," ","1","0","[1701.6000000238419]","1","1","","","5874","13","3","3","lose","go","0"
"pit-trial","131","972175","0.0-17.0","battery-v0.2","","""event"",""trial"",""time""
""fullscreenenter"",""1"",""4108""
","
","
","""event"",""trial"",""time""
""fullscreenenter"",""1"",""4108""
","
","","","969.1000000238419","","","21","5874","2451","&#9728;","elianto","#f73b6a7A","-1"," ","0","-10","[1821.199999988079]","1","1","","","5874","14","0","4","lose","no-go","0"
"pit-trial","132","976016","0.0-18.0","battery-v0.2","","""event"",""trial"",""time""
""fullscreenenter"",""1"",""4108""
","
","
","""event"",""trial"",""time""
""fullscreenenter"",""1"",""4108""
","
","","","978.6999999880791","","","21","5874","2451","&#9730;","elianto","#3366ff99"," "," ","1","0","[1834.5]","1","1","","","5874","15","1","1","win","go","1"
"pit-trial","133","980880","0.0-19.0","battery-v0.2","","""event"",""trial"",""time""
""fullscreenenter"",""1"",""4108""
","
","
","""event"",""trial"",""time""
""fullscreenenter"",""1"",""4108""
","
","","","-1","","","21","5874","2451","&#9733;","elianto","#3366ff99","-1","-1","1","+10","[]","0","1","","","5874","16","2","2","win","no-go","0"
"pit-trial","134","984455","0.0-20.0","battery-v0.2","","""event"",""trial"",""time""
""fullscreenenter"",""1"",""4108""
","
","
","""event"",""trial"",""time""
""fullscreenenter"",""1"",""4108""
","
","","","711.3000000119209","","","21","5874","2451","&#9730;","elianto","#3366ff99"," "," ","1","+10","[1565.9000000357628]","1","1","","","5874","17","1","1","win","go","0"
"pit-trial","135","988071","0.0-21.0","battery-v0.2","","""event"",""trial"",""time""
""fullscreenenter"",""1"",""4108""
","
","
","""event"",""trial"",""time""
""fullscreenenter"",""1"",""4108""
","
","","","758.6000000238419","","","21","5874","2451","&#9752;","elianto","#f73b6a7A"," "," ","1","0","[1609.5]","1","1","","","5874","18","3","3","lose","go","0"
"pit-trial","136","992943","0.0-22.0","battery-v0.2","","""event"",""trial"",""time""
""fullscreenenter"",""1"",""4108""
","
","
","""event"",""trial"",""time""
""fullscreenenter"",""1"",""4108""
","
","","","-1","","","21","5874","2451","&#9733;","elianto","#3366ff99","-1","-1","1","+10","[]","0","1","","","5874","19","2","2","win","no-go","0"
"pit-trial","137","997807","0.0-23.0","battery-v0.2","","""event"",""trial"",""time""
""fullscreenenter"",""1"",""4108""
","
","
","""event"",""trial"",""time""
""fullscreenenter"",""1"",""4108""
","
","","","-1","","","21","5874","2451","&#9728;","elianto","#f73b6a7A","-1","-1","1","0","[]","0","1","","","5874","20","0","4","lose","no-go","0"
"pit-instructions","138","1011530","0.0-24.0","battery-v0.2","","""event"",""trial"",""time""
""fullscreenenter"",""1"",""4108""
","
","
","""event"",""trial"",""time""
""fullscreenenter"",""1"",""4108""
","
","","[{""page_index"":0,""viewing_time"":5764.599999964237},{""page_index"":1,""viewing_time"":7957.100000023842}]","13722","","","","","","","","","","","","","","","","","","","","","","","",""
"pit-trial","139","1015286","0.0-25.0","battery-v0.2","","""event"",""trial"",""time""
""fullscreenenter"",""1"",""4108""
","
","
","""event"",""trial"",""time""
""fullscreenenter"",""1"",""4108""
","
","","","885.9000000357628","","","21","5874","2451","a","elianto","#f73b6a7A"," "," ","1","-10","[1737.1000000238419]","1","2","","","5874","21","2","3","lose","go","1"
"pit-trial","140","1018968","0.0-26.0","battery-v0.2","","""event"",""trial"",""time""
""fullscreenenter"",""1"",""4108""
","
","
","""event"",""trial"",""time""
""fullscreenenter"",""1"",""4108""
","
","","","817","","","21","5874","2451","g","elianto","#f73b6a7A","-1"," ","0","-10","[1676.0999999642372]","1","2","","","5874","22","3","4","lose","no-go","0"
"pit-trial","141","1022704","0.0-27.0","battery-v0.2","","""event"",""trial"",""time""
""fullscreenenter"",""1"",""4108""
","
","
","""event"",""trial"",""time""
""fullscreenenter"",""1"",""4108""
","
","","","871.5","","","21","5874","2451","l","elianto","#3366ff99","-1"," ","0","0","[1729]","1","2","","","5874","23","1","2","win","no-go","0"
"pit-trial","142","1026164","0.0-28.0","battery-v0.2","","""event"",""trial"",""time""
""fullscreenenter"",""1"",""4108""
","
","
","""event"",""trial"",""time""
""fullscreenenter"",""1"",""4108""
","
","","","591.5","","","21","5874","2451","u","elianto","#f73b6a7A"," "," ","1","0","[1443.300000011921]","1","2","","","5874","24","0","3","lose","go","0"
"pit-trial","143","1031031","0.0-29.0","battery-v0.2","","""event"",""trial"",""time""
""fullscreenenter"",""1"",""4108""
","
","
","""event"",""trial"",""time""
""fullscreenenter"",""1"",""4108""
","
","","","-1","","","21","5874","2451","a","elianto","#f73b6a7A"," ","-1","0","-10","[]","0","2","","","5874","25","2","3","lose","go","0"
"pit-trial","144","1035038","0.0-30.0","battery-v0.2","","""event"",""trial"",""time""
""fullscreenenter"",""1"",""4108""
","
","
","""event"",""trial"",""time""
""fullscreenenter"",""1"",""4108""
","
","","","1138.199999988079","","","21","5874","2451","l","elianto","#3366ff99","-1"," ","0","0","[1988.6000000238419]","1","2","","","5874","26","1","2","win","no-go","0"
"pit-trial","145","1038766","0.0-31.0","battery-v0.2","","""event"",""trial"",""time""
""fullscreenenter"",""1"",""4108""
","
","
","""event"",""trial"",""time""
""fullscreenenter"",""1"",""4108""
","
","","","848.1000000238419","","","21","5874","2451","g","elianto","#f73b6a7A","-1"," ","0","-10","[1704.4000000357628]","1","2","","","5874","27","3","4","lose","no-go","0"
"pit-trial","146","1042968","0.0-32.0","battery-v0.2","","""event"",""trial"",""time""
""fullscreenenter"",""1"",""4108""
","
","
","""event"",""trial"",""time""
""fullscreenenter"",""1"",""4108""
","
","","","1335.3999999761581","","","21","5874","2451","u","elianto","#f73b6a7A"," "," ","1","0","[2194.199999988079]","1","2","","","5874","28","0","3","lose","go","0"
"pit-trial","147","1047016","0.0-33.0","battery-v0.2","","""event"",""trial"",""time""
""fullscreenenter"",""1"",""4108""
","
","
","""event"",""trial"",""time""
""fullscreenenter"",""1"",""4108""
","
","","","1184.0999999642372","","","21","5874","2451","g","elianto","#f73b6a7A","-1"," ","0","-10","[2037.699999988079]","1","2","","","5874","29","3","4","lose","no-go","0"
"pit-trial","148","1051880","0.0-34.0","battery-v0.2","","""event"",""trial"",""time""
""fullscreenenter"",""1"",""4108""
","
","
","""event"",""trial"",""time""
""fullscreenenter"",""1"",""4108""
","
","","","-1","","","21","5874","2451","a","elianto","#f73b6a7A"," ","-1","0","-10","[]","0","2","","","5874","30","2","3","lose","go","0"
"pit-trial","149","1056743","0.0-35.0","battery-v0.2","","""event"",""trial"",""time""
""fullscreenenter"",""1"",""4108""
","
","
","""event"",""trial"",""time""
""fullscreenenter"",""1"",""4108""
","
","","","-1","","","21","5874","2451","l","elianto","#3366ff99","-1","-1","1","+10","[]","0","2","","","5874","31","1","2","win","no-go","0"
"pit-trial","150","1060184","0.0-36.0","battery-v0.2","","""event"",""trial"",""time""
""fullscreenenter"",""1"",""4108""
","
","
","""event"",""trial"",""time""
""fullscreenenter"",""1"",""4108""
","
","","","584.1999999880791","","","21","5874","2451","u","elianto","#f73b6a7A"," "," ","1","-10","[1435.0999999642372]","1","2","","","5874","32","0","3","lose","go","1"
"pit-trial","151","1065048","0.0-37.0","battery-v0.2","","""event"",""trial"",""time""
""fullscreenenter"",""1"",""4108""
","
","
","""event"",""trial"",""time""
""fullscreenenter"",""1"",""4108""
","
","","","-1","","","21","5874","2451","l","elianto","#3366ff99","-1","-1","1","0","[]","0","2","","","5874","33","1","2","win","no-go","1"
"pit-trial","152","1068608","0.0-38.0","battery-v0.2","","""event"",""trial"",""time""
""fullscreenenter"",""1"",""4108""
","
","
","""event"",""trial"",""time""
""fullscreenenter"",""1"",""4108""
","
","","","701.3999999761581","","","21","5874","2451","u","elianto","#f73b6a7A"," "," ","1","0","[1555.8999999761581]","1","2","","","5874","34","0","3","lose","go","0"
"pit-trial","153","1073471","0.0-39.0","battery-v0.2","","""event"",""trial"",""time""
""fullscreenenter"",""1"",""4108""
","
","
","""event"",""trial"",""time""
""fullscreenenter"",""1"",""4108""
","
","","","-1","","","21","5874","2451","g","elianto","#f73b6a7A","-1","-1","1","0","[]","0","2","","","5874","35","3","4","lose","no-go","0"
"pit-trial","154","1078336","0.0-40.0","battery-v0.2","","""event"",""trial"",""time""
""fullscreenenter"",""1"",""4108""
","
","
","""event"",""trial"",""time""
""fullscreenenter"",""1"",""4108""
","
","","","-1","","","21","5874","2451","a","elianto","#f73b6a7A"," ","-1","0","-10","[]","0","2","","","5874","36","2","3","lose","go","0"
"pit-trial","155","1082591","0.0-41.0","battery-v0.2","","""event"",""trial"",""time""
""fullscreenenter"",""1"",""4108""
","
","
","""event"",""trial"",""time""
""fullscreenenter"",""1"",""4108""
","
","","","1394.5","","","21","5874","2451","l","elianto","#3366ff99","-1"," ","0","0","[2248.699999988079]","1","2","","","5874","37","1","2","win","no-go","0"
"pit-trial","156","1086615","0.0-42.0","battery-v0.2","","""event"",""trial"",""time""
""fullscreenenter"",""1"",""4108""
","
","
","""event"",""trial"",""time""
""fullscreenenter"",""1"",""4108""
","
","","","1160.800000011921","","","21","5874","2451","u","elianto","#f73b6a7A"," "," ","1","0","[2015.6000000238419]","1","2","","","5874","38","0","3","lose","go","0"
"pit-trial","157","1090015","0.0-43.0","battery-v0.2","","""event"",""trial"",""time""
""fullscreenenter"",""1"",""4108""
","
","
","""event"",""trial"",""time""
""fullscreenenter"",""1"",""4108""
","
","","","546.6000000238419","","","21","5874","2451","a","elianto","#f73b6a7A"," "," ","1","0","[1398]","1","2","","","5874","39","2","3","lose","go","0"
"pit-trial","158","1094879","0.0-44.0","battery-v0.2","","""event"",""trial"",""time""
""fullscreenenter"",""1"",""4108""
","
","
","""event"",""trial"",""time""
""fullscreenenter"",""1"",""4108""
","
","","","-1","","","21","5874","2451","g","elianto","#f73b6a7A","-1","-1","1","0","[]","0","2","","","5874","40","3","4","lose","no-go","0"
"pit-trial","159","1098543","0.0-45.0","battery-v0.2","","""event"",""trial"",""time""
""fullscreenenter"",""1"",""4108""
","
","
","""event"",""trial"",""time""
""fullscreenenter"",""1"",""4108""
","
","","","800.1000000238419","","","21","5874","2451","u","elianto","#f73b6a7A"," "," ","1","0","[1654.7000000476837]","1","2","","","5874","41","0","3","lose","go","0"
"pit-trial","160","1101911","0.0-46.0","battery-v0.2","","""event"",""trial"",""time""
""fullscreenenter"",""1"",""4108""
","
","
","""event"",""trial"",""time""
""fullscreenenter"",""1"",""4108""
","
","","","505.19999998807907","","","21","5874","2451","a","elianto","#f73b6a7A"," "," ","1","0","[1360.8999999761581,2670.099999964237]","2","2","","","5874","42","2","3","lose","go","0"
"pit-trial","161","1106776","0.0-47.0","battery-v0.2","","""event"",""trial"",""time""
""fullscreenenter"",""1"",""4108""
","
","
","""event"",""trial"",""time""
""fullscreenenter"",""1"",""4108""
","
","","","-1","","","21","5874","2451","g","elianto","#f73b6a7A","-1","-1","1","0","[]","0","2","","","5874","43","3","4","lose","no-go","0"
"pit-trial","162","1111639","0.0-48.0","battery-v0.2","","""event"",""trial"",""time""
""fullscreenenter"",""1"",""4108""
","
","
","""event"",""trial"",""time""
""fullscreenenter"",""1"",""4108""
","
","","","-1","","","21","5874","2451","l","elianto","#3366ff99","-1","-1","1","+10","[]","0","2","","","5874","44","1","2","win","no-go","0"
"pit-trial","163","1116504","0.0-49.0","battery-v0.2","","""event"",""trial"",""time""
""fullscreenenter"",""1"",""4108""
","
","
","""event"",""trial"",""time""
""fullscreenenter"",""1"",""4108""
","
","","","-1","","","21","5874","2451","l","elianto","#3366ff99","-1","-1","1","+10","[]","0","2","","","5874","45","1","2","win","no-go","0"
"pit-trial","164","1121368","0.0-50.0","battery-v0.2","","""event"",""trial"",""time""
""fullscreenenter"",""1"",""4108""
","
","
","""event"",""trial"",""time""
""fullscreenenter"",""1"",""4108""
","
","","","-1","","","21","5874","2451","g","elianto","#f73b6a7A","-1","-1","1","-10","[444.30000001192093]","1","2","","","5874","46","3","4","lose","no-go","1"
"pit-trial","165","1124935","0.0-51.0","battery-v0.2","","""event"",""trial"",""time""
""fullscreenenter"",""1"",""4108""
","
","
","""event"",""trial"",""time""
""fullscreenenter"",""1"",""4108""
","
","","","706","","","21","5874","2451","a","elianto","#f73b6a7A"," "," ","1","0","[1557.5]","1","2","","","5874","47","2","3","lose","go","0"
"pit-trial","166","1128631","0.0-52.0","battery-v0.2","","""event"",""trial"",""time""
""fullscreenenter"",""1"",""4108""
","
","
","""event"",""trial"",""time""
""fullscreenenter"",""1"",""4108""
","
","","","837","","","21","5874","2451","u","elianto","#f73b6a7A"," "," ","1","-10","[1691.6000000238419]","1","2","","","5874","48","0","3","lose","go","1"
"pit-trial","167","1132278","0.0-53.0","battery-v0.2","","""event"",""trial"",""time""
""fullscreenenter"",""1"",""4108""
","
","
","""event"",""trial"",""time""
""fullscreenenter"",""1"",""4108""
","
","","","789.9000000357628","","","21","5874","2451","a","elianto","#f73b6a7A"," "," ","1","0","[1644.6000000238419]","1","2","","","5874","49","2","3","lose","go","0"
"pit-trial","168","1135799","0.0-54.0","battery-v0.2","","""event"",""trial"",""time""
""fullscreenenter"",""1"",""4108""
","
","
","""event"",""trial"",""time""
""fullscreenenter"",""1"",""4108""
","
","","","661.3999999761581","","","21","5874","2451","u","elianto","#f73b6a7A"," "," ","1","0","[1518.0999999642372]","1","2","","","5874","50","0","3","lose","go","0"
"pit-trial","169","1140664","0.0-55.0","battery-v0.2","","""event"",""trial"",""time""
""fullscreenenter"",""1"",""4108""
","
","
","""event"",""trial"",""time""
""fullscreenenter"",""1"",""4108""
","
","","","-1","","","21","5874","2451","l","elianto","#3366ff99","-1","-1","1","+10","[]","0","2","","","5874","51","1","2","win","no-go","0"
"pit-trial","170","1145528","0.0-56.0","battery-v0.2","","""event"",""trial"",""time""
""fullscreenenter"",""1"",""4108""
","
","
","""event"",""trial"",""time""
""fullscreenenter"",""1"",""4108""
","
","","","-1","","","21","5874","2451","g","elianto","#f73b6a7A","-1","-1","1","-10","[]","0","2","","","5874","52","3","4","lose","no-go","1"
"pit-trial","171","1150392","0.0-57.0","battery-v0.2","","""event"",""trial"",""time""
""fullscreenenter"",""1"",""4108""
","
","
","""event"",""trial"",""time""
""fullscreenenter"",""1"",""4108""
","
","","","-1","","","21","5874","2451","l","elianto","#3366ff99","-1","-1","1","0","[]","0","2","","","5874","53","1","2","win","no-go","1"
"pit-trial","172","1155256","0.0-58.0","battery-v0.2","","""event"",""trial"",""time""
""fullscreenenter"",""1"",""4108""
","
","
","""event"",""trial"",""time""
""fullscreenenter"",""1"",""4108""
","
","","","-1","","","21","5874","2451","g","elianto","#f73b6a7A","-1","-1","1","0","[]","0","2","","","5874","54","3","4","lose","no-go","0"
"pit-trial","173","1158721","0.0-59.0","battery-v0.2","","""event"",""trial"",""time""
""fullscreenenter"",""1"",""4108""
","
","
","""event"",""trial"",""time""
""fullscreenenter"",""1"",""4108""
","
","","","609.6999999880791","","","21","5874","2451","u","elianto","#f73b6a7A"," "," ","1","0","[1460.800000011921]","1","2","","","5874","55","0","3","lose","go","0"
"pit-trial","174","1162576","0.0-60.0","battery-v0.2","","""event"",""trial"",""time""
""fullscreenenter"",""1"",""4108""
","
","
","""event"",""trial"",""time""
""fullscreenenter"",""1"",""4108""
","
","","","1000.1999999880791","","","21","5874","2451","a","elianto","#f73b6a7A"," "," ","1","0","[1850.2999999523163]","1","2","","","5874","56","2","3","lose","go","0"
"pit-trial","175","1166616","0.0-61.0","battery-v0.2","","""event"",""trial"",""time""
""fullscreenenter"",""1"",""4108""
","
","
","""event"",""trial"",""time""
""fullscreenenter"",""1"",""4108""
","
","","","1182.7999999523163","","","21","5874","2451","a","elianto","#f73b6a7A"," "," ","1","0","[2037.5999999642372]","1","2","","","5874","57","2","3","lose","go","0"
"pit-trial","176","1171480","0.0-62.0","battery-v0.2","","""event"",""trial"",""time""
""fullscreenenter"",""1"",""4108""
","
","
","""event"",""trial"",""time""
""fullscreenenter"",""1"",""4108""
","
","","","-1","","","21","5874","2451","g","elianto","#f73b6a7A","-1","-1","1","0","[]","0","2","","","5874","58","3","4","lose","no-go","0"
"pit-trial","177","1175959","0.0-63.0","battery-v0.2","","""event"",""trial"",""time""
""fullscreenenter"",""1"",""4108""
","
","
","""event"",""trial"",""time""
""fullscreenenter"",""1"",""4108""
","
","","","1616.5999999642372","","","21","5874","2451","p","elianto","#3366ff99"," "," ","1","+10","[2471.199999988079]","1","2","","","5874","59","4","1","win","go","0"
"pit-trial","178","1179649","0.0-64.0","battery-v0.2","","""event"",""trial"",""time""
""fullscreenenter"",""1"",""4108""
","
","
","""event"",""trial"",""time""
""fullscreenenter"",""1"",""4108""
","
","","","826.2999999523163","","","21","5874","2451","u","elianto","#f73b6a7A"," "," ","1","0","[1680.8999999761581]","1","2","","","5874","60","0","3","lose","go","0"
"pit-trial","179","1184519","0.0-65.0","battery-v0.2","","""event"",""trial"",""time""
""fullscreenenter"",""1"",""4108""
","
","
","""event"",""trial"",""time""
""fullscreenenter"",""1"",""4108""
","
","","","-1","","","21","5874","2451","g","elianto","#f73b6a7A","-1","-1","1","0","[]","0","2","","","5874","61","3","4","lose","no-go","0"
"pit-trial","180","1189385","0.0-66.0","battery-v0.2","","""event"",""trial"",""time""
""fullscreenenter"",""1"",""4108""
","
","
","""event"",""trial"",""time""
""fullscreenenter"",""1"",""4108""
","
","","","-1","","","21","5874","2451","l","elianto","#3366ff99","-1","-1","1","+10","[]","0","2","","","5874","62","1","2","win","no-go","0"
"pit-trial","181","1192775","0.0-67.0","battery-v0.2","","""event"",""trial"",""time""
""fullscreenenter"",""1"",""4108""
","
","
","""event"",""trial"",""time""
""fullscreenenter"",""1"",""4108""
","
","","","531.5","","","21","5874","2451","p","elianto","#3366ff99"," "," ","1","+10","[1384.6000000238419]","1","2","","","5874","63","4","1","win","go","0"
"pit-trial","182","1196728","0.0-68.0","battery-v0.2","","""event"",""trial"",""time""
""fullscreenenter"",""1"",""4108""
","
","
","""event"",""trial"",""time""
""fullscreenenter"",""1"",""4108""
","
","","","1096.699999988079","","","21","5874","2451","a","elianto","#f73b6a7A"," "," ","1","0","[1947.199999988079]","1","2","","","5874","64","2","3","lose","go","0"
"pit-trial","183","1201592","0.0-69.0","battery-v0.2","","""event"",""trial"",""time""
""fullscreenenter"",""1"",""4108""
","
","
","""event"",""trial"",""time""
""fullscreenenter"",""1"",""4108""
","
","","","-1","","","21","5874","2451","s","elianto","#3366ff99","-1","-1","1","+10","[]","0","2","","","5874","65","5","2","win","no-go","0"
"pit-trial","184","1206456","0.0-70.0","battery-v0.2","","""event"",""trial"",""time""
""fullscreenenter"",""1"",""4108""
","
","
","""event"",""trial"",""time""
""fullscreenenter"",""1"",""4108""
","
","","","-1","","","21","5874","2451","l","elianto","#3366ff99","-1","-1","1","0","[]","0","2","","","5874","66","1","2","win","no-go","1"
"pit-trial","185","1210439","0.0-71.0","battery-v0.2","","""event"",""trial"",""time""
""fullscreenenter"",""1"",""4108""
","
","
","""event"",""trial"",""time""
""fullscreenenter"",""1"",""4108""
","
","","","1125.5999999642372","","","21","5874","2451","p","elianto","#3366ff99"," "," ","1","0","[1980.0999999642372]","1","2","","","5874","67","4","1","win","go","1"
"pit-trial","186","1215304","0.0-72.0","battery-v0.2","","""event"",""trial"",""time""
""fullscreenenter"",""1"",""4108""
","
","
","""event"",""trial"",""time""
""fullscreenenter"",""1"",""4108""
","
","","","-1","","","21","5874","2451","g","elianto","#f73b6a7A","-1","-1","1","0","[]","0","2","","","5874","68","3","4","lose","no-go","0"
"pit-trial","187","1220168","0.0-73.0","battery-v0.2","","""event"",""trial"",""time""
""fullscreenenter"",""1"",""4108""
","
","
","""event"",""trial"",""time""
""fullscreenenter"",""1"",""4108""
","
","","","-1","","","21","5874","2451","s","elianto","#3366ff99","-1","-1","1","+10","[]","0","2","","","5874","69","5","2","win","no-go","0"
"pit-trial","188","1225032","0.0-74.0","battery-v0.2","","""event"",""trial"",""time""
""fullscreenenter"",""1"",""4108""
","
","
","""event"",""trial"",""time""
""fullscreenenter"",""1"",""4108""
","
","","","-1","","","21","5874","2451","l","elianto","#3366ff99","-1","-1","1","+10","[]","0","2","","","5874","70","1","2","win","no-go","0"
"pit-trial","189","1228671","0.0-75.0","battery-v0.2","","""event"",""trial"",""time""
""fullscreenenter"",""1"",""4108""
","
","
","""event"",""trial"",""time""
""fullscreenenter"",""1"",""4108""
","
","","","777.8000000119209","","","21","5874","2451","a","elianto","#f73b6a7A"," "," ","1","-10","[1632.300000011921]","1","2","","","5874","71","2","3","lose","go","1"
"pit-trial","190","1232476","0.0-76.0","battery-v0.2","","""event"",""trial"",""time""
""fullscreenenter"",""1"",""4108""
","
","
","""event"",""trial"",""time""
""fullscreenenter"",""1"",""4108""
","
","","","942.5999999642372","","","21","5874","2451","p","elianto","#3366ff99"," "," ","1","+10","[1797.199999988079]","1","2","","","5874","72","4","1","win","go","0"
"pit-trial","191","1237344","0.0-77.0","battery-v0.2","","""event"",""trial"",""time""
""fullscreenenter"",""1"",""4108""
","
","
","""event"",""trial"",""time""
""fullscreenenter"",""1"",""4108""
","
","","","-1","","","21","5874","2451","g","elianto","#f73b6a7A","-1","-1","1","0","[]","0","2","","","5874","73","3","4","lose","no-go","0"
"pit-trial","192","1241295","0.0-78.0","battery-v0.2","","""event"",""trial"",""time""
""fullscreenenter"",""1"",""4108""
","
","
","""event"",""trial"",""time""
""fullscreenenter"",""1"",""4108""
","
","","","1094.1000000238419","","","21","5874","2451","p","elianto","#3366ff99"," "," ","1","0","[1948.8999999761581]","1","2","","","5874","74","4","1","win","go","1"
"pit-trial","193","1246159","0.0-79.0","battery-v0.2","","""event"",""trial"",""time""
""fullscreenenter"",""1"",""4108""
","
","
","""event"",""trial"",""time""
""fullscreenenter"",""1"",""4108""
","
","","","-1","","","21","5874","2451","s","elianto","#3366ff99","-1","-1","1","+10","[4101.299999952316]","1","2","","","5874","75","5","2","win","no-go","0"
"pit-trial","194","1251024","0.0-80.0","battery-v0.2","","""event"",""trial"",""time""
""fullscreenenter"",""1"",""4108""
","
","
","""event"",""trial"",""time""
""fullscreenenter"",""1"",""4108""
","
","","","-1","","","21","5874","2451","l","elianto","#3366ff99","-1","-1","1","+10","[]","0","2","","","5874","76","1","2","win","no-go","0"
"pit-trial","195","1255888","0.0-81.0","battery-v0.2","","""event"",""trial"",""time""
""fullscreenenter"",""1"",""4108""
","
","
","""event"",""trial"",""time""
""fullscreenenter"",""1"",""4108""
","
","","","-1","","","21","5874","2451","s","elianto","#3366ff99","-1","-1","1","+10","[]","0","2","","","5874","77","5","2","win","no-go","0"
"pit-trial","196","1259631","0.0-82.0","battery-v0.2","","""event"",""trial"",""time""
""fullscreenenter"",""1"",""4108""
","
","
","""event"",""trial"",""time""
""fullscreenenter"",""1"",""4108""
","
","","","880.6000000238419","","","21","5874","2451","p","elianto","#3366ff99"," "," ","1","+10","[1735.3999999761581,2794.599999964237,3306.399999976158]","3","2","","","5874","78","4","1","win","go","0"
"pit-trial","197","1263042","0.0-83.0","battery-v0.2","","""event"",""trial"",""time""
""fullscreenenter"",""1"",""4108""
","
","
","""event"",""trial"",""time""
""fullscreenenter"",""1"",""4108""
","
","","","542","","","21","5874","2451","p","elianto","#3366ff99"," "," ","1","+10","[265.9000000357628,1393]","2","2","","","5874","79","4","1","win","go","0"
"pit-trial","198","1267912","0.0-84.0","battery-v0.2","","""event"",""trial"",""time""
""fullscreenenter"",""1"",""4108""
","
","
","""event"",""trial"",""time""
""fullscreenenter"",""1"",""4108""
","
","","","-1","","","21","5874","2451","g","elianto","#f73b6a7A","-1","-1","1","0","[]","0","2","","","5874","80","3","4","lose","no-go","0"
"pit-trial","199","1272360","0.0-85.0","battery-v0.2","","""event"",""trial"",""time""
""fullscreenenter"",""1"",""4108""
","
","
","""event"",""trial"",""time""
""fullscreenenter"",""1"",""4108""
","
","","","1583","","","21","5874","2451","e","elianto","#f73b6a7A","-1"," ","0","-10","[2437.699999988079]","1","2","","","5874","81","7","4","lose","no-go","0"
"pit-trial","200","1277223","0.0-86.0","battery-v0.2","","""event"",""trial"",""time""
""fullscreenenter"",""1"",""4108""
","
","
","""event"",""trial"",""time""
""fullscreenenter"",""1"",""4108""
","
","","","-1","","","21","5874","2451","g","elianto","#f73b6a7A","-1","-1","1","0","[]","0","2","","","5874","82","3","4","lose","no-go","0"
"pit-trial","201","1280863","0.0-87.0","battery-v0.2","","""event"",""trial"",""time""
""fullscreenenter"",""1"",""4108""
","
","
","""event"",""trial"",""time""
""fullscreenenter"",""1"",""4108""
","
","","","777.4000000357628","","","21","5874","2451","p","elianto","#3366ff99"," "," ","1","+10","[1633]","1","2","","","5874","83","4","1","win","go","0"
"pit-trial","202","1285739","0.0-88.0","battery-v0.2","","""event"",""trial"",""time""
""fullscreenenter"",""1"",""4108""
","
","
","""event"",""trial"",""time""
""fullscreenenter"",""1"",""4108""
","
","","","-1","","","21","5874","2451","s","elianto","#3366ff99","-1","-1","1","+10","[]","0","2","","","5874","84","5","2","win","no-go","0"
"pit-trial","203","1290607","0.0-89.0","battery-v0.2","","""event"",""trial"",""time""
""fullscreenenter"",""1"",""4108""
","
","
","""event"",""trial"",""time""
""fullscreenenter"",""1"",""4108""
","
","","","-1","","","21","5874","2451","s","elianto","#3366ff99","-1","-1","1","+10","[]","0","2","","","5874","85","5","2","win","no-go","0"
"pit-trial","204","1294759","0.0-90.0","battery-v0.2","","""event"",""trial"",""time""
""fullscreenenter"",""1"",""4108""
","
","
","""event"",""trial"",""time""
""fullscreenenter"",""1"",""4108""
","
","","","1295.699999988079","","","21","5874","2451","w","elianto","#f73b6a7A"," "," ","1","0","[2146]","1","2","","","5874","86","6","3","lose","go","0"
"pit-trial","205","1298896","0.0-91.0","battery-v0.2","","""event"",""trial"",""time""
""fullscreenenter"",""1"",""4108""
","
","
","""event"",""trial"",""time""
""fullscreenenter"",""1"",""4108""
","
","","","1277.3999999761581","","","21","5874","2451","e","elianto","#f73b6a7A","-1"," ","0","0","[2132.899999976158]","1","2","","","5874","87","7","4","lose","no-go","1"
"pit-trial","206","1302879","0.0-92.0","battery-v0.2","","""event"",""trial"",""time""
""fullscreenenter"",""1"",""4108""
","
","
","""event"",""trial"",""time""
""fullscreenenter"",""1"",""4108""
","
","","","1124","","","21","5874","2451","p","elianto","#3366ff99"," "," ","1","+10","[1975.699999988079]","1","2","","","5874","88","4","1","win","go","0"
"pit-trial","207","1307743","0.0-93.0","battery-v0.2","","""event"",""trial"",""time""
""fullscreenenter"",""1"",""4108""
","
","
","""event"",""trial"",""time""
""fullscreenenter"",""1"",""4108""
","
","","","-1","","","21","5874","2451","s","elianto","#3366ff99","-1","-1","1","+10","[]","0","2","","","5874","89","5","2","win","no-go","0"
"pit-trial","208","1311479","0.0-94.0","battery-v0.2","","""event"",""trial"",""time""
""fullscreenenter"",""1"",""4108""
","
","
","""event"",""trial"",""time""
""fullscreenenter"",""1"",""4108""
","
","","","877.6000000238419","","","21","5874","2451","w","elianto","#f73b6a7A"," "," ","1","0","[1732.4000000357628]","1","2","","","5874","90","6","3","lose","go","0"
"pit-trial","209","1315311","0.0-95.0","battery-v0.2","","""event"",""trial"",""time""
""fullscreenenter"",""1"",""4108""
","
","
","""event"",""trial"",""time""
""fullscreenenter"",""1"",""4108""
","
","","","969.5","","","21","5874","2451","p","elianto","#3366ff99"," "," ","1","+10","[1824.1000000238419]","1","2","","","5874","91","4","1","win","go","0"
"pit-trial","210","1319343","0.0-96.0","battery-v0.2","","""event"",""trial"",""time""
""fullscreenenter"",""1"",""4108""
","
","
","""event"",""trial"",""time""
""fullscreenenter"",""1"",""4108""
","
","","","1174.5","","","21","5874","2451","e","elianto","#f73b6a7A","-1"," ","0","-10","[2030.2999999523163]","1","2","","","5874","92","7","4","lose","no-go","0"
"pit-trial","211","1324207","0.0-97.0","battery-v0.2","","""event"",""trial"",""time""
""fullscreenenter"",""1"",""4108""
","
","
","""event"",""trial"",""time""
""fullscreenenter"",""1"",""4108""
","
","","","-1","","","21","5874","2451","s","elianto","#3366ff99","-1","-1","1","+10","[]","0","2","","","5874","93","5","2","win","no-go","0"
"pit-trial","212","1328119","0.0-98.0","battery-v0.2","","""event"",""trial"",""time""
""fullscreenenter"",""1"",""4108""
","
","
","""event"",""trial"",""time""
""fullscreenenter"",""1"",""4108""
","
","","","1056.6000000238419","","","21","5874","2451","e","elianto","#f73b6a7A","-1"," ","0","-10","[1908.199999988079]","1","2","","","5874","94","7","4","lose","no-go","0"
"pit-trial","213","1332495","0.0-99.0","battery-v0.2","","""event"",""trial"",""time""
""fullscreenenter"",""1"",""4108""
","
","
","""event"",""trial"",""time""
""fullscreenenter"",""1"",""4108""
","
","","","1514.9000000357628","","","21","5874","2451","d","elianto","#3366ff99"," "," ","1","+10","[2368.5]","1","2","","","5874","95","8","1","win","go","0"
"pit-trial","214","1336687","0.0-100.0","battery-v0.2","","""event"",""trial"",""time""
""fullscreenenter"",""1"",""4108""
","
","
","""event"",""trial"",""time""
""fullscreenenter"",""1"",""4108""
","
","","","1327.8999999761581","","","21","5874","2451","w","elianto","#f73b6a7A"," "," ","1","0","[2182.699999988079]","1","2","","","5874","96","6","3","lose","go","0"
"pit-trial","215","1340679","0.0-101.0","battery-v0.2","","""event"",""trial"",""time""
""fullscreenenter"",""1"",""4108""
","
","
","""event"",""trial"",""time""
""fullscreenenter"",""1"",""4108""
","
","","","1131","","","21","5874","2451","d","elianto","#3366ff99"," "," ","1","+10","[1986.3999999761581]","1","2","","","5874","97","8","1","win","go","0"
"pit-trial","216","1344072","0.0-102.0","battery-v0.2","","""event"",""trial"",""time""
""fullscreenenter"",""1"",""4108""
","
","
","""event"",""trial"",""time""
""fullscreenenter"",""1"",""4108""
","
","","","536.5","","","21","5874","2451","w","elianto","#f73b6a7A"," "," ","1","0","[1386.8999999761581]","1","2","","","5874","98","6","3","lose","go","0"
"pit-trial","217","1347496","0.0-103.0","battery-v0.2","","""event"",""trial"",""time""
""fullscreenenter"",""1"",""4108""
","
","
","""event"",""trial"",""time""
""fullscreenenter"",""1"",""4108""
","
","","","567.5","","","21","5874","2451","e","elianto","#f73b6a7A","-1"," ","0","-10","[1420]","1","2","","","5874","99","7","4","lose","no-go","0"
"pit-trial","218","1352360","0.0-104.0","battery-v0.2","","""event"",""trial"",""time""
""fullscreenenter"",""1"",""4108""
","
","
","""event"",""trial"",""time""
""fullscreenenter"",""1"",""4108""
","
","","","-1","","","21","5874","2451","s","elianto","#3366ff99","-1","-1","1","0","[]","0","2","","","5874","100","5","2","win","no-go","1"
"pit-trial","219","1356127","0.0-105.0","battery-v0.2","","""event"",""trial"",""time""
""fullscreenenter"",""1"",""4108""
","
","
","""event"",""trial"",""time""
""fullscreenenter"",""1"",""4108""
","
","","","903.8000000119209","","","21","5874","2451","j","elianto","#3366ff99"," "," ","1","+10","[1758.3999999761581]","1","2","","","5874","101","9","1","win","go","0"
"pit-trial","220","1359887","0.0-106.0","battery-v0.2","","""event"",""trial"",""time""
""fullscreenenter"",""1"",""4108""
","
","
","""event"",""trial"",""time""
""fullscreenenter"",""1"",""4108""
","
","","","900.8000000119209","","","21","5874","2451","d","elianto","#3366ff99"," "," ","1","0","[1755]","1","2","","","5874","102","8","1","win","go","1"
"pit-trial","221","1364752","0.0-107.0","battery-v0.2","","""event"",""trial"",""time""
""fullscreenenter"",""1"",""4108""
","
","
","""event"",""trial"",""time""
""fullscreenenter"",""1"",""4108""
","
","","","-1","","","21","5874","2451","s","elianto","#3366ff99","-1","-1","1","0","[]","0","2","","","5874","103","5","2","win","no-go","1"
"pit-trial","222","1369616","0.0-108.0","battery-v0.2","","""event"",""trial"",""time""
""fullscreenenter"",""1"",""4108""
","
","
","""event"",""trial"",""time""
""fullscreenenter"",""1"",""4108""
","
","","","-1","","","21","5874","2451","e","elianto","#f73b6a7A","-1","-1","1","0","[]","0","2","","","5874","104","7","4","lose","no-go","0"
"pit-trial","223","1374192","0.0-109.0","battery-v0.2","","""event"",""trial"",""time""
""fullscreenenter"",""1"",""4108""
","
","
","""event"",""trial"",""time""
""fullscreenenter"",""1"",""4108""
","
","","","1718.800000011921","","","21","5874","2451","d","elianto","#3366ff99"," "," ","1","+10","[2572.099999964237]","1","2","","","5874","105","8","1","win","go","0"
"pit-trial","224","1379056","0.0-110.0","battery-v0.2","","""event"",""trial"",""time""
""fullscreenenter"",""1"",""4108""
","
","
","""event"",""trial"",""time""
""fullscreenenter"",""1"",""4108""
","
","","","-1","","","21","5874","2451","w","elianto","#f73b6a7A"," ","-1","0","-10","[3207.199999988079]","1","2","","","5874","106","6","3","lose","go","0"
"pit-trial","225","1382743","0.0-111.0","battery-v0.2","","""event"",""trial"",""time""
""fullscreenenter"",""1"",""4108""
","
","
","""event"",""trial"",""time""
""fullscreenenter"",""1"",""4108""
","
","","","823.6000000238419","","","21","5874","2451","p","elianto","#3366ff99"," "," ","1","+10","[1678.199999988079]","1","2","","","5874","107","4","1","win","go","0"
"pit-trial","226","1386664","0.0-112.0","battery-v0.2","","""event"",""trial"",""time""
""fullscreenenter"",""1"",""4108""
","
","
","""event"",""trial"",""time""
""fullscreenenter"",""1"",""4108""
","
","","","1056.6000000238419","","","21","5874","2451","j","elianto","#3366ff99"," "," ","1","+10","[1911.9000000357628]","1","2","","","5874","108","9","1","win","go","0"
"pit-trial","227","1390224","0.0-113.0","battery-v0.2","","""event"",""trial"",""time""
""fullscreenenter"",""1"",""4108""
","
","
","""event"",""trial"",""time""
""fullscreenenter"",""1"",""4108""
","
","","","702.2000000476837","","","21","5874","2451","d","elianto","#3366ff99"," "," ","1","+10","[1557.2000000476837]","1","2","","","5874","109","8","1","win","go","0"
"pit-trial","228","1394239","0.0-114.0","battery-v0.2","","""event"",""trial"",""time""
""fullscreenenter"",""1"",""4108""
","
","
","""event"",""trial"",""time""
""fullscreenenter"",""1"",""4108""
","
","","","1153.800000011921","","","21","5874","2451","w","elianto","#f73b6a7A"," "," ","1","0","[2008.199999988079]","1","2","","","5874","110","6","3","lose","go","0"
"pit-trial","229","1399103","0.0-115.0","battery-v0.2","","""event"",""trial"",""time""
""fullscreenenter"",""1"",""4108""
","
","
","""event"",""trial"",""time""
""fullscreenenter"",""1"",""4108""
","
","","","-1","","","21","5874","2451","s","elianto","#3366ff99","-1","-1","1","+10","[]","0","2","","","5874","111","5","2","win","no-go","0"
"pit-trial","230","1402616","0.0-116.0","battery-v0.2","","""event"",""trial"",""time""
""fullscreenenter"",""1"",""4108""
","
","
","""event"",""trial"",""time""
""fullscreenenter"",""1"",""4108""
","
","","","654.9000000357628","","","21","5874","2451","j","elianto","#3366ff99"," "," ","1","+10","[1509.7000000476837]","1","2","","","5874","112","9","1","win","go","0"
"pit-trial","231","1406408","0.0-117.0","battery-v0.2","","""event"",""trial"",""time""
""fullscreenenter"",""1"",""4108""
","
","
","""event"",""trial"",""time""
""fullscreenenter"",""1"",""4108""
","
","","","927","","","21","5874","2451","d","elianto","#3366ff99"," "," ","1","+10","[1782.699999988079]","1","2","","","5874","113","8","1","win","go","0"
"pit-trial","232","1411271","0.0-118.0","battery-v0.2","","""event"",""trial"",""time""
""fullscreenenter"",""1"",""4108""
","
","
","""event"",""trial"",""time""
""fullscreenenter"",""1"",""4108""
","
","","","-1","","","21","5874","2451","s","elianto","#3366ff99","-1","-1","1","0","[]","0","2","","","5874","114","5","2","win","no-go","1"
"pit-trial","233","1414944","0.0-119.0","battery-v0.2","","""event"",""trial"",""time""
""fullscreenenter"",""1"",""4108""
","
","
","""event"",""trial"",""time""
""fullscreenenter"",""1"",""4108""
","
","","","808.0999999642372","","","21","5874","2451","j","elianto","#3366ff99"," "," ","1","+10","[1663.800000011921]","1","2","","","5874","115","9","1","win","go","0"
"pit-trial","234","1418784","0.0-120.0","battery-v0.2","","""event"",""trial"",""time""
""fullscreenenter"",""1"",""4108""
","
","
","""event"",""trial"",""time""
""fullscreenenter"",""1"",""4108""
","
","","","982.6999999880791","","","21","5874","2451","w","elianto","#f73b6a7A"," "," ","1","-10","[1835.5]","1","2","","","5874","116","6","3","lose","go","1"
"pit-trial","235","1422344","0.0-121.0","battery-v0.2","","""event"",""trial"",""time""
""fullscreenenter"",""1"",""4108""
","
","
","""event"",""trial"",""time""
""fullscreenenter"",""1"",""4108""
","
","","","702.5","","","21","5874","2451","j","elianto","#3366ff99"," "," ","1","+10","[1556.6000000238419]","1","2","","","5874","117","9","1","win","go","0"
"pit-trial","236","1426136","0.0-122.0","battery-v0.2","","""event"",""trial"",""time""
""fullscreenenter"",""1"",""4108""
","
","
","""event"",""trial"",""time""
""fullscreenenter"",""1"",""4108""
","
","","","929.6999999880791","","","21","5874","2451","w","elianto","#f73b6a7A"," "," ","1","0","[1784.5]","1","2","","","5874","118","6","3","lose","go","0"
"pit-trial","237","1431000","0.0-123.0","battery-v0.2","","""event"",""trial"",""time""
""fullscreenenter"",""1"",""4108""
","
","
","""event"",""trial"",""time""
""fullscreenenter"",""1"",""4108""
","
","","","-1","","","21","5874","2451","s","elianto","#3366ff99","-1","-1","1","0","[]","0","2","","","5874","119","5","2","win","no-go","1"
"pit-trial","238","1434472","0.0-124.0","battery-v0.2","","""event"",""trial"",""time""
""fullscreenenter"",""1"",""4108""
","
","
","""event"",""trial"",""time""
""fullscreenenter"",""1"",""4108""
","
","","","614.6999999880791","","","21","5874","2451","d","elianto","#3366ff99"," "," ","1","+10","[1466]","1","2","","","5874","120","8","1","win","go","0"
"pit-trial","239","1438096","0.0-125.0","battery-v0.2","","""event"",""trial"",""time""
""fullscreenenter"",""1"",""4108""
","
","
","""event"",""trial"",""time""
""fullscreenenter"",""1"",""4108""
","
","","","763.5999999642372","","","21","5874","2451","w","elianto","#f73b6a7A"," "," ","1","-10","[1618.3999999761581]","1","2","","","5874","121","6","3","lose","go","1"
"pit-trial","240","1442960","0.0-126.0","battery-v0.2","","""event"",""trial"",""time""
""fullscreenenter"",""1"",""4108""
","
","
","""event"",""trial"",""time""
""fullscreenenter"",""1"",""4108""
","
","","","-1","","","21","5874","2451","e","elianto","#f73b6a7A","-1","-1","1","0","[]","0","2","","","5874","122","7","4","lose","no-go","0"
"pit-trial","241","1446615","0.0-127.0","battery-v0.2","","""event"",""trial"",""time""
""fullscreenenter"",""1"",""4108""
","
","
","""event"",""trial"",""time""
""fullscreenenter"",""1"",""4108""
","
","","","794.4000000357628","","","21","5874","2451","j","elianto","#3366ff99"," "," ","1","+10","[1648.9000000357628]","1","2","","","5874","123","9","1","win","go","0"
"pit-trial","242","1450216","0.0-128.0","battery-v0.2","","""event"",""trial"",""time""
""fullscreenenter"",""1"",""4108""
","
","
","""event"",""trial"",""time""
""fullscreenenter"",""1"",""4108""
","
","","","743.1999999880791","","","21","5874","2451","d","elianto","#3366ff99"," "," ","1","+10","[1597.3999999761581]","1","2","","","5874","124","8","1","win","go","0"
"pit-trial","243","1454224","0.0-129.0","battery-v0.2","","""event"",""trial"",""time""
""fullscreenenter"",""1"",""4108""
","
","
","""event"",""trial"",""time""
""fullscreenenter"",""1"",""4108""
","
","","","1148.5","","","21","5874","2451","w","elianto","#f73b6a7A"," "," ","1","-10","[1998.699999988079]","1","2","","","5874","125","6","3","lose","go","1"
"pit-trial","244","1457887","0.0-130.0","battery-v0.2","","""event"",""trial"",""time""
""fullscreenenter"",""1"",""4108""
","
","
","""event"",""trial"",""time""
""fullscreenenter"",""1"",""4108""
","
","","","800.2000000476837","","","21","5874","2451","j","elianto","#3366ff99"," "," ","1","0","[1655.4000000357628]","1","2","","","5874","126","9","1","win","go","1"
"pit-trial","245","1461607","0.0-131.0","battery-v0.2","","""event"",""trial"",""time""
""fullscreenenter"",""1"",""4108""
","
","
","""event"",""trial"",""time""
""fullscreenenter"",""1"",""4108""
","
","","","857.8000000119209","","","21","5874","2451","d","elianto","#3366ff99"," "," ","1","+10","[1713.1000000238419]","1","2","","","5874","127","8","1","win","go","0"
"pit-trial","246","1466472","0.0-132.0","battery-v0.2","","""event"",""trial"",""time""
""fullscreenenter"",""1"",""4108""
","
","
","""event"",""trial"",""time""
""fullscreenenter"",""1"",""4108""
","
","","","-1","","","21","5874","2451","e","elianto","#f73b6a7A","-1","-1","1","0","[]","0","2","","","5874","128","7","4","lose","no-go","0"
"pit-trial","247","1470296","0.0-133.0","battery-v0.2","","""event"",""trial"",""time""
""fullscreenenter"",""1"",""4108""
","
","
","""event"",""trial"",""time""
""fullscreenenter"",""1"",""4108""
","
","","","966.1000000238419","","","21","5874","2451","d","elianto","#3366ff99"," "," ","1","+10","[1820.7000000476837]","1","2","","","5874","129","8","1","win","go","0"
"pit-trial","248","1474144","0.0-134.0","battery-v0.2","","""event"",""trial"",""time""
""fullscreenenter"",""1"",""4108""
","
","
","""event"",""trial"",""time""
""fullscreenenter"",""1"",""4108""
","
","","","992.8999999761581","","","21","5874","2451","w","elianto","#f73b6a7A"," "," ","1","0","[1844.8999999761581]","1","2","","","5874","130","6","3","lose","go","0"
"pit-trial","249","1479008","0.0-135.0","battery-v0.2","","""event"",""trial"",""time""
""fullscreenenter"",""1"",""4108""
","
","
","""event"",""trial"",""time""
""fullscreenenter"",""1"",""4108""
","
","","","-1","","","21","5874","2451","e","elianto","#f73b6a7A","-1","-1","1","0","[]","0","2","","","5874","131","7","4","lose","no-go","0"
"pit-trial","250","1482544","0.0-136.0","battery-v0.2","","""event"",""trial"",""time""
""fullscreenenter"",""1"",""4108""
","
","
","""event"",""trial"",""time""
""fullscreenenter"",""1"",""4108""
","
","","","683.5","","","21","5874","2451","j","elianto","#3366ff99"," "," ","1","+10","[1533.5999999642372]","1","2","","","5874","132","9","1","win","go","0"
"pit-trial","251","1486096","0.0-137.0","battery-v0.2","","""event"",""trial"",""time""
""fullscreenenter"",""1"",""4108""
","
","
","""event"",""trial"",""time""
""fullscreenenter"",""1"",""4108""
","
","","","688","","","21","5874","2451","j","elianto","#3366ff99"," "," ","1","+10","[1542.6000000238419]","1","2","","","5874","133","9","1","win","go","0"
"pit-trial","252","1490960","0.0-138.0","battery-v0.2","","""event"",""trial"",""time""
""fullscreenenter"",""1"",""4108""
","
","
","""event"",""trial"",""time""
""fullscreenenter"",""1"",""4108""
","
","","","-1","","","21","5874","2451","e","elianto","#f73b6a7A","-1","-1","1","0","[]","0","2","","","5874","134","7","4","lose","no-go","0"
"pit-trial","253","1494688","0.0-139.0","battery-v0.2","","""event"",""trial"",""time""
""fullscreenenter"",""1"",""4108""
","
","
","""event"",""trial"",""time""
""fullscreenenter"",""1"",""4108""
","
","","","867","","","21","5874","2451","d","elianto","#3366ff99"," "," ","1","+10","[1721.5]","1","2","","","5874","135","8","1","win","go","0"
"pit-trial","254","1498544","0.0-140.0","battery-v0.2","","""event"",""trial"",""time""
""fullscreenenter"",""1"",""4108""
","
","
","""event"",""trial"",""time""
""fullscreenenter"",""1"",""4108""
","
","","","992.8999999761581","","","21","5874","2451","w","elianto","#f73b6a7A"," "," ","1","0","[1848.699999988079]","1","2","","","5874","136","6","3","lose","go","0"
"pit-trial","255","1503409","0.0-141.0","battery-v0.2","","""event"",""trial"",""time""
""fullscreenenter"",""1"",""4108""
","
","
","""event"",""trial"",""time""
""fullscreenenter"",""1"",""4108""
","
","","","-1","","","21","5874","2451","e","elianto","#f73b6a7A","-1","-1","1","0","[]","0","2","","","5874","137","7","4","lose","no-go","0"
"pit-trial","256","1507112","0.0-142.0","battery-v0.2","","""event"",""trial"",""time""
""fullscreenenter"",""1"",""4108""
","
","
","""event"",""trial"",""time""
""fullscreenenter"",""1"",""4108""
","
","","","840","","","21","5874","2451","d","elianto","#3366ff99"," "," ","1","0","[1694.300000011921]","1","2","","","5874","138","8","1","win","go","1"
"pit-trial","257","1510808","0.0-143.0","battery-v0.2","","""event"",""trial"",""time""
""fullscreenenter"",""1"",""4108""
","
","
","""event"",""trial"",""time""
""fullscreenenter"",""1"",""4108""
","
","","","832.5999999642372","","","21","5874","2451","j","elianto","#3366ff99"," "," ","1","0","[1686.5]","1","2","","","5874","139","9","1","win","go","1"
"pit-trial","258","1514312","0.0-144.0","battery-v0.2","","""event"",""trial"",""time""
""fullscreenenter"",""1"",""4108""
","
","
","""event"",""trial"",""time""
""fullscreenenter"",""1"",""4108""
","
","","","643.5","","","21","5874","2451","w","elianto","#f73b6a7A"," "," ","1","0","[1499.1000000238419]","1","2","","","5874","140","6","3","lose","go","0"
"pit-instructions","259","1619653","0.0-145.0","battery-v0.2","","""event"",""trial"",""time""
""fullscreenenter"",""1"",""4108""
","
","
","""event"",""trial"",""time""
""fullscreenenter"",""1"",""4108""
","
","","[{""page_index"":0,""viewing_time"":95533.10000002384},{""page_index"":1,""viewing_time"":9806.199999988079}]","105339.89999997616","","","","","","","","","","","","","","","","","","","","","","","",""
"pit-trial","260","1623566","0.0-146.0","battery-v0.2","","""event"",""trial"",""time""
""fullscreenenter"",""1"",""4108""
","
","
","""event"",""trial"",""time""
""fullscreenenter"",""1"",""4108""
","
","","","1043.8999999761581","","","21","5874","2451","m","elianto","#f73b6a7A","-1"," ","0","-10","[1899.8999999761581]","1","3","","","5874","141","0","4","lose","no-go","0"
"pit-trial","261","1627522","0.0-147.0","battery-v0.2","","""event"",""trial"",""time""
""fullscreenenter"",""1"",""4108""
","
","
","""event"",""trial"",""time""
""fullscreenenter"",""1"",""4108""
","
","","","1083.800000011921","","","21","5874","2451","h","elianto","#f73b6a7A"," "," ","1","-10","[1948.3999999761581]","1","3","","","5874","142","3","3","lose","go","1"
"pit-trial","262","1630980","0.0-148.0","battery-v0.2","","""event"",""trial"",""time""
""fullscreenenter"",""1"",""4108""
","
","
","""event"",""trial"",""time""
""fullscreenenter"",""1"",""4108""
","
","","","595.2999999523163","","","21","5874","2451","r","elianto","#3366ff99"," "," ","1","0","[1451]","1","3","","","5874","143","1","1","win","go","1"
"pit-trial","263","1634620","0.0-149.0","battery-v0.2","","""event"",""trial"",""time""
""fullscreenenter"",""1"",""4108""
","
","
","""event"",""trial"",""time""
""fullscreenenter"",""1"",""4108""
","
","","","761.9000000357628","","","21","5874","2451","y","elianto","#f73b6a7A","-1"," ","0","-10","[1623.2000000476837]","1","3","","","5874","144","2","4","lose","no-go","0"
"pit-trial","264","1638539","0.0-150.0","battery-v0.2","","""event"",""trial"",""time""
""fullscreenenter"",""1"",""4108""
","
","
","""event"",""trial"",""time""
""fullscreenenter"",""1"",""4108""
","
","","","1055","","","21","5874","2451","r","elianto","#3366ff99"," "," ","1","+10","[1906.199999988079]","1","3","","","5874","145","1","1","win","go","0"
"pit-trial","265","1642142","0.0-151.0","battery-v0.2","","""event"",""trial"",""time""
""fullscreenenter"",""1"",""4108""
","
","
","""event"",""trial"",""time""
""fullscreenenter"",""1"",""4108""
","
","","","728.3999999761581","","","21","5874","2451","h","elianto","#f73b6a7A"," "," ","1","0","[1580.199999988079]","1","3","","","5874","146","3","3","lose","go","0"
"pit-trial","266","1647012","0.0-152.0","battery-v0.2","","""event"",""trial"",""time""
""fullscreenenter"",""1"",""4108""
","
","
","""event"",""trial"",""time""
""fullscreenenter"",""1"",""4108""
