"trial_type","trial_index","time_elapsed","internal_node_id","task_version","subject_id","interactions","blur_events","focus_events","fullscreenenter_events","fullscreenexit_events","success","view_history","rt","responses","num_errors","age","subject","participantId","rune","rune_set","hex","correct","choice","accuracy","outcome","keys","total_keys","block","practice","value","sub","trial","stimulus","robot","valence","action","sham"
"pavlovia","0","13","0.0-0.0","battery-v0.2","","""event"",""trial"",""time""
""fullscreenenter"",""1"",""9091""
","
","
","""event"",""trial"",""time""
""fullscreenenter"",""1"",""9091""
","
","","","","","","","","","","","","","","","","","","","","","","","","","","",""
"fullscreen","1","10055","0.0-1.0","battery-v0.2","","""event"",""trial"",""time""
""fullscreenenter"",""1"",""9091""
","
","
","""event"",""trial"",""time""
""fullscreenenter"",""1"",""9091""
","
","true","","","","","","","","","","","","","","","","","","","","","","","","","",""
"pit-instructions","2","15526","0.0-2.0-0.0","battery-v0.2","","""event"",""trial"",""time""
""fullscreenenter"",""1"",""9091""
","
","
","""event"",""trial"",""time""
""fullscreenenter"",""1"",""9091""
","
","","[{""page_index"":0,""viewing_time"":5467}]","5467.4000000059605","","","","","","","","","","","","","","","","","","","","","","","",""
"pit-comprehension","3","21253","0.0-2.0-1.0-0.0","battery-v0.2","","""event"",""trial"",""time""
""fullscreenenter"",""1"",""9091""
","
","
","""event"",""trial"",""time""
""fullscreenenter"",""1"",""9091""
","
","","","5722","[""shark""]","0","12","20930","7791","","","","","","","","","","","","","","","","","","",""
"pit-instructions","4","25487","0.0-2.0-1.0-1.0","battery-v0.2","","""event"",""trial"",""time""
""fullscreenenter"",""1"",""9091""
","
","
","""event"",""trial"",""time""
""fullscreenenter"",""1"",""9091""
","
","","[{""page_index"":0,""viewing_time"":4223.5999999940395}]","4224.0999999940395","","","","","","","","","","","","","","","","","","","","","","","",""
"pit-comprehension","5","29390","0.0-2.0-2.0-0.0","battery-v0.2","","""event"",""trial"",""time""
""fullscreenenter"",""1"",""9091""
","
","
","""event"",""trial"",""time""
""fullscreenenter"",""1"",""9091""
","
","","","3899.5","[""tiger""]","0","12","20930","7791","","","","","","","","","","","","","","","","","","",""
"pit-instructions","6","31121","0.0-2.0-2.0-1.0","battery-v0.2","","""event"",""trial"",""time""
""fullscreenenter"",""1"",""9091""
","
","
","""event"",""trial"",""time""
""fullscreenenter"",""1"",""9091""
","
","","[{""page_index"":0,""viewing_time"":1727.4000000059605}]","1727.800000011921","","","","","","","","","","","","","","","","","","","","","","","",""
"pit-instructions","7","292474","0.0-2.0-3.0","battery-v0.2","","""event"",""trial"",""time""
""fullscreenenter"",""1"",""9091""
","
","
","""event"",""trial"",""time""
""fullscreenenter"",""1"",""9091""
","
","","[{""page_index"":0,""viewing_time"":12564.79999999702},{""page_index"":1,""viewing_time"":7134.0999999940395},{""page_index"":2,""viewing_time"":6836},{""page_index"":3,""viewing_time"":6086},{""page_index"":4,""viewing_time"":6142},{""page_index"":5,""viewing_time"":6518.300000011921},{""page_index"":6,""viewing_time"":9311.699999988079},{""page_index"":7,""viewing_time"":6635.600000008941},{""page_index"":8,""viewing_time"":108406.39999999106},{""page_index"":7,""viewing_time"":358.6000000089407},{""page_index"":6,""viewing_time"":328.5},{""page_index"":5,""viewing_time"":313.79999999701977},{""page_index"":4,""viewing_time"":3601.5},{""page_index"":3,""viewing_time"":946.4000000059605},{""page_index"":2,""viewing_time"":9778.699999988079},{""page_index"":3,""viewing_time"":5039.300000011921},{""page_index"":4,""viewing_time"":8420.59999999404},{""page_index"":5,""viewing_time"":5860.4000000059605},{""page_index"":6,""viewing_time"":6899.699999988079},{""page_index"":7,""viewing_time"":8319.10000000894},{""page_index"":8,""viewing_time"":7529.0999999940395},{""page_index"":9,""viewing_time"":7543.600000008941},{""page_index"":10,""viewing_time"":10471.29999999702},{""page_index"":11,""viewing_time"":4544.5},{""page_index"":12,""viewing_time"":7035.29999999702},{""page_index"":13,""viewing_time"":4724.79999999702}]","261350.5","","","","","","","","","","","","","","","","","","","","","","","",""
"pit-trial","8","296726","0.0-2.0-4.0-0.0","battery-v0.2","","""event"",""trial"",""time""
""fullscreenenter"",""1"",""9091""
","
","
","""event"",""trial"",""time""
""fullscreenenter"",""1"",""9091""
","
","","","1388.7999999970198","","","12","20930","7791","&#9784;","elianto","#FFFFF080"," "," ","1","&#10004","[2238.7999999970198]","1","0","0","","","","","","","",""
"pit-trial","9","300685","0.0-2.0-4.1-0.1","battery-v0.2","","""event"",""trial"",""time""
""fullscreenenter"",""1"",""9091""
","
","
","""event"",""trial"",""time""
""fullscreenenter"",""1"",""9091""
","
","","","1086.5999999940395","","","12","20930","7791","&#9784;","elianto","#FFFFF080"," "," ","1","&#10004","[1944.7000000029802]","1","0","0","","","","","","","",""
"pit-trial","10","304095","0.0-2.0-4.2-0.2","battery-v0.2","","""event"",""trial"",""time""
""fullscreenenter"",""1"",""9091""
","
","
","""event"",""trial"",""time""
""fullscreenenter"",""1"",""9091""
","
","","","546.8000000119209","","","12","20930","7791","&#9784;","elianto","#FFFFF080"," "," ","1","&#10004","[1399]","1","0","0","","","","","","","",""
"pit-trial","11","307604","0.0-2.0-4.3-0.3","battery-v0.2","","""event"",""trial"",""time""
""fullscreenenter"",""1"",""9091""
","
","
","""event"",""trial"",""time""
""fullscreenenter"",""1"",""9091""
","
","","","640.5","","","12","20930","7791","&#9784;","elianto","#FFFFF080"," "," ","1","&#10004","[1497.1000000089407]","1","0","0","","","","","","","",""
"pit-trial","12","311298","0.0-2.0-4.4-0.4","battery-v0.2","","""event"",""trial"",""time""
""fullscreenenter"",""1"",""9091""
","
","
","""event"",""trial"",""time""
""fullscreenenter"",""1"",""9091""
","
","","","833.7999999970198","","","12","20930","7791","&#9784;","elianto","#FFFFF080"," "," ","1","&#10004","[1683.9000000059605]","1","0","0","","","","","","","",""
"pit-instructions","13","341000","0.0-2.0-5.0","battery-v0.2","","""event"",""trial"",""time""
""fullscreenenter"",""1"",""9091""
","
","
","""event"",""trial"",""time""
""fullscreenenter"",""1"",""9091""
","
","","[{""page_index"":0,""viewing_time"":4756.79999999702},{""page_index"":1,""viewing_time"":9004},{""page_index"":2,""viewing_time"":4714.9000000059605},{""page_index"":3,""viewing_time"":11222.699999988079}]","29698.89999999106","","","","","","","","","","","","","","","","","","","","","","","",""
"pit-trial","14","345868","0.0-2.0-6.0-0.0","battery-v0.2","","""event"",""trial"",""time""
""fullscreenenter"",""1"",""9091""
","
","
","""event"",""trial"",""time""
""fullscreenenter"",""1"",""9091""
","
","","","-1","","","12","20930","7791","&#9854;","elianto","#FFFFF080","-1","-1","1","&#10004","[]","0","0","1","","","","","","","",""
"pit-trial","15","350737","0.0-2.0-6.1-0.1","battery-v0.2","","""event"",""trial"",""time""
""fullscreenenter"",""1"",""9091""
","
","
","""event"",""trial"",""time""
""fullscreenenter"",""1"",""9091""
","
","","","-1","","","12","20930","7791","&#9854;","elianto","#FFFFF080","-1","-1","1","&#10004","[]","0","0","1","","","","","","","",""
"pit-trial","16","355603","0.0-2.0-6.2-0.2","battery-v0.2","","""event"",""trial"",""time""
""fullscreenenter"",""1"",""9091""
","
","
","""event"",""trial"",""time""
""fullscreenenter"",""1"",""9091""
","
","","","-1","","","12","20930","7791","&#9854;","elianto","#FFFFF080","-1","-1","1","&#10004","[]","0","0","1","","","","","","","",""
"pit-trial","17","360480","0.0-2.0-6.3-0.3","battery-v0.2","","""event"",""trial"",""time""
""fullscreenenter"",""1"",""9091""
","
","
","""event"",""trial"",""time""
""fullscreenenter"",""1"",""9091""
","
","","","-1","","","12","20930","7791","&#9854;","elianto","#FFFFF080","-1","-1","1","&#10004","[]","0","0","1","","","","","","","",""
"pit-trial","18","365347","0.0-2.0-6.4-0.4","battery-v0.2","","""event"",""trial"",""time""
""fullscreenenter"",""1"",""9091""
","
","
","""event"",""trial"",""time""
""fullscreenenter"",""1"",""9091""
","
","","","-1","","","12","20930","7791","&#9854;","elianto","#FFFFF080","-1","-1","1","&#10004","[]","0","0","1","","","","","","","",""
"pit-instructions","19","502202","0.0-2.0-7.0","battery-v0.2","","""event"",""trial"",""time""
""fullscreenenter"",""1"",""9091""
","
","
","""event"",""trial"",""time""
""fullscreenenter"",""1"",""9091""
","
","","[{""page_index"":0,""viewing_time"":5679.70000000298},{""page_index"":1,""viewing_time"":6088.79999999702},{""page_index"":2,""viewing_time"":5498},{""page_index"":3,""viewing_time"":5722.600000008941},{""page_index"":4,""viewing_time"":8652.09999999404},{""page_index"":5,""viewing_time"":6712.29999999702},{""page_index"":6,""viewing_time"":10833.5},{""page_index"":7,""viewing_time"":13936.90000000596},{""page_index"":8,""viewing_time"":9837.5},{""page_index"":9,""viewing_time"":6287.29999999702},{""page_index"":10,""viewing_time"":7701.4000000059605},{""page_index"":11,""viewing_time"":4868.0999999940395},{""page_index"":12,""viewing_time"":6129.79999999702},{""page_index"":13,""viewing_time"":6603.4000000059605},{""page_index"":14,""viewing_time"":6757.399999991059},{""page_index"":15,""viewing_time"":9143.20000000298},{""page_index"":16,""viewing_time"":8316.60000000894},{""page_index"":17,""viewing_time"":8082.699999988079}]","136851.70000000298","","","","","","","","","","","","","","","","","","","","","","","",""
"pit-trial","20","505959","0.0-2.0-8.0-0.0","battery-v0.2","","""event"",""trial"",""time""
""fullscreenenter"",""1"",""9091""
","
","
","""event"",""trial"",""time""
""fullscreenenter"",""1"",""9091""
","
","","","882.4000000059605","","","12","20930","7791","&#9776;","elianto","#3366ff99"," "," ","1","+10","[1738.9000000059605]","1","0","1","","","","","","","",""
"pit-trial","21","510024","0.0-2.0-8.0-1.0","battery-v0.2","","""event"",""trial"",""time""
""fullscreenenter"",""1"",""9091""
","
","
","""event"",""trial"",""time""
""fullscreenenter"",""1"",""9091""
","
","","","1189.0999999940395","","","12","20930","7791","&#9776;","elianto","#3366ff99"," "," ","1","+10","[2051]","1","0","1","","","","","","","",""
"pit-trial","22","513126","0.0-2.0-8.0-2.0","battery-v0.2","","""event"",""trial"",""time""
""fullscreenenter"",""1"",""9091""
","
","
","""event"",""trial"",""time""
""fullscreenenter"",""1"",""9091""
","
","","","248.70000000298023","","","12","20930","7791","&#9776;","elianto","#3366ff99"," "," ","1","+10","[1098.7999999970198]","1","0","1","","","","","","","",""
"pit-trial","23","516511","0.0-2.0-8.0-3.0","battery-v0.2","","""event"",""trial"",""time""
""fullscreenenter"",""1"",""9091""
","
","
","""event"",""trial"",""time""
""fullscreenenter"",""1"",""9091""
","
","","","512.7000000029802","","","12","20930","7791","&#9776;","elianto","#3366ff99"," "," ","1","0","[1370.0999999940395]","1","0","1","","","","","","","",""
"pit-trial","24","520492","0.0-2.0-8.0-4.0","battery-v0.2","","""event"",""trial"",""time""
""fullscreenenter"",""1"",""9091""
","
","
","""event"",""trial"",""time""
""fullscreenenter"",""1"",""9091""
","
","","","1125.5","","","12","20930","7791","&#9776;","elianto","#3366ff99"," "," ","1","+10","[1978]","1","0","1","","","","","","","",""
"pit-trial","25","523962","0.0-2.0-8.1-0.1","battery-v0.2","","""event"",""trial"",""time""
""fullscreenenter"",""1"",""9091""
","
","
","""event"",""trial"",""time""
""fullscreenenter"",""1"",""9091""
","
","","","605.9000000059605","","","12","20930","7791","&#9776;","elianto","#3366ff99"," "," ","1","+10","[1465.8999999910593]","1","0","1","","","","","","","",""
"pit-trial","26","526939","0.0-2.0-8.1-1.1","battery-v0.2","","""event"",""trial"",""time""
""fullscreenenter"",""1"",""9091""
","
","
","""event"",""trial"",""time""
""fullscreenenter"",""1"",""9091""
","
","","","106.59999999403954","","","12","20930","7791","&#9776;","elianto","#3366ff99"," "," ","1","+10","[964.7999999970198]","1","0","1","","","","","","","",""
"pit-trial","27","531804","0.0-2.0-8.1-2.1","battery-v0.2","","""event"",""trial"",""time""
""fullscreenenter"",""1"",""9091""
","
","
","""event"",""trial"",""time""
""fullscreenenter"",""1"",""9091""
","
","","","-1","","","12","20930","7791","&#9776;","elianto","#3366ff99"," ","-1","0","0","[]","0","0","1","","","","","","","",""
"pit-trial","28","535306","0.0-2.0-8.1-3.1","battery-v0.2","","""event"",""trial"",""time""
""fullscreenenter"",""1"",""9091""
","
","
","""event"",""trial"",""time""
""fullscreenenter"",""1"",""9091""
","
","","","644.7000000029802","","","12","20930","7791","&#9776;","elianto","#3366ff99"," "," ","1","0","[1496.2000000029802]","1","0","1","","","","","","","",""
"pit-trial","29","538828","0.0-2.0-8.1-4.1","battery-v0.2","","""event"",""trial"",""time""
""fullscreenenter"",""1"",""9091""
","
","
","""event"",""trial"",""time""
""fullscreenenter"",""1"",""9091""
","
","","","668","","","12","20930","7791","&#9776;","elianto","#3366ff99"," "," ","1","+10","[1519.2999999970198]","1","0","1","","","","","","","",""
"pit-trial","30","541729","0.0-2.0-8.2-0.2","battery-v0.2","","""event"",""trial"",""time""
""fullscreenenter"",""1"",""9091""
","
","
","""event"",""trial"",""time""
""fullscreenenter"",""1"",""9091""
","
","","","47","","","12","20930","7791","&#9776;","elianto","#3366ff99"," "," ","1","+10","[897.8999999910593]","1","0","1","","","","","","","",""
"pit-trial","31","545087","0.0-2.0-8.2-1.2","battery-v0.2","","""event"",""trial"",""time""
""fullscreenenter"",""1"",""9091""
","
","
","""event"",""trial"",""time""
""fullscreenenter"",""1"",""9091""
","
","","","504.40000000596046","","","12","20930","7791","&#9776;","elianto","#3366ff99"," "," ","1","+10","[1354.9000000059605]","1","0","1","","","","","","","",""
"pit-trial","32","548663","0.0-2.0-8.2-2.2","battery-v0.2","","""event"",""trial"",""time""
""fullscreenenter"",""1"",""9091""
","
","
","""event"",""trial"",""time""
""fullscreenenter"",""1"",""9091""
","
","","","716.5999999940395","","","12","20930","7791","&#9776;","elianto","#3366ff99"," "," ","1","+10","[1567.2999999970198]","1","0","1","","","","","","","",""
"pit-trial","33","552098","0.0-2.0-8.2-3.2","battery-v0.2","","""event"",""trial"",""time""
""fullscreenenter"",""1"",""9091""
","
","
","""event"",""trial"",""time""
""fullscreenenter"",""1"",""9091""
","
","","","574.7999999970198","","","12","20930","7791","&#9776;","elianto","#3366ff99"," "," ","1","0","[1425.1000000089407]","1","0","1","","","","","","","",""
"pit-trial","34","555366","0.0-2.0-8.2-4.2","battery-v0.2","","""event"",""trial"",""time""
""fullscreenenter"",""1"",""9091""
","
","
","""event"",""trial"",""time""
""fullscreenenter"",""1"",""9091""
","
","","","409.8999999910593","","","12","20930","7791","&#9776;","elianto","#3366ff99"," "," ","1","+10","[1266.699999988079]","1","0","1","","","","","","","",""
"call-function","35","555368","0.0-2.0-9.0","battery-v0.2","","""event"",""trial"",""time""
""fullscreenenter"",""1"",""9091""
","
","
","""event"",""trial"",""time""
""fullscreenenter"",""1"",""9091""
","
","","","","","","","","","","","","","","","","","","","","","","","","","","",""
"pit-instructions","36","599651","0.0-2.0-10.0","battery-v0.2","","""event"",""trial"",""time""
""fullscreenenter"",""1"",""9091""
","
","
","""event"",""trial"",""time""
""fullscreenenter"",""1"",""9091""
","
","","[{""page_index"":0,""viewing_time"":5311.899999991059},{""page_index"":1,""viewing_time"":6125.70000000298},{""page_index"":2,""viewing_time"":15809.59999999404},{""page_index"":3,""viewing_time"":8155},{""page_index"":4,""viewing_time"":8879.90000000596}]","44282.59999999404","","","","","","","","","","","","","","","","","","","","","","","",""
"pit-trial","37","603648","0.0-2.0-11.0-0.0","battery-v0.2","","""event"",""trial"",""time""
""fullscreenenter"",""1"",""9091""
","
","
","""event"",""trial"",""time""
""fullscreenenter"",""1"",""9091""
","
","","","1140.7000000029802","","","12","20930","7791","&#9761;","elianto","#3366ff99","-1"," ","0","0","[1992.2000000029802]","1","0","2","","","","","","","",""
"pit-trial","38","606924","0.0-2.0-11.0-1.0","battery-v0.2","","""event"",""trial"",""time""
""fullscreenenter"",""1"",""9091""
","
","
","""event"",""trial"",""time""
""fullscreenenter"",""1"",""9091""
","
","","","405.5","","","12","20930","7791","&#9761;","elianto","#3366ff99","-1"," ","0","0","[1262.5]","1","0","2","","","","","","","",""
"pit-trial","39","610983","0.0-2.0-11.0-2.0","battery-v0.2","","""event"",""trial"",""time""
""fullscreenenter"",""1"",""9091""
","
","
","""event"",""trial"",""time""
""fullscreenenter"",""1"",""9091""
","
","","","1197.7999999970198","","","12","20930","7791","&#9761;","elianto","#3366ff99","-1"," ","0","0","[2049.0999999940395]","1","0","2","","","","","","","",""
"pit-trial","40","615843","0.0-2.0-11.0-3.0","battery-v0.2","","""event"",""trial"",""time""
""fullscreenenter"",""1"",""9091""
","
","
","""event"",""trial"",""time""
""fullscreenenter"",""1"",""9091""
","
","","","-1","","","12","20930","7791","&#9761;","elianto","#3366ff99","-1","-1","1","0","[]","0","0","2","","","","","","","",""
"pit-trial","41","620705","0.0-2.0-11.0-4.0","battery-v0.2","","""event"",""trial"",""time""
""fullscreenenter"",""1"",""9091""
","
","
","""event"",""trial"",""time""
""fullscreenenter"",""1"",""9091""
","
","","","-1","","","12","20930","7791","&#9761;","elianto","#3366ff99","-1","-1","1","+10","[]","0","0","2","","","","","","","",""
"pit-trial","42","625581","0.0-2.0-11.1-0.1","battery-v0.2","","""event"",""trial"",""time""
""fullscreenenter"",""1"",""9091""
","
","
","""event"",""trial"",""time""
""fullscreenenter"",""1"",""9091""
","
","","","-1","","","12","20930","7791","&#9761;","elianto","#3366ff99","-1","-1","1","+10","[]","0","0","2","","","","","","","",""
"pit-trial","43","630440","0.0-2.0-11.1-1.1","battery-v0.2","","""event"",""trial"",""time""
""fullscreenenter"",""1"",""9091""
","
","
","""event"",""trial"",""time""
""fullscreenenter"",""1"",""9091""
","
","","","-1","","","12","20930","7791","&#9761;","elianto","#3366ff99","-1","-1","1","+10","[]","0","0","2","","","","","","","",""
"pit-trial","44","634348","0.0-2.0-11.1-2.1","battery-v0.2","","""event"",""trial"",""time""
""fullscreenenter"",""1"",""9091""
","
","
","""event"",""trial"",""time""
""fullscreenenter"",""1"",""9091""
","
","","","1051.8999999910593","","","12","20930","7791","&#9761;","elianto","#3366ff99","-1"," ","0","0","[1904.8999999910593]","1","0","2","","","","","","","",""
"pit-trial","45","639205","0.0-2.0-11.1-3.1","battery-v0.2","","""event"",""trial"",""time""
""fullscreenenter"",""1"",""9091""
","
","
","""event"",""trial"",""time""
""fullscreenenter"",""1"",""9091""
","
","","","-1","","","12","20930","7791","&#9761;","elianto","#3366ff99","-1","-1","1","0","[]","0","0","2","","","","","","","",""
"pit-trial","46","642686","0.0-2.0-11.1-4.1","battery-v0.2","","""event"",""trial"",""time""
""fullscreenenter"",""1"",""9091""
","
","
","""event"",""trial"",""time""
""fullscreenenter"",""1"",""9091""
","
","","","626.5","","","12","20930","7791","&#9761;","elianto","#3366ff99","-1"," ","0","0","[1479]","1","0","2","","","","","","","",""
"pit-trial","47","645957","0.0-2.0-11.2-0.2","battery-v0.2","","""event"",""trial"",""time""
""fullscreenenter"",""1"",""9091""
","
","
","""event"",""trial"",""time""
""fullscreenenter"",""1"",""9091""
","
","","","415.20000000298023","","","12","20930","7791","&#9761;","elianto","#3366ff99","-1"," ","0","0","[1266.9000000059605]","1","0","2","","","","","","","",""
"pit-trial","48","650814","0.0-2.0-11.2-1.2","battery-v0.2","","""event"",""trial"",""time""
""fullscreenenter"",""1"",""9091""
","
","
","""event"",""trial"",""time""
""fullscreenenter"",""1"",""9091""
","
","","","-1","","","12","20930","7791","&#9761;","elianto","#3366ff99","-1","-1","1","+10","[]","0","0","2","","","","","","","",""
"pit-trial","49","653984","0.0-2.0-11.2-2.2","battery-v0.2","","""event"",""trial"",""time""
""fullscreenenter"",""1"",""9091""
","
","
","""event"",""trial"",""time""
""fullscreenenter"",""1"",""9091""
","
","","","312.20000000298023","","","12","20930","7791","&#9761;","elianto","#3366ff99","-1"," ","0","0","[1163.5]","1","0","2","","","","","","","",""
"pit-trial","50","657468","0.0-2.0-11.2-3.2","battery-v0.2","","""event"",""trial"",""time""
""fullscreenenter"",""1"",""9091""
","
","
","""event"",""trial"",""time""
""fullscreenenter"",""1"",""9091""
","
","","","628.5","","","12","20930","7791","&#9761;","elianto","#3366ff99","-1"," ","0","+10","[1481.6000000089407]","1","0","2","","","","","","","",""
"pit-trial","51","662322","0.0-2.0-11.2-4.2","battery-v0.2","","""event"",""trial"",""time""
""fullscreenenter"",""1"",""9091""
","
","
","""event"",""trial"",""time""
""fullscreenenter"",""1"",""9091""
","
","","","-1","","","12","20930","7791","&#9761;","elianto","#3366ff99","-1","-1","1","+10","[]","0","0","2","","","","","","","",""
"pit-trial","52","665579","0.0-2.0-11.3-0.3","battery-v0.2","","""event"",""trial"",""time""
""fullscreenenter"",""1"",""9091""
","
","
","""event"",""trial"",""time""
""fullscreenenter"",""1"",""9091""
","
","","","404.20000000298023","","","12","20930","7791","&#9761;","elianto","#3366ff99","-1"," ","0","0","[1254.5]","1","0","2","","","","","","","",""
"pit-trial","53","670433","0.0-2.0-11.3-1.3","battery-v0.2","","""event"",""trial"",""time""
""fullscreenenter"",""1"",""9091""
","
","
","""event"",""trial"",""time""
""fullscreenenter"",""1"",""9091""
","
","","","-1","","","12","20930","7791","&#9761;","elianto","#3366ff99","-1","-1","1","+10","[]","0","0","2","","","","","","","",""
"pit-trial","54","673712","0.0-2.0-11.3-2.3","battery-v0.2","","""event"",""trial"",""time""
""fullscreenenter"",""1"",""9091""
","
","
","""event"",""trial"",""time""
""fullscreenenter"",""1"",""9091""
","
","","","419.1000000089407","","","12","20930","7791","&#9761;","elianto","#3366ff99","-1"," ","0","0","[1277.4000000059605]","1","0","2","","","","","","","",""
"pit-trial","55","676988","0.0-2.0-11.3-3.3","battery-v0.2","","""event"",""trial"",""time""
""fullscreenenter"",""1"",""9091""
","
","
","""event"",""trial"",""time""
""fullscreenenter"",""1"",""9091""
","
","","","421.59999999403954","","","12","20930","7791","&#9761;","elianto","#3366ff99","-1"," ","0","+10","[1272.5]","1","0","2","","","","","","","",""
"pit-trial","56","680106","0.0-2.0-11.3-4.3","battery-v0.2","","""event"",""trial"",""time""
""fullscreenenter"",""1"",""9091""
","
","
","""event"",""trial"",""time""
""fullscreenenter"",""1"",""9091""
","
","","","261.09999999403954","","","12","20930","7791","&#9761;","elianto","#3366ff99","-1"," ","0","0","[1111.6000000089407]","1","0","2","","","","","","","",""
"call-function","57","680107","0.0-2.0-12.0","battery-v0.2","","""event"",""trial"",""time""
""fullscreenenter"",""1"",""9091""
","
","
","""event"",""trial"",""time""
""fullscreenenter"",""1"",""9091""
","
","","","","","","","","","","","","","","","","","","","","","","","","","","",""
"pit-instructions","58","715399","0.0-2.0-13.0","battery-v0.2","","""event"",""trial"",""time""
""fullscreenenter"",""1"",""9091""
","
","
","""event"",""trial"",""time""
""fullscreenenter"",""1"",""9091""
","
","","[{""page_index"":0,""viewing_time"":5993.4000000059605},{""page_index"":1,""viewing_time"":7475.5},{""page_index"":2,""viewing_time"":5789.0999999940395},{""page_index"":3,""viewing_time"":11896.800000011921},{""page_index"":4,""viewing_time"":4135.699999988079}]","35290.90000000596","","","","","","","","","","","","","","","","","","","","","","","",""
"pit-trial","59","720266","0.0-2.0-14.0-0.0","battery-v0.2","","""event"",""trial"",""time""
""fullscreenenter"",""1"",""9091""
","
","
","""event"",""trial"",""time""
""fullscreenenter"",""1"",""9091""
","
","","","-1","","","12","20930","7791","&#9826;","elianto","#f73b6a7A","-1","-1","1","0","[]","0","0","3","","","","","","","",""
"pit-trial","60","723631","0.0-2.0-14.0-1.0","battery-v0.2","","""event"",""trial"",""time""
""fullscreenenter"",""1"",""9091""
","
","
","""event"",""trial"",""time""
""fullscreenenter"",""1"",""9091""
","
","","","498.20000000298023","","","12","20930","7791","&#9826;","elianto","#f73b6a7A","-1"," ","0","-10","[1357]","1","0","3","","","","","","","",""
"pit-trial","61","727044","0.0-2.0-14.0-2.0","battery-v0.2","","""event"",""trial"",""time""
""fullscreenenter"",""1"",""9091""
","
","
","""event"",""trial"",""time""
""fullscreenenter"",""1"",""9091""
","
","","","538.2999999970198","","","12","20930","7791","&#9826;","elianto","#f73b6a7A","-1"," ","0","-10","[1398.6000000089407]","1","0","3","","","","","","","",""
"pit-trial","62","731917","0.0-2.0-14.0-3.0","battery-v0.2","","""event"",""trial"",""time""
""fullscreenenter"",""1"",""9091""
","
","
","""event"",""trial"",""time""
""fullscreenenter"",""1"",""9091""
","
","","","-1","","","12","20930","7791","&#9826;","elianto","#f73b6a7A","-1","-1","1","-10","[]","0","0","3","","","","","","","",""
"pit-trial","63","736791","0.0-2.0-14.0-4.0","battery-v0.2","","""event"",""trial"",""time""
""fullscreenenter"",""1"",""9091""
","
","
","""event"",""trial"",""time""
""fullscreenenter"",""1"",""9091""
","
","","","-1","","","12","20930","7791","&#9826;","elianto","#f73b6a7A","-1","-1","1","0","[]","0","0","3","","","","","","","",""
"pit-trial","64","741662","0.0-2.0-14.1-0.1","battery-v0.2","","""event"",""trial"",""time""
""fullscreenenter"",""1"",""9091""
","
","
","""event"",""trial"",""time""
""fullscreenenter"",""1"",""9091""
","
","","","-1","","","12","20930","7791","&#9826;","elianto","#f73b6a7A","-1","-1","1","0","[]","0","0","3","","","","","","","",""
"pit-trial","65","746522","0.0-2.0-14.1-1.1","battery-v0.2","","""event"",""trial"",""time""
""fullscreenenter"",""1"",""9091""
","
","
","""event"",""trial"",""time""
""fullscreenenter"",""1"",""9091""
","
","","","-1","","","12","20930","7791","&#9826;","elianto","#f73b6a7A","-1","-1","1","0","[]","0","0","3","","","","","","","",""
"pit-trial","66","751375","0.0-2.0-14.1-2.1","battery-v0.2","","""event"",""trial"",""time""
""fullscreenenter"",""1"",""9091""
","
","
","""event"",""trial"",""time""
""fullscreenenter"",""1"",""9091""
","
","","","-1","","","12","20930","7791","&#9826;","elianto","#f73b6a7A","-1","-1","1","0","[3000]","1","0","3","","","","","","","",""
"pit-trial","67","754866","0.0-2.0-14.1-3.1","battery-v0.2","","""event"",""trial"",""time""
""fullscreenenter"",""1"",""9091""
","
","
","""event"",""trial"",""time""
""fullscreenenter"",""1"",""9091""
","
","","","638.6000000089407","","","12","20930","7791","&#9826;","elianto","#f73b6a7A","-1"," ","0","0","[224.79999999701977,564.1999999880791,1489.2999999970198]","3","0","3","","","","","","","",""
"pit-trial","68","759725","0.0-2.0-14.1-4.1","battery-v0.2","","""event"",""trial"",""time""
""fullscreenenter"",""1"",""9091""
","
","
","""event"",""trial"",""time""
""fullscreenenter"",""1"",""9091""
","
","","","-1","","","12","20930","7791","&#9826;","elianto","#f73b6a7A","-1","-1","1","0","[]","0","0","3","","","","","","","",""
"pit-trial","69","762875","0.0-2.0-14.2-0.2","battery-v0.2","","""event"",""trial"",""time""
""fullscreenenter"",""1"",""9091""
","
","
","""event"",""trial"",""time""
""fullscreenenter"",""1"",""9091""
","
","","","297.20000000298023","","","12","20930","7791","&#9826;","elianto","#f73b6a7A","-1"," ","0","-10","[1147.5]","1","0","3","","","","","","","",""
"pit-trial","70","766029","0.0-2.0-14.2-1.2","battery-v0.2","","""event"",""trial"",""time""
""fullscreenenter"",""1"",""9091""
","
","
","""event"",""trial"",""time""
""fullscreenenter"",""1"",""9091""
","
","","","300.40000000596046","","","12","20930","7791","&#9826;","elianto","#f73b6a7A","-1"," ","0","-10","[1151.2000000029802]","1","0","3","","","","","","","",""
"pit-trial","71","770894","0.0-2.0-14.2-2.2","battery-v0.2","","""event"",""trial"",""time""
""fullscreenenter"",""1"",""9091""
","
","
","""event"",""trial"",""time""
""fullscreenenter"",""1"",""9091""
","
","","","-1","","","12","20930","7791","&#9826;","elianto","#f73b6a7A","-1","-1","1","0","[]","0","0","3","","","","","","","",""
"pit-trial","72","774762","0.0-2.0-14.2-3.2","battery-v0.2","","""event"",""trial"",""time""
""fullscreenenter"",""1"",""9091""
","
","
","""event"",""trial"",""time""
""fullscreenenter"",""1"",""9091""
","
","","","1014","","","12","20930","7791","&#9826;","elianto","#f73b6a7A","-1"," ","0","0","[1864.9000000059605]","1","0","3","","","","","","","",""
"pit-trial","73","779622","0.0-2.0-14.2-4.2","battery-v0.2","","""event"",""trial"",""time""
""fullscreenenter"",""1"",""9091""
","
","
","""event"",""trial"",""time""
""fullscreenenter"",""1"",""9091""
","
","","","-1","","","12","20930","7791","&#9826;","elianto","#f73b6a7A","-1","-1","1","0","[]","0","0","3","","","","","","","",""
"pit-trial","74","783055","0.0-2.0-14.3-0.3","battery-v0.2","","""event"",""trial"",""time""
""fullscreenenter"",""1"",""9091""
","
","
","""event"",""trial"",""time""
""fullscreenenter"",""1"",""9091""
","
","","","579.0999999940395","","","12","20930","7791","&#9826;","elianto","#f73b6a7A","-1"," ","0","-10","[1429.800000011921]","1","0","3","","","","","","","",""
"pit-trial","75","787231","0.0-2.0-14.3-1.3","battery-v0.2","","""event"",""trial"",""time""
""fullscreenenter"",""1"",""9091""
","
","
","""event"",""trial"",""time""
""fullscreenenter"",""1"",""9091""
","
","","","1321.9000000059605","","","12","20930","7791","&#9826;","elianto","#f73b6a7A","-1"," ","0","-10","[2173.1000000089407]","1","0","3","","","","","","","",""
"pit-trial","76","792095","0.0-2.0-14.3-2.3","battery-v0.2","","""event"",""trial"",""time""
""fullscreenenter"",""1"",""9091""
","
","
","""event"",""trial"",""time""
""fullscreenenter"",""1"",""9091""
","
","","","-1","","","12","20930","7791","&#9826;","elianto","#f73b6a7A","-1","-1","1","0","[]","0","0","3","","","","","","","",""
"pit-trial","77","795225","0.0-2.0-14.3-3.3","battery-v0.2","","""event"",""trial"",""time""
""fullscreenenter"",""1"",""9091""
","
","
","""event"",""trial"",""time""
""fullscreenenter"",""1"",""9091""
","
","","","277.29999999701977","","","12","20930","7791","&#9826;","elianto","#f73b6a7A","-1"," ","0","0","[1128.1000000089407]","1","0","3","","","","","","","",""
"pit-trial","78","798785","0.0-2.0-14.3-4.3","battery-v0.2","","""event"",""trial"",""time""
""fullscreenenter"",""1"",""9091""
","
","
","""event"",""trial"",""time""
""fullscreenenter"",""1"",""9091""
","
","","","706.2000000029802","","","12","20930","7791","&#9826;","elianto","#f73b6a7A","-1"," ","0","-10","[523.5,1557.5999999940395]","2","0","3","","","","","","","",""
"call-function","79","798787","0.0-2.0-15.0","battery-v0.2","","""event"",""trial"",""time""
""fullscreenenter"",""1"",""9091""
","
","
","""event"",""trial"",""time""
""fullscreenenter"",""1"",""9091""
","
","","","","","","","","","","","","","","","","","","","","","","","","","","",""
"pit-instructions","80","826732","0.0-2.0-16.0","battery-v0.2","","""event"",""trial"",""time""
""fullscreenenter"",""1"",""9091""
","
","
","""event"",""trial"",""time""
""fullscreenenter"",""1"",""9091""
","
","","[{""page_index"":0,""viewing_time"":7151.4000000059605},{""page_index"":1,""viewing_time"":8554.29999999702},{""page_index"":2,""viewing_time"":6690},{""page_index"":3,""viewing_time"":5548.100000008941}]","27944.20000000298","","","","","","","","","","","","","","","","","","","","","","","",""
"pit-trial","81","831603","0.0-2.0-17.0-0.0","battery-v0.2","","""event"",""trial"",""time""
""fullscreenenter"",""1"",""9091""
","
","
","""event"",""trial"",""time""
""fullscreenenter"",""1"",""9091""
","
","","","-1","","","12","20930","7791","&#9789;","elianto","#f73b6a7A"," ","-1","0","-10","[]","0","0","4","","","","","","","",""
"pit-trial","82","834996","0.0-2.0-17.0-1.0","battery-v0.2","","""event"",""trial"",""time""
""fullscreenenter"",""1"",""9091""
","
","
","""event"",""trial"",""time""
""fullscreenenter"",""1"",""9091""
","
","","","532.3999999910593","","","12","20930","7791","&#9789;","elianto","#f73b6a7A"," "," ","1","0","[1389.9000000059605]","1","0","4","","","","","","","",""
"pit-trial","83","838115","0.0-2.0-17.0-2.0","battery-v0.2","","""event"",""trial"",""time""
""fullscreenenter"",""1"",""9091""
","
","
","""event"",""trial"",""time""
""fullscreenenter"",""1"",""9091""
","
","","","266.29999999701977","","","12","20930","7791","&#9789;","elianto","#f73b6a7A"," "," ","1","0","[1116.7000000029802]","1","0","4","","","","","","","",""
"pit-trial","84","841690","0.0-2.0-17.0-3.0","battery-v0.2","","""event"",""trial"",""time""
""fullscreenenter"",""1"",""9091""
","
","
","""event"",""trial"",""time""
""fullscreenenter"",""1"",""9091""
","
","","","709.7999999970198","","","12","20930","7791","&#9789;","elianto","#f73b6a7A"," "," ","1","-10","[1560]","1","0","4","","","","","","","",""
"pit-trial","85","846548","0.0-2.0-17.0-4.0","battery-v0.2","","""event"",""trial"",""time""
""fullscreenenter"",""1"",""9091""
","
","
","""event"",""trial"",""time""
""fullscreenenter"",""1"",""9091""
","
","","","-1","","","12","20930","7791","&#9789;","elianto","#f73b6a7A"," ","-1","0","-10","[]","0","0","4","","","","","","","",""
"pit-trial","86","850235","0.0-2.0-17.1-0.1","battery-v0.2","","""event"",""trial"",""time""
""fullscreenenter"",""1"",""9091""
","
","
","""event"",""trial"",""time""
""fullscreenenter"",""1"",""9091""
","
","","","822.9000000059605","","","12","20930","7791","&#9789;","elianto","#f73b6a7A"," "," ","1","0","[1680.4000000059605]","1","0","4","","","","","","","",""
"pit-trial","87","854169","0.0-2.0-17.1-1.1","battery-v0.2","","""event"",""trial"",""time""
""fullscreenenter"",""1"",""9091""
","
","
","""event"",""trial"",""time""
""fullscreenenter"",""1"",""9091""
","
","","","1066.2000000029802","","","12","20930","7791","&#9789;","elianto","#f73b6a7A"," "," ","1","0","[1925.2999999970198]","1","0","4","","","","","","","",""
"pit-trial","88","857243","0.0-2.0-17.1-2.1","battery-v0.2","","""event"",""trial"",""time""
""fullscreenenter"",""1"",""9091""
","
","
","""event"",""trial"",""time""
""fullscreenenter"",""1"",""9091""
","
","","","213.20000000298023","","","12","20930","7791","&#9789;","elianto","#f73b6a7A"," "," ","1","0","[1072.4000000059605]","1","0","4","","","","","","","",""
"pit-trial","89","862107","0.0-2.0-17.1-3.1","battery-v0.2","","""event"",""trial"",""time""
""fullscreenenter"",""1"",""9091""
","
","
","""event"",""trial"",""time""
""fullscreenenter"",""1"",""9091""
","
","","","-1","","","12","20930","7791","&#9789;","elianto","#f73b6a7A"," ","-1","0","0","[]","0","0","4","","","","","","","",""
"pit-trial","90","865595","0.0-2.0-17.1-4.1","battery-v0.2","","""event"",""trial"",""time""
""fullscreenenter"",""1"",""9091""
","
","
","""event"",""trial"",""time""
""fullscreenenter"",""1"",""9091""
","
","","","621.6999999880791","","","12","20930","7791","&#9789;","elianto","#f73b6a7A"," "," ","1","0","[1472.3999999910593]","1","0","4","","","","","","","",""
"pit-trial","91","870450","0.0-2.0-17.2-0.2","battery-v0.2","","""event"",""trial"",""time""
""fullscreenenter"",""1"",""9091""
","
","
","""event"",""trial"",""time""
""fullscreenenter"",""1"",""9091""
","
","","","-1","","","12","20930","7791","&#9789;","elianto","#f73b6a7A"," ","-1","0","-10","[]","0","0","4","","","","","","","",""
"pit-trial","92","873826","0.0-2.0-17.2-1.2","battery-v0.2","","""event"",""trial"",""time""
""fullscreenenter"",""1"",""9091""
","
","
","""event"",""trial"",""time""
""fullscreenenter"",""1"",""9091""
","
","","","512.4000000059605","","","12","20930","7791","&#9789;","elianto","#f73b6a7A"," "," ","1","0","[1373.7000000029802]","1","0","4","","","","","","","",""
"pit-trial","93","877144","0.0-2.0-17.2-2.2","battery-v0.2","","""event"",""trial"",""time""
""fullscreenenter"",""1"",""9091""
","
","
","""event"",""trial"",""time""
""fullscreenenter"",""1"",""9091""
","
","","","464.3999999910593","","","12","20930","7791","&#9789;","elianto","#f73b6a7A"," "," ","1","0","[1315.5999999940395]","1","0","4","","","","","","","",""
"pit-trial","94","880302","0.0-2.0-17.2-3.2","battery-v0.2","","""event"",""trial"",""time""
""fullscreenenter"",""1"",""9091""
","
","
","""event"",""trial"",""time""
""fullscreenenter"",""1"",""9091""
","
","","","301.79999999701977","","","12","20930","7791","&#9789;","elianto","#f73b6a7A"," "," ","1","-10","[1151.7999999970198]","1","0","4","","","","","","","",""
"pit-trial","95","883980","0.0-2.0-17.2-4.2","battery-v0.2","","""event"",""trial"",""time""
""fullscreenenter"",""1"",""9091""
","
","
","""event"",""trial"",""time""
""fullscreenenter"",""1"",""9091""
","
","","","818.8999999910593","","","12","20930","7791","&#9789;","elianto","#f73b6a7A"," "," ","1","0","[1669.4000000059605]","1","0","4","","","","","","","",""
"pit-trial","96","887633","0.0-2.0-17.3-0.3","battery-v0.2","","""event"",""trial"",""time""
""fullscreenenter"",""1"",""9091""
","
","
","""event"",""trial"",""time""
""fullscreenenter"",""1"",""9091""
","
","","","791.5999999940395","","","12","20930","7791","&#9789;","elianto","#f73b6a7A"," "," ","1","0","[1641.7000000029802]","1","0","4","","","","","","","",""
"pit-trial","97","891171","0.0-2.0-17.3-1.3","battery-v0.2","","""event"",""trial"",""time""
""fullscreenenter"",""1"",""9091""
","
","
","""event"",""trial"",""time""
""fullscreenenter"",""1"",""9091""
","
","","","681","","","12","20930","7791","&#9789;","elianto","#f73b6a7A"," "," ","1","0","[1534.699999988079]","1","0","4","","","","","","","",""
"pit-trial","98","896029","0.0-2.0-17.3-2.3","battery-v0.2","","""event"",""trial"",""time""
""fullscreenenter"",""1"",""9091""
","
","
","""event"",""trial"",""time""
""fullscreenenter"",""1"",""9091""
","
","","","-1","","","12","20930","7791","&#9789;","elianto","#f73b6a7A"," ","-1","0","-10","[]","0","0","4","","","","","","","",""
"pit-trial","99","899478","0.0-2.0-17.3-3.3","battery-v0.2","","""event"",""trial"",""time""
""fullscreenenter"",""1"",""9091""
","
","
","""event"",""trial"",""time""
""fullscreenenter"",""1"",""9091""
","
","","","594.7000000029802","","","12","20930","7791","&#9789;","elianto","#f73b6a7A"," "," ","1","-10","[1446.4000000059605]","1","0","4","","","","","","","",""
"pit-trial","100","902545","0.0-2.0-17.3-4.3","battery-v0.2","","""event"",""trial"",""time""
""fullscreenenter"",""1"",""9091""
","
","
","""event"",""trial"",""time""
""fullscreenenter"",""1"",""9091""
","
","","","213.90000000596046","","","12","20930","7791","&#9789;","elianto","#f73b6a7A"," "," ","1","0","[35.5,420.5,1064.2000000029802]","3","0","4","","","","","","","",""
"call-function","101","902547","0.0-2.0-18.0","battery-v0.2","","""event"",""trial"",""time""
""fullscreenenter"",""1"",""9091""
","
","
","""event"",""trial"",""time""
""fullscreenenter"",""1"",""9091""
","
","","","","","","","","","","","","","","","","","","","","","","","","","","",""
"pit-instructions","102","960754","0.0-2.0-19.0","battery-v0.2","","""event"",""trial"",""time""
""fullscreenenter"",""1"",""9091""
","
","
","""event"",""trial"",""time""
""fullscreenenter"",""1"",""9091""
","
","","[{""page_index"":0,""viewing_time"":6788.300000011921},{""page_index"":1,""viewing_time"":5050.5},{""page_index"":2,""viewing_time"":8390.699999988079},{""page_index"":3,""viewing_time"":4650.20000000298},{""page_index"":4,""viewing_time"":8955.60000000894},{""page_index"":5,""viewing_time"":8774.59999999404},{""page_index"":6,""viewing_time"":5067.5},{""page_index"":7,""viewing_time"":6098.9000000059605},{""page_index"":8,""viewing_time"":4429.699999988079}]","58206.60000000894","","","","","","","","","","","","","","","","","","","","","","","",""
"pit-comprehension","103","972771","0.0-2.0-20.0-0.0","battery-v0.2","","""event"",""trial"",""time""
""fullscreenenter"",""1"",""9091""
","
","
","""event"",""trial"",""time""
""fullscreenenter"",""1"",""9091""
","
","","","12013.79999999702","[""SPACE""]","0","12","20930","7791","","","","","","","","","","","","","","","","","","",""
"pit-instructions","104","976408","0.0-2.0-20.0-1.0","battery-v0.2","","""event"",""trial"",""time""
""fullscreenenter"",""1"",""9091""
","
","
","""event"",""trial"",""time""
""fullscreenenter"",""1"",""9091""
","
","","[{""page_index"":0,""viewing_time"":3597.3999999910593}]","3597.7000000029802","","","","","","","","","","","","","","","","","","","","","","","",""
"pit-comprehension","105","986628","0.0-2.0-21.0-0.0","battery-v0.2","","""event"",""trial"",""time""
""fullscreenenter"",""1"",""9091""
","
","
","""event"",""trial"",""time""
""fullscreenenter"",""1"",""9091""
","
","","","10216.20000000298","[""10""]","0","12","20930","7791","","","","","","","","","","","","","","","","","","",""
"pit-instructions","106","994438","0.0-2.0-21.0-1.0","battery-v0.2","","""event"",""trial"",""time""
""fullscreenenter"",""1"",""9091""
","
","
","""event"",""trial"",""time""
""fullscreenenter"",""1"",""9091""
","
","","[{""page_index"":0,""viewing_time"":7762.4000000059605}]","7762.70000000298","","","","","","","","","","","","","","","","","","","","","","","",""
"pit-comprehension","107","1001152","0.0-2.0-22.0-0.0","battery-v0.2","","""event"",""trial"",""time""
""fullscreenenter"",""1"",""9091""
","
","
","""event"",""trial"",""time""
""fullscreenenter"",""1"",""9091""
","
","","","6710","[""0""]","0","12","20930","7791","","","","","","","","","","","","","","","","","","",""
"pit-instructions","108","1007952","0.0-2.0-22.0-1.0","battery-v0.2","","""event"",""trial"",""time""
""fullscreenenter"",""1"",""9091""
","
","
","""event"",""trial"",""time""
""fullscreenenter"",""1"",""9091""
","
","","[{""page_index"":0,""viewing_time"":6761.5}]","6761.9000000059605","","","","","","","","","","","","","","","","","","","","","","","",""
"pit-comprehension","109","1018593","0.0-2.0-23.0-0.0","battery-v0.2","","""event"",""trial"",""time""
""fullscreenenter"",""1"",""9091""
","
","
","""event"",""trial"",""time""
""fullscreenenter"",""1"",""9091""
","
","","","10637.39999999106","[""True""]","0","12","20930","7791","","","","","","","","","","","","","","","","","","",""
"pit-instructions","110","1021045","0.0-2.0-23.0-1.0","battery-v0.2","","""event"",""trial"",""time""
""fullscreenenter"",""1"",""9091""
","
","
","""event"",""trial"",""time""
""fullscreenenter"",""1"",""9091""
","
","","[{""page_index"":0,""viewing_time"":2412.0999999940395}]","2412.5","","","","","","","","","","","","","","","","","","","","","","","",""
"pit-comprehension","111","1028857","0.0-2.0-24.0-0.0","battery-v0.2","","""event"",""trial"",""time""
""fullscreenenter"",""1"",""9091""
","
","
","""event"",""trial"",""time""
""fullscreenenter"",""1"",""9091""
","
","","","7808.20000000298","[""True""]","0","12","20930","7791","","","","","","","","","","","","","","","","","","",""
"pit-instructions","112","1031046","0.0-2.0-24.0-1.0","battery-v0.2","","""event"",""trial"",""time""
""fullscreenenter"",""1"",""9091""
","
","
","""event"",""trial"",""time""
""fullscreenenter"",""1"",""9091""
","
","","[{""page_index"":0,""viewing_time"":2151.0999999940395}]","2151.5","","","","","","","","","","","","","","","","","","","","","","","",""
"pit-comprehension","113","1037850","0.0-2.0-25.0-0.0","battery-v0.2","","""event"",""trial"",""time""
""fullscreenenter"",""1"",""9091""
","
","
","""event"",""trial"",""time""
""fullscreenenter"",""1"",""9091""
","
","","","6800.600000008941","[""True""]","0","12","20930","7791","","","","","","","","","","","","","","","","","","",""
"pit-instructions","114","1049306","0.0-2.0-25.0-1.0","battery-v0.2","","""event"",""trial"",""time""
""fullscreenenter"",""1"",""9091""
","
","
","""event"",""trial"",""time""
""fullscreenenter"",""1"",""9091""
","
","","[{""page_index"":0,""viewing_time"":11420.10000000894}]","11420.40000000596","","","","","","","","","","","","","","","","","","","","","","","",""
"pit-comprehension","115","1054228","0.0-2.0-26.0-0.0","battery-v0.2","","""event"",""trial"",""time""
""fullscreenenter"",""1"",""9091""
","
","
","""event"",""trial"",""time""
""fullscreenenter"",""1"",""9091""
","
","","","4918.100000008941","[""False""]","0","12","20930","7791","","","","","","","","","","","","","","","","","","",""
"pit-instructions","116","1057221","0.0-2.0-26.0-1.0","battery-v0.2","","""event"",""trial"",""time""
""fullscreenenter"",""1"",""9091""
","
","
","""event"",""trial"",""time""
""fullscreenenter"",""1"",""9091""
","
","","[{""page_index"":0,""viewing_time"":2955.0999999940395}]","2955.5","","","","","","","","","","","","","","","","","","","","","","","",""
"pit-instructions","117","1080021","0.0-3.0","battery-v0.2","","""event"",""trial"",""time""
""fullscreenenter"",""1"",""9091""
","
","
","""event"",""trial"",""time""
""fullscreenenter"",""1"",""9091""
","
","","[{""page_index"":0,""viewing_time"":5526.70000000298},{""page_index"":1,""viewing_time"":7388},{""page_index"":2,""viewing_time"":9882.79999999702}]","22797.90000000596","","","","","","","","","","","","","","","","","","","","","","","",""
"pit-trial","118","1083902","0.0-4.0","battery-v0.2","","""event"",""trial"",""time""
""fullscreenenter"",""1"",""9091""
","
","
","""event"",""trial"",""time""
""fullscreenenter"",""1"",""9091""
","
","","","1004.1000000089407","","","12","20930","7791","&#9733;","elianto","#3366ff99","-1"," ","0","0","[1865.9000000059605]","1","1","","","20930","1","2","2","win","no-go","0"
"pit-trial","119","1088222","0.0-5.0","battery-v0.2","","""event"",""trial"",""time""
""fullscreenenter"",""1"",""9091""
","
","
","""event"",""trial"",""time""
""fullscreenenter"",""1"",""9091""
","
","","","1457.6000000089407","","","12","20930","7791","&#9728;","elianto","#f73b6a7A","-1"," ","0","-10","[2316]","1","1","","","20930","2","0","4","lose","no-go","0"
"pit-trial","120","1093087","0.0-6.0","battery-v0.2","","""event"",""trial"",""time""
""fullscreenenter"",""1"",""9091""
","
","
","""event"",""trial"",""time""
""fullscreenenter"",""1"",""9091""
","
","","","-1","","","12","20930","7791","&#9752;","elianto","#f73b6a7A"," ","-1","0","-10","[]","0","1","","","20930","3","3","3","lose","go","0"
"pit-trial","121","1096063","0.0-7.0","battery-v0.2","","""event"",""trial"",""time""
""fullscreenenter"",""1"",""9091""
","
","
","""event"",""trial"",""time""
""fullscreenenter"",""1"",""9091""
","
","","","115","","","12","20930","7791","&#9730;","elianto","#3366ff99"," "," ","1","+10","[973]","1","1","","","20930","4","1","1","win","go","0"
"pit-trial","122","1099363","0.0-8.0","battery-v0.2","","""event"",""trial"",""time""
""fullscreenenter"",""1"",""9091""
","
","
","""event"",""trial"",""time""
""fullscreenenter"",""1"",""9091""
","
","","","444.6000000089407","","","12","20930","7791","&#9730;","elianto","#3366ff99"," "," ","1","+10","[1296.2999999970198]","1","1","","","20930","5","1","1","win","go","0"
"pit-trial","123","1104233","0.0-9.0","battery-v0.2","","""event"",""trial"",""time""
""fullscreenenter"",""1"",""9091""
","
","
","""event"",""trial"",""time""
""fullscreenenter"",""1"",""9091""
","
","","","-1","","","12","20930","7791","&#9728;","elianto","#f73b6a7A","-1","-1","1","0","[]","0","1","","","20930","6","0","4","lose","no-go","0"
"pit-trial","124","1107611","0.0-10.0","battery-v0.2","","""event"",""trial"",""time""
""fullscreenenter"",""1"",""9091""
","
","
","""event"",""trial"",""time""
""fullscreenenter"",""1"",""9091""
","
","","","513.0999999940395","","","12","20930","7791","&#9733;","elianto","#3366ff99","-1"," ","0","0","[1364.4000000059605]","1","1","","","20930","7","2","2","win","no-go","0"
"pit-trial","125","1110963","0.0-11.0","battery-v0.2","","""event"",""trial"",""time""
""fullscreenenter"",""1"",""9091""
","
","
","""event"",""trial"",""time""
""fullscreenenter"",""1"",""9091""
","
","","","495","","","12","20930","7791","&#9752;","elianto","#f73b6a7A"," "," ","1","0","[1349.4000000059605,1373.7999999970198]","2","1","","","20930","8","3","3","lose","go","0"
"pit-trial","126","1114518","0.0-12.0","battery-v0.2","","""event"",""trial"",""time""
""fullscreenenter"",""1"",""9091""
","
","
","""event"",""trial"",""time""
""fullscreenenter"",""1"",""9091""
","
","","","700","","","12","20930","7791","&#9733;","elianto","#3366ff99","-1"," ","0","0","[1551.199999988079]","1","1","","","20930","9","2","2","win","no-go","0"
"pit-trial","127","1119087","0.0-13.0","battery-v0.2","","""event"",""trial"",""time""
""fullscreenenter"",""1"",""9091""
","
","
","""event"",""trial"",""time""
""fullscreenenter"",""1"",""9091""
","
","","","1708.7000000029802","","","12","20930","7791","&#9728;","elianto","#f73b6a7A","-1"," ","0","-10","[2558.7999999970198]","1","1","","","20930","10","0","4","lose","no-go","0"
"pit-trial","128","1122477","0.0-14.0","battery-v0.2","","""event"",""trial"",""time""
""fullscreenenter"",""1"",""9091""
","
","
","""event"",""trial"",""time""
""fullscreenenter"",""1"",""9091""
","
","","","531.7000000029802","","","12","20930","7791","&#9730;","elianto","#3366ff99"," "," ","1","0","[1387.699999988079]","1","1","","","20930","11","1","1","win","go","1"
"pit-trial","129","1126880","0.0-15.0","battery-v0.2","","""event"",""trial"",""time""
""fullscreenenter"",""1"",""9091""
","
","
","""event"",""trial"",""time""
""fullscreenenter"",""1"",""9091""
","
","","","1543","","","12","20930","7791","&#9752;","elianto","#f73b6a7A"," "," ","1","-10","[2393.5]","1","1","","","20930","12","3","3","lose","go","1"
"pit-trial","130","1131733","0.0-16.0","battery-v0.2","","""event"",""trial"",""time""
""fullscreenenter"",""1"",""9091""
","
","
","""event"",""trial"",""time""
""fullscreenenter"",""1"",""9091""
","
","","","-1","","","12","20930","7791","&#9730;","elianto","#3366ff99"," ","-1","0","0","[]","0","1","","","20930","13","1","1","win","go","0"
"pit-trial","131","1136588","0.0-17.0","battery-v0.2","","""event"",""trial"",""time""
""fullscreenenter"",""1"",""9091""
","
","
","""event"",""trial"",""time""
""fullscreenenter"",""1"",""9091""
","
","","","-1","","","12","20930","7791","&#9728;","elianto","#f73b6a7A","-1","-1","1","0","[]","0","1","","","20930","14","0","4","lose","no-go","0"
"pit-trial","132","1139915","0.0-18.0","battery-v0.2","","""event"",""trial"",""time""
""fullscreenenter"",""1"",""9091""
","
","
","""event"",""trial"",""time""
""fullscreenenter"",""1"",""9091""
","
","","","473.3999999910593","","","12","20930","7791","&#9733;","elianto","#3366ff99","-1"," ","0","0","[1325.2999999970198]","1","1","","","20930","15","2","2","win","no-go","0"
"pit-trial","133","1144775","0.0-19.0","battery-v0.2","","""event"",""trial"",""time""
""fullscreenenter"",""1"",""9091""
","
","
","""event"",""trial"",""time""
""fullscreenenter"",""1"",""9091""
","
","","","-1","","","12","20930","7791","&#9752;","elianto","#f73b6a7A"," ","-1","0","-10","[]","0","1","","","20930","16","3","3","lose","go","0"
"pit-trial","134","1148135","0.0-20.0","battery-v0.2","","""event"",""trial"",""time""
""fullscreenenter"",""1"",""9091""
","
","
","""event"",""trial"",""time""
""fullscreenenter"",""1"",""9091""
","
","","","499.80000001192093","","","12","20930","7791","&#9752;","elianto","#f73b6a7A"," "," ","1","0","[1357.4000000059605]","1","1","","","20930","17","3","3","lose","go","0"
"pit-trial","135","1151803","0.0-21.0","battery-v0.2","","""event"",""trial"",""time""
""fullscreenenter"",""1"",""9091""
","
","
","""event"",""trial"",""time""
""fullscreenenter"",""1"",""9091""
","
","","","808.3999999910593","","","12","20930","7791","&#9730;","elianto","#3366ff99"," "," ","1","+10","[1658.5]","1","1","","","20930","18","1","1","win","go","0"
"pit-trial","136","1156663","0.0-22.0","battery-v0.2","","""event"",""trial"",""time""
""fullscreenenter"",""1"",""9091""
","
","
","""event"",""trial"",""time""
""fullscreenenter"",""1"",""9091""
","
","","","-1","","","12","20930","7791","&#9728;","elianto","#f73b6a7A","-1","-1","1","0","[]","0","1","","","20930","19","0","4","lose","no-go","0"
"pit-trial","137","1160274","0.0-23.0","battery-v0.2","","""event"",""trial"",""time""
""fullscreenenter"",""1"",""9091""
","
","
","""event"",""trial"",""time""
""fullscreenenter"",""1"",""9091""
","
","","","755.7000000029802","","","12","20930","7791","&#9733;","elianto","#3366ff99","-1"," ","0","+10","[1607.5]","1","1","","","20930","20","2","2","win","no-go","1"
"pit-instructions","138","1173510","0.0-24.0","battery-v0.2","","""event"",""trial"",""time""
""fullscreenenter"",""1"",""9091""
","
","
","""event"",""trial"",""time""
""fullscreenenter"",""1"",""9091""
","
","","[{""page_index"":0,""viewing_time"":5565.29999999702},{""page_index"":1,""viewing_time"":7668.5999999940395}]","13234.29999999702","","","","","","","","","","","","","","","","","","","","","","","",""
"pit-trial","139","1178382","0.0-25.0","battery-v0.2","","""event"",""trial"",""time""
""fullscreenenter"",""1"",""9091""
","
","
","""event"",""trial"",""time""
""fullscreenenter"",""1"",""9091""
","
","","","-1","","","12","20930","7791","g","elianto","#f73b6a7A","-1","-1","1","-10","[]","0","2","","","20930","21","3","4","lose","no-go","1"
"pit-trial","140","1182894","0.0-26.0","battery-v0.2","","""event"",""trial"",""time""
""fullscreenenter"",""1"",""9091""
","
","
","""event"",""trial"",""time""
""fullscreenenter"",""1"",""9091""
","
","","","1654.4000000059605","","","12","20930","7791","a","elianto","#f73b6a7A"," "," ","1","0","[2505.7000000029802]","1","2","","","20930","22","2","3","lose","go","0"
"pit-trial","141","1187758","0.0-27.0","battery-v0.2","","""event"",""trial"",""time""
""fullscreenenter"",""1"",""9091""
","
","
","""event"",""trial"",""time""
""fullscreenenter"",""1"",""9091""
","
","","","-1","","","12","20930","7791","u","elianto","#f73b6a7A"," ","-1","0","0","[]","0","2","","","20930","23","0","3","lose","go","1"
"pit-trial","142","1191590","0.0-28.0","battery-v0.2","","""event"",""trial"",""time""
""fullscreenenter"",""1"",""9091""
","
","
","""event"",""trial"",""time""
""fullscreenenter"",""1"",""9091""
","
","","","967.2000000029802","","","12","20930","7791","l","elianto","#3366ff99","-1"," ","0","0","[1826.2999999970198]","1","2","","","20930","24","1","2","win","no-go","0"
"pit-trial","143","1196462","0.0-29.0","battery-v0.2","","""event"",""trial"",""time""
""fullscreenenter"",""1"",""9091""
","
","
","""event"",""trial"",""time""
""fullscreenenter"",""1"",""9091""
","
","","","-1","","","12","20930","7791","u","elianto","#f73b6a7A"," ","-1","0","-10","[]","0","2","","","20930","25","0","3","lose","go","0"
"pit-trial","144","1201326","0.0-30.0","battery-v0.2","","""event"",""trial"",""time""
""fullscreenenter"",""1"",""9091""
","
","
","""event"",""trial"",""time""
""fullscreenenter"",""1"",""9091""
","
","","","-1","","","12","20930","7791","g","elianto","#f73b6a7A","-1","-1","1","0","[]","0","2","","","20930","26","3","4","lose","no-go","0"
"pit-trial","145","1205906","0.0-31.0","battery-v0.2","","""event"",""trial"",""time""
""fullscreenenter"",""1"",""9091""
","
","
","""event"",""trial"",""time""
""fullscreenenter"",""1"",""9091""
","
","","","1720.2000000029802","","","12","20930","7791","a","elianto","#f73b6a7A"," "," ","1","0","[2576.7000000029802]","1","2","","","20930","27","2","3","lose","go","0"
"pit-trial","146","1210224","0.0-32.0","battery-v0.2","","""event"",""trial"",""time""
""fullscreenenter"",""1"",""9091""
","
","
","""event"",""trial"",""time""
""fullscreenenter"",""1"",""9091""
","
","","","1465","","","12","20930","7791","l","elianto","#3366ff99","-1"," ","0","0","[2315.2000000029802]","1","2","","","20930","28","1","2","win","no-go","0"
"pit-trial","147","1214268","0.0-33.0","battery-v0.2","","""event"",""trial"",""time""
""fullscreenenter"",""1"",""9091""
","
","
","""event"",""trial"",""time""
""fullscreenenter"",""1"",""9091""
","
","","","1188.7999999970198","","","12","20930","7791","u","elianto","#f73b6a7A"," "," ","1","-10","[2041.5]","1","2","","","20930","29","0","3","lose","go","1"
"pit-trial","148","1219129","0.0-34.0","battery-v0.2","","""event"",""trial"",""time""
""fullscreenenter"",""1"",""9091""
","
","
","""event"",""trial"",""time""
""fullscreenenter"",""1"",""9091""
","
","","","-1","","","12","20930","7791","a","elianto","#f73b6a7A"," ","-1","0","-10","[]","0","2","","","20930","30","2","3","lose","go","0"
"pit-trial","149","1222608","0.0-35.0","battery-v0.2","","""event"",""trial"",""time""
""fullscreenenter"",""1"",""9091""
","
","
","""event"",""trial"",""time""
""fullscreenenter"",""1"",""9091""
","
","","","620.5999999940395","","","12","20930","7791","l","elianto","#3366ff99","-1"," ","0","+10","[1475.5]","1","2","","","20930","31","1","2","win","no-go","1"
"pit-trial","150","1227467","0.0-36.0","battery-v0.2","","""event"",""trial"",""time""
""fullscreenenter"",""1"",""9091""
","
","
","""event"",""trial"",""time""
""fullscreenenter"",""1"",""9091""
","
","","","-1","","","12","20930","7791","g","elianto","#f73b6a7A","-1","-1","1","0","[]","0","2","","","20930","32","3","4","lose","no-go","0"
"pit-trial","151","1232332","0.0-37.0","battery-v0.2","","""event"",""trial"",""time""
""fullscreenenter"",""1"",""9091""
","
","
","""event"",""trial"",""time""
""fullscreenenter"",""1"",""9091""
","
","","","-1","","","12","20930","7791","g","elianto","#f73b6a7A","-1","-1","1","-10","[]","0","2","","","20930","33","3","4","lose","no-go","1"
"pit-trial","152","1236176","0.0-38.0","battery-v0.2","","""event"",""trial"",""time""
""fullscreenenter"",""1"",""9091""
","
","
","""event"",""trial"",""time""
""fullscreenenter"",""1"",""9091""
","
","","","989.3999999910593","","","12","20930","7791","l","elianto","#3366ff99","-1"," ","0","0","[1842.0999999940395]","1","2","","","20930","34","1","2","win","no-go","0"
"pit-trial","153","1239892","0.0-39.0","battery-v0.2","","""event"",""trial"",""time""
""fullscreenenter"",""1"",""9091""
","
","
","""event"",""trial"",""time""
""fullscreenenter"",""1"",""9091""
","
","","","851.2000000029802","","","12","20930","7791","a","elianto","#f73b6a7A"," "," ","1","0","[1702.5]","1","2","","","20930","35","2","3","lose","go","0"
"pit-trial","154","1244746","0.0-40.0","battery-v0.2","","""event"",""trial"",""time""
""fullscreenenter"",""1"",""9091""
","
","
","""event"",""trial"",""time""
""fullscreenenter"",""1"",""9091""
","
","","","-1","","","12","20930","7791","u","elianto","#f73b6a7A"," ","-1","0","-10","[]","0","2","","","20930","36","0","3","lose","go","0"
"pit-trial","155","1248138","0.0-41.0","battery-v0.2","","""event"",""trial"",""time""
""fullscreenenter"",""1"",""9091""
","
","
","""event"",""trial"",""time""
""fullscreenenter"",""1"",""9091""
","
","","","532.9000000059605","","","12","20930","7791","l","elianto","#3366ff99","-1"," ","0","+10","[1383.4000000059605]","1","2","","","20930","37","1","2","win","no-go","1"
"pit-trial","156","1252992","0.0-42.0","battery-v0.2","","""event"",""trial"",""time""
""fullscreenenter"",""1"",""9091""
","
","
","""event"",""trial"",""time""
""fullscreenenter"",""1"",""9091""
","
","","","-1","","","12","20930","7791","g","elianto","#f73b6a7A","-1","-1","1","-10","[]","0","2","","","20930","38","3","4","lose","no-go","1"
"pit-trial","157","1257856","0.0-43.0","battery-v0.2","","""event"",""trial"",""time""
""fullscreenenter"",""1"",""9091""
","
","
","""event"",""trial"",""time""
""fullscreenenter"",""1"",""9091""
","
","","","-1","","","12","20930","7791","a","elianto","#f73b6a7A"," ","-1","0","0","[]","0","2","","","20930","39","2","3","lose","go","1"
"pit-trial","158","1262716","0.0-44.0","battery-v0.2","","""event"",""trial"",""time""
""fullscreenenter"",""1"",""9091""
","
","
","""event"",""trial"",""time""
""fullscreenenter"",""1"",""9091""
","
","","","-1","","","12","20930","7791","u","elianto","#f73b6a7A"," ","-1","0","-10","[]","0","2","","","20930","40","0","3","lose","go","0"
"pit-trial","159","1266193","0.0-45.0","battery-v0.2","","""event"",""trial"",""time""
""fullscreenenter"",""1"",""9091""
","
","
","""event"",""trial"",""time""
""fullscreenenter"",""1"",""9091""
","
","","","621.4000000059605","","","12","20930","7791","l","elianto","#3366ff99","-1"," ","0","+10","[1471.5]","1","2","","","20930","41","1","2","win","no-go","1"
"pit-trial","160","1271058","0.0-46.0","battery-v0.2","","""event"",""trial"",""time""
""fullscreenenter"",""1"",""9091""
","
","
","""event"",""trial"",""time""
""fullscreenenter"",""1"",""9091""
","
","","","-1","","","12","20930","7791","a","elianto","#f73b6a7A"," ","-1","0","-10","[]","0","2","","","20930","42","2","3","lose","go","0"
"pit-trial","161","1275792","0.0-47.0","battery-v0.2","","""event"",""trial"",""time""
""fullscreenenter"",""1"",""9091""
","
","
","""event"",""trial"",""time""
""fullscreenenter"",""1"",""9091""
","
","","","1868.2999999970198","","","12","20930","7791","g","elianto","#f73b6a7A","-1"," ","0","-10","[2723.6000000089407]","1","2","","","20930","43","3","4","lose","no-go","0"
"pit-trial","162","1279436","0.0-48.0","battery-v0.2","","""event"",""trial"",""time""
""fullscreenenter"",""1"",""9091""
","
","
","""event"",""trial"",""time""
""fullscreenenter"",""1"",""9091""
","
","","","790.6000000089407","","","12","20930","7791","u","elianto","#f73b6a7A"," "," ","1","-10","[1641.300000011921]","1","2","","","20930","44","0","3","lose","go","1"
"pit-trial","163","1283154","0.0-49.0","battery-v0.2","","""event"",""trial"",""time""
""fullscreenenter"",""1"",""9091""
","
","
","""event"",""trial"",""time""
""fullscreenenter"",""1"",""9091""
","
","","","853","","","12","20930","7791","g","elianto","#f73b6a7A","-1"," ","0","-10","[1705.1000000089407]","1","2","","","20930","45","3","4","lose","no-go","0"
"pit-trial","164","1287076","0.0-50.0","battery-v0.2","","""event"",""trial"",""time""
""fullscreenenter"",""1"",""9091""
","
","
","""event"",""trial"",""time""
""fullscreenenter"",""1"",""9091""
","
","","","1068.800000011921","","","12","20930","7791","a","elianto","#f73b6a7A"," "," ","1","0","[1919.7999999970198]","1","2","","","20930","46","2","3","lose","go","0"
"pit-trial","165","1290489","0.0-51.0","battery-v0.2","","""event"",""trial"",""time""
""fullscreenenter"",""1"",""9091""
","
","
","""event"",""trial"",""time""
""fullscreenenter"",""1"",""9091""
","
","","","555.4000000059605","","","12","20930","7791","l","elianto","#3366ff99","-1"," ","0","+10","[1405.7000000029802]","1","2","","","20930","47","1","2","win","no-go","1"
"pit-trial","166","1295343","0.0-52.0","battery-v0.2","","""event"",""trial"",""time""
""fullscreenenter"",""1"",""9091""
","
","
","""event"",""trial"",""time""
""fullscreenenter"",""1"",""9091""
","
","","","-1","","","12","20930","7791","u","elianto","#f73b6a7A"," ","-1","0","-10","[]","0","2","","","20930","48","0","3","lose","go","0"
"pit-trial","167","1299056","0.0-53.0","battery-v0.2","","""event"",""trial"",""time""
""fullscreenenter"",""1"",""9091""
","
","
","""event"",""trial"",""time""
""fullscreenenter"",""1"",""9091""
","
","","","858.2000000029802","","","12","20930","7791","a","elianto","#f73b6a7A"," "," ","1","-10","[1708.7999999970198]","1","2","","","20930","49","2","3","lose","go","1"
"pit-trial","168","1302872","0.0-54.0","battery-v0.2","","""event"",""trial"",""time""
""fullscreenenter"",""1"",""9091""
","
","
","""event"",""trial"",""time""
""fullscreenenter"",""1"",""9091""
","
","","","963.2999999970198","","","12","20930","7791","u","elianto","#f73b6a7A"," "," ","1","-10","[1813.5]","1","2","","","20930","50","0","3","lose","go","1"
"pit-trial","169","1306374","0.0-55.0","battery-v0.2","","""event"",""trial"",""time""
""fullscreenenter"",""1"",""9091""
","
","
","""event"",""trial"",""time""
""fullscreenenter"",""1"",""9091""
","
","","","648.0999999940395","","","12","20930","7791","l","elianto","#3366ff99","-1"," ","0","0","[1499.2000000029802]","1","2","","","20930","51","1","2","win","no-go","0"
"pit-trial","170","1310530","0.0-56.0","battery-v0.2","","""event"",""trial"",""time""
""fullscreenenter"",""1"",""9091""
","
","
","""event"",""trial"",""time""
""fullscreenenter"",""1"",""9091""
","
","","","1300.9000000059605","","","12","20930","7791","g","elianto","#f73b6a7A","-1"," ","0","0","[2152.300000011921]","1","2","","","20930","52","3","4","lose","no-go","1"
"pit-trial","171","1314369","0.0-57.0","battery-v0.2","","""event"",""trial"",""time""
""fullscreenenter"",""1"",""9091""
","
","
","""event"",""trial"",""time""
""fullscreenenter"",""1"",""9091""
","
","","","984.7000000029802","","","12","20930","7791","u","elianto","#f73b6a7A"," "," ","1","0","[1836.9000000059605]","1","2","","","20930","53","0","3","lose","go","0"
"pit-trial","172","1318581","0.0-58.0","battery-v0.2","","""event"",""trial"",""time""
""fullscreenenter"",""1"",""9091""
","
","
","""event"",""trial"",""time""
""fullscreenenter"",""1"",""9091""
","
","","","1355.7999999970198","","","12","20930","7791","g","elianto","#f73b6a7A","-1"," ","0","-10","[2208.2999999970198]","1","2","","","20930","54","3","4","lose","no-go","0"
"pit-trial","173","1321999","0.0-59.0","battery-v0.2","","""event"",""trial"",""time""
""fullscreenenter"",""1"",""9091""
","
","
","""event"",""trial"",""time""
""fullscreenenter"",""1"",""9091""
","
","","","561.4000000059605","","","12","20930","7791","l","elianto","#3366ff99","-1"," ","0","0","[1412.5]","1","2","","","20930","55","1","2","win","no-go","0"
"pit-trial","174","1325804","0.0-60.0","battery-v0.2","","""event"",""trial"",""time""
""fullscreenenter"",""1"",""9091""
","
","
","""event"",""trial"",""time""
""fullscreenenter"",""1"",""9091""
","
","","","951.6000000089407","","","12","20930","7791","a","elianto","#f73b6a7A"," "," ","1","0","[1801.7999999970198]","1","2","","","20930","56","2","3","lose","go","0"
"pit-trial","175","1329338","0.0-61.0","battery-v0.2","","""event"",""trial"",""time""
""fullscreenenter"",""1"",""9091""
","
","
","""event"",""trial"",""time""
""fullscreenenter"",""1"",""9091""
","
","","","680.2999999970198","","","12","20930","7791","p","elianto","#3366ff99"," "," ","1","+10","[1531.7000000029802]","1","2","","","20930","57","4","1","win","go","0"
"pit-trial","176","1333187","0.0-62.0","battery-v0.2","","""event"",""trial"",""time""
""fullscreenenter"",""1"",""9091""
","
","
","""event"",""trial"",""time""
""fullscreenenter"",""1"",""9091""
","
","","","985.9000000059605","","","12","20930","7791","a","elianto","#f73b6a7A"," "," ","1","-10","[1836.7000000029802]","1","2","","","20930","58","2","3","lose","go","1"
"pit-trial","177","1336652","0.0-63.0","battery-v0.2","","""event"",""trial"",""time""
""fullscreenenter"",""1"",""9091""
","
","
","""event"",""trial"",""time""
""fullscreenenter"",""1"",""9091""
","
","","","610.7999999970198","","","12","20930","7791","g","elianto","#f73b6a7A","-1"," ","0","-10","[1462.5999999940395]","1","2","","","20930","59","3","4","lose","no-go","0"
"pit-trial","178","1340064","0.0-64.0","battery-v0.2","","""event"",""trial"",""time""
""fullscreenenter"",""1"",""9091""
","
","
","""event"",""trial"",""time""
""fullscreenenter"",""1"",""9091""
","
","","","557.7999999970198","","","12","20930","7791","u","elianto","#f73b6a7A"," "," ","1","0","[1408.2999999970198]","1","2","","","20930","60","0","3","lose","go","0"
"pit-trial","179","1343779","0.0-65.0","battery-v0.2","","""event"",""trial"",""time""
""fullscreenenter"",""1"",""9091""
","
","
","""event"",""trial"",""time""
""fullscreenenter"",""1"",""9091""
","
","","","850","","","12","20930","7791","p","elianto","#3366ff99"," "," ","1","+10","[1700.8999999910593]","1","2","","","20930","61","4","1","win","go","0"
"pit-trial","180","1348637","0.0-66.0","battery-v0.2","","""event"",""trial"",""time""
""fullscreenenter"",""1"",""9091""
","
","
","""event"",""trial"",""time""
""fullscreenenter"",""1"",""9091""
","
","","","-1","","","12","20930","7791","g","elianto","#f73b6a7A","-1","-1","1","0","[]","0","2","","","20930","62","3","4","lose","no-go","0"
"pit-trial","181","1353499","0.0-67.0","battery-v0.2","","""event"",""trial"",""time""
""fullscreenenter"",""1"",""9091""
","
","
","""event"",""trial"",""time""
""fullscreenenter"",""1"",""9091""
","
","","","-1","","","12","20930","7791","a","elianto","#f73b6a7A"," ","-1","0","-10","[]","0","2","","","20930","63","2","3","lose","go","0"
"pit-trial","182","1356757","0.0-68.0","battery-v0.2","","""event"",""trial"",""time""
""fullscreenenter"",""1"",""9091""
","
","
","""event"",""trial"",""time""
""fullscreenenter"",""1"",""9091""
","
","","","400.5","","","12","20930","7791","l","elianto","#3366ff99","-1"," ","0","0","[1254.0999999940395]","1","2","","","20930","64","1","2","win","no-go","0"
"pit-trial","183","1361265","0.0-69.0","battery-v0.2","","""event"",""trial"",""time""
""fullscreenenter"",""1"",""9091""
","
","
","""event"",""trial"",""time""
""fullscreenenter"",""1"",""9091""
","
","","","1655","","","12","20930","7791","g","elianto","#f73b6a7A","-1"," ","0","-10","[2505.4000000059605]","1","2","","","20930","65","3","4","lose","no-go","0"
"pit-trial","184","1364986","0.0-70.0","battery-v0.2","","""event"",""trial"",""time""
""fullscreenenter"",""1"",""9091""
","
","
","""event"",""trial"",""time""
""fullscreenenter"",""1"",""9091""
","
","","","863.7999999970198","","","12","20930","7791","p","elianto","#3366ff99"," "," ","1","+10","[1714.0999999940395]","1","2","","","20930","66","4","1","win","go","0"
"pit-trial","185","1368651","0.0-71.0","battery-v0.2","","""event"",""trial"",""time""
""fullscreenenter"",""1"",""9091""
","
","
","""event"",""trial"",""time""
""fullscreenenter"",""1"",""9091""
","
","","","809.7000000029802","","","12","20930","7791","s","elianto","#3366ff99","-1"," ","0","0","[1662.1000000089407]","1","2","","","20930","67","5","2","win","no-go","0"
"pit-trial","186","1372104","0.0-72.0","battery-v0.2","","""event"",""trial"",""time""
""fullscreenenter"",""1"",""9091""
","
","
","""event"",""trial"",""time""
""fullscreenenter"",""1"",""9091""
","
","","","598.0999999940395","","","12","20930","7791","l","elianto","#3366ff99","-1"," ","0","+10","[1449.4000000059605]","1","2","","","20930","68","1","2","win","no-go","1"
"pit-trial","187","1375600","0.0-73.0","battery-v0.2","","""event"",""trial"",""time""
""fullscreenenter"",""1"",""9091""
","
","
","""event"",""trial"",""time""
""fullscreenenter"",""1"",""9091""
","
","","","635.0999999940395","","","12","20930","7791","s","elianto","#3366ff99","-1"," ","0","+10","[1486.1000000089407]","1","2","","","20930","69","5","2","win","no-go","1"
"pit-trial","188","1379096","0.0-74.0","battery-v0.2","","""event"",""trial"",""time""
""fullscreenenter"",""1"",""9091""
","
","
","""event"",""trial"",""time""
""fullscreenenter"",""1"",""9091""
","
","","","639.9000000059605","","","12","20930","7791","l","elianto","#3366ff99","-1"," ","0","0","[1493.2000000029802]","1","2","","","20930","70","1","2","win","no-go","0"
"pit-trial","189","1383954","0.0-75.0","battery-v0.2","","""event"",""trial"",""time""
""fullscreenenter"",""1"",""9091""
","
","
","""event"",""trial"",""time""
""fullscreenenter"",""1"",""9091""
","
","","","-1","","","12","20930","7791","a","elianto","#f73b6a7A"," ","-1","0","-10","[]","0","2","","","20930","71","2","3","lose","go","0"
"pit-trial","190","1387582","0.0-76.0","battery-v0.2","","""event"",""trial"",""time""
""fullscreenenter"",""1"",""9091""
","
","
","""event"",""trial"",""time""
""fullscreenenter"",""1"",""9091""
","
","","","772.5","","","12","20930","7791","p","elianto","#3366ff99"," "," ","1","+10","[1625.7000000029802]","1","2","","","20930","72","4","1","win","go","0"
"pit-trial","191","1391035","0.0-77.0","battery-v0.2","","""event"",""trial"",""time""
""fullscreenenter"",""1"",""9091""
","
","
","""event"",""trial"",""time""
""fullscreenenter"",""1"",""9091""
","
","","","588","","","12","20930","7791","s","elianto","#3366ff99","-1"," ","0","0","[1438.2999999970198]","1","2","","","20930","73","5","2","win","no-go","0"
"pit-trial","192","1394574","0.0-78.0","battery-v0.2","","""event"",""trial"",""time""
""fullscreenenter"",""1"",""9091""
","
","
","""event"",""trial"",""time""
""fullscreenenter"",""1"",""9091""
","
","","","677.3000000119209","","","12","20930","7791","p","elianto","#3366ff99"," "," ","1","+10","[1528.7999999970198]","1","2","","","20930","74","4","1","win","go","0"
"pit-trial","193","1398107","0.0-79.0","battery-v0.2","","""event"",""trial"",""time""
""fullscreenenter"",""1"",""9091""
","
","
","""event"",""trial"",""time""
""fullscreenenter"",""1"",""9091""
","
","","","678.7999999970198","","","12","20930","7791","l","elianto","#3366ff99","-1"," ","0","+10","[1529.7000000029802]","1","2","","","20930","75","1","2","win","no-go","1"
"pit-trial","194","1402961","0.0-80.0","battery-v0.2","","""event"",""trial"",""time""
""fullscreenenter"",""1"",""9091""
","
","
","""event"",""trial"",""time""
""fullscreenenter"",""1"",""9091""
","
","","","-1","","","12","20930","7791","g","elianto","#f73b6a7A","-1","-1","1","-10","[]","0","2","","","20930","76","3","4","lose","no-go","1"
"pit-trial","195","1407814","0.0-81.0","battery-v0.2","","""event"",""trial"",""time""
""fullscreenenter"",""1"",""9091""
","
","
","""event"",""trial"",""time""
""fullscreenenter"",""1"",""9091""
","
","","","-1","","","12","20930","7791","g","elianto","#f73b6a7A","-1","-1","1","0","[]","0","2","","","20930","77","3","4","lose","no-go","0"
"pit-trial","196","1411224","0.0-82.0","battery-v0.2","","""event"",""trial"",""time""
""fullscreenenter"",""1"",""9091""
","
","
","""event"",""trial"",""time""
""fullscreenenter"",""1"",""9091""
","
","","","552.8000000119209","","","12","20930","7791","s","elianto","#3366ff99","-1"," ","0","0","[1403.5999999940395]","1","2","","","20930","78","5","2","win","no-go","0"
"pit-trial","197","1414607","0.0-83.0","battery-v0.2","","""event"",""trial"",""time""
""fullscreenenter"",""1"",""9091""
","
","
","""event"",""trial"",""time""
""fullscreenenter"",""1"",""9091""
","
","","","530.2999999970198","","","12","20930","7791","p","elianto","#3366ff99"," "," ","1","+10","[1380.7000000029802]","1","2","","","20930","79","4","1","win","go","0"
"pit-trial","198","1418018","0.0-84.0","battery-v0.2","","""event"",""trial"",""time""
""fullscreenenter"",""1"",""9091""
","
","
","""event"",""trial"",""time""
""fullscreenenter"",""1"",""9091""
","
","","","553.3999999910593","","","12","20930","7791","p","elianto","#3366ff99"," "," ","1","+10","[1403.5999999940395]","1","2","","","20930","80","4","1","win","go","0"
"pit-trial","199","1422873","0.0-85.0","battery-v0.2","","""event"",""trial"",""time""
""fullscreenenter"",""1"",""9091""
","
","
","""event"",""trial"",""time""
""fullscreenenter"",""1"",""9091""
","
","","","-1","","","12","20930","7791","g","elianto","#f73b6a7A","-1","-1","1","-10","[]","0","2","","","20930","81","3","4","lose","no-go","1"
"pit-trial","200","1427729","0.0-86.0","battery-v0.2","","""event"",""trial"",""time""
""fullscreenenter"",""1"",""9091""
","
","
","""event"",""trial"",""time""
""fullscreenenter"",""1"",""9091""
","
","","","-1","","","12","20930","7791","e","elianto","#f73b6a7A","-1","-1","1","0","[]","0","2","","","20930","82","7","4","lose","no-go","0"
"pit-trial","201","1431087","0.0-87.0","battery-v0.2","","""event"",""trial"",""time""
""fullscreenenter"",""1"",""9091""
","
","
","""event"",""trial"",""time""
""fullscreenenter"",""1"",""9091""
","
","","","492.59999999403954","","","12","20930","7791","p","elianto","#3366ff99"," "," ","1","+10","[1349.5]","1","2","","","20930","83","4","1","win","go","0"
"pit-trial","202","1434526","0.0-88.0","battery-v0.2","","""event"",""trial"",""time""
""fullscreenenter"",""1"",""9091""
","
","
","""event"",""trial"",""time""
""fullscreenenter"",""1"",""9091""
","
","","","585.5999999940395","","","12","20930","7791","s","elianto","#3366ff99","-1"," ","0","0","[1436.2000000029802]","1","2","","","20930","84","5","2","win","no-go","0"
"pit-trial","203","1438295","0.0-89.0","battery-v0.2","","""event"",""trial"",""time""
""fullscreenenter"",""1"",""9091""
","
","
","""event"",""trial"",""time""
""fullscreenenter"",""1"",""9091""
","
","","","915","","","12","20930","7791","w","elianto","#f73b6a7A"," "," ","1","0","[1766.4000000059605]","1","2","","","20930","85","6","3","lose","go","0"
"pit-trial","204","1441539","0.0-90.0","battery-v0.2","","""event"",""trial"",""time""
""fullscreenenter"",""1"",""9091""
","
","
","""event"",""trial"",""time""
""fullscreenenter"",""1"",""9091""
","
","","","390.90000000596046","","","12","20930","7791","e","elianto","#f73b6a7A","-1"," ","0","-10","[1241.300000011921]","1","2","","","20930","86","7","4","lose","no-go","0"
"pit-trial","205","1444979","0.0-91.0","battery-v0.2","","""event"",""trial"",""time""
""fullscreenenter"",""1"",""9091""
","
","
","""event"",""trial"",""time""
""fullscreenenter"",""1"",""9091""
","
","","","580.6000000089407","","","12","20930","7791","s","elianto","#3366ff99","-1"," ","0","0","[1432.9000000059605]","1","2","","","20930","87","5","2","win","no-go","0"
"pit-trial","206","1448374","0.0-92.0","battery-v0.2","","""event"",""trial"",""time""
""fullscreenenter"",""1"",""9091""
","
","
","""event"",""trial"",""time""
""fullscreenenter"",""1"",""9091""
","
","","","542.4000000059605","","","12","20930","7791","p","elianto","#3366ff99"," "," ","1","+10","[1392.9000000059605]","1","2","","","20930","88","4","1","win","go","0"
"pit-trial","207","1451581","0.0-93.0","battery-v0.2","","""event"",""trial"",""time""
""fullscreenenter"",""1"",""9091""
","
","
","""event"",""trial"",""time""
""fullscreenenter"",""1"",""9091""
","
","","","346.79999999701977","","","12","20930","7791","e","elianto","#f73b6a7A","-1"," ","0","-10","[1197.1000000089407]","1","2","","","20930","89","7","4","lose","no-go","0"
"pit-trial","208","1454882","0.0-94.0","battery-v0.2","","""event"",""trial"",""time""
""fullscreenenter"",""1"",""9091""
","
","
","""event"",""trial"",""time""
""fullscreenenter"",""1"",""9091""
","
","","","447.40000000596046","","","12","20930","7791","s","elianto","#3366ff99","-1"," ","0","0","[1298]","1","2","","","20930","90","5","2","win","no-go","0"
"pit-trial","209","1458073","0.0-95.0","battery-v0.2","","""event"",""trial"",""time""
""fullscreenenter"",""1"",""9091""
","
","
","""event"",""trial"",""time""
""fullscreenenter"",""1"",""9091""
","
","","","337.90000000596046","","","12","20930","7791","w","elianto","#f73b6a7A"," "," ","1","0","[1188.1000000089407]","1","2","","","20930","91","6","3","lose","go","0"
"pit-trial","210","1461569","0.0-96.0","battery-v0.2","","""event"",""trial"",""time""
""fullscreenenter"",""1"",""9091""
","
","
","""event"",""trial"",""time""
""fullscreenenter"",""1"",""9091""
","
","","","642.2000000029802","","","12","20930","7791","p","elianto","#3366ff99"," "," ","1","0","[1492.2999999970198]","1","2","","","20930","92","4","1","win","go","1"
"pit-trial","211","1465148","0.0-97.0","battery-v0.2","","""event"",""trial"",""time""
""fullscreenenter"",""1"",""9091""
","
","
","""event"",""trial"",""time""
""fullscreenenter"",""1"",""9091""
","
","","","724.4000000059605","","","12","20930","7791","s","elianto","#3366ff99","-1"," ","0","+10","[1574.5999999940395]","1","2","","","20930","93","5","2","win","no-go","1"
"pit-trial","212","1468587","0.0-98.0","battery-v0.2","","""event"",""trial"",""time""
""fullscreenenter"",""1"",""9091""
","
","
","""event"",""trial"",""time""
""fullscreenenter"",""1"",""9091""
","
","","","585.2000000029802","","","12","20930","7791","d","elianto","#3366ff99"," "," ","1","+10","[1436]","1","2","","","20930","94","8","1","win","go","0"
"pit-trial","213","1473452","0.0-99.0","battery-v0.2","","""event"",""trial"",""time""
""fullscreenenter"",""1"",""9091""
","
","
","""event"",""trial"",""time""
""fullscreenenter"",""1"",""9091""
","
","","","-1","","","12","20930","7791","w","elianto","#f73b6a7A"," ","-1","0","-10","[]","0","2","","","20930","95","6","3","lose","go","0"
"pit-trial","214","1476599","0.0-100.0","battery-v0.2","","""event"",""trial"",""time""
""fullscreenenter"",""1"",""9091""
","
","
","""event"",""trial"",""time""
""fullscreenenter"",""1"",""9091""
","
","","","285.29999999701977","","","12","20930","7791","e","elianto","#f73b6a7A","-1"," ","0","-10","[1136.0999999940395]","1","2","","","20930","96","7","4","lose","no-go","0"
"pit-trial","215","1479935","0.0-101.0","battery-v0.2","","""event"",""trial"",""time""
""fullscreenenter"",""1"",""9091""
","
","
","""event"",""trial"",""time""
""fullscreenenter"",""1"",""9091""
","
","","","483.29999999701977","","","12","20930","7791","s","elianto","#3366ff99","-1"," ","0","0","[1333.6000000089407]","1","2","","","20930","97","5","2","win","no-go","0"
"pit-trial","216","1484094","0.0-102.0","battery-v0.2","","""event"",""trial"",""time""
""fullscreenenter"",""1"",""9091""
","
","
","""event"",""trial"",""time""
""fullscreenenter"",""1"",""9091""
","
","","","1304.7000000029802","","","12","20930","7791","e","elianto","#f73b6a7A","-1"," ","0","-10","[2155.5]","1","2","","","20930","98","7","4","lose","no-go","0"
"pit-trial","217","1487818","0.0-103.0","battery-v0.2","","""event"",""trial"",""time""
""fullscreenenter"",""1"",""9091""
","
","
","""event"",""trial"",""time""
""fullscreenenter"",""1"",""9091""
","
","","","871.2999999970198","","","12","20930","7791","w","elianto","#f73b6a7A"," "," ","1","0","[1721.7000000029802]","1","2","","","20930","99","6","3","lose","go","0"
"pit-trial","218","1491214","0.0-104.0","battery-v0.2","","""event"",""trial"",""time""
""fullscreenenter"",""1"",""9091""
","
","
","""event"",""trial"",""time""
""fullscreenenter"",""1"",""9091""
","
","","","535.7000000029802","","","12","20930","7791","d","elianto","#3366ff99"," "," ","1","+10","[1387]","1","2","","","20930","100","8","1","win","go","0"
"pit-trial","219","1494543","0.0-105.0","battery-v0.2","","""event"",""trial"",""time""
""fullscreenenter"",""1"",""9091""
","
","
","""event"",""trial"",""time""
""fullscreenenter"",""1"",""9091""
","
","","","472","","","12","20930","7791","d","elianto","#3366ff99"," "," ","1","+10","[1327]","1","2","","","20930","101","8","1","win","go","0"
"pit-trial","220","1498137","0.0-106.0","battery-v0.2","","""event"",""trial"",""time""
""fullscreenenter"",""1"",""9091""
","
","
","""event"",""trial"",""time""
""fullscreenenter"",""1"",""9091""
","
","","","737.0999999940395","","","12","20930","7791","j","elianto","#3366ff99"," "," ","1","+10","[1590.5]","1","2","","","20930","102","9","1","win","go","0"
"pit-trial","221","1501664","0.0-107.0","battery-v0.2","","""event"",""trial"",""time""
""fullscreenenter"",""1"",""9091""
","
","
","""event"",""trial"",""time""
""fullscreenenter"",""1"",""9091""
","
","","","673.2000000029802","","","12","20930","7791","s","elianto","#3366ff99","-1"," ","0","0","[1524.5]","1","2","","","20930","103","5","2","win","no-go","0"
"pit-trial","222","1506523","0.0-108.0","battery-v0.2","","""event"",""trial"",""time""
""fullscreenenter"",""1"",""9091""
","
","
","""event"",""trial"",""time""
""fullscreenenter"",""1"",""9091""
","
","","","-1","","","12","20930","7791","e","elianto","#f73b6a7A","-1","-1","1","0","[]","0","2","","","20930","104","7","4","lose","no-go","0"
"pit-trial","223","1510478","0.0-109.0","battery-v0.2","","""event"",""trial"",""time""
""fullscreenenter"",""1"",""9091""
","
","
","""event"",""trial"",""time""
""fullscreenenter"",""1"",""9091""
","
","","","1093","","","12","20930","7791","j","elianto","#3366ff99"," "," ","1","+10","[1944.5]","1","2","","","20930","105","9","1","win","go","0"
"pit-trial","224","1514197","0.0-110.0","battery-v0.2","","""event"",""trial"",""time""
""fullscreenenter"",""1"",""9091""
","
","
","""event"",""trial"",""time""
""fullscreenenter"",""1"",""9091""
","
","","","866","","","12","20930","7791","p","elianto","#3366ff99"," "," ","1","+10","[1716.5999999940395]","1","2","","","20930","106","4","1","win","go","0"
"pit-trial","225","1517904","0.0-111.0","battery-v0.2","","""event"",""trial"",""time""
""fullscreenenter"",""1"",""9091""
","
","
","""event"",""trial"",""time""
""fullscreenenter"",""1"",""9091""
","
","","","848.6000000089407","","","12","20930","7791","d","elianto","#3366ff99"," "," ","1","+10","[1698.699999988079]","1","2","","","20930","107","8","1","win","go","0"
"pit-trial","226","1522760","0.0-112.0","battery-v0.2","","""event"",""trial"",""time""
""fullscreenenter"",""1"",""9091""
","
","
","""event"",""trial"",""time""
""fullscreenenter"",""1"",""9091""
","
","","","-1","","","12","20930","7791","w","elianto","#f73b6a7A"," ","-1","0","0","[]","0","2","","","20930","108","6","3","lose","go","1"
"pit-trial","227","1527617","0.0-113.0","battery-v0.2","","""event"",""trial"",""time""
""fullscreenenter"",""1"",""9091""
","
","
","""event"",""trial"",""time""
""fullscreenenter"",""1"",""9091""
","
","","","-1","","","12","20930","7791","w","elianto","#f73b6a7A"," ","-1","0","0","[]","0","2","","","20930","109","6","3","lose","go","1"
"pit-trial","228","1531050","0.0-114.0","battery-v0.2","","""event"",""trial"",""time""
""fullscreenenter"",""1"",""9091""
","
","
","""event"",""trial"",""time""
""fullscreenenter"",""1"",""9091""
","
","","","579.5","","","12","20930","7791","d","elianto","#3366ff99"," "," ","1","+10","[1430.3999999910593]","1","2","","","20930","110","8","1","win","go","0"
"pit-trial","229","1534776","0.0-115.0","battery-v0.2","","""event"",""trial"",""time""
""fullscreenenter"",""1"",""9091""
","
","
","""event"",""trial"",""time""
""fullscreenenter"",""1"",""9091""
","
","","","862.5999999940395","","","12","20930","7791","j","elianto","#3366ff99"," "," ","1","+10","[1713.699999988079]","1","2","","","20930","111","9","1","win","go","0"
"pit-trial","230","1538393","0.0-116.0","battery-v0.2","","""event"",""trial"",""time""
""fullscreenenter"",""1"",""9091""
","
","
","""event"",""trial"",""time""
""fullscreenenter"",""1"",""9091""
","
","","","757.7999999970198","","","12","20930","7791","s","elianto","#3366ff99","-1"," ","0","+10","[1608.5]","1","2","","","20930","112","5","2","win","no-go","1"
"pit-trial","231","1541783","0.0-117.0","battery-v0.2","","""event"",""trial"",""time""
""fullscreenenter"",""1"",""9091""
","
","
","""event"",""trial"",""time""
""fullscreenenter"",""1"",""9091""
","
","","","532.5","","","12","20930","7791","s","elianto","#3366ff99","-1"," ","0","0","[1382.6000000089407]","1","2","","","20930","113","5","2","win","no-go","0"
"pit-trial","232","1544865","0.0-118.0","battery-v0.2","","""event"",""trial"",""time""
""fullscreenenter"",""1"",""9091""
","
","
","""event"",""trial"",""time""
""fullscreenenter"",""1"",""9091""
","
","","","226.6000000089407","","","12","20930","7791","w","elianto","#f73b6a7A"," "," ","1","0","[1079.5]","1","2","","","20930","114","6","3","lose","go","0"
"pit-trial","233","1547990","0.0-119.0","battery-v0.2","","""event"",""trial"",""time""
""fullscreenenter"",""1"",""9091""
","
","
","""event"",""trial"",""time""
""fullscreenenter"",""1"",""9091""
","
","","","270.59999999403954","","","12","20930","7791","j","elianto","#3366ff99"," "," ","1","+10","[1121.7000000029802]","1","2","","","20930","115","9","1","win","go","0"
"pit-trial","234","1551347","0.0-120.0","battery-v0.2","","""event"",""trial"",""time""
""fullscreenenter"",""1"",""9091""
","
","
","""event"",""trial"",""time""
""fullscreenenter"",""1"",""9091""
","
","","","504.70000000298023","","","12","20930","7791","d","elianto","#3366ff99"," "," ","1","+10","[1355]","1","2","","","20930","116","8","1","win","go","0"
"pit-trial","235","1554902","0.0-121.0","battery-v0.2","","""event"",""trial"",""time""
""fullscreenenter"",""1"",""9091""
","
","
","""event"",""trial"",""time""
""fullscreenenter"",""1"",""9091""
","
","","","701.2000000029802","","","12","20930","7791","j","elianto","#3366ff99"," "," ","1","+10","[1552.2000000029802]","1","2","","","20930","117","9","1","win","go","0"
"pit-trial","236","1559765","0.0-122.0","battery-v0.2","","""event"",""trial"",""time""
""fullscreenenter"",""1"",""9091""
","
","
","""event"",""trial"",""time""
""fullscreenenter"",""1"",""9091""
","
","","","-1","","","12","20930","7791","w","elianto","#f73b6a7A"," ","-1","0","0","[]","0","2","","","20930","118","6","3","lose","go","1"
"pit-trial","237","1563061","0.0-123.0","battery-v0.2","","""event"",""trial"",""time""
""fullscreenenter"",""1"",""9091""
","
","
","""event"",""trial"",""time""
""fullscreenenter"",""1"",""9091""
","
","","","435.30000001192093","","","12","20930","7791","s","elianto","#3366ff99","-1"," ","0","+10","[1290.6000000089407]","1","2","","","20930","119","5","2","win","no-go","1"
"pit-trial","238","1566436","0.0-124.0","battery-v0.2","","""event"",""trial"",""time""
""fullscreenenter"",""1"",""9091""
","
","
","""event"",""trial"",""time""
""fullscreenenter"",""1"",""9091""
","
","","","514.2000000029802","","","12","20930","7791","d","elianto","#3366ff99"," "," ","1","+10","[1371.7000000029802]","1","2","","","20930","120","8","1","win","go","0"
"pit-trial","239","1571295","0.0-125.0","battery-v0.2","","""event"",""trial"",""time""
""fullscreenenter"",""1"",""9091""
","
","
","""event"",""trial"",""time""
""fullscreenenter"",""1"",""9091""
","
","","","-1","","","12","20930","7791","e","elianto","#f73b6a7A","-1","-1","1","0","[]","0","2","","","20930","121","7","4","lose","no-go","0"
"pit-trial","240","1574597","0.0-126.0","battery-v0.2","","""event"",""trial"",""time""
""fullscreenenter"",""1"",""9091""
","
","
","""event"",""trial"",""time""
""fullscreenenter"",""1"",""9091""
","
","","","448.5","","","12","20930","7791","j","elianto","#3366ff99"," "," ","1","+10","[1300.0999999940395]","1","2","","","20930","122","9","1","win","go","0"
"pit-trial","241","1578621","0.0-127.0","battery-v0.2","","""event"",""trial"",""time""
""fullscreenenter"",""1"",""9091""
","
","
","""event"",""trial"",""time""
""fullscreenenter"",""1"",""9091""
","
","","","1168.9000000059605","","","12","20930","7791","w","elianto","#f73b6a7A"," "," ","1","0","[2020.4000000059605]","1","2","","","20930","123","6","3","lose","go","0"
"pit-trial","242","1581801","0.0-128.0","battery-v0.2","","""event"",""trial"",""time""
""fullscreenenter"",""1"",""9091""
","
","
","""event"",""trial"",""time""
""fullscreenenter"",""1"",""9091""
","
","","","325.5","","","12","20930","7791","d","elianto","#3366ff99"," "," ","1","+10","[1178.7000000029802]","1","2","","","20930","124","8","1","win","go","0"
"pit-trial","243","1585149","0.0-129.0","battery-v0.2","","""event"",""trial"",""time""
""fullscreenenter"",""1"",""9091""
","
","
","""event"",""trial"",""time""
""fullscreenenter"",""1"",""9091""
","
","","","488","","","12","20930","7791","d","elianto","#3366ff99"," "," ","1","+10","[1339.0999999940395]","1","2","","","20930","125","8","1","win","go","0"
"pit-trial","244","1590009","0.0-130.0","battery-v0.2","","""event"",""trial"",""time""
""fullscreenenter"",""1"",""9091""
","
","
","""event"",""trial"",""time""
""fullscreenenter"",""1"",""9091""
","
","","","-1","","","12","20930","7791","e","elianto","#f73b6a7A","-1","-1","1","0","[]","0","2","","","20930","126","7","4","lose","no-go","0"
"pit-trial","245","1593346","0.0-131.0","battery-v0.2","","""event"",""trial"",""time""
""fullscreenenter"",""1"",""9091""
","
","
","""event"",""trial"",""time""
""fullscreenenter"",""1"",""9091""
","
","","","484.1000000089407","","","12","20930","7791","j","elianto","#3366ff99"," "," ","1","+10","[1334.5999999940395]","1","2","","","20930","127","9","1","win","go","0"
"pit-trial","246","1598203","0.0-132.0","battery-v0.2","","""event"",""trial"",""time""
""fullscreenenter"",""1"",""9091""
","
","
","""event"",""trial"",""time""
""fullscreenenter"",""1"",""9091""
","
","","","-1","","","12","20930","7791","w","elianto","#f73b6a7A"," ","-1","0","-10","[]","0","2","","","20930","128","6","3","lose","go","0"
"pit-trial","247","1603058","0.0-133.0","battery-v0.2","","""event"",""trial"",""time""
""fullscreenenter"",""1"",""9091""
","
","
","""event"",""trial"",""time""
""fullscreenenter"",""1"",""9091""
","
","","","-1","","","12","20930","7791","e","elianto","#f73b6a7A","-1","-1","1","0","[]","0","2","","","20930","129","7","4","lose","no-go","0"
"pit-trial","248","1606405","0.0-134.0","battery-v0.2","","""event"",""trial"",""time""
""fullscreenenter"",""1"",""9091""
","
","
","""event"",""trial"",""time""
""fullscreenenter"",""1"",""9091""
","
","","","491.5","","","12","20930","7791","d","elianto","#3366ff99"," "," ","1","+10","[1343.5]","1","2","","","20930","130","8","1","win","go","0"
"pit-trial","249","1610177","0.0-135.0","battery-v0.2","","""event"",""trial"",""time""
""fullscreenenter"",""1"",""9091""
","
","
","""event"",""trial"",""time""
""fullscreenenter"",""1"",""9091""
","
","","","918.5","","","12","20930","7791","j","elianto","#3366ff99"," "," ","1","+10","[1768.7000000029802]","1","2","","","20930","131","9","1","win","go","0"
"pit-trial","250","1613965","0.0-136.0","battery-v0.2","","""event"",""trial"",""time""
""fullscreenenter"",""1"",""9091""
","
","
","""event"",""trial"",""time""
""fullscreenenter"",""1"",""9091""
","
","","","928.5","","","12","20930","7791","w","elianto","#f73b6a7A"," "," ","1","0","[1778.7999999970198]","1","2","","","20930","132","6","3","lose","go","0"
"pit-trial","251","1617669","0.0-137.0","battery-v0.2","","""event"",""trial"",""time""
""fullscreenenter"",""1"",""9091""
","
","
","""event"",""trial"",""time""
""fullscreenenter"",""1"",""9091""
","
","","","850.5","","","12","20930","7791","e","elianto","#f73b6a7A","-1"," ","0","-10","[1701.6000000089407]","1","2","","","20930","133","7","4","lose","no-go","0"
"pit-trial","252","1621044","0.0-138.0","battery-v0.2","","""event"",""trial"",""time""
""fullscreenenter"",""1"",""9091""
","
","
","""event"",""trial"",""time""
""fullscreenenter"",""1"",""9091""
","
","","","521.2000000029802","","","12","20930","7791","w","elianto","#f73b6a7A"," "," ","1","0","[1371.6000000089407]","1","2","","","20930","134","6","3","lose","go","0"
"pit-trial","253","1624470","0.0-139.0","battery-v0.2","","""event"",""trial"",""time""
""fullscreenenter"",""1"",""9091""
","
","
","""event"",""trial"",""time""
""fullscreenenter"",""1"",""9091""
","
","","","572.7999999970198","","","12","20930","7791","j","elianto","#3366ff99"," "," ","1","+10","[1422.8999999910593]","1","2","","","20930","135","9","1","win","go","0"
"pit-trial","254","1628065","0.0-140.0","battery-v0.2","","""event"",""trial"",""time""
""fullscreenenter"",""1"",""9091""
","
","
","""event"",""trial"",""time""
""fullscreenenter"",""1"",""9091""
","
","","","734","","","12","20930","7791","d","elianto","#3366ff99"," "," ","1","+10","[1584.7999999970198]","1","2","","","20930","136","8","1","win","go","0"
"pit-trial","255","1632490","0.0-141.0","battery-v0.2","","""event"",""trial"",""time""
""fullscreenenter"",""1"",""9091""
","
","
","""event"",""trial"",""time""
""fullscreenenter"",""1"",""9091""
","
","","","1565.0999999940395","","","12","20930","7791","e","elianto","#f73b6a7A","-1"," ","0","-10","[2421]","1","2","","","20930","137","7","4","lose","no-go","0"
"pit-trial","256","1635872","0.0-142.0","battery-v0.2","","""event"",""trial"",""time""
""fullscreenenter"",""1"",""9091""
","
","
","""event"",""trial"",""time""
""fullscreenenter"",""1"",""9091""
","
","","","528.0999999940395","","","12","20930","7791","d","elianto","#3366ff99"," "," ","1","+10","[1379]","1","2","","","20930","138","8","1","win","go","0"
"pit-trial","257","1640726","0.0-143.0","battery-v0.2","","""event"",""trial"",""time""
""fullscreenenter"",""1"",""9091""
","
","
","""event"",""trial"",""time""
""fullscreenenter"",""1"",""9091""
","
","","","-1","","","12","20930","7791","w","elianto","#f73b6a7A"," ","-1","0","0","[]","0","2","","","20930","139","6","3","lose","go","1"
"pit-trial","258","1644090","0.0-144.0","battery-v0.2","","""event"",""trial"",""time""
""fullscreenenter"",""1"",""9091""
""fullscreenexit"",""259"",""1656068""
""blur"",""259"",""1659894""
""focus"",""259"",""1855105""
","""event"",""trial"",""time""
""blur"",""259"",""1659894""
","""event"",""trial"",""time""
""focus"",""259"",""1855105""
","""event"",""trial"",""time""
""fullscreenenter"",""1"",""9091""
","""event"",""trial"",""time""
""fullscreenexit"",""259"",""1656068""
","","","509","","","12","20930","7791","j","elianto","#3366ff99"," "," ","1","+10","[1359.800000011921]","1","2","","","20930","140","9","1","win","go","0"
"pit-instructions","259","1876340","0.0-145.0","battery-v0.2","","""event"",""trial"",""time""
""fullscreenenter"",""1"",""9091""
""fullscreenexit"",""259"",""1656068""
""blur"",""259"",""1659894""
""focus"",""259"",""1855105""
","""event"",""trial"",""time""
""blur"",""259"",""1659894""
","""event"",""trial"",""time""
""focus"",""259"",""1855105""
","""event"",""trial"",""time""
""fullscreenenter"",""1"",""9091""
","""event"",""trial"",""time""
""fullscreenexit"",""259"",""1656068""
","","[{""page_index"":0,""viewing_time"":220949.5},{""page_index"":1,""viewing_time"":11298.79999999702}]","232248.70000000298","","","","","","","","","","","","","","","","","","","","","","","",""
"pit-trial","260","1881203","0.0-146.0","battery-v0.2","","""event"",""trial"",""time""
""fullscreenenter"",""1"",""9091""
""fullscreenexit"",""259"",""1656068""
""blur"",""259"",""1659894""
""focus"",""259"",""1855105""
","""event"",""trial"",""time""
""blur"",""259"",""1659894""
","""event"",""trial"",""time""
""focus"",""259"",""1855105""
","""event"",""trial"",""time""
""fullscreenenter"",""1"",""9091""
