"trial_type","trial_index","time_elapsed","internal_node_id","task_version","subject_id","interactions","blur_events","focus_events","fullscreenenter_events","fullscreenexit_events","success","view_history","rt","responses","num_errors","age","subject","participantId","rune","rune_set","hex","correct","choice","accuracy","outcome","keys","total_keys","block","practice","value","sub","trial","stimulus","robot","valence","action","sham"
"pavlovia","0","7","0.0-0.0","battery-v0.2","","""event"",""trial"",""time""
""fullscreenenter"",""1"",""1150""
","
","
","""event"",""trial"",""time""
""fullscreenenter"",""1"",""1150""
","
","","","","","","","","","","","","","","","","","","","","","","","","","","",""
"fullscreen","1","2117","0.0-1.0","battery-v0.2","","""event"",""trial"",""time""
""fullscreenenter"",""1"",""1150""
","
","
","""event"",""trial"",""time""
""fullscreenenter"",""1"",""1150""
","
","true","","","","","","","","","","","","","","","","","","","","","","","","","",""
"pit-instructions","2","5833","0.0-2.0-0.0","battery-v0.2","","""event"",""trial"",""time""
""fullscreenenter"",""1"",""1150""
","
","
","""event"",""trial"",""time""
""fullscreenenter"",""1"",""1150""
","
","","[{""page_index"":0,""viewing_time"":3708.000000000001}]","3708.000000000001","","","","","","","","","","","","","","","","","","","","","","","",""
"pit-comprehension","3","8306","0.0-2.0-1.0-0.0","battery-v0.2","","""event"",""trial"",""time""
""fullscreenenter"",""1"",""1150""
","
","
","""event"",""trial"",""time""
""fullscreenenter"",""1"",""1150""
","
","","","2433.999999999999","[""shark""]","0","11","8857","4191","","","","","","","","","","","","","","","","","","",""
"pit-instructions","4","11316","0.0-2.0-1.0-1.0","battery-v0.2","","""event"",""trial"",""time""
""fullscreenenter"",""1"",""1150""
","
","
","""event"",""trial"",""time""
""fullscreenenter"",""1"",""1150""
","
","","[{""page_index"":0,""viewing_time"":3006.000000000002}]","3006.000000000002","","","","","","","","","","","","","","","","","","","","","","","",""
"pit-comprehension","5","13804","0.0-2.0-2.0-0.0","battery-v0.2","","""event"",""trial"",""time""
""fullscreenenter"",""1"",""1150""
","
","
","""event"",""trial"",""time""
""fullscreenenter"",""1"",""1150""
","
","","","2482.000000000002","[""tiger""]","0","11","8857","4191","","","","","","","","","","","","","","","","","","",""
"pit-instructions","6","45221","0.0-2.0-2.0-1.0","battery-v0.2","","""event"",""trial"",""time""
""fullscreenenter"",""1"",""1150""
","
","
","""event"",""trial"",""time""
""fullscreenenter"",""1"",""1150""
","
","","[{""page_index"":0,""viewing_time"":31410}]","31411","","","","","","","","","","","","","","","","","","","","","","","",""
"pit-instructions","7","143646","0.0-2.0-3.0","battery-v0.2","","""event"",""trial"",""time""
""fullscreenenter"",""1"",""1150""
","
","
","""event"",""trial"",""time""
""fullscreenenter"",""1"",""1150""
","
","","[{""page_index"":0,""viewing_time"":10441},{""page_index"":1,""viewing_time"":6056},{""page_index"":2,""viewing_time"":6462},{""page_index"":3,""viewing_time"":5026},{""page_index"":4,""viewing_time"":5111},{""page_index"":5,""viewing_time"":5294},{""page_index"":6,""viewing_time"":6640},{""page_index"":7,""viewing_time"":6409},{""page_index"":8,""viewing_time"":7320},{""page_index"":9,""viewing_time"":9849},{""page_index"":10,""viewing_time"":10182},{""page_index"":11,""viewing_time"":7067},{""page_index"":12,""viewing_time"":6949},{""page_index"":13,""viewing_time"":5613.000000000029}]","98420","","","","","","","","","","","","","","","","","","","","","","","",""
"pit-trial","8","147016","0.0-2.0-4.0-0.0","battery-v0.2","","""event"",""trial"",""time""
""fullscreenenter"",""1"",""1150""
","
","
","""event"",""trial"",""time""
""fullscreenenter"",""1"",""1150""
","
","","","511","","","11","8857","4191","&#9784;","elianto","#FFFFF080"," "," ","1","&#10004","[1362]","1","0","0","","","","","","","",""
"pit-trial","9","150354","0.0-2.0-4.1-0.1","battery-v0.2","","""event"",""trial"",""time""
""fullscreenenter"",""1"",""1150""
","
","
","""event"",""trial"",""time""
""fullscreenenter"",""1"",""1150""
","
","","","480.9999999999709","","","11","8857","4191","&#9784;","elianto","#FFFFF080"," "," ","1","&#10004","[1331.999999999971]","1","0","0","","","","","","","",""
"pit-trial","10","153872","0.0-2.0-4.2-0.2","battery-v0.2","","""event"",""trial"",""time""
""fullscreenenter"",""1"",""1150""
","
","
","""event"",""trial"",""time""
""fullscreenenter"",""1"",""1150""
","
","","","658.9999999999709","","","11","8857","4191","&#9784;","elianto","#FFFFF080"," "," ","1","&#10004","[1511]","1","0","0","","","","","","","",""
"pit-trial","11","157320","0.0-2.0-4.3-0.3","battery-v0.2","","""event"",""trial"",""time""
""fullscreenenter"",""1"",""1150""
","
","
","""event"",""trial"",""time""
""fullscreenenter"",""1"",""1150""
","
","","","591","","","11","8857","4191","&#9784;","elianto","#FFFFF080"," "," ","1","&#10004","[1442]","1","0","0","","","","","","","",""
"pit-trial","12","160837","0.0-2.0-4.4-0.4","battery-v0.2","","""event"",""trial"",""time""
""fullscreenenter"",""1"",""1150""
","
","
","""event"",""trial"",""time""
""fullscreenenter"",""1"",""1150""
","
","","","661","","","11","8857","4191","&#9784;","elianto","#FFFFF080"," "," ","1","&#10004","[1512]","1","0","0","","","","","","","",""
"pit-instructions","13","181019","0.0-2.0-5.0","battery-v0.2","","""event"",""trial"",""time""
""fullscreenenter"",""1"",""1150""
","
","
","""event"",""trial"",""time""
""fullscreenenter"",""1"",""1150""
","
","","[{""page_index"":0,""viewing_time"":4939},{""page_index"":1,""viewing_time"":5229},{""page_index"":2,""viewing_time"":4363},{""page_index"":3,""viewing_time"":5644}]","20176","","","","","","","","","","","","","","","","","","","","","","","",""
"pit-trial","14","185875","0.0-2.0-6.0-0.0","battery-v0.2","","""event"",""trial"",""time""
""fullscreenenter"",""1"",""1150""
","
","
","""event"",""trial"",""time""
""fullscreenenter"",""1"",""1150""
","
","","","-1","","","11","8857","4191","&#9854;","elianto","#FFFFF080","-1","-1","1","&#10004","[]","0","0","1","","","","","","","",""
"pit-trial","15","190732","0.0-2.0-6.1-0.1","battery-v0.2","","""event"",""trial"",""time""
""fullscreenenter"",""1"",""1150""
","
","
","""event"",""trial"",""time""
""fullscreenenter"",""1"",""1150""
","
","","","-1","","","11","8857","4191","&#9854;","elianto","#FFFFF080","-1","-1","1","&#10004","[]","0","0","1","","","","","","","",""
"pit-trial","16","195588","0.0-2.0-6.2-0.2","battery-v0.2","","""event"",""trial"",""time""
""fullscreenenter"",""1"",""1150""
","
","
","""event"",""trial"",""time""
""fullscreenenter"",""1"",""1150""
","
","","","-1","","","11","8857","4191","&#9854;","elianto","#FFFFF080","-1","-1","1","&#10004","[]","0","0","1","","","","","","","",""
"pit-trial","17","200443","0.0-2.0-6.3-0.3","battery-v0.2","","""event"",""trial"",""time""
""fullscreenenter"",""1"",""1150""
","
","
","""event"",""trial"",""time""
""fullscreenenter"",""1"",""1150""
","
","","","-1","","","11","8857","4191","&#9854;","elianto","#FFFFF080","-1","-1","1","&#10004","[]","0","0","1","","","","","","","",""
"pit-trial","18","205301","0.0-2.0-6.4-0.4","battery-v0.2","","""event"",""trial"",""time""
""fullscreenenter"",""1"",""1150""
","
","
","""event"",""trial"",""time""
""fullscreenenter"",""1"",""1150""
","
","","","-1","","","11","8857","4191","&#9854;","elianto","#FFFFF080","-1","-1","1","&#10004","[]","0","0","1","","","","","","","",""
"pit-instructions","19","319935","0.0-2.0-7.0","battery-v0.2","","""event"",""trial"",""time""
""fullscreenenter"",""1"",""1150""
","
","
","""event"",""trial"",""time""
""fullscreenenter"",""1"",""1150""
","
","","[{""page_index"":0,""viewing_time"":5873},{""page_index"":1,""viewing_time"":7214},{""page_index"":2,""viewing_time"":6265.000000000029},{""page_index"":3,""viewing_time"":6502.999999999971},{""page_index"":4,""viewing_time"":5467.000000000029},{""page_index"":5,""viewing_time"":5826.999999999971},{""page_index"":6,""viewing_time"":5101},{""page_index"":7,""viewing_time"":7783.000000000029},{""page_index"":8,""viewing_time"":7844.999999999971},{""page_index"":9,""viewing_time"":5450},{""page_index"":10,""viewing_time"":6561},{""page_index"":11,""viewing_time"":4613},{""page_index"":12,""viewing_time"":6248},{""page_index"":13,""viewing_time"":6030},{""page_index"":14,""viewing_time"":6646},{""page_index"":15,""viewing_time"":7355},{""page_index"":16,""viewing_time"":6972},{""page_index"":17,""viewing_time"":6875}]","114630","","","","","","","","","","","","","","","","","","","","","","","",""
"pit-trial","20","323261","0.0-2.0-8.0-0.0","battery-v0.2","","""event"",""trial"",""time""
""fullscreenenter"",""1"",""1150""
","
","
","""event"",""trial"",""time""
""fullscreenenter"",""1"",""1150""
","
","","","468","","","11","8857","4191","&#9776;","elianto","#3366ff99"," "," ","1","+10","[1319]","1","0","1","","","","","","","",""
"pit-trial","21","326537","0.0-2.0-8.0-1.0","battery-v0.2","","""event"",""trial"",""time""
""fullscreenenter"",""1"",""1150""
","
","
","""event"",""trial"",""time""
""fullscreenenter"",""1"",""1150""
","
","","","420","","","11","8857","4191","&#9776;","elianto","#3366ff99"," "," ","1","+10","[1270]","1","0","1","","","","","","","",""
"pit-trial","22","329869","0.0-2.0-8.0-2.0","battery-v0.2","","""event"",""trial"",""time""
""fullscreenenter"",""1"",""1150""
","
","
","""event"",""trial"",""time""
""fullscreenenter"",""1"",""1150""
","
","","","477","","","11","8857","4191","&#9776;","elianto","#3366ff99"," "," ","1","+10","[1328]","1","0","1","","","","","","","",""
"pit-trial","23","333173","0.0-2.0-8.0-3.0","battery-v0.2","","""event"",""trial"",""time""
""fullscreenenter"",""1"",""1150""
","
","
","""event"",""trial"",""time""
""fullscreenenter"",""1"",""1150""
","
","","","448","","","11","8857","4191","&#9776;","elianto","#3366ff99"," "," ","1","0","[1298]","1","0","1","","","","","","","",""
"pit-trial","24","336503","0.0-2.0-8.0-4.0","battery-v0.2","","""event"",""trial"",""time""
""fullscreenenter"",""1"",""1150""
","
","
","""event"",""trial"",""time""
""fullscreenenter"",""1"",""1150""
","
","","","474","","","11","8857","4191","&#9776;","elianto","#3366ff99"," "," ","1","+10","[1325]","1","0","1","","","","","","","",""
"pit-trial","25","339956","0.0-2.0-8.1-0.1","battery-v0.2","","""event"",""trial"",""time""
""fullscreenenter"",""1"",""1150""
","
","
","""event"",""trial"",""time""
""fullscreenenter"",""1"",""1150""
","
","","","595","","","11","8857","4191","&#9776;","elianto","#3366ff99"," "," ","1","+10","[1446]","1","0","1","","","","","","","",""
"pit-trial","26","343276","0.0-2.0-8.1-1.1","battery-v0.2","","""event"",""trial"",""time""
""fullscreenenter"",""1"",""1150""
","
","
","""event"",""trial"",""time""
""fullscreenenter"",""1"",""1150""
","
","","","464.9999999999418","","","11","8857","4191","&#9776;","elianto","#3366ff99"," "," ","1","+10","[1315.9999999999418]","1","0","1","","","","","","","",""
"pit-trial","27","346767","0.0-2.0-8.1-2.1","battery-v0.2","","""event"",""trial"",""time""
""fullscreenenter"",""1"",""1150""
","
","
","""event"",""trial"",""time""
""fullscreenenter"",""1"",""1150""
","
","","","635","","","11","8857","4191","&#9776;","elianto","#3366ff99"," "," ","1","+10","[1486]","1","0","1","","","","","","","",""
"pit-trial","28","350137","0.0-2.0-8.1-3.1","battery-v0.2","","""event"",""trial"",""time""
""fullscreenenter"",""1"",""1150""
","
","
","""event"",""trial"",""time""
""fullscreenenter"",""1"",""1150""
","
","","","515","","","11","8857","4191","&#9776;","elianto","#3366ff99"," "," ","1","0","[1365]","1","0","1","","","","","","","",""
"pit-trial","29","353429","0.0-2.0-8.1-4.1","battery-v0.2","","""event"",""trial"",""time""
""fullscreenenter"",""1"",""1150""
","
","
","""event"",""trial"",""time""
""fullscreenenter"",""1"",""1150""
","
","","","436","","","11","8857","4191","&#9776;","elianto","#3366ff99"," "," ","1","+10","[1287]","1","0","1","","","","","","","",""
"pit-trial","30","356862","0.0-2.0-8.2-0.2","battery-v0.2","","""event"",""trial"",""time""
""fullscreenenter"",""1"",""1150""
","
","
","""event"",""trial"",""time""
""fullscreenenter"",""1"",""1150""
","
","","","577","","","11","8857","4191","&#9776;","elianto","#3366ff99"," "," ","1","+10","[1427]","1","0","1","","","","","","","",""
"pit-trial","31","360115","0.0-2.0-8.2-1.2","battery-v0.2","","""event"",""trial"",""time""
""fullscreenenter"",""1"",""1150""
","
","
","""event"",""trial"",""time""
""fullscreenenter"",""1"",""1150""
","
","","","398.0000000000582","","","11","8857","4191","&#9776;","elianto","#3366ff99"," "," ","1","+10","[1248.0000000000582]","1","0","1","","","","","","","",""
"pit-trial","32","363390","0.0-2.0-8.2-2.2","battery-v0.2","","""event"",""trial"",""time""
""fullscreenenter"",""1"",""1150""
","
","
","""event"",""trial"",""time""
""fullscreenenter"",""1"",""1150""
","
","","","420","","","11","8857","4191","&#9776;","elianto","#3366ff99"," "," ","1","+10","[1271]","1","0","1","","","","","","","",""
"pit-trial","33","366682","0.0-2.0-8.2-3.2","battery-v0.2","","""event"",""trial"",""time""
""fullscreenenter"",""1"",""1150""
","
","
","""event"",""trial"",""time""
""fullscreenenter"",""1"",""1150""
","
","","","437","","","11","8857","4191","&#9776;","elianto","#3366ff99"," "," ","1","0","[1286.9999999999418]","1","0","1","","","","","","","",""
"pit-trial","34","370041","0.0-2.0-8.2-4.2","battery-v0.2","","""event"",""trial"",""time""
""fullscreenenter"",""1"",""1150""
","
","
","""event"",""trial"",""time""
""fullscreenenter"",""1"",""1150""
","
","","","505","","","11","8857","4191","&#9776;","elianto","#3366ff99"," "," ","1","+10","[1354.9999999999418]","1","0","1","","","","","","","",""
"call-function","35","370045","0.0-2.0-9.0","battery-v0.2","","""event"",""trial"",""time""
""fullscreenenter"",""1"",""1150""
","
","
","""event"",""trial"",""time""
""fullscreenenter"",""1"",""1150""
","
","","","","","","","","","","","","","","","","","","","","","","","","","","",""
"pit-instructions","36","410310","0.0-2.0-10.0","battery-v0.2","","""event"",""trial"",""time""
""fullscreenenter"",""1"",""1150""
","
","
","""event"",""trial"",""time""
""fullscreenenter"",""1"",""1150""
","
","","[{""page_index"":0,""viewing_time"":5848.000000000058},{""page_index"":1,""viewing_time"":6026.999999999942},{""page_index"":2,""viewing_time"":10340},{""page_index"":3,""viewing_time"":10620},{""page_index"":4,""viewing_time"":7429.000000000058}]","40264.00000000006","","","","","","","","","","","","","","","","","","","","","","","",""
"pit-trial","37","415168","0.0-2.0-11.0-0.0","battery-v0.2","","""event"",""trial"",""time""
""fullscreenenter"",""1"",""1150""
","
","
","""event"",""trial"",""time""
""fullscreenenter"",""1"",""1150""
","
","","","-1","","","11","8857","4191","&#9761;","elianto","#3366ff99","-1","-1","1","+10","[]","0","0","2","","","","","","","",""
"pit-trial","38","420024","0.0-2.0-11.0-1.0","battery-v0.2","","""event"",""trial"",""time""
""fullscreenenter"",""1"",""1150""
","
","
","""event"",""trial"",""time""
""fullscreenenter"",""1"",""1150""
","
","","","-1","","","11","8857","4191","&#9761;","elianto","#3366ff99","-1","-1","1","+10","[]","0","0","2","","","","","","","",""
"pit-trial","39","424880","0.0-2.0-11.0-2.0","battery-v0.2","","""event"",""trial"",""time""
""fullscreenenter"",""1"",""1150""
","
","
","""event"",""trial"",""time""
""fullscreenenter"",""1"",""1150""
","
","","","-1","","","11","8857","4191","&#9761;","elianto","#3366ff99","-1","-1","1","+10","[]","0","0","2","","","","","","","",""
"pit-trial","40","429737","0.0-2.0-11.0-3.0","battery-v0.2","","""event"",""trial"",""time""
""fullscreenenter"",""1"",""1150""
","
","
","""event"",""trial"",""time""
""fullscreenenter"",""1"",""1150""
","
","","","-1","","","11","8857","4191","&#9761;","elianto","#3366ff99","-1","-1","1","0","[]","0","0","2","","","","","","","",""
"pit-trial","41","434593","0.0-2.0-11.0-4.0","battery-v0.2","","""event"",""trial"",""time""
""fullscreenenter"",""1"",""1150""
","
","
","""event"",""trial"",""time""
""fullscreenenter"",""1"",""1150""
","
","","","-1","","","11","8857","4191","&#9761;","elianto","#3366ff99","-1","-1","1","+10","[]","0","0","2","","","","","","","",""
"pit-trial","42","439450","0.0-2.0-11.1-0.1","battery-v0.2","","""event"",""trial"",""time""
""fullscreenenter"",""1"",""1150""
","
","
","""event"",""trial"",""time""
""fullscreenenter"",""1"",""1150""
","
","","","-1","","","11","8857","4191","&#9761;","elianto","#3366ff99","-1","-1","1","+10","[]","0","0","2","","","","","","","",""
"pit-trial","43","444306","0.0-2.0-11.1-1.1","battery-v0.2","","""event"",""trial"",""time""
""fullscreenenter"",""1"",""1150""
","
","
","""event"",""trial"",""time""
""fullscreenenter"",""1"",""1150""
","
","","","-1","","","11","8857","4191","&#9761;","elianto","#3366ff99","-1","-1","1","+10","[]","0","0","2","","","","","","","",""
"pit-trial","44","449161","0.0-2.0-11.1-2.1","battery-v0.2","","""event"",""trial"",""time""
""fullscreenenter"",""1"",""1150""
","
","
","""event"",""trial"",""time""
""fullscreenenter"",""1"",""1150""
","
","","","-1","","","11","8857","4191","&#9761;","elianto","#3366ff99","-1","-1","1","+10","[]","0","0","2","","","","","","","",""
"pit-trial","45","454018","0.0-2.0-11.1-3.1","battery-v0.2","","""event"",""trial"",""time""
""fullscreenenter"",""1"",""1150""
","
","
","""event"",""trial"",""time""
""fullscreenenter"",""1"",""1150""
","
","","","-1","","","11","8857","4191","&#9761;","elianto","#3366ff99","-1","-1","1","0","[]","0","0","2","","","","","","","",""
"pit-trial","46","458874","0.0-2.0-11.1-4.1","battery-v0.2","","""event"",""trial"",""time""
""fullscreenenter"",""1"",""1150""
","
","
","""event"",""trial"",""time""
""fullscreenenter"",""1"",""1150""
","
","","","-1","","","11","8857","4191","&#9761;","elianto","#3366ff99","-1","-1","1","+10","[]","0","0","2","","","","","","","",""
"pit-trial","47","463730","0.0-2.0-11.2-0.2","battery-v0.2","","""event"",""trial"",""time""
""fullscreenenter"",""1"",""1150""
","
","
","""event"",""trial"",""time""
""fullscreenenter"",""1"",""1150""
","
","","","-1","","","11","8857","4191","&#9761;","elianto","#3366ff99","-1","-1","1","+10","[]","0","0","2","","","","","","","",""
"pit-trial","48","468586","0.0-2.0-11.2-1.2","battery-v0.2","","""event"",""trial"",""time""
""fullscreenenter"",""1"",""1150""
","
","
","""event"",""trial"",""time""
""fullscreenenter"",""1"",""1150""
","
","","","-1","","","11","8857","4191","&#9761;","elianto","#3366ff99","-1","-1","1","+10","[]","0","0","2","","","","","","","",""
"pit-trial","49","473442","0.0-2.0-11.2-2.2","battery-v0.2","","""event"",""trial"",""time""
""fullscreenenter"",""1"",""1150""
","
","
","""event"",""trial"",""time""
""fullscreenenter"",""1"",""1150""
","
","","","-1","","","11","8857","4191","&#9761;","elianto","#3366ff99","-1","-1","1","+10","[]","0","0","2","","","","","","","",""
"pit-trial","50","478299","0.0-2.0-11.2-3.2","battery-v0.2","","""event"",""trial"",""time""
""fullscreenenter"",""1"",""1150""
","
","
","""event"",""trial"",""time""
""fullscreenenter"",""1"",""1150""
","
","","","-1","","","11","8857","4191","&#9761;","elianto","#3366ff99","-1","-1","1","0","[]","0","0","2","","","","","","","",""
"pit-trial","51","483155","0.0-2.0-11.2-4.2","battery-v0.2","","""event"",""trial"",""time""
""fullscreenenter"",""1"",""1150""
","
","
","""event"",""trial"",""time""
""fullscreenenter"",""1"",""1150""
","
","","","-1","","","11","8857","4191","&#9761;","elianto","#3366ff99","-1","-1","1","+10","[]","0","0","2","","","","","","","",""
"pit-trial","52","488011","0.0-2.0-11.3-0.3","battery-v0.2","","""event"",""trial"",""time""
""fullscreenenter"",""1"",""1150""
","
","
","""event"",""trial"",""time""
""fullscreenenter"",""1"",""1150""
","
","","","-1","","","11","8857","4191","&#9761;","elianto","#3366ff99","-1","-1","1","+10","[]","0","0","2","","","","","","","",""
"pit-trial","53","492867","0.0-2.0-11.3-1.3","battery-v0.2","","""event"",""trial"",""time""
""fullscreenenter"",""1"",""1150""
","
","
","""event"",""trial"",""time""
""fullscreenenter"",""1"",""1150""
","
","","","-1","","","11","8857","4191","&#9761;","elianto","#3366ff99","-1","-1","1","+10","[]","0","0","2","","","","","","","",""
"pit-trial","54","497723","0.0-2.0-11.3-2.3","battery-v0.2","","""event"",""trial"",""time""
""fullscreenenter"",""1"",""1150""
","
","
","""event"",""trial"",""time""
""fullscreenenter"",""1"",""1150""
","
","","","-1","","","11","8857","4191","&#9761;","elianto","#3366ff99","-1","-1","1","+10","[]","0","0","2","","","","","","","",""
"pit-trial","55","502580","0.0-2.0-11.3-3.3","battery-v0.2","","""event"",""trial"",""time""
""fullscreenenter"",""1"",""1150""
","
","
","""event"",""trial"",""time""
""fullscreenenter"",""1"",""1150""
","
","","","-1","","","11","8857","4191","&#9761;","elianto","#3366ff99","-1","-1","1","0","[]","0","0","2","","","","","","","",""
"pit-trial","56","507436","0.0-2.0-11.3-4.3","battery-v0.2","","""event"",""trial"",""time""
""fullscreenenter"",""1"",""1150""
","
","
","""event"",""trial"",""time""
""fullscreenenter"",""1"",""1150""
","
","","","-1","","","11","8857","4191","&#9761;","elianto","#3366ff99","-1","-1","1","+10","[]","0","0","2","","","","","","","",""
"call-function","57","507438","0.0-2.0-12.0","battery-v0.2","","""event"",""trial"",""time""
""fullscreenenter"",""1"",""1150""
","
","
","""event"",""trial"",""time""
""fullscreenenter"",""1"",""1150""
","
","","","","","","","","","","","","","","","","","","","","","","","","","","",""
"pit-instructions","58","539951","0.0-2.0-13.0","battery-v0.2","","""event"",""trial"",""time""
""fullscreenenter"",""1"",""1150""
","
","
","""event"",""trial"",""time""
""fullscreenenter"",""1"",""1150""
","
","","[{""page_index"":0,""viewing_time"":4680.999999999942},{""page_index"":1,""viewing_time"":8554.000000000116},{""page_index"":2,""viewing_time"":3407.999999999942},{""page_index"":3,""viewing_time"":10392},{""page_index"":4,""viewing_time"":5476}]","32512","","","","","","","","","","","","","","","","","","","","","","","",""
"pit-trial","59","543309","0.0-2.0-14.0-0.0","battery-v0.2","","""event"",""trial"",""time""
""fullscreenenter"",""1"",""1150""
","
","
","""event"",""trial"",""time""
""fullscreenenter"",""1"",""1150""
","
","","","497","","","11","8857","4191","&#9826;","elianto","#f73b6a7A","-1"," ","0","-10","[1348]","1","0","3","","","","","","","",""
"pit-trial","60","548165","0.0-2.0-14.0-1.0","battery-v0.2","","""event"",""trial"",""time""
""fullscreenenter"",""1"",""1150""
","
","
","""event"",""trial"",""time""
""fullscreenenter"",""1"",""1150""
","
","","","-1","","","11","8857","4191","&#9826;","elianto","#f73b6a7A","-1","-1","1","0","[]","0","0","3","","","","","","","",""
"pit-trial","61","553021","0.0-2.0-14.0-2.0","battery-v0.2","","""event"",""trial"",""time""
""fullscreenenter"",""1"",""1150""
","
","
","""event"",""trial"",""time""
""fullscreenenter"",""1"",""1150""
","
","","","-1","","","11","8857","4191","&#9826;","elianto","#f73b6a7A","-1","-1","1","0","[]","0","0","3","","","","","","","",""
"pit-trial","62","557877","0.0-2.0-14.0-3.0","battery-v0.2","","""event"",""trial"",""time""
""fullscreenenter"",""1"",""1150""
","
","
","""event"",""trial"",""time""
""fullscreenenter"",""1"",""1150""
","
","","","-1","","","11","8857","4191","&#9826;","elianto","#f73b6a7A","-1","-1","1","-10","[]","0","0","3","","","","","","","",""
"pit-trial","63","562734","0.0-2.0-14.0-4.0","battery-v0.2","","""event"",""trial"",""time""
""fullscreenenter"",""1"",""1150""
","
","
","""event"",""trial"",""time""
""fullscreenenter"",""1"",""1150""
","
","","","-1","","","11","8857","4191","&#9826;","elianto","#f73b6a7A","-1","-1","1","0","[]","0","0","3","","","","","","","",""
"pit-trial","64","567591","0.0-2.0-14.1-0.1","battery-v0.2","","""event"",""trial"",""time""
""fullscreenenter"",""1"",""1150""
","
","
","""event"",""trial"",""time""
""fullscreenenter"",""1"",""1150""
","
","","","-1","","","11","8857","4191","&#9826;","elianto","#f73b6a7A","-1","-1","1","0","[]","0","0","3","","","","","","","",""
"pit-trial","65","572447","0.0-2.0-14.1-1.1","battery-v0.2","","""event"",""trial"",""time""
""fullscreenenter"",""1"",""1150""
","
","
","""event"",""trial"",""time""
""fullscreenenter"",""1"",""1150""
","
","","","-1","","","11","8857","4191","&#9826;","elianto","#f73b6a7A","-1","-1","1","0","[]","0","0","3","","","","","","","",""
"pit-trial","66","577303","0.0-2.0-14.1-2.1","battery-v0.2","","""event"",""trial"",""time""
""fullscreenenter"",""1"",""1150""
","
","
","""event"",""trial"",""time""
""fullscreenenter"",""1"",""1150""
","
","","","-1","","","11","8857","4191","&#9826;","elianto","#f73b6a7A","-1","-1","1","0","[]","0","0","3","","","","","","","",""
"pit-trial","67","582159","0.0-2.0-14.1-3.1","battery-v0.2","","""event"",""trial"",""time""
""fullscreenenter"",""1"",""1150""
","
","
","""event"",""trial"",""time""
""fullscreenenter"",""1"",""1150""
","
","","","-1","","","11","8857","4191","&#9826;","elianto","#f73b6a7A","-1","-1","1","-10","[]","0","0","3","","","","","","","",""
"pit-trial","68","587016","0.0-2.0-14.1-4.1","battery-v0.2","","""event"",""trial"",""time""
""fullscreenenter"",""1"",""1150""
","
","
","""event"",""trial"",""time""
""fullscreenenter"",""1"",""1150""
","
","","","-1","","","11","8857","4191","&#9826;","elianto","#f73b6a7A","-1","-1","1","0","[]","0","0","3","","","","","","","",""
"pit-trial","69","591871","0.0-2.0-14.2-0.2","battery-v0.2","","""event"",""trial"",""time""
""fullscreenenter"",""1"",""1150""
","
","
","""event"",""trial"",""time""
""fullscreenenter"",""1"",""1150""
","
","","","-1","","","11","8857","4191","&#9826;","elianto","#f73b6a7A","-1","-1","1","0","[]","0","0","3","","","","","","","",""
"pit-trial","70","596729","0.0-2.0-14.2-1.2","battery-v0.2","","""event"",""trial"",""time""
""fullscreenenter"",""1"",""1150""
","
","
","""event"",""trial"",""time""
""fullscreenenter"",""1"",""1150""
","
","","","-1","","","11","8857","4191","&#9826;","elianto","#f73b6a7A","-1","-1","1","0","[]","0","0","3","","","","","","","",""
"pit-trial","71","601585","0.0-2.0-14.2-2.2","battery-v0.2","","""event"",""trial"",""time""
""fullscreenenter"",""1"",""1150""
","
","
","""event"",""trial"",""time""
""fullscreenenter"",""1"",""1150""
","
","","","-1","","","11","8857","4191","&#9826;","elianto","#f73b6a7A","-1","-1","1","0","[]","0","0","3","","","","","","","",""
"pit-trial","72","606441","0.0-2.0-14.2-3.2","battery-v0.2","","""event"",""trial"",""time""
""fullscreenenter"",""1"",""1150""
","
","
","""event"",""trial"",""time""
""fullscreenenter"",""1"",""1150""
","
","","","-1","","","11","8857","4191","&#9826;","elianto","#f73b6a7A","-1","-1","1","-10","[]","0","0","3","","","","","","","",""
"pit-trial","73","611296","0.0-2.0-14.2-4.2","battery-v0.2","","""event"",""trial"",""time""
""fullscreenenter"",""1"",""1150""
","
","
","""event"",""trial"",""time""
""fullscreenenter"",""1"",""1150""
","
","","","-1","","","11","8857","4191","&#9826;","elianto","#f73b6a7A","-1","-1","1","0","[]","0","0","3","","","","","","","",""
"pit-trial","74","616153","0.0-2.0-14.3-0.3","battery-v0.2","","""event"",""trial"",""time""
""fullscreenenter"",""1"",""1150""
","
","
","""event"",""trial"",""time""
""fullscreenenter"",""1"",""1150""
","
","","","-1","","","11","8857","4191","&#9826;","elianto","#f73b6a7A","-1","-1","1","0","[]","0","0","3","","","","","","","",""
"pit-trial","75","621012","0.0-2.0-14.3-1.3","battery-v0.2","","""event"",""trial"",""time""
""fullscreenenter"",""1"",""1150""
","
","
","""event"",""trial"",""time""
""fullscreenenter"",""1"",""1150""
","
","","","-1","","","11","8857","4191","&#9826;","elianto","#f73b6a7A","-1","-1","1","0","[]","0","0","3","","","","","","","",""
"pit-trial","76","625868","0.0-2.0-14.3-2.3","battery-v0.2","","""event"",""trial"",""time""
""fullscreenenter"",""1"",""1150""
","
","
","""event"",""trial"",""time""
""fullscreenenter"",""1"",""1150""
","
","","","-1","","","11","8857","4191","&#9826;","elianto","#f73b6a7A","-1","-1","1","0","[]","0","0","3","","","","","","","",""
"pit-trial","77","630724","0.0-2.0-14.3-3.3","battery-v0.2","","""event"",""trial"",""time""
""fullscreenenter"",""1"",""1150""
","
","
","""event"",""trial"",""time""
""fullscreenenter"",""1"",""1150""
","
","","","-1","","","11","8857","4191","&#9826;","elianto","#f73b6a7A","-1","-1","1","-10","[]","0","0","3","","","","","","","",""
"pit-trial","78","635580","0.0-2.0-14.3-4.3","battery-v0.2","","""event"",""trial"",""time""
""fullscreenenter"",""1"",""1150""
","
","
","""event"",""trial"",""time""
""fullscreenenter"",""1"",""1150""
","
","","","-1","","","11","8857","4191","&#9826;","elianto","#f73b6a7A","-1","-1","1","0","[]","0","0","3","","","","","","","",""
"call-function","79","635583","0.0-2.0-15.0","battery-v0.2","","""event"",""trial"",""time""
""fullscreenenter"",""1"",""1150""
","
","
","""event"",""trial"",""time""
""fullscreenenter"",""1"",""1150""
","
","","","","","","","","","","","","","","","","","","","","","","","","","","",""
"pit-instructions","80","660869","0.0-2.0-16.0","battery-v0.2","","""event"",""trial"",""time""
""fullscreenenter"",""1"",""1150""
","
","
","""event"",""trial"",""time""
""fullscreenenter"",""1"",""1150""
","
","","[{""page_index"":0,""viewing_time"":7597},{""page_index"":1,""viewing_time"":8582},{""page_index"":2,""viewing_time"":4038},{""page_index"":3,""viewing_time"":5068}]","25285","","","","","","","","","","","","","","","","","","","","","","","",""
"pit-trial","81","664160","0.0-2.0-17.0-0.0","battery-v0.2","","""event"",""trial"",""time""
""fullscreenenter"",""1"",""1150""
","
","
","""event"",""trial"",""time""
""fullscreenenter"",""1"",""1150""
","
","","","435","","","11","8857","4191","&#9789;","elianto","#f73b6a7A"," "," ","1","0","[1285]","1","0","4","","","","","","","",""
"pit-trial","82","667400","0.0-2.0-17.0-1.0","battery-v0.2","","""event"",""trial"",""time""
""fullscreenenter"",""1"",""1150""
","
","
","""event"",""trial"",""time""
""fullscreenenter"",""1"",""1150""
","
","","","384","","","11","8857","4191","&#9789;","elianto","#f73b6a7A"," "," ","1","0","[1234]","1","0","4","","","","","","","",""
"pit-trial","83","670478","0.0-2.0-17.0-2.0","battery-v0.2","","""event"",""trial"",""time""
""fullscreenenter"",""1"",""1150""
","
","
","""event"",""trial"",""time""
""fullscreenenter"",""1"",""1150""
","
","","","222.00000000011642","","","11","8857","4191","&#9789;","elianto","#f73b6a7A"," "," ","1","0","[1073.0000000001164]","1","0","4","","","","","","","",""
"pit-trial","84","673444","0.0-2.0-17.0-3.0","battery-v0.2","","""event"",""trial"",""time""
""fullscreenenter"",""1"",""1150""
","
","
","""event"",""trial"",""time""
""fullscreenenter"",""1"",""1150""
","
","","","109","","","11","8857","4191","&#9789;","elianto","#f73b6a7A"," "," ","1","-10","[960]","1","0","4","","","","","","","",""
"pit-trial","85","676499","0.0-2.0-17.0-4.0","battery-v0.2","","""event"",""trial"",""time""
""fullscreenenter"",""1"",""1150""
","
","
","""event"",""trial"",""time""
""fullscreenenter"",""1"",""1150""
","
","","","201","","","11","8857","4191","&#9789;","elianto","#f73b6a7A"," "," ","1","0","[1050.9999999998836]","1","0","4","","","","","","","",""
"pit-trial","86","679447","0.0-2.0-17.1-0.1","battery-v0.2","","""event"",""trial"",""time""
""fullscreenenter"",""1"",""1150""
","
","
","""event"",""trial"",""time""
""fullscreenenter"",""1"",""1150""
","
","","","92","","","11","8857","4191","&#9789;","elianto","#f73b6a7A"," "," ","1","0","[943]","1","0","4","","","","","","","",""
"pit-trial","87","682422","0.0-2.0-17.1-1.1","battery-v0.2","","""event"",""trial"",""time""
""fullscreenenter"",""1"",""1150""
","
","
","""event"",""trial"",""time""
""fullscreenenter"",""1"",""1150""
","
","","","119","","","11","8857","4191","&#9789;","elianto","#f73b6a7A"," "," ","1","0","[970]","1","0","4","","","","","","","",""
"pit-trial","88","685481","0.0-2.0-17.1-2.1","battery-v0.2","","""event"",""trial"",""time""
""fullscreenenter"",""1"",""1150""
","
","
","""event"",""trial"",""time""
""fullscreenenter"",""1"",""1150""
","
","","","203","","","11","8857","4191","&#9789;","elianto","#f73b6a7A"," "," ","1","0","[1054]","1","0","4","","","","","","","",""
"pit-trial","89","688574","0.0-2.0-17.1-3.1","battery-v0.2","","""event"",""trial"",""time""
""fullscreenenter"",""1"",""1150""
","
","
","""event"",""trial"",""time""
""fullscreenenter"",""1"",""1150""
","
","","","238.00000000011642","","","11","8857","4191","&#9789;","elianto","#f73b6a7A"," "," ","1","-10","[1088.0000000001164]","1","0","4","","","","","","","",""
"pit-trial","90","691779","0.0-2.0-17.1-4.1","battery-v0.2","","""event"",""trial"",""time""
""fullscreenenter"",""1"",""1150""
","
","
","""event"",""trial"",""time""
""fullscreenenter"",""1"",""1150""
","
","","","346","","","11","8857","4191","&#9789;","elianto","#f73b6a7A"," "," ","1","0","[1199.9999999998836]","1","0","4","","","","","","","",""
"pit-trial","91","694852","0.0-2.0-17.2-0.2","battery-v0.2","","""event"",""trial"",""time""
""fullscreenenter"",""1"",""1150""
","
","
","""event"",""trial"",""time""
""fullscreenenter"",""1"",""1150""
","
","","","215","","","11","8857","4191","&#9789;","elianto","#f73b6a7A"," "," ","1","0","[1066,2758]","2","0","4","","","","","","","",""
"pit-trial","92","697897","0.0-2.0-17.2-1.2","battery-v0.2","","""event"",""trial"",""time""
""fullscreenenter"",""1"",""1150""
","
","
","""event"",""trial"",""time""
""fullscreenenter"",""1"",""1150""
","
","","","189","","","11","8857","4191","&#9789;","elianto","#f73b6a7A"," "," ","1","0","[1039,2217]","2","0","4","","","","","","","",""
"pit-trial","93","701430","0.0-2.0-17.2-2.2","battery-v0.2","","""event"",""trial"",""time""
""fullscreenenter"",""1"",""1150""
","
","
","""event"",""trial"",""time""
""fullscreenenter"",""1"",""1150""
","
","","","678","","","11","8857","4191","&#9789;","elianto","#f73b6a7A"," "," ","1","0","[1528.0000000001164]","1","0","4","","","","","","","",""
"pit-trial","94","704760","0.0-2.0-17.2-3.2","battery-v0.2","","""event"",""trial"",""time""
""fullscreenenter"",""1"",""1150""
","
","
","""event"",""trial"",""time""
""fullscreenenter"",""1"",""1150""
","
","","","475","","","11","8857","4191","&#9789;","elianto","#f73b6a7A"," "," ","1","-10","[1325]","1","0","4","","","","","","","",""
"pit-trial","95","707889","0.0-2.0-17.2-4.2","battery-v0.2","","""event"",""trial"",""time""
""fullscreenenter"",""1"",""1150""
","
","
","""event"",""trial"",""time""
""fullscreenenter"",""1"",""1150""
","
","","","274","","","11","8857","4191","&#9789;","elianto","#f73b6a7A"," "," ","1","0","[1124]","1","0","4","","","","","","","",""
"pit-trial","96","711491","0.0-2.0-17.3-0.3","battery-v0.2","","""event"",""trial"",""time""
""fullscreenenter"",""1"",""1150""
","
","
","""event"",""trial"",""time""
""fullscreenenter"",""1"",""1150""
","
","","","746","","","11","8857","4191","&#9789;","elianto","#f73b6a7A"," "," ","1","0","[847,1596]","2","0","4","","","","","","","",""
"pit-trial","97","714936","0.0-2.0-17.3-1.3","battery-v0.2","","""event"",""trial"",""time""
""fullscreenenter"",""1"",""1150""
","
","
","""event"",""trial"",""time""
""fullscreenenter"",""1"",""1150""
","
","","","589","","","11","8857","4191","&#9789;","elianto","#f73b6a7A"," "," ","1","0","[1438.9999999998836]","1","0","4","","","","","","","",""
"pit-trial","98","718376","0.0-2.0-17.3-2.3","battery-v0.2","","""event"",""trial"",""time""
""fullscreenenter"",""1"",""1150""
","
","
","""event"",""trial"",""time""
""fullscreenenter"",""1"",""1150""
","
","","","585.0000000001164","","","11","8857","4191","&#9789;","elianto","#f73b6a7A"," "," ","1","0","[1436.0000000001164]","1","0","4","","","","","","","",""
"pit-trial","99","721780","0.0-2.0-17.3-3.3","battery-v0.2","","""event"",""trial"",""time""
""fullscreenenter"",""1"",""1150""
","
","
","""event"",""trial"",""time""
""fullscreenenter"",""1"",""1150""
","
","","","548","","","11","8857","4191","&#9789;","elianto","#f73b6a7A"," "," ","1","-10","[1397.9999999998836]","1","0","4","","","","","","","",""
"pit-trial","100","725847","0.0-2.0-17.3-4.3","battery-v0.2","","""event"",""trial"",""time""
""fullscreenenter"",""1"",""1150""
","
","
","""event"",""trial"",""time""
""fullscreenenter"",""1"",""1150""
","
","","","1211","","","11","8857","4191","&#9789;","elianto","#f73b6a7A"," "," ","1","0","[2061]","1","0","4","","","","","","","",""
"call-function","101","725850","0.0-2.0-18.0","battery-v0.2","","""event"",""trial"",""time""
""fullscreenenter"",""1"",""1150""
","
","
","""event"",""trial"",""time""
""fullscreenenter"",""1"",""1150""
","
","","","","","","","","","","","","","","","","","","","","","","","","","","",""
"pit-instructions","102","789097","0.0-2.0-19.0","battery-v0.2","","""event"",""trial"",""time""
""fullscreenenter"",""1"",""1150""
","
","
","""event"",""trial"",""time""
""fullscreenenter"",""1"",""1150""
","
","","[{""page_index"":0,""viewing_time"":6431.999999999884},{""page_index"":1,""viewing_time"":5393},{""page_index"":2,""viewing_time"":13510},{""page_index"":3,""viewing_time"":6683},{""page_index"":4,""viewing_time"":8095},{""page_index"":5,""viewing_time"":8884},{""page_index"":6,""viewing_time"":4969.000000000116},{""page_index"":7,""viewing_time"":5824.999999999884},{""page_index"":8,""viewing_time"":3455}]","63246.99999999988","","","","","","","","","","","","","","","","","","","","","","","",""
"pit-comprehension","103","793949","0.0-2.0-20.0-0.0","battery-v0.2","","""event"",""trial"",""time""
""fullscreenenter"",""1"",""1150""
","
","
","""event"",""trial"",""time""
""fullscreenenter"",""1"",""1150""
","
","","","4846","[""SPACE""]","0","11","8857","4191","","","","","","","","","","","","","","","","","","",""
"pit-instructions","104","798778","0.0-2.0-20.0-1.0","battery-v0.2","","""event"",""trial"",""time""
""fullscreenenter"",""1"",""1150""
","
","
","""event"",""trial"",""time""
""fullscreenenter"",""1"",""1150""
","
","","[{""page_index"":0,""viewing_time"":4796}]","4796","","","","","","","","","","","","","","","","","","","","","","","",""
"pit-comprehension","105","806199","0.0-2.0-21.0-0.0","battery-v0.2","","""event"",""trial"",""time""
""fullscreenenter"",""1"",""1150""
","
","
","""event"",""trial"",""time""
""fullscreenenter"",""1"",""1150""
","
","","","7416","[""10""]","0","11","8857","4191","","","","","","","","","","","","","","","","","","",""
"pit-instructions","106","808380","0.0-2.0-21.0-1.0","battery-v0.2","","""event"",""trial"",""time""
""fullscreenenter"",""1"",""1150""
","
","
","""event"",""trial"",""time""
""fullscreenenter"",""1"",""1150""
","
","","[{""page_index"":0,""viewing_time"":2151}]","2152.0000000001164","","","","","","","","","","","","","","","","","","","","","","","",""
"pit-comprehension","107","815048","0.0-2.0-22.0-0.0","battery-v0.2","","""event"",""trial"",""time""
""fullscreenenter"",""1"",""1150""
","
","
","""event"",""trial"",""time""
""fullscreenenter"",""1"",""1150""
","
","","","6662","[""0""]","0","11","8857","4191","","","","","","","","","","","","","","","","","","",""
"pit-instructions","108","816164","0.0-2.0-22.0-1.0","battery-v0.2","","""event"",""trial"",""time""
""fullscreenenter"",""1"",""1150""
","
","
","""event"",""trial"",""time""
""fullscreenenter"",""1"",""1150""
","
","","[{""page_index"":0,""viewing_time"":1086}]","1087","","","","","","","","","","","","","","","","","","","","","","","",""
"pit-comprehension","109","844618","0.0-2.0-23.0-0.0","battery-v0.2","","""event"",""trial"",""time""
""fullscreenenter"",""1"",""1150""
","
","
","""event"",""trial"",""time""
""fullscreenenter"",""1"",""1150""
","
","","","28447","[""True""]","0","11","8857","4191","","","","","","","","","","","","","","","","","","",""
"pit-instructions","110","846776","0.0-2.0-23.0-1.0","battery-v0.2","","""event"",""trial"",""time""
""fullscreenenter"",""1"",""1150""
","
","
","""event"",""trial"",""time""
""fullscreenenter"",""1"",""1150""
","
","","[{""page_index"":0,""viewing_time"":2123}]","2124","","","","","","","","","","","","","","","","","","","","","","","",""
"pit-comprehension","111","854844","0.0-2.0-24.0-0.0","battery-v0.2","","""event"",""trial"",""time""
""fullscreenenter"",""1"",""1150""
","
","
","""event"",""trial"",""time""
""fullscreenenter"",""1"",""1150""
","
","","","8060","[""True""]","0","11","8857","4191","","","","","","","","","","","","","","","","","","",""
"pit-instructions","112","856608","0.0-2.0-24.0-1.0","battery-v0.2","","""event"",""trial"",""time""
""fullscreenenter"",""1"",""1150""
","
","
","""event"",""trial"",""time""
""fullscreenenter"",""1"",""1150""
","
","","[{""page_index"":0,""viewing_time"":1726.9999999998836}]","1727.9999999998836","","","","","","","","","","","","","","","","","","","","","","","",""
"pit-comprehension","113","863086","0.0-2.0-25.0-0.0","battery-v0.2","","""event"",""trial"",""time""
""fullscreenenter"",""1"",""1150""
","
","
","""event"",""trial"",""time""
""fullscreenenter"",""1"",""1150""
","
","","","6473","[""True""]","0","11","8857","4191","","","","","","","","","","","","","","","","","","",""
"pit-instructions","114","864594","0.0-2.0-25.0-1.0","battery-v0.2","","""event"",""trial"",""time""
""fullscreenenter"",""1"",""1150""
","
","
","""event"",""trial"",""time""
""fullscreenenter"",""1"",""1150""
","
","","[{""page_index"":0,""viewing_time"":1472.9999999998836}]","1473.9999999998836","","","","","","","","","","","","","","","","","","","","","","","",""
"pit-comprehension","115","869895","0.0-2.0-26.0-0.0","battery-v0.2","","""event"",""trial"",""time""
""fullscreenenter"",""1"",""1150""
","
","
","""event"",""trial"",""time""
""fullscreenenter"",""1"",""1150""
","
","","","5296","[""False""]","0","11","8857","4191","","","","","","","","","","","","","","","","","","",""
"pit-instructions","116","871916","0.0-2.0-26.0-1.0","battery-v0.2","","""event"",""trial"",""time""
""fullscreenenter"",""1"",""1150""
","
","
","""event"",""trial"",""time""
""fullscreenenter"",""1"",""1150""
","
","","[{""page_index"":0,""viewing_time"":1986}]","1987","","","","","","","","","","","","","","","","","","","","","","","",""
"pit-instructions","117","888022","0.0-3.0","battery-v0.2","","""event"",""trial"",""time""
""fullscreenenter"",""1"",""1150""
","
","
","""event"",""trial"",""time""
""fullscreenenter"",""1"",""1150""
","
","","[{""page_index"":0,""viewing_time"":3394.9999999998836},{""page_index"":1,""viewing_time"":5681},{""page_index"":2,""viewing_time"":7023}]","16099.999999999884","","","","","","","","","","","","","","","","","","","","","","","",""
"pit-trial","118","891623","0.0-4.0","battery-v0.2","","""event"",""trial"",""time""
""fullscreenenter"",""1"",""1150""
","
","
","""event"",""trial"",""time""
""fullscreenenter"",""1"",""1150""
","
","","","740","","","11","8857","4191","&#9752;","elianto","#f73b6a7A"," "," ","1","-10","[1591]","1","1","","","8857","1","3","3","lose","go","1"
"pit-trial","119","895486","0.0-5.0","battery-v0.2","","""event"",""trial"",""time""
""fullscreenenter"",""1"",""1150""
","
","
","""event"",""trial"",""time""
""fullscreenenter"",""1"",""1150""
","
","","","1007","","","11","8857","4191","&#9733;","elianto","#3366ff99","-1"," ","0","0","[1857]","1","1","","","8857","2","2","2","win","no-go","0"
"pit-trial","120","899512","0.0-6.0","battery-v0.2","","""event"",""trial"",""time""
""fullscreenenter"",""1"",""1150""
","
","
","""event"",""trial"",""time""
""fullscreenenter"",""1"",""1150""
","
","","","1164.9999999998836","","","11","8857","4191","&#9728;","elianto","#f73b6a7A","-1"," ","0","-10","[2018]","1","1","","","8857","3","0","4","lose","no-go","0"
"pit-trial","121","903291","0.0-7.0","battery-v0.2","","""event"",""trial"",""time""
""fullscreenenter"",""1"",""1150""
","
","
","""event"",""trial"",""time""
""fullscreenenter"",""1"",""1150""
","
","","","922","","","11","8857","4191","&#9730;","elianto","#3366ff99"," "," ","1","+10","[1773]","1","1","","","8857","4","1","1","win","go","0"
"pit-trial","122","908147","0.0-8.0","battery-v0.2","","""event"",""trial"",""time""
""fullscreenenter"",""1"",""1150""
","
","
","""event"",""trial"",""time""
""fullscreenenter"",""1"",""1150""
","
","","","-1","","","11","8857","4191","&#9733;","elianto","#3366ff99","-1","-1","1","+10","[]","0","1","","","8857","5","2","2","win","no-go","0"
"pit-trial","123","913005","0.0-9.0","battery-v0.2","","""event"",""trial"",""time""
""fullscreenenter"",""1"",""1150""
","
","
","""event"",""trial"",""time""
""fullscreenenter"",""1"",""1150""
","
","","","-1","","","11","8857","4191","&#9752;","elianto","#f73b6a7A"," ","-1","0","-10","[3766.0000000001164]","1","1","","","8857","6","3","3","lose","go","0"
"pit-trial","124","916542","0.0-10.0","battery-v0.2","","""event"",""trial"",""time""
""fullscreenenter"",""1"",""1150""
","
","
","""event"",""trial"",""time""
""fullscreenenter"",""1"",""1150""
","
","","","680","","","11","8857","4191","&#9730;","elianto","#3366ff99"," "," ","1","+10","[1530]","1","1","","","8857","7","1","1","win","go","0"
"pit-trial","125","921400","0.0-11.0","battery-v0.2","","""event"",""trial"",""time""
""fullscreenenter"",""1"",""1150""
","
","
","""event"",""trial"",""time""
""fullscreenenter"",""1"",""1150""
","
","","","-1","","","11","8857","4191","&#9728;","elianto","#f73b6a7A","-1","-1","1","0","[]","0","1","","","8857","8","0","4","lose","no-go","0"
"pit-trial","126","924922","0.0-12.0","battery-v0.2","","""event"",""trial"",""time""
""fullscreenenter"",""1"",""1150""
","
","
","""event"",""trial"",""time""
""fullscreenenter"",""1"",""1150""
","
","","","664","","","11","8857","4191","&#9752;","elianto","#f73b6a7A"," "," ","1","0","[1515]","1","1","","","8857","9","3","3","lose","go","0"
"pit-trial","127","929779","0.0-13.0","battery-v0.2","","""event"",""trial"",""time""
""fullscreenenter"",""1"",""1150""
","
","
","""event"",""trial"",""time""
""fullscreenenter"",""1"",""1150""
","
","","","-1","","","11","8857","4191","&#9728;","elianto","#f73b6a7A","-1","-1","1","-10","[3491.0000000001164]","1","1","","","8857","10","0","4","lose","no-go","1"
"pit-trial","128","933247","0.0-14.0","battery-v0.2","","""event"",""trial"",""time""
""fullscreenenter"",""1"",""1150""
","
","
","""event"",""trial"",""time""
""fullscreenenter"",""1"",""1150""
","
","","","610.0000000001164","","","11","8857","4191","&#9730;","elianto","#3366ff99"," "," ","1","+10","[1461.0000000001164]","1","1","","","8857","11","1","1","win","go","0"
"pit-trial","129","938104","0.0-15.0","battery-v0.2","","""event"",""trial"",""time""
""fullscreenenter"",""1"",""1150""
","
","
","""event"",""trial"",""time""
""fullscreenenter"",""1"",""1150""
","
","","","-1","","","11","8857","4191","&#9733;","elianto","#3366ff99","-1","-1","1","+10","[]","0","1","","","8857","12","2","2","win","no-go","0"
"pit-trial","130","942962","0.0-16.0","battery-v0.2","","""event"",""trial"",""time""
""fullscreenenter"",""1"",""1150""
","
","
","""event"",""trial"",""time""
""fullscreenenter"",""1"",""1150""
","
","","","-1","","","11","8857","4191","&#9728;","elianto","#f73b6a7A","-1","-1","1","-10","[]","0","1","","","8857","13","0","4","lose","no-go","1"
"pit-trial","131","946679","0.0-17.0","battery-v0.2","","""event"",""trial"",""time""
""fullscreenenter"",""1"",""1150""
","
","
","""event"",""trial"",""time""
""fullscreenenter"",""1"",""1150""
","
","","","859.0000000001164","","","11","8857","4191","&#9752;","elianto","#f73b6a7A"," "," ","1","0","[1710.0000000001164]","1","1","","","8857","14","3","3","lose","go","0"
"pit-trial","132","950168","0.0-18.0","battery-v0.2","","""event"",""trial"",""time""
""fullscreenenter"",""1"",""1150""
","
","
","""event"",""trial"",""time""
""fullscreenenter"",""1"",""1150""
","
","","","631","","","11","8857","4191","&#9730;","elianto","#3366ff99"," "," ","1","+10","[1482]","1","1","","","8857","15","1","1","win","go","0"
"pit-trial","133","955026","0.0-19.0","battery-v0.2","","""event"",""trial"",""time""
""fullscreenenter"",""1"",""1150""
","
","
","""event"",""trial"",""time""
""fullscreenenter"",""1"",""1150""
","
","","","-1","","","11","8857","4191","&#9733;","elianto","#3366ff99","-1","-1","1","+10","[]","0","1","","","8857","16","2","2","win","no-go","0"
"pit-trial","134","958719","0.0-20.0","battery-v0.2","","""event"",""trial"",""time""
""fullscreenenter"",""1"",""1150""
","
","
","""event"",""trial"",""time""
""fullscreenenter"",""1"",""1150""
","
","","","837","","","11","8857","4191","&#9730;","elianto","#3366ff99"," "," ","1","+10","[1688]","1","1","","","8857","17","1","1","win","go","0"
"pit-trial","135","963576","0.0-21.0","battery-v0.2","","""event"",""trial"",""time""
""fullscreenenter"",""1"",""1150""
","
","
","""event"",""trial"",""time""
""fullscreenenter"",""1"",""1150""
","
","","","-1","","","11","8857","4191","&#9728;","elianto","#f73b6a7A","-1","-1","1","-10","[]","0","1","","","8857","18","0","4","lose","no-go","1"
"pit-trial","136","968433","0.0-22.0","battery-v0.2","","""event"",""trial"",""time""
""fullscreenenter"",""1"",""1150""
","
","
","""event"",""trial"",""time""
""fullscreenenter"",""1"",""1150""
","
","","","-1","","","11","8857","4191","&#9733;","elianto","#3366ff99","-1","-1","1","+10","[]","0","1","","","8857","19","2","2","win","no-go","0"
"pit-trial","137","971992","0.0-23.0","battery-v0.2","","""event"",""trial"",""time""
""fullscreenenter"",""1"",""1150""
","
","
","""event"",""trial"",""time""
""fullscreenenter"",""1"",""1150""
","
","","","702","","","11","8857","4191","&#9752;","elianto","#f73b6a7A"," "," ","1","0","[1553]","1","1","","","8857","20","3","3","lose","go","0"
"pit-instructions","138","984101","0.0-24.0","battery-v0.2","","""event"",""trial"",""time""
""fullscreenenter"",""1"",""1150""
","
","
","""event"",""trial"",""time""
""fullscreenenter"",""1"",""1150""
","
","","[{""page_index"":0,""viewing_time"":5960},{""page_index"":1,""viewing_time"":6144.000000000116}]","12105","","","","","","","","","","","","","","","","","","","","","","","",""
"pit-trial","139","987927","0.0-25.0","battery-v0.2","","""event"",""trial"",""time""
""fullscreenenter"",""1"",""1150""
","
","
","""event"",""trial"",""time""
""fullscreenenter"",""1"",""1150""
","
","","","966","","","11","8857","4191","u","elianto","#f73b6a7A"," "," ","1","0","[1815.9999999998836]","1","2","","","8857","21","0","3","lose","go","0"
"pit-trial","140","991921","0.0-26.0","battery-v0.2","","""event"",""trial"",""time""
""fullscreenenter"",""1"",""1150""
","
","
","""event"",""trial"",""time""
""fullscreenenter"",""1"",""1150""
","
","","","1137","","","11","8857","4191","a","elianto","#f73b6a7A"," "," ","1","0","[1987]","1","2","","","8857","22","2","3","lose","go","0"
"pit-trial","141","995898","0.0-27.0","battery-v0.2","","""event"",""trial"",""time""
""fullscreenenter"",""1"",""1150""
","
","
","""event"",""trial"",""time""
""fullscreenenter"",""1"",""1150""
","
","","","1121","","","11","8857","4191","l","elianto","#3366ff99","-1"," ","0","0","[1971]","1","2","","","8857","23","1","2","win","no-go","0"
"pit-trial","142","1000127","0.0-28.0","battery-v0.2","","""event"",""trial"",""time""
""fullscreenenter"",""1"",""1150""
","
","
","""event"",""trial"",""time""
""fullscreenenter"",""1"",""1150""
","
","","","1372","","","11","8857","4191","g","elianto","#f73b6a7A","-1"," ","0","0","[2223]","1","2","","","8857","24","3","4","lose","no-go","1"
"pit-trial","143","1003866","0.0-29.0","battery-v0.2","","""event"",""trial"",""time""
""fullscreenenter"",""1"",""1150""
","
","
","""event"",""trial"",""time""
""fullscreenenter"",""1"",""1150""
","
","","","882.0000000001164","","","11","8857","4191","l","elianto","#3366ff99","-1"," ","0","0","[1733.0000000001164]","1","2","","","8857","25","1","2","win","no-go","0"
"pit-trial","144","1007469","0.0-30.0","battery-v0.2","","""event"",""trial"",""time""
""fullscreenenter"",""1"",""1150""
","
","
","""event"",""trial"",""time""
""fullscreenenter"",""1"",""1150""
","
","","","745","","","11","8857","4191","u","elianto","#f73b6a7A"," "," ","1","0","[1596]","1","2","","","8857","26","0","3","lose","go","0"
"pit-trial","145","1010920","0.0-31.0","battery-v0.2","","""event"",""trial"",""time""
""fullscreenenter"",""1"",""1150""
","
","
","""event"",""trial"",""time""
""fullscreenenter"",""1"",""1150""
","
","","","594","","","11","8857","4191","a","elianto","#f73b6a7A"," "," ","1","0","[1445]","1","2","","","8857","27","2","3","lose","go","0"
"pit-trial","146","1014360","0.0-32.0","battery-v0.2","","""event"",""trial"",""time""
""fullscreenenter"",""1"",""1150""
","
","
","""event"",""trial"",""time""
""fullscreenenter"",""1"",""1150""
","
","","","583","","","11","8857","4191","g","elianto","#f73b6a7A","-1"," ","0","-10","[1435]","1","2","","","8857","28","3","4","lose","no-go","0"
"pit-trial","147","1019217","0.0-33.0","battery-v0.2","","""event"",""trial"",""time""
""fullscreenenter"",""1"",""1150""
","
","
","""event"",""trial"",""time""
""fullscreenenter"",""1"",""1150""
","
","","","-1","","","11","8857","4191","l","elianto","#3366ff99","-1","-1","1","+10","[]","0","2","","","8857","29","1","2","win","no-go","0"
"pit-trial","148","1022761","0.0-34.0","battery-v0.2","","""event"",""trial"",""time""
""fullscreenenter"",""1"",""1150""
","
","
","""event"",""trial"",""time""
""fullscreenenter"",""1"",""1150""
","
","","","686.9999999998836","","","11","8857","4191","a","elianto","#f73b6a7A"," "," ","1","-10","[1537]","1","2","","","8857","30","2","3","lose","go","1"
"pit-trial","149","1026642","0.0-35.0","battery-v0.2","","""event"",""trial"",""time""
""fullscreenenter"",""1"",""1150""
","
","
","""event"",""trial"",""time""
""fullscreenenter"",""1"",""1150""
","
","","","1024.9999999998836","","","11","8857","4191","g","elianto","#f73b6a7A","-1"," ","0","-10","[1875]","1","2","","","8857","31","3","4","lose","no-go","0"
"pit-trial","150","1030661","0.0-36.0","battery-v0.2","","""event"",""trial"",""time""
""fullscreenenter"",""1"",""1150""
","
","
","""event"",""trial"",""time""
""fullscreenenter"",""1"",""1150""
","
","","","1161.9999999997672","","","11","8857","4191","u","elianto","#f73b6a7A"," "," ","1","0","[2012.9999999998836]","1","2","","","8857","32","0","3","lose","go","0"
"pit-trial","151","1034246","0.0-37.0","battery-v0.2","","""event"",""trial"",""time""
""fullscreenenter"",""1"",""1150""
","
","
","""event"",""trial"",""time""
""fullscreenenter"",""1"",""1150""
","
","","","727.9999999998836","","","11","8857","4191","a","elianto","#f73b6a7A"," "," ","1","0","[1579]","1","2","","","8857","33","2","3","lose","go","0"
"pit-trial","152","1039103","0.0-38.0","battery-v0.2","","""event"",""trial"",""time""
""fullscreenenter"",""1"",""1150""
","
","
","""event"",""trial"",""time""
""fullscreenenter"",""1"",""1150""
","
","","","-1","","","11","8857","4191","g","elianto","#f73b6a7A","-1","-1","1","0","[]","0","2","","","8857","34","3","4","lose","no-go","0"
"pit-trial","153","1043960","0.0-39.0","battery-v0.2","","""event"",""trial"",""time""
""fullscreenenter"",""1"",""1150""
","
","
","""event"",""trial"",""time""
""fullscreenenter"",""1"",""1150""
","
","","","-1","","","11","8857","4191","l","elianto","#3366ff99","-1","-1","1","+10","[]","0","2","","","8857","35","1","2","win","no-go","0"
"pit-trial","154","1047465","0.0-40.0","battery-v0.2","","""event"",""trial"",""time""
""fullscreenenter"",""1"",""1150""
","
","
","""event"",""trial"",""time""
""fullscreenenter"",""1"",""1150""
","
","","","647.9999999998836","","","11","8857","4191","u","elianto","#f73b6a7A"," "," ","1","0","[1498]","1","2","","","8857","36","0","3","lose","go","0"
"pit-trial","155","1051355","0.0-41.0","battery-v0.2","","""event"",""trial"",""time""
""fullscreenenter"",""1"",""1150""
","
","
","""event"",""trial"",""time""
""fullscreenenter"",""1"",""1150""
","
","","","1033","","","11","8857","4191","a","elianto","#f73b6a7A"," "," ","1","0","[1884]","1","2","","","8857","37","2","3","lose","go","0"
"pit-trial","156","1056212","0.0-42.0","battery-v0.2","","""event"",""trial"",""time""
""fullscreenenter"",""1"",""1150""
","
","
","""event"",""trial"",""time""
""fullscreenenter"",""1"",""1150""
","
","","","-1","","","11","8857","4191","l","elianto","#3366ff99","-1","-1","1","0","[]","0","2","","","8857","38","1","2","win","no-go","1"
"pit-trial","157","1059919","0.0-43.0","battery-v0.2","","""event"",""trial"",""time""
""fullscreenenter"",""1"",""1150""
","
","
","""event"",""trial"",""time""
""fullscreenenter"",""1"",""1150""
","
","","","850","","","11","8857","4191","u","elianto","#f73b6a7A"," "," ","1","0","[1701]","1","2","","","8857","39","0","3","lose","go","0"
"pit-trial","158","1064777","0.0-44.0","battery-v0.2","","""event"",""trial"",""time""
""fullscreenenter"",""1"",""1150""
","
","
","""event"",""trial"",""time""
""fullscreenenter"",""1"",""1150""
","
","","","-1","","","11","8857","4191","g","elianto","#f73b6a7A","-1","-1","1","0","[]","0","2","","","8857","40","3","4","lose","no-go","0"
"pit-trial","159","1069634","0.0-45.0","battery-v0.2","","""event"",""trial"",""time""
""fullscreenenter"",""1"",""1150""
","
","
","""event"",""trial"",""time""
""fullscreenenter"",""1"",""1150""
","
","","","-1","","","11","8857","4191","l","elianto","#3366ff99","-1","-1","1","+10","[]","0","2","","","8857","41","1","2","win","no-go","0"
"pit-trial","160","1074490","0.0-46.0","battery-v0.2","","""event"",""trial"",""time""
""fullscreenenter"",""1"",""1150""
","
","
","""event"",""trial"",""time""
""fullscreenenter"",""1"",""1150""
","
","","","-1","","","11","8857","4191","g","elianto","#f73b6a7A","-1","-1","1","0","[]","0","2","","","8857","42","3","4","lose","no-go","0"
"pit-trial","161","1078166","0.0-47.0","battery-v0.2","","""event"",""trial"",""time""
""fullscreenenter"",""1"",""1150""
","
","
","""event"",""trial"",""time""
""fullscreenenter"",""1"",""1150""
","
","","","817","","","11","8857","4191","u","elianto","#f73b6a7A"," "," ","1","0","[1666.9999999997672]","1","2","","","8857","43","0","3","lose","go","0"
"pit-trial","162","1081728","0.0-48.0","battery-v0.2","","""event"",""trial"",""time""
""fullscreenenter"",""1"",""1150""
","
","
","""event"",""trial"",""time""
""fullscreenenter"",""1"",""1150""
","
","","","706.0000000002328","","","11","8857","4191","a","elianto","#f73b6a7A"," "," ","1","-10","[1557.0000000002328]","1","2","","","8857","44","2","3","lose","go","1"
"pit-trial","163","1085382","0.0-49.0","battery-v0.2","","""event"",""trial"",""time""
""fullscreenenter"",""1"",""1150""
","
","
","""event"",""trial"",""time""
""fullscreenenter"",""1"",""1150""
","
","","","796","","","11","8857","4191","u","elianto","#f73b6a7A"," "," ","1","0","[1647]","1","2","","","8857","45","0","3","lose","go","0"
"pit-trial","164","1090239","0.0-50.0","battery-v0.2","","""event"",""trial"",""time""
""fullscreenenter"",""1"",""1150""
","
","
","""event"",""trial"",""time""
""fullscreenenter"",""1"",""1150""
","
","","","-1","","","11","8857","4191","g","elianto","#f73b6a7A","-1","-1","1","0","[]","0","2","","","8857","46","3","4","lose","no-go","0"
"pit-trial","165","1095097","0.0-51.0","battery-v0.2","","""event"",""trial"",""time""
""fullscreenenter"",""1"",""1150""
","
","
","""event"",""trial"",""time""
""fullscreenenter"",""1"",""1150""
","
","","","-1","","","11","8857","4191","l","elianto","#3366ff99","-1","-1","1","+10","[]","0","2","","","8857","47","1","2","win","no-go","0"
"pit-trial","166","1098518","0.0-52.0","battery-v0.2","","""event"",""trial"",""time""
""fullscreenenter"",""1"",""1150""
","
","
","""event"",""trial"",""time""
""fullscreenenter"",""1"",""1150""
","
","","","563","","","11","8857","4191","a","elianto","#f73b6a7A"," "," ","1","-10","[1413.9999999997672]","1","2","","","8857","48","2","3","lose","go","1"
"pit-trial","167","1102320","0.0-53.0","battery-v0.2","","""event"",""trial"",""time""
""fullscreenenter"",""1"",""1150""
","
","
","""event"",""trial"",""time""
""fullscreenenter"",""1"",""1150""
","
","","","945","","","11","8857","4191","a","elianto","#f73b6a7A"," "," ","1","0","[1796]","1","2","","","8857","49","2","3","lose","go","0"
"pit-trial","168","1105771","0.0-54.0","battery-v0.2","","""event"",""trial"",""time""
""fullscreenenter"",""1"",""1150""
","
","
","""event"",""trial"",""time""
""fullscreenenter"",""1"",""1150""
","
","","","592","","","11","8857","4191","u","elianto","#f73b6a7A"," "," ","1","0","[1444]","1","2","","","8857","50","0","3","lose","go","0"
"pit-trial","169","1110628","0.0-55.0","battery-v0.2","","""event"",""trial"",""time""
""fullscreenenter"",""1"",""1150""
","
","
","""event"",""trial"",""time""
""fullscreenenter"",""1"",""1150""
","
","","","-1","","","11","8857","4191","l","elianto","#3366ff99","-1","-1","1","0","[]","0","2","","","8857","51","1","2","win","no-go","1"
"pit-trial","170","1115485","0.0-56.0","battery-v0.2","","""event"",""trial"",""time""
""fullscreenenter"",""1"",""1150""
","
","
","""event"",""trial"",""time""
""fullscreenenter"",""1"",""1150""
","
","","","-1","","","11","8857","4191","g","elianto","#f73b6a7A","-1","-1","1","0","[]","0","2","","","8857","52","3","4","lose","no-go","0"
"pit-trial","171","1118915","0.0-57.0","battery-v0.2","","""event"",""trial"",""time""
""fullscreenenter"",""1"",""1150""
","
","
","""event"",""trial"",""time""
""fullscreenenter"",""1"",""1150""
","
","","","570","","","11","8857","4191","u","elianto","#f73b6a7A"," "," ","1","-10","[1423]","1","2","","","8857","53","0","3","lose","go","1"
"pit-trial","172","1123771","0.0-58.0","battery-v0.2","","""event"",""trial"",""time""
""fullscreenenter"",""1"",""1150""
","
","
","""event"",""trial"",""time""
""fullscreenenter"",""1"",""1150""
","
","","","-1","","","11","8857","4191","g","elianto","#f73b6a7A","-1","-1","1","-10","[]","0","2","","","8857","54","3","4","lose","no-go","1"
"pit-trial","173","1127400","0.0-59.0","battery-v0.2","","""event"",""trial"",""time""
""fullscreenenter"",""1"",""1150""
","
","
","""event"",""trial"",""time""
""fullscreenenter"",""1"",""1150""
","
","","","773","","","11","8857","4191","a","elianto","#f73b6a7A"," "," ","1","0","[1622.9999999997672]","1","2","","","8857","55","2","3","lose","go","0"
"pit-trial","174","1132257","0.0-60.0","battery-v0.2","","""event"",""trial"",""time""
""fullscreenenter"",""1"",""1150""
","
","
","""event"",""trial"",""time""
""fullscreenenter"",""1"",""1150""
","
","","","-1","","","11","8857","4191","l","elianto","#3366ff99","-1","-1","1","+10","[]","0","2","","","8857","56","1","2","win","no-go","0"
"pit-trial","175","1136067","0.0-61.0","battery-v0.2","","""event"",""trial"",""time""
""fullscreenenter"",""1"",""1150""
","
","
","""event"",""trial"",""time""
""fullscreenenter"",""1"",""1150""
","
","","","953.0000000002328","","","11","8857","4191","u","elianto","#f73b6a7A"," "," ","1","-10","[1803.0000000002328]","1","2","","","8857","57","0","3","lose","go","1"
"pit-trial","176","1140924","0.0-62.0","battery-v0.2","","""event"",""trial"",""time""
""fullscreenenter"",""1"",""1150""
","
","
","""event"",""trial"",""time""
""fullscreenenter"",""1"",""1150""
","
","","","-1","","","11","8857","4191","g","elianto","#f73b6a7A","-1","-1","1","-10","[]","0","2","","","8857","58","3","4","lose","no-go","1"
"pit-trial","177","1145034","0.0-63.0","battery-v0.2","","""event"",""trial"",""time""
""fullscreenenter"",""1"",""1150""
","
","
","""event"",""trial"",""time""
""fullscreenenter"",""1"",""1150""
","
","","","1253","","","11","8857","4191","p","elianto","#3366ff99"," "," ","1","+10","[2104]","1","2","","","8857","59","4","1","win","go","0"
"pit-trial","178","1149890","0.0-64.0","battery-v0.2","","""event"",""trial"",""time""
""fullscreenenter"",""1"",""1150""
","
","
","""event"",""trial"",""time""
""fullscreenenter"",""1"",""1150""
","
","","","-1","","","11","8857","4191","a","elianto","#f73b6a7A"," ","-1","0","-10","[2871]","1","2","","","8857","60","2","3","lose","go","0"
"pit-trial","179","1153453","0.0-65.0","battery-v0.2","","""event"",""trial"",""time""
""fullscreenenter"",""1"",""1150""
","
","
","""event"",""trial"",""time""
""fullscreenenter"",""1"",""1150""
","
","","","706","","","11","8857","4191","a","elianto","#f73b6a7A"," "," ","1","0","[1556]","1","2","","","8857","61","2","3","lose","go","0"
"pit-trial","180","1158310","0.0-66.0","battery-v0.2","","""event"",""trial"",""time""
""fullscreenenter"",""1"",""1150""
","
","
","""event"",""trial"",""time""
""fullscreenenter"",""1"",""1150""
","
","","","-1","","","11","8857","4191","g","elianto","#f73b6a7A","-1","-1","1","-10","[]","0","2","","","8857","62","3","4","lose","no-go","1"
"pit-trial","181","1162045","0.0-67.0","battery-v0.2","","""event"",""trial"",""time""
""fullscreenenter"",""1"",""1150""
","
","
","""event"",""trial"",""time""
""fullscreenenter"",""1"",""1150""
","
","","","877","","","11","8857","4191","p","elianto","#3366ff99"," "," ","1","0","[1727.9999999997672]","1","2","","","8857","63","4","1","win","go","1"
"pit-trial","182","1166902","0.0-68.0","battery-v0.2","","""event"",""trial"",""time""
""fullscreenenter"",""1"",""1150""
","
","
","""event"",""trial"",""time""
""fullscreenenter"",""1"",""1150""
","
","","","-1","","","11","8857","4191","l","elianto","#3366ff99","-1","-1","1","0","[]","0","2","","","8857","64","1","2","win","no-go","1"
"pit-trial","183","1171759","0.0-69.0","battery-v0.2","","""event"",""trial"",""time""
""fullscreenenter"",""1"",""1150""
","
","
","""event"",""trial"",""time""
""fullscreenenter"",""1"",""1150""
","
","","","-1","","","11","8857","4191","g","elianto","#f73b6a7A","-1","-1","1","0","[]","0","2","","","8857","65","3","4","lose","no-go","0"
"pit-trial","184","1175614","0.0-70.0","battery-v0.2","","""event"",""trial"",""time""
""fullscreenenter"",""1"",""1150""
","
","
","""event"",""trial"",""time""
""fullscreenenter"",""1"",""1150""
","
","","","998.0000000002328","","","11","8857","4191","s","elianto","#3366ff99","-1"," ","0","+10","[1849.0000000002328]","1","2","","","8857","66","5","2","win","no-go","1"
"pit-trial","185","1179166","0.0-71.0","battery-v0.2","","""event"",""trial"",""time""
""fullscreenenter"",""1"",""1150""
","
","
","""event"",""trial"",""time""
""fullscreenenter"",""1"",""1150""
","
","","","695","","","11","8857","4191","p","elianto","#3366ff99"," "," ","1","+10","[1546]","1","2","","","8857","67","4","1","win","go","0"
"pit-trial","186","1184024","0.0-72.0","battery-v0.2","","""event"",""trial"",""time""
""fullscreenenter"",""1"",""1150""
","
","
","""event"",""trial"",""time""
""fullscreenenter"",""1"",""1150""
","
","","","-1","","","11","8857","4191","l","elianto","#3366ff99","-1","-1","1","+10","[]","0","2","","","8857","68","1","2","win","no-go","0"
"pit-trial","187","1188881","0.0-73.0","battery-v0.2","","""event"",""trial"",""time""
""fullscreenenter"",""1"",""1150""
","
","
","""event"",""trial"",""time""
""fullscreenenter"",""1"",""1150""
","
","","","-1","","","11","8857","4191","l","elianto","#3366ff99","-1","-1","1","0","[]","0","2","","","8857","69","1","2","win","no-go","1"
"pit-trial","188","1193739","0.0-74.0","battery-v0.2","","""event"",""trial"",""time""
""fullscreenenter"",""1"",""1150""
","
","
","""event"",""trial"",""time""
""fullscreenenter"",""1"",""1150""
","
","","","-1","","","11","8857","4191","s","elianto","#3366ff99","-1","-1","1","+10","[]","0","2","","","8857","70","5","2","win","no-go","0"
"pit-trial","189","1197243","0.0-75.0","battery-v0.2","","""event"",""trial"",""time""
""fullscreenenter"",""1"",""1150""
","
","
","""event"",""trial"",""time""
""fullscreenenter"",""1"",""1150""
","
","","","648","","","11","8857","4191","p","elianto","#3366ff99"," "," ","1","+10","[1498]","1","2","","","8857","71","4","1","win","go","0"
"pit-trial","190","1201258","0.0-76.0","battery-v0.2","","""event"",""trial"",""time""
""fullscreenenter"",""1"",""1150""
","
","
","""event"",""trial"",""time""
""fullscreenenter"",""1"",""1150""
","
","","","1157","","","11","8857","4191","a","elianto","#f73b6a7A"," "," ","1","0","[2007.0000000002328]","1","2","","","8857","72","2","3","lose","go","0"
"pit-trial","191","1206116","0.0-77.0","battery-v0.2","","""event"",""trial"",""time""
""fullscreenenter"",""1"",""1150""
","
","
","""event"",""trial"",""time""
""fullscreenenter"",""1"",""1150""
","
","","","-1","","","11","8857","4191","l","elianto","#3366ff99","-1","-1","1","0","[]","0","2","","","8857","73","1","2","win","no-go","1"
"pit-trial","192","1210192","0.0-78.0","battery-v0.2","","""event"",""trial"",""time""
""fullscreenenter"",""1"",""1150""
","
","
","""event"",""trial"",""time""
""fullscreenenter"",""1"",""1150""
","
","","","1219","","","11","8857","4191","s","elianto","#3366ff99","-1"," ","0","+10","[2070]","1","2","","","8857","74","5","2","win","no-go","1"
"pit-trial","193","1213669","0.0-79.0","battery-v0.2","","""event"",""trial"",""time""
""fullscreenenter"",""1"",""1150""
","
","
","""event"",""trial"",""time""
""fullscreenenter"",""1"",""1150""
","
","","","620","","","11","8857","4191","p","elianto","#3366ff99"," "," ","1","+10","[1471]","1","2","","","8857","75","4","1","win","go","0"
"pit-trial","194","1218528","0.0-80.0","battery-v0.2","","""event"",""trial"",""time""
""fullscreenenter"",""1"",""1150""
","
","
","""event"",""trial"",""time""
""fullscreenenter"",""1"",""1150""
","
","","","-1","","","11","8857","4191","g","elianto","#f73b6a7A","-1","-1","1","0","[]","0","2","","","8857","76","3","4","lose","no-go","0"
"pit-trial","195","1222025","0.0-81.0","battery-v0.2","","""event"",""trial"",""time""
""fullscreenenter"",""1"",""1150""
","
","
","""event"",""trial"",""time""
""fullscreenenter"",""1"",""1150""
","
","","","639","","","11","8857","4191","p","elianto","#3366ff99"," "," ","1","+10","[1490]","1","2","","","8857","77","4","1","win","go","0"
"pit-trial","196","1226782","0.0-82.0","battery-v0.2","","""event"",""trial"",""time""
""fullscreenenter"",""1"",""1150""
","
","
","""event"",""trial"",""time""
""fullscreenenter"",""1"",""1150""
","
","","","1900","","","11","8857","4191","s","elianto","#3366ff99","-1"," ","0","+10","[2751]","1","2","","","8857","78","5","2","win","no-go","1"
"pit-trial","197","1231639","0.0-83.0","battery-v0.2","","""event"",""trial"",""time""
""fullscreenenter"",""1"",""1150""
","
","
","""event"",""trial"",""time""
""fullscreenenter"",""1"",""1150""
","
","","","-1","","","11","8857","4191","p","elianto","#3366ff99"," ","-1","0","0","[]","0","2","","","8857","79","4","1","win","go","0"
"pit-trial","198","1236496","0.0-84.0","battery-v0.2","","""event"",""trial"",""time""
""fullscreenenter"",""1"",""1150""
","
","
","""event"",""trial"",""time""
""fullscreenenter"",""1"",""1150""
","
","","","-1","","","11","8857","4191","g","elianto","#f73b6a7A","-1","-1","1","0","[]","0","2","","","8857","80","3","4","lose","no-go","0"
"pit-trial","199","1240555","0.0-85.0","battery-v0.2","","""event"",""trial"",""time""
""fullscreenenter"",""1"",""1150""
","
","
","""event"",""trial"",""time""
""fullscreenenter"",""1"",""1150""
","
","","","1202","","","11","8857","4191","s","elianto","#3366ff99","-1"," ","0","0","[2052]","1","2","","","8857","81","5","2","win","no-go","0"
"pit-trial","200","1244560","0.0-86.0","battery-v0.2","","""event"",""trial"",""time""
""fullscreenenter"",""1"",""1150""
","
","
","""event"",""trial"",""time""
""fullscreenenter"",""1"",""1150""
","
","","","1147.9999999997672","","","11","8857","4191","p","elianto","#3366ff99"," "," ","1","+10","[1999]","1","2","","","8857","82","4","1","win","go","0"
"pit-trial","201","1248524","0.0-87.0","battery-v0.2","","""event"",""trial"",""time""
""fullscreenenter"",""1"",""1150""
","
","
","""event"",""trial"",""time""
""fullscreenenter"",""1"",""1150""
","
","","","1107","","","11","8857","4191","e","elianto","#f73b6a7A","-1"," ","0","-10","[1958]","1","2","","","8857","83","7","4","lose","no-go","0"
"pit-trial","202","1253381","0.0-88.0","battery-v0.2","","""event"",""trial"",""time""
""fullscreenenter"",""1"",""1150""
","
","
","""event"",""trial"",""time""
""fullscreenenter"",""1"",""1150""
","
","","","-1","","","11","8857","4191","g","elianto","#f73b6a7A","-1","-1","1","0","[]","0","2","","","8857","84","3","4","lose","no-go","0"
"pit-trial","203","1257574","0.0-89.0","battery-v0.2","","""event"",""trial"",""time""
""fullscreenenter"",""1"",""1150""
","
","
","""event"",""trial"",""time""
""fullscreenenter"",""1"",""1150""
","
","","","1336","","","11","8857","4191","w","elianto","#f73b6a7A"," "," ","1","0","[2186]","1","2","","","8857","85","6","3","lose","go","0"
"pit-trial","204","1262021","0.0-90.0","battery-v0.2","","""event"",""trial"",""time""
""fullscreenenter"",""1"",""1150""
","
","
","""event"",""trial"",""time""
""fullscreenenter"",""1"",""1150""
","
","","","1589.9999999997672","","","11","8857","4191","p","elianto","#3366ff99"," "," ","1","0","[2441]","1","2","","","8857","86","4","1","win","go","1"
"pit-trial","205","1266878","0.0-91.0","battery-v0.2","","""event"",""trial"",""time""
""fullscreenenter"",""1"",""1150""
","
","
","""event"",""trial"",""time""
""fullscreenenter"",""1"",""1150""
","
","","","-1","","","11","8857","4191","e","elianto","#f73b6a7A","-1","-1","1","0","[]","0","2","","","8857","87","7","4","lose","no-go","0"
"pit-trial","206","1270515","0.0-92.0","battery-v0.2","","""event"",""trial"",""time""
""fullscreenenter"",""1"",""1150""
","
","
","""event"",""trial"",""time""
""fullscreenenter"",""1"",""1150""
","
","","","780","","","11","8857","4191","s","elianto","#3366ff99","-1"," ","0","+10","[1630]","1","2","","","8857","88","5","2","win","no-go","1"
"pit-trial","207","1274016","0.0-93.0","battery-v0.2","","""event"",""trial"",""time""
""fullscreenenter"",""1"",""1150""
","
","
","""event"",""trial"",""time""
""fullscreenenter"",""1"",""1150""
","
","","","644","","","11","8857","4191","p","elianto","#3366ff99"," "," ","1","+10","[1495.0000000002328]","1","2","","","8857","89","4","1","win","go","0"
"pit-trial","208","1277816","0.0-94.0","battery-v0.2","","""event"",""trial"",""time""
""fullscreenenter"",""1"",""1150""
","
","
","""event"",""trial"",""time""
""fullscreenenter"",""1"",""1150""
","
","","","943","","","11","8857","4191","s","elianto","#3366ff99","-1"," ","0","0","[1794.0000000002328]","1","2","","","8857","90","5","2","win","no-go","0"
"pit-trial","209","1282673","0.0-95.0","battery-v0.2","","""event"",""trial"",""time""
""fullscreenenter"",""1"",""1150""
","
","
","""event"",""trial"",""time""
""fullscreenenter"",""1"",""1150""
","
","","","-1","","","11","8857","4191","e","elianto","#f73b6a7A","-1","-1","1","0","[]","0","2","","","8857","91","7","4","lose","no-go","0"
"pit-trial","210","1287216","0.0-96.0","battery-v0.2","","""event"",""trial"",""time""
""fullscreenenter"",""1"",""1150""
","
","
","""event"",""trial"",""time""
""fullscreenenter"",""1"",""1150""
","
","","","1686","","","11","8857","4191","w","elianto","#f73b6a7A"," "," ","1","-10","[2537]","1","2","","","8857","92","6","3","lose","go","1"
"pit-trial","211","1291024","0.0-97.0","battery-v0.2","","""event"",""trial"",""time""
""fullscreenenter"",""1"",""1150""
","
","
","""event"",""trial"",""time""
""fullscreenenter"",""1"",""1150""
","
","","","952","","","11","8857","4191","s","elianto","#3366ff99","-1"," ","0","+10","[1802]","1","2","","","8857","93","5","2","win","no-go","1"
"pit-trial","212","1295883","0.0-98.0","battery-v0.2","","""event"",""trial"",""time""
""fullscreenenter"",""1"",""1150""
","
","
","""event"",""trial"",""time""
""fullscreenenter"",""1"",""1150""
","
","","","-1","","","11","8857","4191","e","elianto","#f73b6a7A","-1","-1","1","-10","[]","0","2","","","8857","94","7","4","lose","no-go","1"
"pit-trial","213","1299706","0.0-99.0","battery-v0.2","","""event"",""trial"",""time""
""fullscreenenter"",""1"",""1150""
","
","
","""event"",""trial"",""time""
""fullscreenenter"",""1"",""1150""
","
","","","966","","","11","8857","4191","d","elianto","#3366ff99"," "," ","1","0","[1817]","1","2","","","8857","95","8","1","win","go","1"
"pit-trial","214","1303468","0.0-100.0","battery-v0.2","","""event"",""trial"",""time""
""fullscreenenter"",""1"",""1150""
","
","
","""event"",""trial"",""time""
""fullscreenenter"",""1"",""1150""
","
","","","905","","","11","8857","4191","w","elianto","#f73b6a7A"," "," ","1","-10","[1756]","1","2","","","8857","96","6","3","lose","go","1"
"pit-trial","215","1307733","0.0-101.0","battery-v0.2","","""event"",""trial"",""time""
""fullscreenenter"",""1"",""1150""
","
","
","""event"",""trial"",""time""
""fullscreenenter"",""1"",""1150""
","
","","","1407","","","11","8857","4191","s","elianto","#3366ff99","-1"," ","0","+10","[2259]","1","2","","","8857","97","5","2","win","no-go","1"
"pit-trial","216","1311328","0.0-102.0","battery-v0.2","","""event"",""trial"",""time""
""fullscreenenter"",""1"",""1150""
","
","
","""event"",""trial"",""time""
""fullscreenenter"",""1"",""1150""
","
","","","738","","","11","8857","4191","d","elianto","#3366ff99"," "," ","1","0","[1588.9999999997672]","1","2","","","8857","98","8","1","win","go","1"
"pit-trial","217","1316185","0.0-103.0","battery-v0.2","","""event"",""trial"",""time""
""fullscreenenter"",""1"",""1150""
","
","
","""event"",""trial"",""time""
""fullscreenenter"",""1"",""1150""
","
","","","-1","","","11","8857","4191","e","elianto","#f73b6a7A","-1","-1","1","0","[]","0","2","","","8857","99","7","4","lose","no-go","0"
"pit-trial","218","1321042","0.0-104.0","battery-v0.2","","""event"",""trial"",""time""
""fullscreenenter"",""1"",""1150""
","
","
","""event"",""trial"",""time""
""fullscreenenter"",""1"",""1150""
","
","","","-1","","","11","8857","4191","w","elianto","#f73b6a7A"," ","-1","0","-10","[]","0","2","","","8857","100","6","3","lose","go","0"
"pit-trial","219","1325899","0.0-105.0","battery-v0.2","","""event"",""trial"",""time""
""fullscreenenter"",""1"",""1150""
","
","
","""event"",""trial"",""time""
""fullscreenenter"",""1"",""1150""
","
","","","-1","","","11","8857","4191","e","elianto","#f73b6a7A","-1","-1","1","0","[]","0","2","","","8857","101","7","4","lose","no-go","0"
"pit-trial","220","1330009","0.0-106.0","battery-v0.2","","""event"",""trial"",""time""
""fullscreenenter"",""1"",""1150""
","
","
","""event"",""trial"",""time""
""fullscreenenter"",""1"",""1150""
","
","","","1250","","","11","8857","4191","s","elianto","#3366ff99","-1"," ","0","0","[2103]","1","2","","","8857","102","5","2","win","no-go","0"
"pit-trial","221","1333687","0.0-107.0","battery-v0.2","","""event"",""trial"",""time""
""fullscreenenter"",""1"",""1150""
","
","
","""event"",""trial"",""time""
""fullscreenenter"",""1"",""1150""
","
","","","820","","","11","8857","4191","j","elianto","#3366ff99"," "," ","1","+10","[1671]","1","2","","","8857","103","9","1","win","go","0"
"pit-trial","222","1337317","0.0-108.0","battery-v0.2","","""event"",""trial"",""time""
""fullscreenenter"",""1"",""1150""
","
","
","""event"",""trial"",""time""
""fullscreenenter"",""1"",""1150""
","
","","","774","","","11","8857","4191","d","elianto","#3366ff99"," "," ","1","+10","[1624]","1","2","","","8857","104","8","1","win","go","0"
"pit-trial","223","1340626","0.0-109.0","battery-v0.2","","""event"",""trial"",""time""
""fullscreenenter"",""1"",""1150""
","
","
","""event"",""trial"",""time""
""fullscreenenter"",""1"",""1150""
","
","","","450","","","11","8857","4191","p","elianto","#3366ff99"," "," ","1","+10","[1304]","1","2","","","8857","105","4","1","win","go","0"
"pit-trial","224","1344257","0.0-110.0","battery-v0.2","","""event"",""trial"",""time""
""fullscreenenter"",""1"",""1150""
","
","
","""event"",""trial"",""time""
""fullscreenenter"",""1"",""1150""
","
","","","774.0000000002328","","","11","8857","4191","j","elianto","#3366ff99"," "," ","1","+10","[1625]","1","2","","","8857","106","9","1","win","go","0"
"pit-trial","225","1347797","0.0-111.0","battery-v0.2","","""event"",""trial"",""time""
""fullscreenenter"",""1"",""1150""
","
","
","""event"",""trial"",""time""
""fullscreenenter"",""1"",""1150""
","
","","","683.9999999997672","","","11","8857","4191","d","elianto","#3366ff99"," "," ","1","+10","[1534]","1","2","","","8857","107","8","1","win","go","0"
"pit-trial","226","1351638","0.0-112.0","battery-v0.2","","""event"",""trial"",""time""
""fullscreenenter"",""1"",""1150""
","
","
","""event"",""trial"",""time""
""fullscreenenter"",""1"",""1150""
","
","","","985","","","11","8857","4191","w","elianto","#f73b6a7A"," "," ","1","0","[1834]","1","2","","","8857","108","6","3","lose","go","0"
"pit-trial","227","1355461","0.0-113.0","battery-v0.2","","""event"",""trial"",""time""
""fullscreenenter"",""1"",""1150""
","
","
","""event"",""trial"",""time""
""fullscreenenter"",""1"",""1150""
","
","","","966","","","11","8857","4191","w","elianto","#f73b6a7A"," "," ","1","-10","[1816]","1","2","","","8857","109","6","3","lose","go","1"
"pit-trial","228","1358948","0.0-114.0","battery-v0.2","","""event"",""trial"",""time""
""fullscreenenter"",""1"",""1150""
","
","
","""event"",""trial"",""time""
""fullscreenenter"",""1"",""1150""
","
","","","629","","","11","8857","4191","d","elianto","#3366ff99"," "," ","1","+10","[1480]","1","2","","","8857","110","8","1","win","go","0"
"pit-trial","229","1362524","0.0-115.0","battery-v0.2","","""event"",""trial"",""time""
""fullscreenenter"",""1"",""1150""
","
","
","""event"",""trial"",""time""
""fullscreenenter"",""1"",""1150""
","
","","","720","","","11","8857","4191","s","elianto","#3366ff99","-1"," ","0","+10","[1571]","1","2","","","8857","111","5","2","win","no-go","1"
"pit-trial","230","1365982","0.0-116.0","battery-v0.2","","""event"",""trial"",""time""
""fullscreenenter"",""1"",""1150""
","
","
","""event"",""trial"",""time""
""fullscreenenter"",""1"",""1150""
","
","","","602","","","11","8857","4191","j","elianto","#3366ff99"," "," ","1","+10","[1451]","1","2","","","8857","112","9","1","win","go","0"
"pit-trial","231","1369754","0.0-117.0","battery-v0.2","","""event"",""trial"",""time""
""fullscreenenter"",""1"",""1150""
","
","
","""event"",""trial"",""time""
""fullscreenenter"",""1"",""1150""
","
","","","915","","","11","8857","4191","d","elianto","#3366ff99"," "," ","1","+10","[1766]","1","2","","","8857","113","8","1","win","go","0"
"pit-trial","232","1373717","0.0-118.0","battery-v0.2","","""event"",""trial"",""time""
""fullscreenenter"",""1"",""1150""
","
","
","""event"",""trial"",""time""
""fullscreenenter"",""1"",""1150""
","
","","","1108","","","11","8857","4191","w","elianto","#f73b6a7A"," "," ","1","-10","[1958]","1","2","","","8857","114","6","3","lose","go","1"
"pit-trial","233","1377059","0.0-119.0","battery-v0.2","","""event"",""trial"",""time""
""fullscreenenter"",""1"",""1150""
","
","
","""event"",""trial"",""time""
""fullscreenenter"",""1"",""1150""
","
","","","484","","","11","8857","4191","s","elianto","#3366ff99","-1"," ","0","+10","[1336]","1","2","","","8857","115","5","2","win","no-go","1"
"pit-trial","234","1380564","0.0-120.0","battery-v0.2","","""event"",""trial"",""time""
""fullscreenenter"",""1"",""1150""
","
","
","""event"",""trial"",""time""
""fullscreenenter"",""1"",""1150""
","
","","","648","","","11","8857","4191","j","elianto","#3366ff99"," "," ","1","+10","[1498.9999999997672]","1","2","","","8857","116","9","1","win","go","0"
"pit-trial","235","1383929","0.0-121.0","battery-v0.2","","""event"",""trial"",""time""
""fullscreenenter"",""1"",""1150""
","
","
","""event"",""trial"",""time""
""fullscreenenter"",""1"",""1150""
","
","","","507.99999999976717","","","11","8857","4191","s","elianto","#3366ff99","-1"," ","0","0","[1359]","1","2","","","8857","117","5","2","win","no-go","0"
"pit-trial","236","1388785","0.0-122.0","battery-v0.2","","""event"",""trial"",""time""
""fullscreenenter"",""1"",""1150""
","
","
","""event"",""trial"",""time""
""fullscreenenter"",""1"",""1150""
","
","","","-1","","","11","8857","4191","w","elianto","#f73b6a7A"," ","-1","0","-10","[]","0","2","","","8857","118","6","3","lose","go","0"
"pit-trial","237","1392426","0.0-123.0","battery-v0.2","","""event"",""trial"",""time""
""fullscreenenter"",""1"",""1150""
","
","
","""event"",""trial"",""time""
""fullscreenenter"",""1"",""1150""
","
","","","784.9999999997672","","","11","8857","4191","d","elianto","#3366ff99"," "," ","1","+10","[1635]","1","2","","","8857","119","8","1","win","go","0"
"pit-trial","238","1396185","0.0-124.0","battery-v0.2","","""event"",""trial"",""time""
""fullscreenenter"",""1"",""1150""
","
","
","""event"",""trial"",""time""
""fullscreenenter"",""1"",""1150""
","
","","","900","","","11","8857","4191","j","elianto","#3366ff99"," "," ","1","+10","[1751]","1","2","","","8857","120","9","1","win","go","0"
"pit-trial","239","1399681","0.0-125.0","battery-v0.2","","""event"",""trial"",""time""
""fullscreenenter"",""1"",""1150""
","
","
","""event"",""trial"",""time""
""fullscreenenter"",""1"",""1150""
","
","","","641","","","11","8857","4191","j","elianto","#3366ff99"," "," ","1","+10","[1490.9999999997672]","1","2","","","8857","121","9","1","win","go","0"
"pit-trial","240","1403225","0.0-126.0","battery-v0.2","","""event"",""trial"",""time""
""fullscreenenter"",""1"",""1150""
","
","
","""event"",""trial"",""time""
""fullscreenenter"",""1"",""1150""
","
","","","683","","","11","8857","4191","e","elianto","#f73b6a7A","-1"," ","0","0","[1536]","1","2","","","8857","122","7","4","lose","no-go","1"
"pit-trial","241","1406911","0.0-127.0","battery-v0.2","","""event"",""trial"",""time""
""fullscreenenter"",""1"",""1150""
","
","
","""event"",""trial"",""time""
""fullscreenenter"",""1"",""1150""
","
","","","829.0000000002328","","","11","8857","4191","d","elianto","#3366ff99"," "," ","1","+10","[1680.0000000002328]","1","2","","","8857","123","8","1","win","go","0"
"pit-trial","242","1410319","0.0-128.0","battery-v0.2","","""event"",""trial"",""time""
""fullscreenenter"",""1"",""1150""
","
","
","""event"",""trial"",""time""
""fullscreenenter"",""1"",""1150""
","
","","","552","","","11","8857","4191","w","elianto","#f73b6a7A"," "," ","1","0","[1402]","1","2","","","8857","124","6","3","lose","go","0"
"pit-trial","243","1413813","0.0-129.0","battery-v0.2","","""event"",""trial"",""time""
""fullscreenenter"",""1"",""1150""
","
","
","""event"",""trial"",""time""
""fullscreenenter"",""1"",""1150""
","
","","","636","","","11","8857","4191","j","elianto","#3366ff99"," "," ","1","+10","[1487]","1","2","","","8857","125","9","1","win","go","0"
"pit-trial","244","1417360","0.0-130.0","battery-v0.2","","""event"",""trial"",""time""
""fullscreenenter"",""1"",""1150""
","
","
","""event"",""trial"",""time""
""fullscreenenter"",""1"",""1150""
","
","","","690","","","11","8857","4191","w","elianto","#f73b6a7A"," "," ","1","0","[1541]","1","2","","","8857","126","6","3","lose","go","0"
"pit-trial","245","1422217","0.0-131.0","battery-v0.2","","""event"",""trial"",""time""
""fullscreenenter"",""1"",""1150""
","
","
","""event"",""trial"",""time""
""fullscreenenter"",""1"",""1150""
","
","","","-1","","","11","8857","4191","e","elianto","#f73b6a7A","-1","-1","1","-10","[]","0","2","","","8857","127","7","4","lose","no-go","1"
"pit-trial","246","1425788","0.0-132.0","battery-v0.2","","""event"",""trial"",""time""
""fullscreenenter"",""1"",""1150""
","
","
","""event"",""trial"",""time""
""fullscreenenter"",""1"",""1150""
","
","","","715","","","11","8857","4191","d","elianto","#3366ff99"," "," ","1","+10","[1565]","1","2","","","8857","128","8","1","win","go","0"
"pit-trial","247","1430645","0.0-133.0","battery-v0.2","","""event"",""trial"",""time""
""fullscreenenter"",""1"",""1150""
","
","
","""event"",""trial"",""time""
""fullscreenenter"",""1"",""1150""
","
","","","-1","","","11","8857","4191","w","elianto","#f73b6a7A"," ","-1","0","0","[]","0","2","","","8857","129","6","3","lose","go","1"
"pit-trial","248","1434062","0.0-134.0","battery-v0.2","","""event"",""trial"",""time""
""fullscreenenter"",""1"",""1150""
","
","
","""event"",""trial"",""time""
""fullscreenenter"",""1"",""1150""
","
","","","560","","","11","8857","4191","d","elianto","#3366ff99"," "," ","1","+10","[1411]","1","2","","","8857","130","8","1","win","go","0"
"pit-trial","249","1437493","0.0-135.0","battery-v0.2","","""event"",""trial"",""time""
""fullscreenenter"",""1"",""1150""
","
","
","""event"",""trial"",""time""
""fullscreenenter"",""1"",""1150""
","
","","","574","","","11","8857","4191","j","elianto","#3366ff99"," "," ","1","0","[1425]","1","2","","","8857","131","9","1","win","go","1"
"pit-trial","250","1442350","0.0-136.0","battery-v0.2","","""event"",""trial"",""time""
""fullscreenenter"",""1"",""1150""
","
","
","""event"",""trial"",""time""
""fullscreenenter"",""1"",""1150""
","
","","","-1","","","11","8857","4191","e","elianto","#f73b6a7A","-1","-1","1","-10","[]","0","2","","","8857","132","7","4","lose","no-go","1"
"pit-trial","251","1445949","0.0-137.0","battery-v0.2","","""event"",""trial"",""time""
""fullscreenenter"",""1"",""1150""
","
","
","""event"",""trial"",""time""
""fullscreenenter"",""1"",""1150""
","
","","","743.0000000002328","","","11","8857","4191","j","elianto","#3366ff99"," "," ","1","+10","[1593.0000000002328]","1","2","","","8857","133","9","1","win","go","0"
"pit-trial","252","1449564","0.0-138.0","battery-v0.2","","""event"",""trial"",""time""
""fullscreenenter"",""1"",""1150""
","
","
","""event"",""trial"",""time""
""fullscreenenter"",""1"",""1150""
","
","","","757.9999999997672","","","11","8857","4191","e","elianto","#f73b6a7A","-1"," ","0","0","[1608]","1","2","","","8857","134","7","4","lose","no-go","1"
"pit-trial","253","1453273","0.0-139.0","battery-v0.2","","""event"",""trial"",""time""
""fullscreenenter"",""1"",""1150""
","
","
","""event"",""trial"",""time""
""fullscreenenter"",""1"",""1150""
","
","","","851.9999999997672","","","11","8857","4191","w","elianto","#f73b6a7A"," "," ","1","0","[1703]","1","2","","","8857","135","6","3","lose","go","0"
"pit-trial","254","1456860","0.0-140.0","battery-v0.2","","""event"",""trial"",""time""
""fullscreenenter"",""1"",""1150""
","
","
","""event"",""trial"",""time""
""fullscreenenter"",""1"",""1150""
","
","","","731","","","11","8857","4191","d","elianto","#3366ff99"," "," ","1","0","[1582]","1","2","","","8857","136","8","1","win","go","1"
"pit-trial","255","1460997","0.0-141.0","battery-v0.2","","""event"",""trial"",""time""
""fullscreenenter"",""1"",""1150""
","
","
","""event"",""trial"",""time""
""fullscreenenter"",""1"",""1150""
","
","","","1279","","","11","8857","4191","w","elianto","#f73b6a7A"," "," ","1","-10","[2130]","1","2","","","8857","137","6","3","lose","go","1"
"pit-trial","256","1464492","0.0-142.0","battery-v0.2","","""event"",""trial"",""time""
""fullscreenenter"",""1"",""1150""
","
","
","""event"",""trial"",""time""
""fullscreenenter"",""1"",""1150""
","
","","","639","","","11","8857","4191","j","elianto","#3366ff99"," "," ","1","+10","[1489]","1","2","","","8857","138","9","1","win","go","0"
"pit-trial","257","1467925","0.0-143.0","battery-v0.2","","""event"",""trial"",""time""
""fullscreenenter"",""1"",""1150""
","
","
","""event"",""trial"",""time""
""fullscreenenter"",""1"",""1150""
","
","","","575","","","11","8857","4191","d","elianto","#3366ff99"," "," ","1","+10","[1426]","1","2","","","8857","139","8","1","win","go","0"
"pit-trial","258","1471191","0.0-144.0","battery-v0.2","","""event"",""trial"",""time""
""fullscreenenter"",""1"",""1150""
","
","
","""event"",""trial"",""time""
""fullscreenenter"",""1"",""1150""
","
","","","410","","","11","8857","4191","e","elianto","#f73b6a7A","-1"," ","0","-10","[1260.9999999997672]","1","2","","","8857","140","7","4","lose","no-go","0"
"pit-instructions","259","1512804","0.0-145.0","battery-v0.2","","""event"",""trial"",""time""
""fullscreenenter"",""1"",""1150""
","
","
","""event"",""trial"",""time""
""fullscreenenter"",""1"",""1150""
","
","","[{""page_index"":0,""viewing_time"":17081},{""page_index"":1,""viewing_time"":24527.000000000233}]","41608.00000000023","","","","","","","","","","","","","","","","","","","","","","","",""
"pit-trial","260","1516543","0.0-146.0","battery-v0.2","","""event"",""trial"",""time""
""fullscreenenter"",""1"",""1150""
","
","
","""event"",""trial"",""time""
""fullscreenenter"",""1"",""1150""
","
","","","880","","","11","8857","4191","t","elianto","#f73b6a7A","-1"," ","0","-10","[1730]","1","3","","","8857","141","2","4","lose","no-go","0"
"pit-trial","261","1519978","0.0-147.0","battery-v0.2","","""event"",""trial"",""time""
""fullscreenenter"",""1"",""1150""
","
","
","""event"",""trial"",""time""
""fullscreenenter"",""1"",""1150""
","
","","","578.0000000002328","","","11","8857","4191","f","elianto","#3366ff99"," "," ","1","+10","[1429.0000000002328]","1","3","","","8857","142","1","1","win","go","0"
"pit-trial","262","1523400","0.0-148.0","battery-v0.2","","""event"",""trial"",""time""
""fullscreenenter"",""1"",""1150""
","
","
","""event"",""trial"",""time""
""fullscreenenter"",""1"",""1150""
","
","","","564","","","11","8857","4191","b","elianto","#f73b6a7A"," "," ","1","0","[1415]","1","3","","","8857","143","3","3","lose","go","0"
"pit-trial","263","1526957","0.0-149.0","battery-v0.2","","""event"",""trial"",""time""
""fullscreenenter"",""1"",""1150""
","
","
","""event"",""trial"",""time""
""fullscreenenter"",""1"",""1150""
","
","","","700","","","11","8857","4191","n","elianto","#f73b6a7A","-1"," ","0","-10","[1550]","1","3","","","8857","144","0","4","lose","no-go","0"
"pit-trial","264","1530643","0.0-150.0","battery-v0.2","","""event"",""trial"",""time""
""fullscreenenter"",""1"",""1150""
","
","
","""event"",""trial"",""time""
""fullscreenenter"",""1"",""1150""
","
","","","830","","","11","8857","4191","t","elianto","#f73b6a7A","-1"," ","0","-10","[1681]","1","3","","","8857","145","2","4","lose","no-go","0"
"pit-trial","265","1534393","0.0-151.0","battery-v0.2","","""event"",""trial"",""time""
""fullscreenenter"",""1"",""1150""
","
","
","""event"",""trial"",""time""
""fullscreenenter"",""1"",""1150""
","
","","","894","","","11","8857","4191","b","elianto","#f73b6a7A"," "," ","1","0","[1744]","1","3","","","8857","146","3","3","lose","go","0"
"pit-trial","266","1539250","0.0-152.0","battery-v0.2","","""event"",""trial"",""time""
""fullscreenenter"",""1"",""1150""
","
","
","""event"",""trial"",""time""
""fullscreenenter"",""1"",""1150""
","
","","","-1","","","11","8857","4191","n","elianto","#f73b6a7A","-1","-1","1","0","[]","0","3","","","8857","147","0","4","lose","no-go","0"
"pit-trial","267","1543305","0.0-153.0","battery-v0.2","","""event"",""trial"",""time""
""fullscreenenter"",""1"",""1150""
","
","
","""event"",""trial"",""time""
""fullscreenenter"",""1"",""1150""
","
","","","1198","","","11","8857","4191","f","elianto","#3366ff99"," "," ","1","0","[2048]","1","3","","","8857","148","1","1","win","go","1"
"pit-trial","268","1548162","0.0-154.0","battery-v0.2","","""event"",""trial"",""time""
""fullscreenenter"",""1"",""1150""
","
","
","""event"",""trial"",""time""
""fullscreenenter"",""1"",""1150""
","
","","","-1","","","11","8857","4191","t","elianto","#f73b6a7A","-1","-1","1","0","[]","0","3","","","8857","149","2","4","lose","no-go","0"
"pit-trial","269","1553019","0.0-155.0","battery-v0.2","","""event"",""trial"",""time""
""fullscreenenter"",""1"",""1150""
","
","
","""event"",""trial"",""time""
""fullscreenenter"",""1"",""1150""
","
","","","-1","","","11","8857","4191","n","elianto","#f73b6a7A","-1","-1","1","0","[]","0","3","","","8857","150","0","4","lose","no-go","0"
"pit-trial","270","1557875","0.0-156.0","battery-v0.2","","""event"",""trial"",""time""
""fullscreenenter"",""1"",""1150""
","
","
","""event"",""trial"",""time""
""fullscreenenter"",""1"",""1150""
","
","","","-1","","","11","8857","4191","f","elianto","#3366ff99"," ","-1","0","+10","[]","0","3","","","8857","151","1","1","win","go","1"
"pit-trial","271","1561315","0.0-157.0","battery-v0.2","","""event"",""trial"",""time""
""fullscreenenter"",""1"",""1150""
","
","
","""event"",""trial"",""time""
""fullscreenenter"",""1"",""1150""
","
","","","583.0000000002328","","","11","8857","4191","b","elianto","#f73b6a7A"," "," ","1","0","[1434.0000000002328]","1","3","","","8857","152","3","3","lose","go","0"
"pit-trial","272","1566172","0.0-158.0","battery-v0.2","","""event"",""trial"",""time""
""fullscreenenter"",""1"",""1150""
","
","
","""event"",""trial"",""time""
""fullscreenenter"",""1"",""1150""
","
","","","-1","","","11","8857","4191","f","elianto","#3366ff99"," ","-1","0","0","[]","0","3","","","8857","153","1","1","win","go","0"
"pit-trial","273","1571028","0.0-159.0","battery-v0.2","","""event"",""trial"",""time""
""fullscreenenter"",""1"",""1150""
","
","
","""event"",""trial"",""time""
""fullscreenenter"",""1"",""1150""
","
","","","-1","","","11","8857","4191","n","elianto","#f73b6a7A","-1","-1","1","0","[]","0","3","","","8857","154","0","4","lose","no-go","0"
"pit-trial","274","1574789","0.0-160.0","battery-v0.2","","""event"",""trial"",""time""
""fullscreenenter"",""1"",""1150""
","
","
","""event"",""trial"",""time""
""fullscreenenter"",""1"",""1150""
","
","","","904","","","11","8857","4191","b","elianto","#f73b6a7A"," "," ","1","0","[1755]","1","3","","","8857","155","3","3","lose","go","0"
"pit-trial","275","1579647","0.0-161.0","battery-v0.2","","""event"",""trial"",""time""
""fullscreenenter"",""1"",""1150""
","
","