"trial_type","trial_index","time_elapsed","internal_node_id","task_version","subject_id","interactions","blur_events","focus_events","fullscreenenter_events","fullscreenexit_events","success","view_history","rt","responses","num_errors","age","subject","participantId","rune","rune_set","hex","correct","choice","accuracy","outcome","keys","total_keys","block","practice","value","sub","trial","stimulus","robot","valence","action","sham"
"pavlovia","0","13","0.0-0.0","battery-v0.2","","""event"",""trial"",""time""
""blur"",""1"",""7498""
""focus"",""1"",""7502""
""blur"",""1"",""7506""
""fullscreenenter"",""1"",""7531""
""focus"",""1"",""7800""
","""event"",""trial"",""time""
""blur"",""1"",""7498""
""blur"",""1"",""7506""
","""event"",""trial"",""time""
""focus"",""1"",""7502""
""focus"",""1"",""7800""
","""event"",""trial"",""time""
""fullscreenenter"",""1"",""7531""
","
","","","","","","","","","","","","","","","","","","","","","","","","","","",""
"fullscreen","1","8054","0.0-1.0","battery-v0.2","","""event"",""trial"",""time""
""blur"",""1"",""7498""
""focus"",""1"",""7502""
""blur"",""1"",""7506""
""fullscreenenter"",""1"",""7531""
""focus"",""1"",""7800""
","""event"",""trial"",""time""
""blur"",""1"",""7498""
""blur"",""1"",""7506""
","""event"",""trial"",""time""
""focus"",""1"",""7502""
""focus"",""1"",""7800""
","""event"",""trial"",""time""
""fullscreenenter"",""1"",""7531""
","
","true","","","","","","","","","","","","","","","","","","","","","","","","","",""
"pit-instructions","2","19204","0.0-2.0-0.0","battery-v0.2","","""event"",""trial"",""time""
""blur"",""1"",""7498""
""focus"",""1"",""7502""
""blur"",""1"",""7506""
""fullscreenenter"",""1"",""7531""
""focus"",""1"",""7800""
","""event"",""trial"",""time""
""blur"",""1"",""7498""
""blur"",""1"",""7506""
","""event"",""trial"",""time""
""focus"",""1"",""7502""
""focus"",""1"",""7800""
","""event"",""trial"",""time""
""fullscreenenter"",""1"",""7531""
","
","","[{""page_index"":0,""viewing_time"":11133}]","11142","","","","","","","","","","","","","","","","","","","","","","","",""
"pit-comprehension","3","25098","0.0-2.0-1.0-0.0","battery-v0.2","","""event"",""trial"",""time""
""blur"",""1"",""7498""
""focus"",""1"",""7502""
""blur"",""1"",""7506""
""fullscreenenter"",""1"",""7531""
""focus"",""1"",""7800""
","""event"",""trial"",""time""
""blur"",""1"",""7498""
""blur"",""1"",""7506""
","""event"",""trial"",""time""
""focus"",""1"",""7502""
""focus"",""1"",""7800""
","""event"",""trial"",""time""
""fullscreenenter"",""1"",""7531""
","
","","","5730","[""shark""]","0","17","10968","5119","","","","","","","","","","","","","","","","","","",""
"pit-instructions","4","27971","0.0-2.0-1.0-1.0","battery-v0.2","","""event"",""trial"",""time""
""blur"",""1"",""7498""
""focus"",""1"",""7502""
""blur"",""1"",""7506""
""fullscreenenter"",""1"",""7531""
""focus"",""1"",""7800""
","""event"",""trial"",""time""
""blur"",""1"",""7498""
""blur"",""1"",""7506""
","""event"",""trial"",""time""
""focus"",""1"",""7502""
""focus"",""1"",""7800""
","""event"",""trial"",""time""
""fullscreenenter"",""1"",""7531""
","
","","[{""page_index"":0,""viewing_time"":2859}]","2860","","","","","","","","","","","","","","","","","","","","","","","",""
"pit-comprehension","5","30355","0.0-2.0-2.0-0.0","battery-v0.2","","""event"",""trial"",""time""
""blur"",""1"",""7498""
""focus"",""1"",""7502""
""blur"",""1"",""7506""
""fullscreenenter"",""1"",""7531""
""focus"",""1"",""7800""
","""event"",""trial"",""time""
""blur"",""1"",""7498""
""blur"",""1"",""7506""
","""event"",""trial"",""time""
""focus"",""1"",""7502""
""focus"",""1"",""7800""
","""event"",""trial"",""time""
""fullscreenenter"",""1"",""7531""
","
","","","2367.0000000000073","[""tiger""]","0","17","10968","5119","","","","","","","","","","","","","","","","","","",""
"pit-instructions","6","41362","0.0-2.0-2.0-1.0","battery-v0.2","","""event"",""trial"",""time""
""blur"",""1"",""7498""
""focus"",""1"",""7502""
""blur"",""1"",""7506""
""fullscreenenter"",""1"",""7531""
""focus"",""1"",""7800""
","""event"",""trial"",""time""
""blur"",""1"",""7498""
""blur"",""1"",""7506""
","""event"",""trial"",""time""
""focus"",""1"",""7502""
""focus"",""1"",""7800""
","""event"",""trial"",""time""
""fullscreenenter"",""1"",""7531""
","
","","[{""page_index"":0,""viewing_time"":10991}]","10991","","","","","","","","","","","","","","","","","","","","","","","",""
"pit-instructions","7","167743","0.0-2.0-3.0","battery-v0.2","","""event"",""trial"",""time""
""blur"",""1"",""7498""
""focus"",""1"",""7502""
""blur"",""1"",""7506""
""fullscreenenter"",""1"",""7531""
""focus"",""1"",""7800""
","""event"",""trial"",""time""
""blur"",""1"",""7498""
""blur"",""1"",""7506""
","""event"",""trial"",""time""
""focus"",""1"",""7502""
""focus"",""1"",""7800""
","""event"",""trial"",""time""
""fullscreenenter"",""1"",""7531""
","
","","[{""page_index"":0,""viewing_time"":17709},{""page_index"":1,""viewing_time"":9410},{""page_index"":2,""viewing_time"":8994},{""page_index"":3,""viewing_time"":5132},{""page_index"":4,""viewing_time"":7869},{""page_index"":5,""viewing_time"":7797},{""page_index"":6,""viewing_time"":8428},{""page_index"":7,""viewing_time"":11744},{""page_index"":8,""viewing_time"":9556},{""page_index"":9,""viewing_time"":8793},{""page_index"":10,""viewing_time"":7175},{""page_index"":11,""viewing_time"":12218},{""page_index"":12,""viewing_time"":6675},{""page_index"":13,""viewing_time"":4860}]","126362","","","","","","","","","","","","","","","","","","","","","","","",""
"pit-trial","8","170681","0.0-2.0-4.0-0.0","battery-v0.2","","""event"",""trial"",""time""
""blur"",""1"",""7498""
""focus"",""1"",""7502""
""blur"",""1"",""7506""
""fullscreenenter"",""1"",""7531""
""focus"",""1"",""7800""
","""event"",""trial"",""time""
""blur"",""1"",""7498""
""blur"",""1"",""7506""
","""event"",""trial"",""time""
""focus"",""1"",""7502""
""focus"",""1"",""7800""
","""event"",""trial"",""time""
""fullscreenenter"",""1"",""7531""
","
","","","70.0000000000291","","","17","10968","5119","&#9784;","elianto","#FFFFF080"," "," ","1","&#10004","[921.0000000000291,1616,2366]","3","0","0","","","","","","","",""
"pit-trial","9","174692","0.0-2.0-4.1-0.1","battery-v0.2","","""event"",""trial"",""time""
""blur"",""1"",""7498""
""focus"",""1"",""7502""
""blur"",""1"",""7506""
""fullscreenenter"",""1"",""7531""
""focus"",""1"",""7800""
","""event"",""trial"",""time""
""blur"",""1"",""7498""
""blur"",""1"",""7506""
","""event"",""trial"",""time""
""focus"",""1"",""7502""
""focus"",""1"",""7800""
","""event"",""trial"",""time""
""fullscreenenter"",""1"",""7531""
","
","","","1142.000000000029","","","17","10968","5119","&#9784;","elianto","#FFFFF080"," "," ","1","&#10004","[136.0000000000291,1993.000000000029]","2","0","0","","","","","","","",""
"pit-trial","10","178142","0.0-2.0-4.2-0.2","battery-v0.2","","""event"",""trial"",""time""
""blur"",""1"",""7498""
""focus"",""1"",""7502""
""blur"",""1"",""7506""
""fullscreenenter"",""1"",""7531""
""focus"",""1"",""7800""
","""event"",""trial"",""time""
""blur"",""1"",""7498""
""blur"",""1"",""7506""
","""event"",""trial"",""time""
""focus"",""1"",""7502""
""focus"",""1"",""7800""
","""event"",""trial"",""time""
""fullscreenenter"",""1"",""7531""
","
","","","585","","","17","10968","5119","&#9784;","elianto","#FFFFF080"," "," ","1","&#10004","[1437]","1","0","0","","","","","","","",""
"pit-trial","11","181300","0.0-2.0-4.3-0.3","battery-v0.2","","""event"",""trial"",""time""
""blur"",""1"",""7498""
""focus"",""1"",""7502""
""blur"",""1"",""7506""
""fullscreenenter"",""1"",""7531""
""focus"",""1"",""7800""
","""event"",""trial"",""time""
""blur"",""1"",""7498""
""blur"",""1"",""7506""
","""event"",""trial"",""time""
""focus"",""1"",""7502""
""focus"",""1"",""7800""
","""event"",""trial"",""time""
""fullscreenenter"",""1"",""7531""
","
","","","299","","","17","10968","5119","&#9784;","elianto","#FFFFF080"," "," ","1","&#10004","[1151,1842]","2","0","0","","","","","","","",""
"pit-trial","12","184709","0.0-2.0-4.4-0.4","battery-v0.2","","""event"",""trial"",""time""
""blur"",""1"",""7498""
""focus"",""1"",""7502""
""blur"",""1"",""7506""
""fullscreenenter"",""1"",""7531""
""focus"",""1"",""7800""
","""event"",""trial"",""time""
""blur"",""1"",""7498""
""blur"",""1"",""7506""
","""event"",""trial"",""time""
""focus"",""1"",""7502""
""focus"",""1"",""7800""
","""event"",""trial"",""time""
""fullscreenenter"",""1"",""7531""
","
","","","545","","","17","10968","5119","&#9784;","elianto","#FFFFF080"," "," ","1","&#10004","[1396]","1","0","0","","","","","","","",""
"pit-instructions","13","211049","0.0-2.0-5.0","battery-v0.2","","""event"",""trial"",""time""
""blur"",""1"",""7498""
""focus"",""1"",""7502""
""blur"",""1"",""7506""
""fullscreenenter"",""1"",""7531""
""focus"",""1"",""7800""
","""event"",""trial"",""time""
""blur"",""1"",""7498""
""blur"",""1"",""7506""
","""event"",""trial"",""time""
""focus"",""1"",""7502""
""focus"",""1"",""7800""
","""event"",""trial"",""time""
""fullscreenenter"",""1"",""7531""
","
","","[{""page_index"":0,""viewing_time"":6343},{""page_index"":1,""viewing_time"":6878},{""page_index"":2,""viewing_time"":6884},{""page_index"":3,""viewing_time"":6214}]","26321","","","","","","","","","","","","","","","","","","","","","","","",""
"pit-trial","14","215915","0.0-2.0-6.0-0.0","battery-v0.2","","""event"",""trial"",""time""
""blur"",""1"",""7498""
""focus"",""1"",""7502""
""blur"",""1"",""7506""
""fullscreenenter"",""1"",""7531""
""focus"",""1"",""7800""
","""event"",""trial"",""time""
""blur"",""1"",""7498""
""blur"",""1"",""7506""
","""event"",""trial"",""time""
""focus"",""1"",""7502""
""focus"",""1"",""7800""
","""event"",""trial"",""time""
""fullscreenenter"",""1"",""7531""
","
","","","-1","","","17","10968","5119","&#9854;","elianto","#FFFFF080","-1","-1","1","&#10004","[]","0","0","1","","","","","","","",""
"pit-trial","15","220786","0.0-2.0-6.1-0.1","battery-v0.2","","""event"",""trial"",""time""
""blur"",""1"",""7498""
""focus"",""1"",""7502""
""blur"",""1"",""7506""
""fullscreenenter"",""1"",""7531""
""focus"",""1"",""7800""
","""event"",""trial"",""time""
""blur"",""1"",""7498""
""blur"",""1"",""7506""
","""event"",""trial"",""time""
""focus"",""1"",""7502""
""focus"",""1"",""7800""
","""event"",""trial"",""time""
""fullscreenenter"",""1"",""7531""
","
","","","-1","","","17","10968","5119","&#9854;","elianto","#FFFFF080","-1","-1","1","&#10004","[]","0","0","1","","","","","","","",""
"pit-trial","16","225651","0.0-2.0-6.2-0.2","battery-v0.2","","""event"",""trial"",""time""
""blur"",""1"",""7498""
""focus"",""1"",""7502""
""blur"",""1"",""7506""
""fullscreenenter"",""1"",""7531""
""focus"",""1"",""7800""
","""event"",""trial"",""time""
""blur"",""1"",""7498""
""blur"",""1"",""7506""
","""event"",""trial"",""time""
""focus"",""1"",""7502""
""focus"",""1"",""7800""
","""event"",""trial"",""time""
""fullscreenenter"",""1"",""7531""
","
","","","-1","","","17","10968","5119","&#9854;","elianto","#FFFFF080","-1","-1","1","&#10004","[]","0","0","1","","","","","","","",""
"pit-trial","17","230516","0.0-2.0-6.3-0.3","battery-v0.2","","""event"",""trial"",""time""
""blur"",""1"",""7498""
""focus"",""1"",""7502""
""blur"",""1"",""7506""
""fullscreenenter"",""1"",""7531""
""focus"",""1"",""7800""
","""event"",""trial"",""time""
""blur"",""1"",""7498""
""blur"",""1"",""7506""
","""event"",""trial"",""time""
""focus"",""1"",""7502""
""focus"",""1"",""7800""
","""event"",""trial"",""time""
""fullscreenenter"",""1"",""7531""
","
","","","-1","","","17","10968","5119","&#9854;","elianto","#FFFFF080","-1","-1","1","&#10004","[]","0","0","1","","","","","","","",""
"pit-trial","18","235382","0.0-2.0-6.4-0.4","battery-v0.2","","""event"",""trial"",""time""
""blur"",""1"",""7498""
""focus"",""1"",""7502""
""blur"",""1"",""7506""
""fullscreenenter"",""1"",""7531""
""focus"",""1"",""7800""
","""event"",""trial"",""time""
""blur"",""1"",""7498""
""blur"",""1"",""7506""
","""event"",""trial"",""time""
""focus"",""1"",""7502""
""focus"",""1"",""7800""
","""event"",""trial"",""time""
""fullscreenenter"",""1"",""7531""
","
","","","-1","","","17","10968","5119","&#9854;","elianto","#FFFFF080","-1","-1","1","&#10004","[]","0","0","1","","","","","","","",""
"pit-instructions","19","378794","0.0-2.0-7.0","battery-v0.2","","""event"",""trial"",""time""
""blur"",""1"",""7498""
""focus"",""1"",""7502""
""blur"",""1"",""7506""
""fullscreenenter"",""1"",""7531""
""focus"",""1"",""7800""
","""event"",""trial"",""time""
""blur"",""1"",""7498""
""blur"",""1"",""7506""
","""event"",""trial"",""time""
""focus"",""1"",""7502""
""focus"",""1"",""7800""
","""event"",""trial"",""time""
""fullscreenenter"",""1"",""7531""
","
","","[{""page_index"":0,""viewing_time"":7828},{""page_index"":1,""viewing_time"":8644.99999999997},{""page_index"":2,""viewing_time"":7269.999999999971},{""page_index"":3,""viewing_time"":6894.000000000029},{""page_index"":4,""viewing_time"":6292},{""page_index"":5,""viewing_time"":8699.000000000058},{""page_index"":6,""viewing_time"":5724.999999999942},{""page_index"":7,""viewing_time"":8370},{""page_index"":8,""viewing_time"":6922},{""page_index"":9,""viewing_time"":6554},{""page_index"":10,""viewing_time"":6916},{""page_index"":11,""viewing_time"":5565},{""page_index"":12,""viewing_time"":7662},{""page_index"":13,""viewing_time"":8164},{""page_index"":14,""viewing_time"":9055},{""page_index"":15,""viewing_time"":8633},{""page_index"":16,""viewing_time"":7146},{""page_index"":17,""viewing_time"":17054}]","143394.99999999997","","","","","","","","","","","","","","","","","","","","","","","",""
"pit-trial","20","383659","0.0-2.0-8.0-0.0","battery-v0.2","","""event"",""trial"",""time""
""blur"",""1"",""7498""
""focus"",""1"",""7502""
""blur"",""1"",""7506""
""fullscreenenter"",""1"",""7531""
""focus"",""1"",""7800""
","""event"",""trial"",""time""
""blur"",""1"",""7498""
""blur"",""1"",""7506""
","""event"",""trial"",""time""
""focus"",""1"",""7502""
""focus"",""1"",""7800""
","""event"",""trial"",""time""
""fullscreenenter"",""1"",""7531""
","
","","","-1","","","17","10968","5119","&#9776;","elianto","#3366ff99"," ","-1","0","0","[]","0","0","1","","","","","","","",""
"pit-trial","21","388525","0.0-2.0-8.0-1.0","battery-v0.2","","""event"",""trial"",""time""
""blur"",""1"",""7498""
""focus"",""1"",""7502""
""blur"",""1"",""7506""
""fullscreenenter"",""1"",""7531""
""focus"",""1"",""7800""
","""event"",""trial"",""time""
""blur"",""1"",""7498""
""blur"",""1"",""7506""
","""event"",""trial"",""time""
""focus"",""1"",""7502""
""focus"",""1"",""7800""
","""event"",""trial"",""time""
""fullscreenenter"",""1"",""7531""
","
","","","-1","","","17","10968","5119","&#9776;","elianto","#3366ff99"," ","-1","0","0","[]","0","0","1","","","","","","","",""
"pit-trial","22","392606","0.0-2.0-8.0-2.0","battery-v0.2","","""event"",""trial"",""time""
""blur"",""1"",""7498""
""focus"",""1"",""7502""
""blur"",""1"",""7506""
""fullscreenenter"",""1"",""7531""
""focus"",""1"",""7800""
","""event"",""trial"",""time""
""blur"",""1"",""7498""
""blur"",""1"",""7506""
","""event"",""trial"",""time""
""focus"",""1"",""7502""
""focus"",""1"",""7800""
","""event"",""trial"",""time""
""fullscreenenter"",""1"",""7531""
","
","","","1213","","","17","10968","5119","&#9776;","elianto","#3366ff99"," "," ","1","+10","[2062.999999999942]","1","0","1","","","","","","","",""
"pit-trial","23","396083","0.0-2.0-8.0-3.0","battery-v0.2","","""event"",""trial"",""time""
""blur"",""1"",""7498""
""focus"",""1"",""7502""
""blur"",""1"",""7506""
""fullscreenenter"",""1"",""7531""
""focus"",""1"",""7800""
","""event"",""trial"",""time""
""blur"",""1"",""7498""
""blur"",""1"",""7506""
","""event"",""trial"",""time""
""focus"",""1"",""7502""
""focus"",""1"",""7800""
","""event"",""trial"",""time""
""fullscreenenter"",""1"",""7531""
","
","","","613.0000000000582","","","17","10968","5119","&#9776;","elianto","#3366ff99"," "," ","1","0","[1462]","1","0","1","","","","","","","",""
"pit-trial","24","399638","0.0-2.0-8.0-4.0","battery-v0.2","","""event"",""trial"",""time""
""blur"",""1"",""7498""
""focus"",""1"",""7502""
""blur"",""1"",""7506""
""fullscreenenter"",""1"",""7531""
""focus"",""1"",""7800""
","""event"",""trial"",""time""
""blur"",""1"",""7498""
""blur"",""1"",""7506""
","""event"",""trial"",""time""
""focus"",""1"",""7502""
""focus"",""1"",""7800""
","""event"",""trial"",""time""
""fullscreenenter"",""1"",""7531""
","
","","","691","","","17","10968","5119","&#9776;","elianto","#3366ff99"," "," ","1","+10","[1543]","1","0","1","","","","","","","",""
"pit-trial","25","403464","0.0-2.0-8.1-0.1","battery-v0.2","","""event"",""trial"",""time""
""blur"",""1"",""7498""
""focus"",""1"",""7502""
""blur"",""1"",""7506""
""fullscreenenter"",""1"",""7531""
""focus"",""1"",""7800""
","""event"",""trial"",""time""
""blur"",""1"",""7498""
""blur"",""1"",""7506""
","""event"",""trial"",""time""
""focus"",""1"",""7502""
""focus"",""1"",""7800""
","""event"",""trial"",""time""
""fullscreenenter"",""1"",""7531""
","
","","","959","","","17","10968","5119","&#9776;","elianto","#3366ff99"," "," ","1","+10","[1808.9999999999418]","1","0","1","","","","","","","",""
"pit-trial","26","407244","0.0-2.0-8.1-1.1","battery-v0.2","","""event"",""trial"",""time""
""blur"",""1"",""7498""
""focus"",""1"",""7502""
""blur"",""1"",""7506""
""fullscreenenter"",""1"",""7531""
""focus"",""1"",""7800""
","""event"",""trial"",""time""
""blur"",""1"",""7498""
""blur"",""1"",""7506""
","""event"",""trial"",""time""
""focus"",""1"",""7502""
""focus"",""1"",""7800""
","""event"",""trial"",""time""
""fullscreenenter"",""1"",""7531""
","
","","","916","","","17","10968","5119","&#9776;","elianto","#3366ff99"," "," ","1","+10","[1767]","1","0","1","","","","","","","",""
"pit-trial","27","410857","0.0-2.0-8.1-2.1","battery-v0.2","","""event"",""trial"",""time""
""blur"",""1"",""7498""
""focus"",""1"",""7502""
""blur"",""1"",""7506""
""fullscreenenter"",""1"",""7531""
""focus"",""1"",""7800""
","""event"",""trial"",""time""
""blur"",""1"",""7498""
""blur"",""1"",""7506""
","""event"",""trial"",""time""
""focus"",""1"",""7502""
""focus"",""1"",""7800""
","""event"",""trial"",""time""
""fullscreenenter"",""1"",""7531""
","
","","","750","","","17","10968","5119","&#9776;","elianto","#3366ff99"," "," ","1","+10","[1600]","1","0","1","","","","","","","",""
"pit-trial","28","414247","0.0-2.0-8.1-3.1","battery-v0.2","","""event"",""trial"",""time""
""blur"",""1"",""7498""
""focus"",""1"",""7502""
""blur"",""1"",""7506""
""fullscreenenter"",""1"",""7531""
""focus"",""1"",""7800""
","""event"",""trial"",""time""
""blur"",""1"",""7498""
""blur"",""1"",""7506""
","""event"",""trial"",""time""
""focus"",""1"",""7502""
""focus"",""1"",""7800""
","""event"",""trial"",""time""
""fullscreenenter"",""1"",""7531""
","
","","","526","","","17","10968","5119","&#9776;","elianto","#3366ff99"," "," ","1","0","[1377]","1","0","1","","","","","","","",""
"pit-trial","29","417958","0.0-2.0-8.1-4.1","battery-v0.2","","""event"",""trial"",""time""
""blur"",""1"",""7498""
""focus"",""1"",""7502""
""blur"",""1"",""7506""
""fullscreenenter"",""1"",""7531""
""focus"",""1"",""7800""
","""event"",""trial"",""time""
""blur"",""1"",""7498""
""blur"",""1"",""7506""
","""event"",""trial"",""time""
""focus"",""1"",""7502""
""focus"",""1"",""7800""
","""event"",""trial"",""time""
""fullscreenenter"",""1"",""7531""
","
","","","847","","","17","10968","5119","&#9776;","elianto","#3366ff99"," "," ","1","+10","[1697]","1","0","1","","","","","","","",""
"pit-trial","30","421417","0.0-2.0-8.2-0.2","battery-v0.2","","""event"",""trial"",""time""
""blur"",""1"",""7498""
""focus"",""1"",""7502""
""blur"",""1"",""7506""
""fullscreenenter"",""1"",""7531""
""focus"",""1"",""7800""
","""event"",""trial"",""time""
""blur"",""1"",""7498""
""blur"",""1"",""7506""
","""event"",""trial"",""time""
""focus"",""1"",""7502""
""focus"",""1"",""7800""
","""event"",""trial"",""time""
""fullscreenenter"",""1"",""7531""
","
","","","589","","","17","10968","5119","&#9776;","elianto","#3366ff99"," "," ","1","+10","[1440]","1","0","1","","","","","","","",""
"pit-trial","31","424866","0.0-2.0-8.2-1.2","battery-v0.2","","""event"",""trial"",""time""
""blur"",""1"",""7498""
""focus"",""1"",""7502""
""blur"",""1"",""7506""
""fullscreenenter"",""1"",""7531""
""focus"",""1"",""7800""
","""event"",""trial"",""time""
""blur"",""1"",""7498""
""blur"",""1"",""7506""
","""event"",""trial"",""time""
""focus"",""1"",""7502""
""focus"",""1"",""7800""
","""event"",""trial"",""time""
""fullscreenenter"",""1"",""7531""
","
","","","585","","","17","10968","5119","&#9776;","elianto","#3366ff99"," "," ","1","+10","[1436]","1","0","1","","","","","","","",""
"pit-trial","32","428317","0.0-2.0-8.2-2.2","battery-v0.2","","""event"",""trial"",""time""
""blur"",""1"",""7498""
""focus"",""1"",""7502""
""blur"",""1"",""7506""
""fullscreenenter"",""1"",""7531""
""focus"",""1"",""7800""
","""event"",""trial"",""time""
""blur"",""1"",""7498""
""blur"",""1"",""7506""
","""event"",""trial"",""time""
""focus"",""1"",""7502""
""focus"",""1"",""7800""
","""event"",""trial"",""time""
""fullscreenenter"",""1"",""7531""
","
","","","593","","","17","10968","5119","&#9776;","elianto","#3366ff99"," "," ","1","+10","[1443]","1","0","1","","","","","","","",""
"pit-trial","33","432129","0.0-2.0-8.2-3.2","battery-v0.2","","""event"",""trial"",""time""
""blur"",""1"",""7498""
""focus"",""1"",""7502""
""blur"",""1"",""7506""
""fullscreenenter"",""1"",""7531""
""focus"",""1"",""7800""
","""event"",""trial"",""time""
""blur"",""1"",""7498""
""blur"",""1"",""7506""
","""event"",""trial"",""time""
""focus"",""1"",""7502""
""focus"",""1"",""7800""
","""event"",""trial"",""time""
""fullscreenenter"",""1"",""7531""
","
","","","948","","","17","10968","5119","&#9776;","elianto","#3366ff99"," "," ","1","0","[1799]","1","0","1","","","","","","","",""
"pit-trial","34","436993","0.0-2.0-8.2-4.2","battery-v0.2","","""event"",""trial"",""time""
""blur"",""1"",""7498""
""focus"",""1"",""7502""
""blur"",""1"",""7506""
""fullscreenenter"",""1"",""7531""
""focus"",""1"",""7800""
","""event"",""trial"",""time""
""blur"",""1"",""7498""
""blur"",""1"",""7506""
","""event"",""trial"",""time""
""focus"",""1"",""7502""
""focus"",""1"",""7800""
","""event"",""trial"",""time""
""fullscreenenter"",""1"",""7531""
","
","","","-1","","","17","10968","5119","&#9776;","elianto","#3366ff99"," ","-1","0","0","[3040]","1","0","1","","","","","","","",""
"call-function","35","437006","0.0-2.0-9.0","battery-v0.2","","""event"",""trial"",""time""
""blur"",""1"",""7498""
""focus"",""1"",""7502""
""blur"",""1"",""7506""
""fullscreenenter"",""1"",""7531""
""focus"",""1"",""7800""
","""event"",""trial"",""time""
""blur"",""1"",""7498""
""blur"",""1"",""7506""
","""event"",""trial"",""time""
""focus"",""1"",""7502""
""focus"",""1"",""7800""
","""event"",""trial"",""time""
""fullscreenenter"",""1"",""7531""
","
","","","","","","","","","","","","","","","","","","","","","","","","","","",""
"pit-instructions","36","480390","0.0-2.0-10.0","battery-v0.2","","""event"",""trial"",""time""
""blur"",""1"",""7498""
""focus"",""1"",""7502""
""blur"",""1"",""7506""
""fullscreenenter"",""1"",""7531""
""focus"",""1"",""7800""
","""event"",""trial"",""time""
""blur"",""1"",""7498""
""blur"",""1"",""7506""
","""event"",""trial"",""time""
""focus"",""1"",""7502""
""focus"",""1"",""7800""
","""event"",""trial"",""time""
""fullscreenenter"",""1"",""7531""
","
","","[{""page_index"":0,""viewing_time"":7092},{""page_index"":1,""viewing_time"":7605},{""page_index"":2,""viewing_time"":9006},{""page_index"":3,""viewing_time"":9858},{""page_index"":4,""viewing_time"":9819}]","43381","","","","","","","","","","","","","","","","","","","","","","","",""
"pit-trial","37","485256","0.0-2.0-11.0-0.0","battery-v0.2","","""event"",""trial"",""time""
""blur"",""1"",""7498""
""focus"",""1"",""7502""
""blur"",""1"",""7506""
""fullscreenenter"",""1"",""7531""
""focus"",""1"",""7800""
","""event"",""trial"",""time""
""blur"",""1"",""7498""
""blur"",""1"",""7506""
","""event"",""trial"",""time""
""focus"",""1"",""7502""
""focus"",""1"",""7800""
","""event"",""trial"",""time""
""fullscreenenter"",""1"",""7531""
","
","","","-1","","","17","10968","5119","&#9761;","elianto","#3366ff99","-1","-1","1","+10","[]","0","0","2","","","","","","","",""
"pit-trial","38","490121","0.0-2.0-11.0-1.0","battery-v0.2","","""event"",""trial"",""time""
""blur"",""1"",""7498""
""focus"",""1"",""7502""
""blur"",""1"",""7506""
""fullscreenenter"",""1"",""7531""
""focus"",""1"",""7800""
","""event"",""trial"",""time""
""blur"",""1"",""7498""
""blur"",""1"",""7506""
","""event"",""trial"",""time""
""focus"",""1"",""7502""
""focus"",""1"",""7800""
","""event"",""trial"",""time""
""fullscreenenter"",""1"",""7531""
","
","","","-1","","","17","10968","5119","&#9761;","elianto","#3366ff99","-1","-1","1","+10","[]","0","0","2","","","","","","","",""
"pit-trial","39","493707","0.0-2.0-11.0-2.0","battery-v0.2","","""event"",""trial"",""time""
""blur"",""1"",""7498""
""focus"",""1"",""7502""
""blur"",""1"",""7506""
""fullscreenenter"",""1"",""7531""
""focus"",""1"",""7800""
","""event"",""trial"",""time""
""blur"",""1"",""7498""
""blur"",""1"",""7506""
","""event"",""trial"",""time""
""focus"",""1"",""7502""
""focus"",""1"",""7800""
","""event"",""trial"",""time""
""fullscreenenter"",""1"",""7531""
","
","","","730","","","17","10968","5119","&#9761;","elianto","#3366ff99","-1"," ","0","0","[260,1581]","2","0","2","","","","","","","",""
"pit-trial","40","497165","0.0-2.0-11.0-3.0","battery-v0.2","","""event"",""trial"",""time""
""blur"",""1"",""7498""
""focus"",""1"",""7502""
""blur"",""1"",""7506""
""fullscreenenter"",""1"",""7531""
""focus"",""1"",""7800""
","""event"",""trial"",""time""
""blur"",""1"",""7498""
""blur"",""1"",""7506""
","""event"",""trial"",""time""
""focus"",""1"",""7502""
""focus"",""1"",""7800""
","""event"",""trial"",""time""
""fullscreenenter"",""1"",""7531""
","
","","","594","","","17","10968","5119","&#9761;","elianto","#3366ff99","-1"," ","0","+10","[1444]","1","0","2","","","","","","","",""
"pit-trial","41","500499","0.0-2.0-11.0-4.0","battery-v0.2","","""event"",""trial"",""time""
""blur"",""1"",""7498""
""focus"",""1"",""7502""
""blur"",""1"",""7506""
""fullscreenenter"",""1"",""7531""
""focus"",""1"",""7800""
","""event"",""trial"",""time""
""blur"",""1"",""7498""
""blur"",""1"",""7506""
","""event"",""trial"",""time""
""focus"",""1"",""7502""
""focus"",""1"",""7800""
","""event"",""trial"",""time""
""fullscreenenter"",""1"",""7531""
","
","","","468.0000000000582","","","17","10968","5119","&#9761;","elianto","#3366ff99","-1"," ","0","0","[1319.0000000000582]","1","0","2","","","","","","","",""
"pit-trial","42","504171","0.0-2.0-11.1-0.1","battery-v0.2","","""event"",""trial"",""time""
""blur"",""1"",""7498""
""focus"",""1"",""7502""
""blur"",""1"",""7506""
""fullscreenenter"",""1"",""7531""
""focus"",""1"",""7800""
","""event"",""trial"",""time""
""blur"",""1"",""7498""
""blur"",""1"",""7506""
","""event"",""trial"",""time""
""focus"",""1"",""7502""
""focus"",""1"",""7800""
","""event"",""trial"",""time""
""fullscreenenter"",""1"",""7531""
","
","","","800.0000000000582","","","17","10968","5119","&#9761;","elianto","#3366ff99","-1"," ","0","0","[1653.0000000000582]","1","0","2","","","","","","","",""
"pit-trial","43","507696","0.0-2.0-11.1-1.1","battery-v0.2","","""event"",""trial"",""time""
""blur"",""1"",""7498""
""focus"",""1"",""7502""
""blur"",""1"",""7506""
""fullscreenenter"",""1"",""7531""
""focus"",""1"",""7800""
","""event"",""trial"",""time""
""blur"",""1"",""7498""
""blur"",""1"",""7506""
","""event"",""trial"",""time""
""focus"",""1"",""7502""
""focus"",""1"",""7800""
","""event"",""trial"",""time""
""fullscreenenter"",""1"",""7531""
","
","","","659","","","17","10968","5119","&#9761;","elianto","#3366ff99","-1"," ","0","0","[1510]","1","0","2","","","","","","","",""
"pit-trial","44","511070","0.0-2.0-11.1-2.1","battery-v0.2","","""event"",""trial"",""time""
""blur"",""1"",""7498""
""focus"",""1"",""7502""
""blur"",""1"",""7506""
""fullscreenenter"",""1"",""7531""
""focus"",""1"",""7800""
","""event"",""trial"",""time""
""blur"",""1"",""7498""
""blur"",""1"",""7506""
","""event"",""trial"",""time""
""focus"",""1"",""7502""
""focus"",""1"",""7800""
","""event"",""trial"",""time""
""fullscreenenter"",""1"",""7531""
","
","","","509.0000000000582","","","17","10968","5119","&#9761;","elianto","#3366ff99","-1"," ","0","0","[1360.0000000000582]","1","0","2","","","","","","","",""
"pit-trial","45","514151","0.0-2.0-11.1-3.1","battery-v0.2","","""event"",""trial"",""time""
""blur"",""1"",""7498""
""focus"",""1"",""7502""
""blur"",""1"",""7506""
""fullscreenenter"",""1"",""7531""
""focus"",""1"",""7800""
","""event"",""trial"",""time""
""blur"",""1"",""7498""
""blur"",""1"",""7506""
","""event"",""trial"",""time""
""focus"",""1"",""7502""
""focus"",""1"",""7800""
","""event"",""trial"",""time""
""fullscreenenter"",""1"",""7531""
","
","","","218","","","17","10968","5119","&#9761;","elianto","#3366ff99","-1"," ","0","+10","[1068]","1","0","2","","","","","","","",""
"pit-trial","46","517320","0.0-2.0-11.1-4.1","battery-v0.2","","""event"",""trial"",""time""
""blur"",""1"",""7498""
""focus"",""1"",""7502""
""blur"",""1"",""7506""
""fullscreenenter"",""1"",""7531""
""focus"",""1"",""7800""
","""event"",""trial"",""time""
""blur"",""1"",""7498""
""blur"",""1"",""7506""
","""event"",""trial"",""time""
""focus"",""1"",""7502""
""focus"",""1"",""7800""
","""event"",""trial"",""time""
""fullscreenenter"",""1"",""7531""
","
","","","304.9999999999418","","","17","10968","5119","&#9761;","elianto","#3366ff99","-1"," ","0","0","[1155]","1","0","2","","","","","","","",""
"pit-trial","47","521000","0.0-2.0-11.2-0.2","battery-v0.2","","""event"",""trial"",""time""
""blur"",""1"",""7498""
""focus"",""1"",""7502""
""blur"",""1"",""7506""
""fullscreenenter"",""1"",""7531""
""focus"",""1"",""7800""
","""event"",""trial"",""time""
""blur"",""1"",""7498""
""blur"",""1"",""7506""
","""event"",""trial"",""time""
""focus"",""1"",""7502""
""focus"",""1"",""7800""
","""event"",""trial"",""time""
""fullscreenenter"",""1"",""7531""
","
","","","810.0000000000582","","","17","10968","5119","&#9761;","elianto","#3366ff99","-1"," ","0","0","[1661.0000000000582]","1","0","2","","","","","","","",""
"pit-trial","48","524026","0.0-2.0-11.2-1.2","battery-v0.2","","""event"",""trial"",""time""
""blur"",""1"",""7498""
""focus"",""1"",""7502""
""blur"",""1"",""7506""
""fullscreenenter"",""1"",""7531""
""focus"",""1"",""7800""
","""event"",""trial"",""time""
""blur"",""1"",""7498""
""blur"",""1"",""7506""
","""event"",""trial"",""time""
""focus"",""1"",""7502""
""focus"",""1"",""7800""
","""event"",""trial"",""time""
""fullscreenenter"",""1"",""7531""
","
","","","163","","","17","10968","5119","&#9761;","elianto","#3366ff99","-1"," ","0","0","[1014.0000000000582]","1","0","2","","","","","","","",""
"pit-trial","49","527041","0.0-2.0-11.2-2.2","battery-v0.2","","""event"",""trial"",""time""
""blur"",""1"",""7498""
""focus"",""1"",""7502""
""blur"",""1"",""7506""
""fullscreenenter"",""1"",""7531""
""focus"",""1"",""7800""
","""event"",""trial"",""time""
""blur"",""1"",""7498""
""blur"",""1"",""7506""
","""event"",""trial"",""time""
""focus"",""1"",""7502""
""focus"",""1"",""7800""
","""event"",""trial"",""time""
""fullscreenenter"",""1"",""7531""
","
","","","148","","","17","10968","5119","&#9761;","elianto","#3366ff99","-1"," ","0","0","[1003]","1","0","2","","","","","","","",""
"pit-trial","50","530293","0.0-2.0-11.2-3.2","battery-v0.2","","""event"",""trial"",""time""
""blur"",""1"",""7498""
""focus"",""1"",""7502""
""blur"",""1"",""7506""
""fullscreenenter"",""1"",""7531""
""focus"",""1"",""7800""
","""event"",""trial"",""time""
""blur"",""1"",""7498""
""blur"",""1"",""7506""
","""event"",""trial"",""time""
""focus"",""1"",""7502""
""focus"",""1"",""7800""
","""event"",""trial"",""time""
""fullscreenenter"",""1"",""7531""
","
","","","381","","","17","10968","5119","&#9761;","elianto","#3366ff99","-1"," ","0","+10","[1235]","1","0","2","","","","","","","",""
"pit-trial","51","533414","0.0-2.0-11.2-4.2","battery-v0.2","","""event"",""trial"",""time""
""blur"",""1"",""7498""
""focus"",""1"",""7502""
""blur"",""1"",""7506""
""fullscreenenter"",""1"",""7531""
""focus"",""1"",""7800""
","""event"",""trial"",""time""
""blur"",""1"",""7498""
""blur"",""1"",""7506""
","""event"",""trial"",""time""
""focus"",""1"",""7502""
""focus"",""1"",""7800""
","""event"",""trial"",""time""
""fullscreenenter"",""1"",""7531""
","
","","","255","","","17","10968","5119","&#9761;","elianto","#3366ff99","-1"," ","0","0","[1108]","1","0","2","","","","","","","",""
"pit-trial","52","536718","0.0-2.0-11.3-0.3","battery-v0.2","","""event"",""trial"",""time""
""blur"",""1"",""7498""
""focus"",""1"",""7502""
""blur"",""1"",""7506""
""fullscreenenter"",""1"",""7531""
""focus"",""1"",""7800""
","""event"",""trial"",""time""
""blur"",""1"",""7498""
""blur"",""1"",""7506""
","""event"",""trial"",""time""
""focus"",""1"",""7502""
""focus"",""1"",""7800""
","""event"",""trial"",""time""
""fullscreenenter"",""1"",""7531""
","
","","","438","","","17","10968","5119","&#9761;","elianto","#3366ff99","-1"," ","0","0","[746,1289]","2","0","2","","","","","","","",""
"pit-trial","53","539846","0.0-2.0-11.3-1.3","battery-v0.2","","""event"",""trial"",""time""
""blur"",""1"",""7498""
""focus"",""1"",""7502""
""blur"",""1"",""7506""
""fullscreenenter"",""1"",""7531""
""focus"",""1"",""7800""
","""event"",""trial"",""time""
""blur"",""1"",""7498""
""blur"",""1"",""7506""
","""event"",""trial"",""time""
""focus"",""1"",""7502""
""focus"",""1"",""7800""
","""event"",""trial"",""time""
""fullscreenenter"",""1"",""7531""
","
","","","264","","","17","10968","5119","&#9761;","elianto","#3366ff99","-1"," ","0","0","[1115]","1","0","2","","","","","","","",""
"pit-trial","54","543243","0.0-2.0-11.3-2.3","battery-v0.2","","""event"",""trial"",""time""
""blur"",""1"",""7498""
""focus"",""1"",""7502""
""blur"",""1"",""7506""
""fullscreenenter"",""1"",""7531""
""focus"",""1"",""7800""
","""event"",""trial"",""time""
""blur"",""1"",""7498""
""blur"",""1"",""7506""
","""event"",""trial"",""time""
""focus"",""1"",""7502""
""focus"",""1"",""7800""
","""event"",""trial"",""time""
""fullscreenenter"",""1"",""7531""
","
","","","535","","","17","10968","5119","&#9761;","elianto","#3366ff99","-1"," ","0","0","[1385]","1","0","2","","","","","","","",""
"pit-trial","55","546313","0.0-2.0-11.3-3.3","battery-v0.2","","""event"",""trial"",""time""
""blur"",""1"",""7498""
""focus"",""1"",""7502""
""blur"",""1"",""7506""
""fullscreenenter"",""1"",""7531""
""focus"",""1"",""7800""
","""event"",""trial"",""time""
""blur"",""1"",""7498""
""blur"",""1"",""7506""
","""event"",""trial"",""time""
""focus"",""1"",""7502""
""focus"",""1"",""7800""
","""event"",""trial"",""time""
""fullscreenenter"",""1"",""7531""
","
","","","202","","","17","10968","5119","&#9761;","elianto","#3366ff99","-1"," ","0","+10","[1056]","1","0","2","","","","","","","",""
"pit-trial","56","549527","0.0-2.0-11.3-4.3","battery-v0.2","","""event"",""trial"",""time""
""blur"",""1"",""7498""
""focus"",""1"",""7502""
""blur"",""1"",""7506""
""fullscreenenter"",""1"",""7531""
""focus"",""1"",""7800""
","""event"",""trial"",""time""
""blur"",""1"",""7498""
""blur"",""1"",""7506""
","""event"",""trial"",""time""
""focus"",""1"",""7502""
""focus"",""1"",""7800""
","""event"",""trial"",""time""
""fullscreenenter"",""1"",""7531""
","
","","","352","","","17","10968","5119","&#9761;","elianto","#3366ff99","-1"," ","0","0","[1203]","1","0","2","","","","","","","",""
"call-function","57","549537","0.0-2.0-12.0","battery-v0.2","","""event"",""trial"",""time""
""blur"",""1"",""7498""
""focus"",""1"",""7502""
""blur"",""1"",""7506""
""fullscreenenter"",""1"",""7531""
""focus"",""1"",""7800""
""fullscreenexit"",""58"",""585335""
","""event"",""trial"",""time""
""blur"",""1"",""7498""
""blur"",""1"",""7506""
","""event"",""trial"",""time""
""focus"",""1"",""7502""
""focus"",""1"",""7800""
","""event"",""trial"",""time""
""fullscreenenter"",""1"",""7531""
","""event"",""trial"",""time""
""fullscreenexit"",""58"",""585335""
","","","","","","","","","","","","","","","","","","","","","","","","","","",""
"pit-instructions","58","589205","0.0-2.0-13.0","battery-v0.2","","""event"",""trial"",""time""
""blur"",""1"",""7498""
""focus"",""1"",""7502""
""blur"",""1"",""7506""
""fullscreenenter"",""1"",""7531""
""focus"",""1"",""7800""
""fullscreenexit"",""58"",""585335""
","""event"",""trial"",""time""
""blur"",""1"",""7498""
""blur"",""1"",""7506""
","""event"",""trial"",""time""
""focus"",""1"",""7502""
""focus"",""1"",""7800""
","""event"",""trial"",""time""
""fullscreenenter"",""1"",""7531""
","""event"",""trial"",""time""
""fullscreenexit"",""58"",""585335""
","","[{""page_index"":0,""viewing_time"":7821},{""page_index"":1,""viewing_time"":7314},{""page_index"":2,""viewing_time"":5024},{""page_index"":3,""viewing_time"":12887},{""page_index"":4,""viewing_time"":6621}]","39667","","","","","","","","","","","","","","","","","","","","","","","",""
"pit-trial","59","592719","0.0-2.0-14.0-0.0","battery-v0.2","","""event"",""trial"",""time""
""blur"",""1"",""7498""
""focus"",""1"",""7502""
""blur"",""1"",""7506""
""fullscreenenter"",""1"",""7531""
""focus"",""1"",""7800""
""fullscreenexit"",""58"",""585335""
","""event"",""trial"",""time""
""blur"",""1"",""7498""
""blur"",""1"",""7506""
","""event"",""trial"",""time""
""focus"",""1"",""7502""
""focus"",""1"",""7800""
","""event"",""trial"",""time""
""fullscreenenter"",""1"",""7531""
","""event"",""trial"",""time""
""fullscreenexit"",""58"",""585335""
","","","656","","","17","10968","5119","&#9826;","elianto","#f73b6a7A","-1"," ","0","-10","[1507]","1","0","3","","","","","","","",""
"pit-trial","60","597582","0.0-2.0-14.0-1.0","battery-v0.2","","""event"",""trial"",""time""
""blur"",""1"",""7498""
""focus"",""1"",""7502""
""blur"",""1"",""7506""
""fullscreenenter"",""1"",""7531""
""focus"",""1"",""7800""
""fullscreenexit"",""58"",""585335""
","""event"",""trial"",""time""
""blur"",""1"",""7498""
""blur"",""1"",""7506""
","""event"",""trial"",""time""
""focus"",""1"",""7502""
""focus"",""1"",""7800""
","""event"",""trial"",""time""
""fullscreenenter"",""1"",""7531""
","""event"",""trial"",""time""
""fullscreenexit"",""58"",""585335""
","","","-1","","","17","10968","5119","&#9826;","elianto","#f73b6a7A","-1","-1","1","0","[]","0","0","3","","","","","","","",""
"pit-trial","61","602133","0.0-2.0-14.0-2.0","battery-v0.2","","""event"",""trial"",""time""
""blur"",""1"",""7498""
""focus"",""1"",""7502""
""blur"",""1"",""7506""
""fullscreenenter"",""1"",""7531""
""focus"",""1"",""7800""
""fullscreenexit"",""58"",""585335""
","""event"",""trial"",""time""
""blur"",""1"",""7498""
""blur"",""1"",""7506""
","""event"",""trial"",""time""
""focus"",""1"",""7502""
""focus"",""1"",""7800""
","""event"",""trial"",""time""
""fullscreenenter"",""1"",""7531""
","""event"",""trial"",""time""
""fullscreenexit"",""58"",""585335""
","","","1689","","","17","10968","5119","&#9826;","elianto","#f73b6a7A","-1"," ","0","-10","[2539]","1","0","3","","","","","","","",""
"pit-trial","62","606996","0.0-2.0-14.0-3.0","battery-v0.2","","""event"",""trial"",""time""
""blur"",""1"",""7498""
""focus"",""1"",""7502""
""blur"",""1"",""7506""
""fullscreenenter"",""1"",""7531""
""focus"",""1"",""7800""
""fullscreenexit"",""58"",""585335""
","""event"",""trial"",""time""
""blur"",""1"",""7498""
""blur"",""1"",""7506""
","""event"",""trial"",""time""
""focus"",""1"",""7502""
""focus"",""1"",""7800""
","""event"",""trial"",""time""
""fullscreenenter"",""1"",""7531""
","""event"",""trial"",""time""
""fullscreenexit"",""58"",""585335""
","","","-1","","","17","10968","5119","&#9826;","elianto","#f73b6a7A","-1","-1","1","-10","[]","0","0","3","","","","","","","",""
"pit-trial","63","611859","0.0-2.0-14.0-4.0","battery-v0.2","","""event"",""trial"",""time""
""blur"",""1"",""7498""
""focus"",""1"",""7502""
""blur"",""1"",""7506""
""fullscreenenter"",""1"",""7531""
""focus"",""1"",""7800""
""fullscreenexit"",""58"",""585335""
","""event"",""trial"",""time""
""blur"",""1"",""7498""
""blur"",""1"",""7506""
","""event"",""trial"",""time""
""focus"",""1"",""7502""
""focus"",""1"",""7800""
","""event"",""trial"",""time""
""fullscreenenter"",""1"",""7531""
","""event"",""trial"",""time""
""fullscreenexit"",""58"",""585335""
","","","-1","","","17","10968","5119","&#9826;","elianto","#f73b6a7A","-1","-1","1","0","[]","0","0","3","","","","","","","",""
"pit-trial","64","616725","0.0-2.0-14.1-0.1","battery-v0.2","","""event"",""trial"",""time""
""blur"",""1"",""7498""
""focus"",""1"",""7502""
""blur"",""1"",""7506""
""fullscreenenter"",""1"",""7531""
""focus"",""1"",""7800""
""fullscreenexit"",""58"",""585335""
","""event"",""trial"",""time""
""blur"",""1"",""7498""
""blur"",""1"",""7506""
","""event"",""trial"",""time""
""focus"",""1"",""7502""
""focus"",""1"",""7800""
","""event"",""trial"",""time""
""fullscreenenter"",""1"",""7531""
","""event"",""trial"",""time""
""fullscreenexit"",""58"",""585335""
","","","-1","","","17","10968","5119","&#9826;","elianto","#f73b6a7A","-1","-1","1","0","[]","0","0","3","","","","","","","",""
"pit-trial","65","621588","0.0-2.0-14.1-1.1","battery-v0.2","","""event"",""trial"",""time""
""blur"",""1"",""7498""
""focus"",""1"",""7502""
""blur"",""1"",""7506""
""fullscreenenter"",""1"",""7531""
""focus"",""1"",""7800""
""fullscreenexit"",""58"",""585335""
","""event"",""trial"",""time""
""blur"",""1"",""7498""
""blur"",""1"",""7506""
","""event"",""trial"",""time""
""focus"",""1"",""7502""
""focus"",""1"",""7800""
","""event"",""trial"",""time""
""fullscreenenter"",""1"",""7531""
","""event"",""trial"",""time""
""fullscreenexit"",""58"",""585335""
","","","-1","","","17","10968","5119","&#9826;","elianto","#f73b6a7A","-1","-1","1","0","[]","0","0","3","","","","","","","",""
"pit-trial","66","626453","0.0-2.0-14.1-2.1","battery-v0.2","","""event"",""trial"",""time""
""blur"",""1"",""7498""
""focus"",""1"",""7502""
""blur"",""1"",""7506""
""fullscreenenter"",""1"",""7531""
""focus"",""1"",""7800""
""fullscreenexit"",""58"",""585335""
","""event"",""trial"",""time""
""blur"",""1"",""7498""
""blur"",""1"",""7506""
","""event"",""trial"",""time""
""focus"",""1"",""7502""
""focus"",""1"",""7800""
","""event"",""trial"",""time""
""fullscreenenter"",""1"",""7531""
","""event"",""trial"",""time""
""fullscreenexit"",""58"",""585335""
","","","-1","","","17","10968","5119","&#9826;","elianto","#f73b6a7A","-1","-1","1","0","[]","0","0","3","","","","","","","",""
"pit-trial","67","631319","0.0-2.0-14.1-3.1","battery-v0.2","","""event"",""trial"",""time""
""blur"",""1"",""7498""
""focus"",""1"",""7502""
""blur"",""1"",""7506""
""fullscreenenter"",""1"",""7531""
""focus"",""1"",""7800""
""fullscreenexit"",""58"",""585335""
","""event"",""trial"",""time""
""blur"",""1"",""7498""
""blur"",""1"",""7506""
","""event"",""trial"",""time""
""focus"",""1"",""7502""
""focus"",""1"",""7800""
","""event"",""trial"",""time""
""fullscreenenter"",""1"",""7531""
","""event"",""trial"",""time""
""fullscreenexit"",""58"",""585335""
","","","-1","","","17","10968","5119","&#9826;","elianto","#f73b6a7A","-1","-1","1","-10","[]","0","0","3","","","","","","","",""
"pit-trial","68","636182","0.0-2.0-14.1-4.1","battery-v0.2","","""event"",""trial"",""time""
""blur"",""1"",""7498""
""focus"",""1"",""7502""
""blur"",""1"",""7506""
""fullscreenenter"",""1"",""7531""
""focus"",""1"",""7800""
""fullscreenexit"",""58"",""585335""
","""event"",""trial"",""time""
""blur"",""1"",""7498""
""blur"",""1"",""7506""
","""event"",""trial"",""time""
""focus"",""1"",""7502""
""focus"",""1"",""7800""
","""event"",""trial"",""time""
""fullscreenenter"",""1"",""7531""
","""event"",""trial"",""time""
""fullscreenexit"",""58"",""585335""
","","","-1","","","17","10968","5119","&#9826;","elianto","#f73b6a7A","-1","-1","1","0","[]","0","0","3","","","","","","","",""
"pit-trial","69","641054","0.0-2.0-14.2-0.2","battery-v0.2","","""event"",""trial"",""time""
""blur"",""1"",""7498""
""focus"",""1"",""7502""
""blur"",""1"",""7506""
""fullscreenenter"",""1"",""7531""
""focus"",""1"",""7800""
""fullscreenexit"",""58"",""585335""
","""event"",""trial"",""time""
""blur"",""1"",""7498""
""blur"",""1"",""7506""
","""event"",""trial"",""time""
""focus"",""1"",""7502""
""focus"",""1"",""7800""
","""event"",""trial"",""time""
""fullscreenenter"",""1"",""7531""
","""event"",""trial"",""time""
""fullscreenexit"",""58"",""585335""
","","","-1","","","17","10968","5119","&#9826;","elianto","#f73b6a7A","-1","-1","1","0","[]","0","0","3","","","","","","","",""
"pit-trial","70","645919","0.0-2.0-14.2-1.2","battery-v0.2","","""event"",""trial"",""time""
""blur"",""1"",""7498""
""focus"",""1"",""7502""
""blur"",""1"",""7506""
""fullscreenenter"",""1"",""7531""
""focus"",""1"",""7800""
""fullscreenexit"",""58"",""585335""
","""event"",""trial"",""time""
""blur"",""1"",""7498""
""blur"",""1"",""7506""
","""event"",""trial"",""time""
""focus"",""1"",""7502""
""focus"",""1"",""7800""
","""event"",""trial"",""time""
""fullscreenenter"",""1"",""7531""
","""event"",""trial"",""time""
""fullscreenexit"",""58"",""585335""
","","","-1","","","17","10968","5119","&#9826;","elianto","#f73b6a7A","-1","-1","1","0","[]","0","0","3","","","","","","","",""
"pit-trial","71","650783","0.0-2.0-14.2-2.2","battery-v0.2","","""event"",""trial"",""time""
""blur"",""1"",""7498""
""focus"",""1"",""7502""
""blur"",""1"",""7506""
""fullscreenenter"",""1"",""7531""
""focus"",""1"",""7800""
""fullscreenexit"",""58"",""585335""
","""event"",""trial"",""time""
""blur"",""1"",""7498""
""blur"",""1"",""7506""
","""event"",""trial"",""time""
""focus"",""1"",""7502""
""focus"",""1"",""7800""
","""event"",""trial"",""time""
""fullscreenenter"",""1"",""7531""
","""event"",""trial"",""time""
""fullscreenexit"",""58"",""585335""
","","","-1","","","17","10968","5119","&#9826;","elianto","#f73b6a7A","-1","-1","1","0","[]","0","0","3","","","","","","","",""
"pit-trial","72","655646","0.0-2.0-14.2-3.2","battery-v0.2","","""event"",""trial"",""time""
""blur"",""1"",""7498""
""focus"",""1"",""7502""
""blur"",""1"",""7506""
""fullscreenenter"",""1"",""7531""
""focus"",""1"",""7800""
""fullscreenexit"",""58"",""585335""
","""event"",""trial"",""time""
""blur"",""1"",""7498""
""blur"",""1"",""7506""
","""event"",""trial"",""time""
""focus"",""1"",""7502""
""focus"",""1"",""7800""
","""event"",""trial"",""time""
""fullscreenenter"",""1"",""7531""
","""event"",""trial"",""time""
""fullscreenexit"",""58"",""585335""
","","","-1","","","17","10968","5119","&#9826;","elianto","#f73b6a7A","-1","-1","1","-10","[]","0","0","3","","","","","","","",""
"pit-trial","73","660505","0.0-2.0-14.2-4.2","battery-v0.2","","""event"",""trial"",""time""
""blur"",""1"",""7498""
""focus"",""1"",""7502""
""blur"",""1"",""7506""
""fullscreenenter"",""1"",""7531""
""focus"",""1"",""7800""
""fullscreenexit"",""58"",""585335""
","""event"",""trial"",""time""
""blur"",""1"",""7498""
""blur"",""1"",""7506""
","""event"",""trial"",""time""
""focus"",""1"",""7502""
""focus"",""1"",""7800""
","""event"",""trial"",""time""
""fullscreenenter"",""1"",""7531""
","""event"",""trial"",""time""
""fullscreenexit"",""58"",""585335""
","","","-1","","","17","10968","5119","&#9826;","elianto","#f73b6a7A","-1","-1","1","0","[]","0","0","3","","","","","","","",""
"pit-trial","74","665370","0.0-2.0-14.3-0.3","battery-v0.2","","""event"",""trial"",""time""
""blur"",""1"",""7498""
""focus"",""1"",""7502""
""blur"",""1"",""7506""
""fullscreenenter"",""1"",""7531""
""focus"",""1"",""7800""
""fullscreenexit"",""58"",""585335""
","""event"",""trial"",""time""
""blur"",""1"",""7498""
""blur"",""1"",""7506""
","""event"",""trial"",""time""
""focus"",""1"",""7502""
""focus"",""1"",""7800""
","""event"",""trial"",""time""
""fullscreenenter"",""1"",""7531""
","""event"",""trial"",""time""
""fullscreenexit"",""58"",""585335""
","","","-1","","","17","10968","5119","&#9826;","elianto","#f73b6a7A","-1","-1","1","0","[]","0","0","3","","","","","","","",""
"pit-trial","75","670237","0.0-2.0-14.3-1.3","battery-v0.2","","""event"",""trial"",""time""
""blur"",""1"",""7498""
""focus"",""1"",""7502""
""blur"",""1"",""7506""
""fullscreenenter"",""1"",""7531""
""focus"",""1"",""7800""
""fullscreenexit"",""58"",""585335""
","""event"",""trial"",""time""
""blur"",""1"",""7498""
""blur"",""1"",""7506""
","""event"",""trial"",""time""
""focus"",""1"",""7502""
""focus"",""1"",""7800""
","""event"",""trial"",""time""
""fullscreenenter"",""1"",""7531""
","""event"",""trial"",""time""
""fullscreenexit"",""58"",""585335""
","","","-1","","","17","10968","5119","&#9826;","elianto","#f73b6a7A","-1","-1","1","0","[]","0","0","3","","","","","","","",""
"pit-trial","76","675100","0.0-2.0-14.3-2.3","battery-v0.2","","""event"",""trial"",""time""
""blur"",""1"",""7498""
""focus"",""1"",""7502""
""blur"",""1"",""7506""
""fullscreenenter"",""1"",""7531""
""focus"",""1"",""7800""
""fullscreenexit"",""58"",""585335""
","""event"",""trial"",""time""
""blur"",""1"",""7498""
""blur"",""1"",""7506""
","""event"",""trial"",""time""
""focus"",""1"",""7502""
""focus"",""1"",""7800""
","""event"",""trial"",""time""
""fullscreenenter"",""1"",""7531""
","""event"",""trial"",""time""
""fullscreenexit"",""58"",""585335""
","","","-1","","","17","10968","5119","&#9826;","elianto","#f73b6a7A","-1","-1","1","0","[]","0","0","3","","","","","","","",""
"pit-trial","77","679963","0.0-2.0-14.3-3.3","battery-v0.2","","""event"",""trial"",""time""
""blur"",""1"",""7498""
""focus"",""1"",""7502""
""blur"",""1"",""7506""
""fullscreenenter"",""1"",""7531""
""focus"",""1"",""7800""
""fullscreenexit"",""58"",""585335""
","""event"",""trial"",""time""
""blur"",""1"",""7498""
""blur"",""1"",""7506""
","""event"",""trial"",""time""
""focus"",""1"",""7502""
""focus"",""1"",""7800""
","""event"",""trial"",""time""
""fullscreenenter"",""1"",""7531""
","""event"",""trial"",""time""
""fullscreenexit"",""58"",""585335""
","","","-1","","","17","10968","5119","&#9826;","elianto","#f73b6a7A","-1","-1","1","-10","[]","0","0","3","","","","","","","",""
"pit-trial","78","684827","0.0-2.0-14.3-4.3","battery-v0.2","","""event"",""trial"",""time""
""blur"",""1"",""7498""
""focus"",""1"",""7502""
""blur"",""1"",""7506""
""fullscreenenter"",""1"",""7531""
""focus"",""1"",""7800""
""fullscreenexit"",""58"",""585335""
","""event"",""trial"",""time""
""blur"",""1"",""7498""
""blur"",""1"",""7506""
","""event"",""trial"",""time""
""focus"",""1"",""7502""
""focus"",""1"",""7800""
","""event"",""trial"",""time""
""fullscreenenter"",""1"",""7531""
","""event"",""trial"",""time""
""fullscreenexit"",""58"",""585335""
","","","-1","","","17","10968","5119","&#9826;","elianto","#f73b6a7A","-1","-1","1","0","[]","0","0","3","","","","","","","",""
"call-function","79","684836","0.0-2.0-15.0","battery-v0.2","","""event"",""trial"",""time""
""blur"",""1"",""7498""
""focus"",""1"",""7502""
""blur"",""1"",""7506""
""fullscreenenter"",""1"",""7531""
""focus"",""1"",""7800""
""fullscreenexit"",""58"",""585335""
","""event"",""trial"",""time""
""blur"",""1"",""7498""
""blur"",""1"",""7506""
","""event"",""trial"",""time""
""focus"",""1"",""7502""
""focus"",""1"",""7800""
","""event"",""trial"",""time""
""fullscreenenter"",""1"",""7531""
","""event"",""trial"",""time""
""fullscreenexit"",""58"",""585335""
","","","","","","","","","","","","","","","","","","","","","","","","","","",""
"pit-instructions","80","724225","0.0-2.0-16.0","battery-v0.2","","""event"",""trial"",""time""
""blur"",""1"",""7498""
""focus"",""1"",""7502""
""blur"",""1"",""7506""
""fullscreenenter"",""1"",""7531""
""focus"",""1"",""7800""
""fullscreenexit"",""58"",""585335""
","""event"",""trial"",""time""
""blur"",""1"",""7498""
""blur"",""1"",""7506""
","""event"",""trial"",""time""
""focus"",""1"",""7502""
""focus"",""1"",""7800""
","""event"",""trial"",""time""
""fullscreenenter"",""1"",""7531""
","""event"",""trial"",""time""
""fullscreenexit"",""58"",""585335""
","","[{""page_index"":0,""viewing_time"":12760.999999999884},{""page_index"":1,""viewing_time"":10552},{""page_index"":2,""viewing_time"":9057},{""page_index"":3,""viewing_time"":7017}]","39387.99999999988","","","","","","","","","","","","","","","","","","","","","","","",""
"pit-trial","81","729087","0.0-2.0-17.0-0.0","battery-v0.2","","""event"",""trial"",""time""
""blur"",""1"",""7498""
""focus"",""1"",""7502""
""blur"",""1"",""7506""
""fullscreenenter"",""1"",""7531""
""focus"",""1"",""7800""
""fullscreenexit"",""58"",""585335""
","""event"",""trial"",""time""
""blur"",""1"",""7498""
""blur"",""1"",""7506""
","""event"",""trial"",""time""
""focus"",""1"",""7502""
""focus"",""1"",""7800""
","""event"",""trial"",""time""
""fullscreenenter"",""1"",""7531""
","""event"",""trial"",""time""
""fullscreenexit"",""58"",""585335""
","","","-1","","","17","10968","5119","&#9789;","elianto","#f73b6a7A"," ","-1","0","-10","[]","0","0","4","","","","","","","",""
"pit-trial","82","733949","0.0-2.0-17.0-1.0","battery-v0.2","","""event"",""trial"",""time""
""blur"",""1"",""7498""
""focus"",""1"",""7502""
""blur"",""1"",""7506""
""fullscreenenter"",""1"",""7531""
""focus"",""1"",""7800""
""fullscreenexit"",""58"",""585335""
","""event"",""trial"",""time""
""blur"",""1"",""7498""
""blur"",""1"",""7506""
","""event"",""trial"",""time""
""focus"",""1"",""7502""
""focus"",""1"",""7800""
","""event"",""trial"",""time""
""fullscreenenter"",""1"",""7531""
","""event"",""trial"",""time""
""fullscreenexit"",""58"",""585335""
","","","-1","","","17","10968","5119","&#9789;","elianto","#f73b6a7A"," ","-1","0","-10","[]","0","0","4","","","","","","","",""
"pit-trial","83","738813","0.0-2.0-17.0-2.0","battery-v0.2","","""event"",""trial"",""time""
""blur"",""1"",""7498""
""focus"",""1"",""7502""
""blur"",""1"",""7506""
""fullscreenenter"",""1"",""7531""
""focus"",""1"",""7800""
""fullscreenexit"",""58"",""585335""
","""event"",""trial"",""time""
""blur"",""1"",""7498""
""blur"",""1"",""7506""
","""event"",""trial"",""time""
""focus"",""1"",""7502""
""focus"",""1"",""7800""
","""event"",""trial"",""time""
""fullscreenenter"",""1"",""7531""
","""event"",""trial"",""time""
""fullscreenexit"",""58"",""585335""
","","","-1","","","17","10968","5119","&#9789;","elianto","#f73b6a7A"," ","-1","0","-10","[]","0","0","4","","","","","","","",""
"pit-trial","84","742378","0.0-2.0-17.0-3.0","battery-v0.2","","""event"",""trial"",""time""
""blur"",""1"",""7498""
""focus"",""1"",""7502""
""blur"",""1"",""7506""
""fullscreenenter"",""1"",""7531""
""focus"",""1"",""7800""
""fullscreenexit"",""58"",""585335""
","""event"",""trial"",""time""
""blur"",""1"",""7498""
""blur"",""1"",""7506""
","""event"",""trial"",""time""
""focus"",""1"",""7502""
""focus"",""1"",""7800""
","""event"",""trial"",""time""
""fullscreenenter"",""1"",""7531""
","""event"",""trial"",""time""
""fullscreenexit"",""58"",""585335""
","","","701.9999999998836","","","17","10968","5119","&#9789;","elianto","#f73b6a7A"," "," ","1","-10","[1552.9999999998836,2481.9999999998836]","2","0","4","","","","","","","",""
"pit-trial","85","745751","0.0-2.0-17.0-4.0","battery-v0.2","","""event"",""trial"",""time""
""blur"",""1"",""7498""
""focus"",""1"",""7502""
""blur"",""1"",""7506""
""fullscreenenter"",""1"",""7531""
""focus"",""1"",""7800""
""fullscreenexit"",""58"",""585335""
","""event"",""trial"",""time""
""blur"",""1"",""7498""
""blur"",""1"",""7506""
","""event"",""trial"",""time""
""focus"",""1"",""7502""
""focus"",""1"",""7800""
","""event"",""trial"",""time""
""fullscreenenter"",""1"",""7531""
","""event"",""trial"",""time""
""fullscreenexit"",""58"",""585335""
","","","508","","","17","10968","5119","&#9789;","elianto","#f73b6a7A"," "," ","1","0","[1359]","1","0","4","","","","","","","",""
"pit-trial","86","749206","0.0-2.0-17.1-0.1","battery-v0.2","","""event"",""trial"",""time""
""blur"",""1"",""7498""
""focus"",""1"",""7502""
""blur"",""1"",""7506""
""fullscreenenter"",""1"",""7531""
""focus"",""1"",""7800""
""fullscreenexit"",""58"",""585335""
","""event"",""trial"",""time""
""blur"",""1"",""7498""
""blur"",""1"",""7506""
","""event"",""trial"",""time""
""focus"",""1"",""7502""
""focus"",""1"",""7800""
","""event"",""trial"",""time""
""fullscreenenter"",""1"",""7531""
","""event"",""trial"",""time""
""fullscreenexit"",""58"",""585335""
","","","587","","","17","10968","5119","&#9789;","elianto","#f73b6a7A"," "," ","1","0","[1440]","1","0","4","","","","","","","",""
"pit-trial","87","752486","0.0-2.0-17.1-1.1","battery-v0.2","","""event"",""trial"",""time""
""blur"",""1"",""7498""
""focus"",""1"",""7502""
""blur"",""1"",""7506""
""fullscreenenter"",""1"",""7531""
""focus"",""1"",""7800""
""fullscreenexit"",""58"",""585335""
","""event"",""trial"",""time""
""blur"",""1"",""7498""
""blur"",""1"",""7506""
","""event"",""trial"",""time""
""focus"",""1"",""7502""
""focus"",""1"",""7800""
","""event"",""trial"",""time""
""fullscreenenter"",""1"",""7531""
","""event"",""trial"",""time""
""fullscreenexit"",""58"",""585335""
","","","416","","","17","10968","5119","&#9789;","elianto","#f73b6a7A"," "," ","1","0","[1267.9999999998836]","1","0","4","","","","","","","",""
"pit-trial","88","755766","0.0-2.0-17.1-2.1","battery-v0.2","","""event"",""trial"",""time""
""blur"",""1"",""7498""
""focus"",""1"",""7502""
""blur"",""1"",""7506""
""fullscreenenter"",""1"",""7531""
""focus"",""1"",""7800""
""fullscreenexit"",""58"",""585335""
","""event"",""trial"",""time""
""blur"",""1"",""7498""
""blur"",""1"",""7506""
","""event"",""trial"",""time""
""focus"",""1"",""7502""
""focus"",""1"",""7800""
","""event"",""trial"",""time""
""fullscreenenter"",""1"",""7531""
","""event"",""trial"",""time""
""fullscreenexit"",""58"",""585335""
","","","414","","","17","10968","5119","&#9789;","elianto","#f73b6a7A"," "," ","1","0","[1268]","1","0","4","","","","","","","",""
"pit-trial","89","758806","0.0-2.0-17.1-3.1","battery-v0.2","","""event"",""trial"",""time""
""blur"",""1"",""7498""
""focus"",""1"",""7502""
""blur"",""1"",""7506""
""fullscreenenter"",""1"",""7531""
""focus"",""1"",""7800""
""fullscreenexit"",""58"",""585335""
","""event"",""trial"",""time""
""blur"",""1"",""7498""
""blur"",""1"",""7506""
","""event"",""trial"",""time""
""focus"",""1"",""7502""
""focus"",""1"",""7800""
","""event"",""trial"",""time""
""fullscreenenter"",""1"",""7531""
","""event"",""trial"",""time""
""fullscreenexit"",""58"",""585335""
","","","182","","","17","10968","5119","&#9789;","elianto","#f73b6a7A"," "," ","1","-10","[1033]","1","0","4","","","","","","","",""
"pit-trial","90","762222","0.0-2.0-17.1-4.1","battery-v0.2","","""event"",""trial"",""time""
""blur"",""1"",""7498""
""focus"",""1"",""7502""
""blur"",""1"",""7506""
""fullscreenenter"",""1"",""7531""
""focus"",""1"",""7800""
""fullscreenexit"",""58"",""585335""
","""event"",""trial"",""time""
""blur"",""1"",""7498""
""blur"",""1"",""7506""
","""event"",""trial"",""time""
""focus"",""1"",""7502""
""focus"",""1"",""7800""
","""event"",""trial"",""time""
""fullscreenenter"",""1"",""7531""
","""event"",""trial"",""time""
""fullscreenexit"",""58"",""585335""
","","","554","","","17","10968","5119","&#9789;","elianto","#f73b6a7A"," "," ","1","0","[1404]","1","0","4","","","","","","","",""
"pit-trial","91","766032","0.0-2.0-17.2-0.2","battery-v0.2","","""event"",""trial"",""time""
""blur"",""1"",""7498""
""focus"",""1"",""7502""
""blur"",""1"",""7506""
""fullscreenenter"",""1"",""7531""
""focus"",""1"",""7800""
""fullscreenexit"",""58"",""585335""
","""event"",""trial"",""time""
""blur"",""1"",""7498""
""blur"",""1"",""7506""
","""event"",""trial"",""time""
""focus"",""1"",""7502""
""focus"",""1"",""7800""
","""event"",""trial"",""time""
""fullscreenenter"",""1"",""7531""
","""event"",""trial"",""time""
""fullscreenexit"",""58"",""585335""
","","","946","","","17","10968","5119","&#9789;","elianto","#f73b6a7A"," "," ","1","0","[1798]","1","0","4","","","","","","","",""
"pit-trial","92","769331","0.0-2.0-17.2-1.2","battery-v0.2","","""event"",""trial"",""time""
""blur"",""1"",""7498""
""focus"",""1"",""7502""
""blur"",""1"",""7506""
""fullscreenenter"",""1"",""7531""
""focus"",""1"",""7800""
""fullscreenexit"",""58"",""585335""
","""event"",""trial"",""time""
""blur"",""1"",""7498""
""blur"",""1"",""7506""
","""event"",""trial"",""time""
""focus"",""1"",""7502""
""focus"",""1"",""7800""
","""event"",""trial"",""time""
""fullscreenenter"",""1"",""7531""
","""event"",""trial"",""time""
""fullscreenexit"",""58"",""585335""
","","","435","","","17","10968","5119","&#9789;","elianto","#f73b6a7A"," "," ","1","0","[1286]","1","0","4","","","","","","","",""
"pit-trial","93","773547","0.0-2.0-17.2-2.2","battery-v0.2","","""event"",""trial"",""time""
""blur"",""1"",""7498""
""focus"",""1"",""7502""
""blur"",""1"",""7506""
""fullscreenenter"",""1"",""7531""
""focus"",""1"",""7800""
""fullscreenexit"",""58"",""585335""
","""event"",""trial"",""time""
""blur"",""1"",""7498""
""blur"",""1"",""7506""
","""event"",""trial"",""time""
""focus"",""1"",""7502""
""focus"",""1"",""7800""
","""event"",""trial"",""time""
""fullscreenenter"",""1"",""7531""
","""event"",""trial"",""time""
""fullscreenexit"",""58"",""585335""
","","","1350","","","17","10968","5119","&#9789;","elianto","#f73b6a7A"," "," ","1","0","[2201]","1","0","4","","","","","","","",""
"pit-trial","94","776801","0.0-2.0-17.2-3.2","battery-v0.2","","""event"",""trial"",""time""
""blur"",""1"",""7498""
""focus"",""1"",""7502""
""blur"",""1"",""7506""
""fullscreenenter"",""1"",""7531""
""focus"",""1"",""7800""
""fullscreenexit"",""58"",""585335""
","""event"",""trial"",""time""
""blur"",""1"",""7498""
""blur"",""1"",""7506""
","""event"",""trial"",""time""
""focus"",""1"",""7502""
""focus"",""1"",""7800""
","""event"",""trial"",""time""
""fullscreenenter"",""1"",""7531""
","""event"",""trial"",""time""
""fullscreenexit"",""58"",""585335""
","","","390.9999999998836","","","17","10968","5119","&#9789;","elianto","#f73b6a7A"," "," ","1","-10","[1242]","1","0","4","","","","","","","",""
"pit-trial","95","780898","0.0-2.0-17.2-4.2","battery-v0.2","","""event"",""trial"",""time""
""blur"",""1"",""7498""
""focus"",""1"",""7502""
""blur"",""1"",""7506""
""fullscreenenter"",""1"",""7531""
""focus"",""1"",""7800""
""fullscreenexit"",""58"",""585335""
","""event"",""trial"",""time""
""blur"",""1"",""7498""
""blur"",""1"",""7506""
","""event"",""trial"",""time""
""focus"",""1"",""7502""
""focus"",""1"",""7800""
","""event"",""trial"",""time""
""fullscreenenter"",""1"",""7531""
","""event"",""trial"",""time""
""fullscreenexit"",""58"",""585335""
","","","1225","","","17","10968","5119","&#9789;","elianto","#f73b6a7A"," "," ","1","0","[2079]","1","0","4","","","","","","","",""
"pit-trial","96","784919","0.0-2.0-17.3-0.3","battery-v0.2","","""event"",""trial"",""time""
""blur"",""1"",""7498""
""focus"",""1"",""7502""
""blur"",""1"",""7506""
""fullscreenenter"",""1"",""7531""
""focus"",""1"",""7800""
""fullscreenexit"",""58"",""585335""
","""event"",""trial"",""time""
""blur"",""1"",""7498""
""blur"",""1"",""7506""
","""event"",""trial"",""time""
""focus"",""1"",""7502""
""focus"",""1"",""7800""
","""event"",""trial"",""time""
""fullscreenenter"",""1"",""7531""
","""event"",""trial"",""time""
""fullscreenexit"",""58"",""585335""
","","","1157.9999999998836","","","17","10968","5119","&#9789;","elianto","#f73b6a7A"," "," ","1","0","[2008]","1","0","4","","","","","","","",""
"pit-trial","97","789782","0.0-2.0-17.3-1.3","battery-v0.2","","""event"",""trial"",""time""
""blur"",""1"",""7498""
""focus"",""1"",""7502""
""blur"",""1"",""7506""
""fullscreenenter"",""1"",""7531""
""focus"",""1"",""7800""
""fullscreenexit"",""58"",""585335""
","""event"",""trial"",""time""
""blur"",""1"",""7498""
""blur"",""1"",""7506""
","""event"",""trial"",""time""
""focus"",""1"",""7502""
""focus"",""1"",""7800""
","""event"",""trial"",""time""
""fullscreenenter"",""1"",""7531""
","""event"",""trial"",""time""
""fullscreenexit"",""58"",""585335""
","","","-1","","","17","10968","5119","&#9789;","elianto","#f73b6a7A"," ","-1","0","-10","[2957]","1","0","4","","","","","","","",""
"pit-trial","98","793515","0.0-2.0-17.3-2.3","battery-v0.2","","""event"",""trial"",""time""
""blur"",""1"",""7498""
""focus"",""1"",""7502""
""blur"",""1"",""7506""
""fullscreenenter"",""1"",""7531""
""focus"",""1"",""7800""
""fullscreenexit"",""58"",""585335""
","""event"",""trial"",""time""
""blur"",""1"",""7498""
""blur"",""1"",""7506""
","""event"",""trial"",""time""
""focus"",""1"",""7502""
""focus"",""1"",""7800""
","""event"",""trial"",""time""
""fullscreenenter"",""1"",""7531""
","""event"",""trial"",""time""
""fullscreenexit"",""58"",""585335""
","","","870","","","17","10968","5119","&#9789;","elianto","#f73b6a7A"," "," ","1","0","[1721]","1","0","4","","","","","","","",""
"pit-trial","99","797441","0.0-2.0-17.3-3.3","battery-v0.2","","""event"",""trial"",""time""
""blur"",""1"",""7498""
""focus"",""1"",""7502""
""blur"",""1"",""7506""
""fullscreenenter"",""1"",""7531""
""focus"",""1"",""7800""
""fullscreenexit"",""58"",""585335""
","""event"",""trial"",""time""
""blur"",""1"",""7498""
""blur"",""1"",""7506""
","""event"",""trial"",""time""
""focus"",""1"",""7502""
""focus"",""1"",""7800""
","""event"",""trial"",""time""
""fullscreenenter"",""1"",""7531""
","""event"",""trial"",""time""
""fullscreenexit"",""58"",""585335""
","","","1063","","","17","10968","5119","&#9789;","elianto","#f73b6a7A"," "," ","1","-10","[1914]","1","0","4","","","","","","","",""
"pit-trial","100","801482","0.0-2.0-17.3-4.3","battery-v0.2","","""event"",""trial"",""time""
""blur"",""1"",""7498""
""focus"",""1"",""7502""
""blur"",""1"",""7506""
""fullscreenenter"",""1"",""7531""
""focus"",""1"",""7800""
""fullscreenexit"",""58"",""585335""
","""event"",""trial"",""time""
""blur"",""1"",""7498""
""blur"",""1"",""7506""
","""event"",""trial"",""time""
""focus"",""1"",""7502""
""focus"",""1"",""7800""
","""event"",""trial"",""time""
""fullscreenenter"",""1"",""7531""
","""event"",""trial"",""time""
""fullscreenexit"",""58"",""585335""
","","","1178","","","17","10968","5119","&#9789;","elianto","#f73b6a7A"," "," ","1","0","[2029]","1","0","4","","","","","","","",""
"call-function","101","801491","0.0-2.0-18.0","battery-v0.2","","""event"",""trial"",""time""
""blur"",""1"",""7498""
""focus"",""1"",""7502""
""blur"",""1"",""7506""
""fullscreenenter"",""1"",""7531""
""focus"",""1"",""7800""
""fullscreenexit"",""58"",""585335""
","""event"",""trial"",""time""
""blur"",""1"",""7498""
""blur"",""1"",""7506""
","""event"",""trial"",""time""
""focus"",""1"",""7502""
""focus"",""1"",""7800""
","""event"",""trial"",""time""
""fullscreenenter"",""1"",""7531""
","""event"",""trial"",""time""
""fullscreenexit"",""58"",""585335""
","","","","","","","","","","","","","","","","","","","","","","","","","","",""
"pit-instructions","102","892071","0.0-2.0-19.0","battery-v0.2","","""event"",""trial"",""time""
""blur"",""1"",""7498""
""focus"",""1"",""7502""
""blur"",""1"",""7506""
""fullscreenenter"",""1"",""7531""
""focus"",""1"",""7800""
""fullscreenexit"",""58"",""585335""
","""event"",""trial"",""time""
""blur"",""1"",""7498""
""blur"",""1"",""7506""
","""event"",""trial"",""time""
""focus"",""1"",""7502""
""focus"",""1"",""7800""
","""event"",""trial"",""time""
""fullscreenenter"",""1"",""7531""
","""event"",""trial"",""time""
""fullscreenexit"",""58"",""585335""
","","[{""page_index"":0,""viewing_time"":9388},{""page_index"":1,""viewing_time"":7794},{""page_index"":2,""viewing_time"":15204},{""page_index"":3,""viewing_time"":8711.000000000116},{""page_index"":4,""viewing_time"":10317},{""page_index"":5,""viewing_time"":12292.999999999884},{""page_index"":6,""viewing_time"":11199},{""page_index"":7,""viewing_time"":9422.000000000116},{""page_index"":8,""viewing_time"":6250.999999999884}]","90581","","","","","","","","","","","","","","","","","","","","","","","",""
"pit-comprehension","103","897445","0.0-2.0-20.0-0.0","battery-v0.2","","""event"",""trial"",""time""
""blur"",""1"",""7498""
""focus"",""1"",""7502""
""blur"",""1"",""7506""
""fullscreenenter"",""1"",""7531""
""focus"",""1"",""7800""
""fullscreenexit"",""58"",""585335""
","""event"",""trial"",""time""
""blur"",""1"",""7498""
""blur"",""1"",""7506""
","""event"",""trial"",""time""
""focus"",""1"",""7502""
""focus"",""1"",""7800""
","""event"",""trial"",""time""
""fullscreenenter"",""1"",""7531""
","""event"",""trial"",""time""
""fullscreenexit"",""58"",""585335""
","","","5356","[""SPACE""]","0","17","10968","5119","","","","","","","","","","","","","","","","","","",""
"pit-instructions","104","901656","0.0-2.0-20.0-1.0","battery-v0.2","","""event"",""trial"",""time""
""blur"",""1"",""7498""
""focus"",""1"",""7502""
""blur"",""1"",""7506""
""fullscreenenter"",""1"",""7531""
""focus"",""1"",""7800""
""fullscreenexit"",""58"",""585335""
","""event"",""trial"",""time""
""blur"",""1"",""7498""
""blur"",""1"",""7506""
","""event"",""trial"",""time""
""focus"",""1"",""7502""
""focus"",""1"",""7800""
","""event"",""trial"",""time""
""fullscreenenter"",""1"",""7531""
","""event"",""trial"",""time""
""fullscreenexit"",""58"",""585335""
","","[{""page_index"":0,""viewing_time"":4119.000000000116}]","4120","","","","","","","","","","","","","","","","","","","","","","","",""
"pit-comprehension","105","910986","0.0-2.0-21.0-0.0","battery-v0.2","","""event"",""trial"",""time""
""blur"",""1"",""7498""
""focus"",""1"",""7502""
""blur"",""1"",""7506""
""fullscreenenter"",""1"",""7531""
""focus"",""1"",""7800""
""fullscreenexit"",""58"",""585335""
","""event"",""trial"",""time""
""blur"",""1"",""7498""
""blur"",""1"",""7506""
","""event"",""trial"",""time""
""focus"",""1"",""7502""
""focus"",""1"",""7800""
","""event"",""trial"",""time""
""fullscreenenter"",""1"",""7531""
","""event"",""trial"",""time""
""fullscreenexit"",""58"",""585335""
","","","9318","[""10""]","0","17","10968","5119","","","","","","","","","","","","","","","","","","",""
"pit-instructions","106","916213","0.0-2.0-21.0-1.0","battery-v0.2","","""event"",""trial"",""time""
""blur"",""1"",""7498""
""focus"",""1"",""7502""
""blur"",""1"",""7506""
""fullscreenenter"",""1"",""7531""
""focus"",""1"",""7800""
""fullscreenexit"",""58"",""585335""
","""event"",""trial"",""time""
""blur"",""1"",""7498""
""blur"",""1"",""7506""
","""event"",""trial"",""time""
""focus"",""1"",""7502""
""focus"",""1"",""7800""
","""event"",""trial"",""time""
""fullscreenenter"",""1"",""7531""
","""event"",""trial"",""time""
""fullscreenexit"",""58"",""585335""
","","[{""page_index"":0,""viewing_time"":5159.999999999884}]","5159.999999999884","","","","","","","","","","","","","","","","","","","","","","","",""
"pit-comprehension","107","922813","0.0-2.0-22.0-0.0","battery-v0.2","","""event"",""trial"",""time""
""blur"",""1"",""7498""
""focus"",""1"",""7502""
""blur"",""1"",""7506""
""fullscreenenter"",""1"",""7531""
""focus"",""1"",""7800""
""fullscreenexit"",""58"",""585335""
","""event"",""trial"",""time""
""blur"",""1"",""7498""
""blur"",""1"",""7506""
","""event"",""trial"",""time""
""focus"",""1"",""7502""
""focus"",""1"",""7800""
","""event"",""trial"",""time""
""fullscreenenter"",""1"",""7531""
","""event"",""trial"",""time""
""fullscreenexit"",""58"",""585335""
","","","6580","[""-10""]","1","17","10968","5119","","","","","","","","","","","","","","","","","","",""
"pit-instructions","108","925798","0.0-2.0-22.0-1.0","battery-v0.2","","""event"",""trial"",""time""
""blur"",""1"",""7498""
""focus"",""1"",""7502""
""blur"",""1"",""7506""
""fullscreenenter"",""1"",""7531""
""focus"",""1"",""7800""
""fullscreenexit"",""58"",""585335""
","""event"",""trial"",""time""
""blur"",""1"",""7498""
""blur"",""1"",""7506""
","""event"",""trial"",""time""
""focus"",""1"",""7502""
""focus"",""1"",""7800""
","""event"",""trial"",""time""
""fullscreenenter"",""1"",""7531""
","""event"",""trial"",""time""
""fullscreenexit"",""58"",""585335""
","","[{""page_index"":0,""viewing_time"":2916.9999999998836}]","2917.9999999998836","","","","","","","","","","","","","","","","","","","","","","","",""
"pit-instructions","109","931709","0.0-2.0-22.0-2.0-0.0","battery-v0.2","","""event"",""trial"",""time""
""blur"",""1"",""7498""
""focus"",""1"",""7502""
""blur"",""1"",""7506""
""fullscreenenter"",""1"",""7531""
""focus"",""1"",""7800""
""fullscreenexit"",""58"",""585335""
","""event"",""trial"",""time""
""blur"",""1"",""7498""
""blur"",""1"",""7506""
","""event"",""trial"",""time""
""focus"",""1"",""7502""
""focus"",""1"",""7800""
","""event"",""trial"",""time""
""fullscreenenter"",""1"",""7531""
","""event"",""trial"",""time""
""fullscreenexit"",""58"",""585335""
","","[{""page_index"":0,""viewing_time"":5896}]","5897","","","","","","","","","","","","","","","","","","","","","","","",""
"pit-comprehension","110","938662","0.0-2.0-22.1-0.1","battery-v0.2","","""event"",""trial"",""time""
""blur"",""1"",""7498""
""focus"",""1"",""7502""
""blur"",""1"",""7506""
""fullscreenenter"",""1"",""7531""
""focus"",""1"",""7800""
""fullscreenexit"",""58"",""585335""
","""event"",""trial"",""time""
""blur"",""1"",""7498""
""blur"",""1"",""7506""
","""event"",""trial"",""time""
""focus"",""1"",""7502""
""focus"",""1"",""7800""
","""event"",""trial"",""time""
""fullscreenenter"",""1"",""7531""
","""event"",""trial"",""time""
""fullscreenexit"",""58"",""585335""
","","","6943","[""10""]","1","17","10968","5119","","","","","","","","","","","","","","","","","","",""
"pit-instructions","111","941667","0.0-2.0-22.1-1.1","battery-v0.2","","""event"",""trial"",""time""
""blur"",""1"",""7498""
""focus"",""1"",""7502""
""blur"",""1"",""7506""
""fullscreenenter"",""1"",""7531""
""focus"",""1"",""7800""
""fullscreenexit"",""58"",""585335""
","""event"",""trial"",""time""
""blur"",""1"",""7498""
""blur"",""1"",""7506""
","""event"",""trial"",""time""
""focus"",""1"",""7502""
""focus"",""1"",""7800""
","""event"",""trial"",""time""
""fullscreenenter"",""1"",""7531""
","""event"",""trial"",""time""
""fullscreenexit"",""58"",""585335""
","","[{""page_index"":0,""viewing_time"":2932}]","2933","","","","","","","","","","","","","","","","","","","","","","","",""
"pit-instructions","112","943025","0.0-2.0-22.1-2.1-0.1","battery-v0.2","","""event"",""trial"",""time""
""blur"",""1"",""7498""
""focus"",""1"",""7502""
""blur"",""1"",""7506""
""fullscreenenter"",""1"",""7531""
""focus"",""1"",""7800""
""fullscreenexit"",""58"",""585335""
","""event"",""trial"",""time""
""blur"",""1"",""7498""
""blur"",""1"",""7506""
","""event"",""trial"",""time""
""focus"",""1"",""7502""
""focus"",""1"",""7800""
","""event"",""trial"",""time""
""fullscreenenter"",""1"",""7531""
","""event"",""trial"",""time""
""fullscreenexit"",""58"",""585335""
","","[{""page_index"":0,""viewing_time"":1344}]","1344","","","","","","","","","","","","","","","","","","","","","","","",""
"pit-comprehension","113","949953","0.0-2.0-22.2-0.2","battery-v0.2","","""event"",""trial"",""time""
""blur"",""1"",""7498""
""focus"",""1"",""7502""
""blur"",""1"",""7506""
""fullscreenenter"",""1"",""7531""
""focus"",""1"",""7800""
""fullscreenexit"",""58"",""585335""
","""event"",""trial"",""time""
""blur"",""1"",""7498""
""blur"",""1"",""7506""
","""event"",""trial"",""time""
""focus"",""1"",""7502""
""focus"",""1"",""7800""
","""event"",""trial"",""time""
""fullscreenenter"",""1"",""7531""
","""event"",""trial"",""time""
""fullscreenexit"",""58"",""585335""
","","","6916.000000000116","[""-10""]","1","17","10968","5119","","","","","","","","","","","","","","","","","","",""
"pit-instructions","114","953410","0.0-2.0-22.2-1.2","battery-v0.2","","""event"",""trial"",""time""
""blur"",""1"",""7498""
""focus"",""1"",""7502""
""blur"",""1"",""7506""
""fullscreenenter"",""1"",""7531""
""focus"",""1"",""7800""
""fullscreenexit"",""58"",""585335""
","""event"",""trial"",""time""
""blur"",""1"",""7498""
""blur"",""1"",""7506""
","""event"",""trial"",""time""
""focus"",""1"",""7502""
""focus"",""1"",""7800""
","""event"",""trial"",""time""
""fullscreenenter"",""1"",""7531""
","""event"",""trial"",""time""
""fullscreenexit"",""58"",""585335""
","","[{""page_index"":0,""viewing_time"":3377.0000000001164}]","3378","","","","","","","","","","","","","","","","","","","","","","","",""
"pit-instructions","115","956138","0.0-2.0-22.2-2.2-0.2","battery-v0.2","","""event"",""trial"",""time""
""blur"",""1"",""7498""
""focus"",""1"",""7502""
""blur"",""1"",""7506""
""fullscreenenter"",""1"",""7531""
""focus"",""1"",""7800""
""fullscreenexit"",""58"",""585335""
","""event"",""trial"",""time""
""blur"",""1"",""7498""
""blur"",""1"",""7506""
","""event"",""trial"",""time""
""focus"",""1"",""7502""
""focus"",""1"",""7800""
","""event"",""trial"",""time""
""fullscreenenter"",""1"",""7531""
","""event"",""trial"",""time""
""fullscreenexit"",""58"",""585335""
","","[{""page_index"":0,""viewing_time"":2720}]","2721","","","","","","","","","","","","","","","","","","","","","","","",""
"pit-comprehension","116","963016","0.0-2.0-22.3-0.3","battery-v0.2","","""event"",""trial"",""time""
""blur"",""1"",""7498""
""focus"",""1"",""7502""
""blur"",""1"",""7506""
""fullscreenenter"",""1"",""7531""
""focus"",""1"",""7800""
""fullscreenexit"",""58"",""585335""
","""event"",""trial"",""time""
""blur"",""1"",""7498""
""blur"",""1"",""7506""
","""event"",""trial"",""time""
""focus"",""1"",""7502""
""focus"",""1"",""7800""
","""event"",""trial"",""time""
""fullscreenenter"",""1"",""7531""
","""event"",""trial"",""time""
""fullscreenexit"",""58"",""585335""
","","","6866","[""0""]","0","17","10968","5119","","","","","","","","","","","","","","","","","","",""
"pit-instructions","117","965767","0.0-2.0-22.3-1.3","battery-v0.2","","""event"",""trial"",""time""
""blur"",""1"",""7498""
""focus"",""1"",""7502""
""blur"",""1"",""7506""
""fullscreenenter"",""1"",""7531""
""focus"",""1"",""7800""
""fullscreenexit"",""58"",""585335""
","""event"",""trial"",""time""
""blur"",""1"",""7498""
""blur"",""1"",""7506""
","""event"",""trial"",""time""
""focus"",""1"",""7502""
""focus"",""1"",""7800""
","""event"",""trial"",""time""
""fullscreenenter"",""1"",""7531""
","""event"",""trial"",""time""
""fullscreenexit"",""58"",""585335""
","","[{""page_index"":0,""viewing_time"":2679.9999999998836}]","2680.9999999998836","","","","","","","","","","","","","","","","","","","","","","","",""
"pit-comprehension","118","974313","0.0-2.0-23.0-0.0","battery-v0.2","","""event"",""trial"",""time""
""blur"",""1"",""7498""
""focus"",""1"",""7502""
""blur"",""1"",""7506""
""fullscreenenter"",""1"",""7531""
""focus"",""1"",""7800""
""fullscreenexit"",""58"",""585335""
","""event"",""trial"",""time""
""blur"",""1"",""7498""
""blur"",""1"",""7506""
","""event"",""trial"",""time""
""focus"",""1"",""7502""
""focus"",""1"",""7800""
","""event"",""trial"",""time""
""fullscreenenter"",""1"",""7531""
","""event"",""trial"",""time""
""fullscreenexit"",""58"",""585335""
","","","8530","[""True""]","0","17","10968","5119","","","","","","","","","","","","","","","","","","",""
"pit-instructions","119","978035","0.0-2.0-23.0-1.0","battery-v0.2","","""event"",""trial"",""time""
""blur"",""1"",""7498""
""focus"",""1"",""7502""
""blur"",""1"",""7506""
""fullscreenenter"",""1"",""7531""
""focus"",""1"",""7800""
""fullscreenexit"",""58"",""585335""
","""event"",""trial"",""time""
""blur"",""1"",""7498""
""blur"",""1"",""7506""
","""event"",""trial"",""time""
""focus"",""1"",""7502""
""focus"",""1"",""7800""
","""event"",""trial"",""time""
""fullscreenenter"",""1"",""7531""
","""event"",""trial"",""time""
""fullscreenexit"",""58"",""585335""
","","[{""page_index"":0,""viewing_time"":3655.9999999998836}]","3655.9999999998836","","","","","","","","","","","","","","","","","","","","","","","",""
"pit-comprehension","120","988503","0.0-2.0-24.0-0.0","battery-v0.2","","""event"",""trial"",""time""
""blur"",""1"",""7498""
""focus"",""1"",""7502""
""blur"",""1"",""7506""
""fullscreenenter"",""1"",""7531""
""focus"",""1"",""7800""
""fullscreenexit"",""58"",""585335""
","""event"",""trial"",""time""
""blur"",""1"",""7498""
""blur"",""1"",""7506""
","""event"",""trial"",""time""
""focus"",""1"",""7502""
""focus"",""1"",""7800""
","""event"",""trial"",""time""
""fullscreenenter"",""1"",""7531""
","""event"",""trial"",""time""
""fullscreenexit"",""58"",""585335""
","","","10450","[""True""]","0","17","10968","5119","","","","","","","","","","","","","","","","","","",""
"pit-instructions","121","992852","0.0-2.0-24.0-1.0","battery-v0.2","","""event"",""trial"",""time""
""blur"",""1"",""7498""
""focus"",""1"",""7502""
""blur"",""1"",""7506""
""fullscreenenter"",""1"",""7531""
""focus"",""1"",""7800""
""fullscreenexit"",""58"",""585335""
","""event"",""trial"",""time""
""blur"",""1"",""7498""
""blur"",""1"",""7506""
","""event"",""trial"",""time""
""focus"",""1"",""7502""
""focus"",""1"",""7800""
","""event"",""trial"",""time""
""fullscreenenter"",""1"",""7531""
","""event"",""trial"",""time""
""fullscreenexit"",""58"",""585335""
","","[{""page_index"":0,""viewing_time"":4268}]","4269","","","","","","","","","","","","","","","","","","","","","","","",""
"pit-comprehension","122","999573","0.0-2.0-25.0-0.0","battery-v0.2","","""event"",""trial"",""time""
""blur"",""1"",""7498""
""focus"",""1"",""7502""
""blur"",""1"",""7506""
""fullscreenenter"",""1"",""7531""
""focus"",""1"",""7800""
""fullscreenexit"",""58"",""585335""
","""event"",""trial"",""time""
""blur"",""1"",""7498""
""blur"",""1"",""7506""
","""event"",""trial"",""time""
""focus"",""1"",""7502""
""focus"",""1"",""7800""
","""event"",""trial"",""time""
""fullscreenenter"",""1"",""7531""
","""event"",""trial"",""time""
""fullscreenexit"",""58"",""585335""
","","","6703","[""True""]","0","17","10968","5119","","","","","","","","","","","","","","","","","","",""
"pit-instructions","123","1004594","0.0-2.0-25.0-1.0","battery-v0.2","","""event"",""trial"",""time""
""blur"",""1"",""7498""
""focus"",""1"",""7502""
""blur"",""1"",""7506""
""fullscreenenter"",""1"",""7531""
""focus"",""1"",""7800""
""fullscreenexit"",""58"",""585335""
","""event"",""trial"",""time""
""blur"",""1"",""7498""
""blur"",""1"",""7506""
","""event"",""trial"",""time""
""focus"",""1"",""7502""
""focus"",""1"",""7800""
","""event"",""trial"",""time""
""fullscreenenter"",""1"",""7531""
","""event"",""trial"",""time""
""fullscreenexit"",""58"",""585335""
","","[{""page_index"":0,""viewing_time"":4939}]","4940","","","","","","","","","","","","","","","","","","","","","","","",""
"pit-comprehension","124","1009663","0.0-2.0-26.0-0.0","battery-v0.2","","""event"",""trial"",""time""
""blur"",""1"",""7498""
""focus"",""1"",""7502""
""blur"",""1"",""7506""
""fullscreenenter"",""1"",""7531""
""focus"",""1"",""7800""
""fullscreenexit"",""58"",""585335""
","""event"",""trial"",""time""
""blur"",""1"",""7498""
""blur"",""1"",""7506""
","""event"",""trial"",""time""
""focus"",""1"",""7502""
""focus"",""1"",""7800""
","""event"",""trial"",""time""
""fullscreenenter"",""1"",""7531""
","""event"",""trial"",""time""
""fullscreenexit"",""58"",""585335""
","","","5058.999999999884","[""False""]","0","17","10968","5119","","","","","","","","","","","","","","","","","","",""
"pit-instructions","125","1012937","0.0-2.0-26.0-1.0","battery-v0.2","","""event"",""trial"",""time""
""blur"",""1"",""7498""
""focus"",""1"",""7502""
""blur"",""1"",""7506""
""fullscreenenter"",""1"",""7531""
""focus"",""1"",""7800""
""fullscreenexit"",""58"",""585335""
","""event"",""trial"",""time""
""blur"",""1"",""7498""
""blur"",""1"",""7506""
","""event"",""trial"",""time""
""focus"",""1"",""7502""
""focus"",""1"",""7800""
","""event"",""trial"",""time""
""fullscreenenter"",""1"",""7531""
","""event"",""trial"",""time""
""fullscreenexit"",""58"",""585335""
","","[{""page_index"":0,""viewing_time"":3187.0000000001164}]","3188","","","","","","","","","","","","","","","","","","","","","","","",""
"pit-instructions","126","1032487","0.0-3.0","battery-v0.2","","""event"",""trial"",""time""
""blur"",""1"",""7498""
""focus"",""1"",""7502""
""blur"",""1"",""7506""
""fullscreenenter"",""1"",""7531""
""focus"",""1"",""7800""
""fullscreenexit"",""58"",""585335""
","""event"",""trial"",""time""
""blur"",""1"",""7498""
""blur"",""1"",""7506""
","""event"",""trial"",""time""
""focus"",""1"",""7502""
""focus"",""1"",""7800""
","""event"",""trial"",""time""
""fullscreenenter"",""1"",""7531""
","""event"",""trial"",""time""
""fullscreenexit"",""58"",""585335""
","","[{""page_index"":0,""viewing_time"":5763},{""page_index"":1,""viewing_time"":6435.000000000116},{""page_index"":2,""viewing_time"":7336}]","19535.000000000116","","","","","","","","","","","","","","","","","","","","","","","",""
"pit-trial","127","1036668","0.0-4.0","battery-v0.2","","""event"",""trial"",""time""
""blur"",""1"",""7498""
""focus"",""1"",""7502""
""blur"",""1"",""7506""
""fullscreenenter"",""1"",""7531""
""focus"",""1"",""7800""
""fullscreenexit"",""58"",""585335""
","""event"",""trial"",""time""
""blur"",""1"",""7498""
""blur"",""1"",""7506""
","""event"",""trial"",""time""
""focus"",""1"",""7502""
""focus"",""1"",""7800""
","""event"",""trial"",""time""
""fullscreenenter"",""1"",""7531""
","""event"",""trial"",""time""
""fullscreenexit"",""58"",""585335""
","","","1309","","","17","10968","5119","&#9728;","elianto","#f73b6a7A","-1"," ","0","-10","[2159.9999999998836]","1","1","","","10968","1","0","4","lose","no-go","0"
"pit-trial","128","1040253","0.0-5.0","battery-v0.2","","""event"",""trial"",""time""
""blur"",""1"",""7498""
""focus"",""1"",""7502""
""blur"",""1"",""7506""
""fullscreenenter"",""1"",""7531""
""focus"",""1"",""7800""
""fullscreenexit"",""58"",""585335""
","""event"",""trial"",""time""
""blur"",""1"",""7498""
""blur"",""1"",""7506""
","""event"",""trial"",""time""
""focus"",""1"",""7502""
""focus"",""1"",""7800""
","""event"",""trial"",""time""
""fullscreenenter"",""1"",""7531""
","""event"",""trial"",""time""
""fullscreenexit"",""58"",""585335""
","","","713.9999999998836","","","17","10968","5119","&#9752;","elianto","#f73b6a7A"," "," ","1","-10","[1565]","1","1","","","10968","2","3","3","lose","go","1"
"pit-trial","129","1043771","0.0-6.0","battery-v0.2","","""event"",""trial"",""time""
""blur"",""1"",""7498""
""focus"",""1"",""7502""
""blur"",""1"",""7506""
""fullscreenenter"",""1"",""7531""
""focus"",""1"",""7800""
""fullscreenexit"",""58"",""585335""
","""event"",""trial"",""time""
""blur"",""1"",""7498""
""blur"",""1"",""7506""
","""event"",""trial"",""time""
""focus"",""1"",""7502""
""focus"",""1"",""7800""
","""event"",""trial"",""time""
""fullscreenenter"",""1"",""7531""
","""event"",""trial"",""time""
""fullscreenexit"",""58"",""585335""
","","","647.9999999998836","","","17","10968","5119","&#9733;","elianto","#3366ff99","-1"," ","0","0","[1499]","1","1","","","10968","3","2","2","win","no-go","0"
"pit-trial","130","1047272","0.0-7.0","battery-v0.2","","""event"",""trial"",""time""
""blur"",""1"",""7498""
""focus"",""1"",""7502""
""blur"",""1"",""7506""
""fullscreenenter"",""1"",""7531""
""focus"",""1"",""7800""
""fullscreenexit"",""58"",""585335""
","""event"",""trial"",""time""
""blur"",""1"",""7498""
""blur"",""1"",""7506""
","""event"",""trial"",""time""
""focus"",""1"",""7502""
""focus"",""1"",""7800""
","""event"",""trial"",""time""
""fullscreenenter"",""1"",""7531""
","""event"",""trial"",""time""
""fullscreenexit"",""58"",""585335""
","","","632.0000000001164","","","17","10968","5119","&#9730;","elianto","#3366ff99"," "," ","1","+10","[1483]","1","1","","","10968","4","1","1","win","go","0"
"pit-trial","131","1052144","0.0-8.0","battery-v0.2","","""event"",""trial"",""time""
""blur"",""1"",""7498""
""focus"",""1"",""7502""
""blur"",""1"",""7506""
""fullscreenenter"",""1"",""7531""
""focus"",""1"",""7800""
""fullscreenexit"",""58"",""585335""
","""event"",""trial"",""time""
""blur"",""1"",""7498""
""blur"",""1"",""7506""
","""event"",""trial"",""time""
""focus"",""1"",""7502""
""focus"",""1"",""7800""
","""event"",""trial"",""time""
""fullscreenenter"",""1"",""7531""
","""event"",""trial"",""time""
""fullscreenexit"",""58"",""585335""
","","","-1","","","17","10968","5119","&#9728;","elianto","#f73b6a7A","-1","-1","1","0","[]","0","1","","","10968","5","0","4","lose","no-go","0"
"pit-trial","132","1056618","0.0-9.0","battery-v0.2","","""event"",""trial"",""time""
""blur"",""1"",""7498""
""focus"",""1"",""7502""
""blur"",""1"",""7506""
""fullscreenenter"",""1"",""7531""
""focus"",""1"",""7800""
""fullscreenexit"",""58"",""585335""
","""event"",""trial"",""time""
""blur"",""1"",""7498""
""blur"",""1"",""7506""
","""event"",""trial"",""time""
""focus"",""1"",""7502""
""focus"",""1"",""7800""
","""event"",""trial"",""time""
""fullscreenenter"",""1"",""7531""
","""event"",""trial"",""time""
""fullscreenexit"",""58"",""585335""
","","","1600","","","17","10968","5119","&#9733;","elianto","#3366ff99","-1"," ","0","0","[2450]","1","1","","","10968","6","2","2","win","no-go","0"
"pit-trial","133","1060173","0.0-10.0","battery-v0.2","","""event"",""trial"",""time""
""blur"",""1"",""7498""
""focus"",""1"",""7502""
""blur"",""1"",""7506""
""fullscreenenter"",""1"",""7531""
""focus"",""1"",""7800""
""fullscreenexit"",""58"",""585335""
","""event"",""trial"",""time""
""blur"",""1"",""7498""
""blur"",""1"",""7506""
","""event"",""trial"",""time""
""focus"",""1"",""7502""
""focus"",""1"",""7800""
","""event"",""trial"",""time""
""fullscreenenter"",""1"",""7531""
","""event"",""trial"",""time""
""fullscreenexit"",""58"",""585335""
","","","687","","","17","10968","5119","&#9752;","elianto","#f73b6a7A"," "," ","1","0","[1537]","1","1","","","10968","7","3","3","lose","go","0"
"pit-trial","134","1063884","0.0-11.0","battery-v0.2","","""event"",""trial"",""time""
""blur"",""1"",""7498""
""focus"",""1"",""7502""
""blur"",""1"",""7506""
""fullscreenenter"",""1"",""7531""
""focus"",""1"",""7800""
""fullscreenexit"",""58"",""585335""
","""event"",""trial"",""time""
""blur"",""1"",""7498""
""blur"",""1"",""7506""
","""event"",""trial"",""time""
""focus"",""1"",""7502""
""focus"",""1"",""7800""
","""event"",""trial"",""time""
""fullscreenenter"",""1"",""7531""
","""event"",""trial"",""time""
""fullscreenexit"",""58"",""585335""
","","","841","","","17","10968","5119","&#9730;","elianto","#3366ff99"," "," ","1","+10","[1692]","1","1","","","10968","8","1","1","win","go","0"
"pit-trial","135","1068754","0.0-12.0","battery-v0.2","","""event"",""trial"",""time""
""blur"",""1"",""7498""
""focus"",""1"",""7502""
""blur"",""1"",""7506""
""fullscreenenter"",""1"",""7531""
""focus"",""1"",""7800""
""fullscreenexit"",""58"",""585335""
","""event"",""trial"",""time""
""blur"",""1"",""7498""
""blur"",""1"",""7506""
","""event"",""trial"",""time""
""focus"",""1"",""7502""
""focus"",""1"",""7800""
","""event"",""trial"",""time""
""fullscreenenter"",""1"",""7531""
","""event"",""trial"",""time""
""fullscreenexit"",""58"",""585335""
","","","-1","","","17","10968","5119","&#9728;","elianto","#f73b6a7A","-1","-1","1","-10","[]","0","1","","","10968","9","0","4","lose","no-go","1"
"pit-trial","136","1073013","0.0-13.0","battery-v0.2","","""event"",""trial"",""time""
""blur"",""1"",""7498""
""focus"",""1"",""7502""
""blur"",""1"",""7506""
""fullscreenenter"",""1"",""7531""
""focus"",""1"",""7800""
""fullscreenexit"",""58"",""585335""
","""event"",""trial"",""time""
""blur"",""1"",""7498""
""blur"",""1"",""7506""
","""event"",""trial"",""time""
""focus"",""1"",""7502""
""focus"",""1"",""7800""
","""event"",""trial"",""time""
""fullscreenenter"",""1"",""7531""
","""event"",""trial"",""time""
""fullscreenexit"",""58"",""585335""
","","","1390.9999999997672","","","17","10968","5119","&#9752;","elianto","#f73b6a7A"," "," ","1","0","[2242]","1","1","","","10968","10","3","3","lose","go","0"
"pit-trial","137","1077334","0.0-14.0","battery-v0.2","","""event"",""trial"",""time""
""blur"",""1"",""7498""
""focus"",""1"",""7502""
""blur"",""1"",""7506""
""fullscreenenter"",""1"",""7531""
""focus"",""1"",""7800""
""fullscreenexit"",""58"",""585335""
","""event"",""trial"",""time""
""blur"",""1"",""7498""
""blur"",""1"",""7506""
","""event"",""trial"",""time""
""focus"",""1"",""7502""
""focus"",""1"",""7800""
","""event"",""trial"",""time""
""fullscreenenter"",""1"",""7531""
","""event"",""trial"",""time""
""fullscreenexit"",""58"",""585335""
","","","1447","","","17","10968","5119","&#9730;","elianto","#3366ff99"," "," ","1","+10","[2300]","1","1","","","10968","11","1","1","win","go","0"
"pit-trial","138","1081367","0.0-15.0","battery-v0.2","","""event"",""trial"",""time""
""blur"",""1"",""7498""
""focus"",""1"",""7502""
""blur"",""1"",""7506""
""fullscreenenter"",""1"",""7531""
""focus"",""1"",""7800""
""fullscreenexit"",""58"",""585335""
","""event"",""trial"",""time""
""blur"",""1"",""7498""
""blur"",""1"",""7506""
","""event"",""trial"",""time""
""focus"",""1"",""7502""
""focus"",""1"",""7800""
","""event"",""trial"",""time""
""fullscreenenter"",""1"",""7531""
","""event"",""trial"",""time""
""fullscreenexit"",""58"",""585335""
","","","1162","","","17","10968","5119","&#9733;","elianto","#3366ff99","-1"," ","0","0","[2013]","1","1","","","10968","12","2","2","win","no-go","0"
"pit-trial","139","1085297","0.0-16.0","battery-v0.2","","""event"",""trial"",""time""
""blur"",""1"",""7498""
""focus"",""1"",""7502""
""blur"",""1"",""7506""
""fullscreenenter"",""1"",""7531""
""focus"",""1"",""7800""
""fullscreenexit"",""58"",""585335""
","""event"",""trial"",""time""
""blur"",""1"",""7498""
""blur"",""1"",""7506""
","""event"",""trial"",""time""
""focus"",""1"",""7502""
""focus"",""1"",""7800""
","""event"",""trial"",""time""
""fullscreenenter"",""1"",""7531""
","""event"",""trial"",""time""
""fullscreenexit"",""58"",""585335""
","","","1061","","","17","10968","5119","&#9728;","elianto","#f73b6a7A","-1"," ","0","-10","[1912]","1","1","","","10968","13","0","4","lose","no-go","0"
"pit-trial","140","1088885","0.0-17.0","battery-v0.2","","""event"",""trial"",""time""
""blur"",""1"",""7498""
""focus"",""1"",""7502""
""blur"",""1"",""7506""
""fullscreenenter"",""1"",""7531""
""focus"",""1"",""7800""
""fullscreenexit"",""58"",""585335""
","""event"",""trial"",""time""
""blur"",""1"",""7498""
""blur"",""1"",""7506""
","""event"",""trial"",""time""
""focus"",""1"",""7502""
""focus"",""1"",""7800""
","""event"",""trial"",""time""
""fullscreenenter"",""1"",""7531""
","""event"",""trial"",""time""
""fullscreenexit"",""58"",""585335""
","","","715","","","17","10968","5119","&#9733;","elianto","#3366ff99","-1"," ","0","0","[1566]","1","1","","","10968","14","2","2","win","no-go","0"
"pit-trial","141","1092391","0.0-18.0","battery-v0.2","","""event"",""trial"",""time""
""blur"",""1"",""7498""
""focus"",""1"",""7502""
""blur"",""1"",""7506""
""fullscreenenter"",""1"",""7531""
""focus"",""1"",""7800""
""fullscreenexit"",""58"",""585335""
","""event"",""trial"",""time""
""blur"",""1"",""7498""
""blur"",""1"",""7506""
","""event"",""trial"",""time""
""focus"",""1"",""7502""
""focus"",""1"",""7800""
","""event"",""trial"",""time""
""fullscreenenter"",""1"",""7531""
","""event"",""trial"",""time""
""fullscreenexit"",""58"",""585335""
","","","635.0000000002328","","","17","10968","5119","&#9752;","elianto","#f73b6a7A"," "," ","1","0","[1486.0000000002328]","1","1","","","10968","15","3","3","lose","go","0"
"pit-trial","142","1095765","0.0-19.0","battery-v0.2","","""event"",""trial"",""time""
""blur"",""1"",""7498""
""focus"",""1"",""7502""
""blur"",""1"",""7506""
""fullscreenenter"",""1"",""7531""
""focus"",""1"",""7800""
""fullscreenexit"",""58"",""585335""
","""event"",""trial"",""time""
""blur"",""1"",""7498""
""blur"",""1"",""7506""
","""event"",""trial"",""time""
""focus"",""1"",""7502""
""focus"",""1"",""7800""
","""event"",""trial"",""time""
""fullscreenenter"",""1"",""7531""
","""event"",""trial"",""time""
""fullscreenexit"",""58"",""585335""
","","","505","","","17","10968","5119","&#9730;","elianto","#3366ff99"," "," ","1","+10","[1356]","1","1","","","10968","16","1","1","win","go","0"
"pit-trial","143","1098747","0.0-20.0","battery-v0.2","","""event"",""trial"",""time""
""blur"",""1"",""7498""
""focus"",""1"",""7502""
""blur"",""1"",""7506""
""fullscreenenter"",""1"",""7531""
""focus"",""1"",""7800""
""fullscreenexit"",""58"",""585335""
","""event"",""trial"",""time""
""blur"",""1"",""7498""
""blur"",""1"",""7506""
","""event"",""trial"",""time""
""focus"",""1"",""7502""
""focus"",""1"",""7800""
","""event"",""trial"",""time""
""fullscreenenter"",""1"",""7531""
","""event"",""trial"",""time""
""fullscreenexit"",""58"",""585335""
","","","117.00000000023283","","","17","10968","5119","&#9752;","elianto","#f73b6a7A"," "," ","1","0","[968.0000000002328]","1","1","","","10968","17","3","3","lose","go","0"
"pit-trial","144","1102696","0.0-21.0","battery-v0.2","","""event"",""trial"",""time""
""blur"",""1"",""7498""
