"trial_type","trial_index","time_elapsed","internal_node_id","task_version","subject_id","interactions","blur_events","focus_events","fullscreenenter_events","fullscreenexit_events","success","view_history","rt","responses","num_errors","age","subject","participantId","rune","rune_set","hex","correct","choice","accuracy","outcome","keys","total_keys","block","practice","value","sub","trial","stimulus","robot","valence","action","sham"
"pavlovia","0","16","0.0-0.0","battery-v0.2","","""event"",""trial"",""time""
""fullscreenenter"",""1"",""3219""
","
","
","""event"",""trial"",""time""
""fullscreenenter"",""1"",""3219""
","
","","","","","","","","","","","","","","","","","","","","","","","","","","",""
"fullscreen","1","4192","0.0-1.0","battery-v0.2","","""event"",""trial"",""time""
""fullscreenenter"",""1"",""3219""
","
","
","""event"",""trial"",""time""
""fullscreenenter"",""1"",""3219""
","
","true","","","","","","","","","","","","","","","","","","","","","","","","","",""
"pit-instructions","2","13040","0.0-2.0-0.0","battery-v0.2","","""event"",""trial"",""time""
""fullscreenenter"",""1"",""3219""
","
","
","""event"",""trial"",""time""
""fullscreenenter"",""1"",""3219""
","
","","[{""page_index"":0,""viewing_time"":8844.400000095367}]","8844.600000023842","","","","","","","","","","","","","","","","","","","","","","","",""
"pit-comprehension","3","17532","0.0-2.0-1.0-0.0","battery-v0.2","","""event"",""trial"",""time""
""fullscreenenter"",""1"",""3219""
","
","
","""event"",""trial"",""time""
""fullscreenenter"",""1"",""3219""
","
","","","4488.899999976158","[""shark""]","0","12","13619","5915","","","","","","","","","","","","","","","","","","",""
"pit-instructions","4","23833","0.0-2.0-1.0-1.0","battery-v0.2","","""event"",""trial"",""time""
""fullscreenenter"",""1"",""3219""
","
","
","""event"",""trial"",""time""
""fullscreenenter"",""1"",""3219""
","
","","[{""page_index"":0,""viewing_time"":6287.199999928474}]","6287.399999976158","","","","","","","","","","","","","","","","","","","","","","","",""
"pit-comprehension","5","27377","0.0-2.0-2.0-0.0","battery-v0.2","","""event"",""trial"",""time""
""fullscreenenter"",""1"",""3219""
","
","
","""event"",""trial"",""time""
""fullscreenenter"",""1"",""3219""
","
","","","3541","[""tiger""]","0","12","13619","5915","","","","","","","","","","","","","","","","","","",""
"pit-instructions","6","28798","0.0-2.0-2.0-1.0","battery-v0.2","","""event"",""trial"",""time""
""fullscreenenter"",""1"",""3219""
","
","
","""event"",""trial"",""time""
""fullscreenenter"",""1"",""3219""
","
","","[{""page_index"":0,""viewing_time"":1417.3999999761581}]","1417.5999999046326","","","","","","","","","","","","","","","","","","","","","","","",""
"pit-instructions","7","118095","0.0-2.0-3.0","battery-v0.2","","""event"",""trial"",""time""
""fullscreenenter"",""1"",""3219""
","
","
","""event"",""trial"",""time""
""fullscreenenter"",""1"",""3219""
","
","","[{""page_index"":0,""viewing_time"":7587.600000023842},{""page_index"":1,""viewing_time"":5462.700000047684},{""page_index"":2,""viewing_time"":6009.699999928474},{""page_index"":3,""viewing_time"":5594.700000047684},{""page_index"":4,""viewing_time"":5449},{""page_index"":5,""viewing_time"":5118.100000023842},{""page_index"":6,""viewing_time"":7893.299999952316},{""page_index"":7,""viewing_time"":6335.800000071526},{""page_index"":8,""viewing_time"":6121.699999928474},{""page_index"":9,""viewing_time"":7371.100000023842},{""page_index"":10,""viewing_time"":7387.799999952316},{""page_index"":11,""viewing_time"":7226},{""page_index"":12,""viewing_time"":6521.100000023842},{""page_index"":13,""viewing_time"":5216.600000023842}]","89295.40000009537","","","","","","","","","","","","","","","","","","","","","","","",""
"pit-trial","8","121833","0.0-2.0-4.0-0.0","battery-v0.2","","""event"",""trial"",""time""
""fullscreenenter"",""1"",""3219""
","
","
","""event"",""trial"",""time""
""fullscreenenter"",""1"",""3219""
","
","","","880.7000000476837","","","12","13619","5915","&#9784;","elianto","#FFFFF080"," "," ","1","&#10004","[1731.2000000476837]","1","0","0","","","","","","","",""
"pit-trial","9","125407","0.0-2.0-4.1-0.1","battery-v0.2","","""event"",""trial"",""time""
""fullscreenenter"",""1"",""3219""
","
","
","""event"",""trial"",""time""
""fullscreenenter"",""1"",""3219""
","
","","","720.7000000476837","","","12","13619","5915","&#9784;","elianto","#FFFFF080"," "," ","1","&#10004","[1571]","1","0","0","","","","","","","",""
"pit-trial","10","128819","0.0-2.0-4.2-0.2","battery-v0.2","","""event"",""trial"",""time""
""fullscreenenter"",""1"",""3219""
","
","
","""event"",""trial"",""time""
""fullscreenenter"",""1"",""3219""
","
","","","557.6999999284744","","","12","13619","5915","&#9784;","elianto","#FFFFF080"," "," ","1","&#10004","[1408.6000000238419]","1","0","0","","","","","","","",""
"pit-trial","11","132344","0.0-2.0-4.3-0.3","battery-v0.2","","""event"",""trial"",""time""
""fullscreenenter"",""1"",""3219""
","
","
","""event"",""trial"",""time""
""fullscreenenter"",""1"",""3219""
","
","","","668.7000000476837","","","12","13619","5915","&#9784;","elianto","#FFFFF080"," "," ","1","&#10004","[1519.4000000953674]","1","0","0","","","","","","","",""
"pit-trial","12","135756","0.0-2.0-4.4-0.4","battery-v0.2","","""event"",""trial"",""time""
""fullscreenenter"",""1"",""3219""
","
","
","""event"",""trial"",""time""
""fullscreenenter"",""1"",""3219""
","
","","","554.1000000238419","","","12","13619","5915","&#9784;","elianto","#FFFFF080"," "," ","1","&#10004","[1405.1000000238419]","1","0","0","","","","","","","",""
"pit-instructions","13","156889","0.0-2.0-5.0","battery-v0.2","","""event"",""trial"",""time""
""fullscreenenter"",""1"",""3219""
","
","
","""event"",""trial"",""time""
""fullscreenenter"",""1"",""3219""
","
","","[{""page_index"":0,""viewing_time"":4631.5},{""page_index"":1,""viewing_time"":5459},{""page_index"":2,""viewing_time"":5307.700000047684},{""page_index"":3,""viewing_time"":5731.199999928474}]","21129.700000047684","","","","","","","","","","","","","","","","","","","","","","","",""
"pit-trial","14","161743","0.0-2.0-6.0-0.0","battery-v0.2","","""event"",""trial"",""time""
""fullscreenenter"",""1"",""3219""
","
","
","""event"",""trial"",""time""
""fullscreenenter"",""1"",""3219""
","
","","","-1","","","12","13619","5915","&#9854;","elianto","#FFFFF080","-1","-1","1","&#10004","[]","0","0","1","","","","","","","",""
"pit-trial","15","166596","0.0-2.0-6.1-0.1","battery-v0.2","","""event"",""trial"",""time""
""fullscreenenter"",""1"",""3219""
","
","
","""event"",""trial"",""time""
""fullscreenenter"",""1"",""3219""
","
","","","-1","","","12","13619","5915","&#9854;","elianto","#FFFFF080","-1","-1","1","&#10004","[]","0","0","1","","","","","","","",""
"pit-trial","16","171454","0.0-2.0-6.2-0.2","battery-v0.2","","""event"",""trial"",""time""
""fullscreenenter"",""1"",""3219""
","
","
","""event"",""trial"",""time""
""fullscreenenter"",""1"",""3219""
","
","","","-1","","","12","13619","5915","&#9854;","elianto","#FFFFF080","-1","-1","1","&#10004","[]","0","0","1","","","","","","","",""
"pit-trial","17","176311","0.0-2.0-6.3-0.3","battery-v0.2","","""event"",""trial"",""time""
""fullscreenenter"",""1"",""3219""
","
","
","""event"",""trial"",""time""
""fullscreenenter"",""1"",""3219""
","
","","","-1","","","12","13619","5915","&#9854;","elianto","#FFFFF080","-1","-1","1","&#10004","[]","0","0","1","","","","","","","",""
"pit-trial","18","181172","0.0-2.0-6.4-0.4","battery-v0.2","","""event"",""trial"",""time""
""fullscreenenter"",""1"",""3219""
","
","
","""event"",""trial"",""time""
""fullscreenenter"",""1"",""3219""
","
","","","-1","","","12","13619","5915","&#9854;","elianto","#FFFFF080","-1","-1","1","&#10004","[]","0","0","1","","","","","","","",""
"pit-instructions","19","293912","0.0-2.0-7.0","battery-v0.2","","""event"",""trial"",""time""
""fullscreenenter"",""1"",""3219""
","
","
","""event"",""trial"",""time""
""fullscreenenter"",""1"",""3219""
","
","","[{""page_index"":0,""viewing_time"":5361.200000047684},{""page_index"":1,""viewing_time"":6703.399999976158},{""page_index"":2,""viewing_time"":5452.800000071526},{""page_index"":3,""viewing_time"":5781},{""page_index"":4,""viewing_time"":5318.799999952316},{""page_index"":5,""viewing_time"":5763.399999976158},{""page_index"":6,""viewing_time"":5761.200000047684},{""page_index"":7,""viewing_time"":7135.5},{""page_index"":8,""viewing_time"":7477.399999976158},{""page_index"":9,""viewing_time"":6125.899999976158},{""page_index"":10,""viewing_time"":6505.399999976158},{""page_index"":11,""viewing_time"":4554.800000071526},{""page_index"":12,""viewing_time"":7341.100000023842},{""page_index"":13,""viewing_time"":6783.099999904633},{""page_index"":14,""viewing_time"":6476.600000023842},{""page_index"":15,""viewing_time"":6502.600000023842},{""page_index"":16,""viewing_time"":7449.399999976158},{""page_index"":17,""viewing_time"":6244.300000071526}]","112738.20000004768","","","","","","","","","","","","","","","","","","","","","","","",""
"pit-trial","20","297356","0.0-2.0-8.0-0.0","battery-v0.2","","""event"",""trial"",""time""
""fullscreenenter"",""1"",""3219""
","
","
","""event"",""trial"",""time""
""fullscreenenter"",""1"",""3219""
","
","","","588.5","","","12","13619","5915","&#9776;","elianto","#3366ff99"," "," ","1","+10","[1440.5]","1","0","1","","","","","","","",""
"pit-trial","21","300787","0.0-2.0-8.0-1.0","battery-v0.2","","""event"",""trial"",""time""
""fullscreenenter"",""1"",""3219""
","
","
","""event"",""trial"",""time""
""fullscreenenter"",""1"",""3219""
","
","","","574.5","","","12","13619","5915","&#9776;","elianto","#3366ff99"," "," ","1","+10","[1425.0999999046326]","1","0","1","","","","","","","",""
"pit-trial","22","304326","0.0-2.0-8.0-2.0","battery-v0.2","","""event"",""trial"",""time""
""fullscreenenter"",""1"",""3219""
","
","
","""event"",""trial"",""time""
""fullscreenenter"",""1"",""3219""
","
","","","685.6000000238419","","","12","13619","5915","&#9776;","elianto","#3366ff99"," "," ","1","+10","[1537.2000000476837]","1","0","1","","","","","","","",""
"pit-trial","23","307686","0.0-2.0-8.0-3.0","battery-v0.2","","""event"",""trial"",""time""
""fullscreenenter"",""1"",""3219""
","
","
","""event"",""trial"",""time""
""fullscreenenter"",""1"",""3219""
","
","","","505.7000000476837","","","12","13619","5915","&#9776;","elianto","#3366ff99"," "," ","1","0","[1357]","1","0","1","","","","","","","",""
"pit-trial","24","310950","0.0-2.0-8.0-4.0","battery-v0.2","","""event"",""trial"",""time""
""fullscreenenter"",""1"",""3219""
","
","
","""event"",""trial"",""time""
""fullscreenenter"",""1"",""3219""
","
","","","407.5","","","12","13619","5915","&#9776;","elianto","#3366ff99"," "," ","1","+10","[1258.1000000238419]","1","0","1","","","","","","","",""
"pit-trial","25","314377","0.0-2.0-8.1-0.1","battery-v0.2","","""event"",""trial"",""time""
""fullscreenenter"",""1"",""3219""
","
","
","""event"",""trial"",""time""
""fullscreenenter"",""1"",""3219""
","
","","","571.2000000476837","","","12","13619","5915","&#9776;","elianto","#3366ff99"," "," ","1","+10","[1421.6000000238419]","1","0","1","","","","","","","",""
"pit-trial","26","319233","0.0-2.0-8.1-1.1","battery-v0.2","","""event"",""trial"",""time""
""fullscreenenter"",""1"",""3219""
","
","
","""event"",""trial"",""time""
""fullscreenenter"",""1"",""3219""
","
","","","-1","","","12","13619","5915","&#9776;","elianto","#3366ff99"," ","-1","0","0","[]","0","0","1","","","","","","","",""
"pit-trial","27","322405","0.0-2.0-8.1-2.1","battery-v0.2","","""event"",""trial"",""time""
""fullscreenenter"",""1"",""3219""
","
","
","""event"",""trial"",""time""
""fullscreenenter"",""1"",""3219""
","
","","","315.7000000476837","","","12","13619","5915","&#9776;","elianto","#3366ff99"," "," ","1","+10","[1166.8000000715256]","1","0","1","","","","","","","",""
"pit-trial","28","325664","0.0-2.0-8.1-3.1","battery-v0.2","","""event"",""trial"",""time""
""fullscreenenter"",""1"",""3219""
","
","
","""event"",""trial"",""time""
""fullscreenenter"",""1"",""3219""
","
","","","406.39999997615814","","","12","13619","5915","&#9776;","elianto","#3366ff99"," "," ","1","0","[1256.6000000238419]","1","0","1","","","","","","","",""
"pit-trial","29","328924","0.0-2.0-8.1-4.1","battery-v0.2","","""event"",""trial"",""time""
""fullscreenenter"",""1"",""3219""
","
","
","""event"",""trial"",""time""
""fullscreenenter"",""1"",""3219""
","
","","","401.7000000476837","","","12","13619","5915","&#9776;","elianto","#3366ff99"," "," ","1","+10","[1254.2000000476837]","1","0","1","","","","","","","",""
"pit-trial","30","332284","0.0-2.0-8.2-0.2","battery-v0.2","","""event"",""trial"",""time""
""fullscreenenter"",""1"",""3219""
","
","
","""event"",""trial"",""time""
""fullscreenenter"",""1"",""3219""
","
","","","501.10000002384186","","","12","13619","5915","&#9776;","elianto","#3366ff99"," "," ","1","+10","[1352.3999999761581]","1","0","1","","","","","","","",""
"pit-trial","31","337139","0.0-2.0-8.2-1.2","battery-v0.2","","""event"",""trial"",""time""
""fullscreenenter"",""1"",""3219""
","
","
","""event"",""trial"",""time""
""fullscreenenter"",""1"",""3219""
","
","","","-1","","","12","13619","5915","&#9776;","elianto","#3366ff99"," ","-1","0","0","[3231.7000000476837]","1","0","1","","","","","","","",""
"pit-trial","32","340391","0.0-2.0-8.2-2.2","battery-v0.2","","""event"",""trial"",""time""
""fullscreenenter"",""1"",""3219""
","
","
","""event"",""trial"",""time""
""fullscreenenter"",""1"",""3219""
","
","","","398.6999999284744","","","12","13619","5915","&#9776;","elianto","#3366ff99"," "," ","1","+10","[1249.0999999046326]","1","0","1","","","","","","","",""
"pit-trial","33","343762","0.0-2.0-8.2-3.2","battery-v0.2","","""event"",""trial"",""time""
""fullscreenenter"",""1"",""3219""
","
","
","""event"",""trial"",""time""
""fullscreenenter"",""1"",""3219""
","
","","","512.2999999523163","","","12","13619","5915","&#9776;","elianto","#3366ff99"," "," ","1","0","[1363.7999999523163]","1","0","1","","","","","","","",""
"pit-trial","34","348037","0.0-2.0-8.2-4.2","battery-v0.2","","""event"",""trial"",""time""
""fullscreenenter"",""1"",""3219""
","
","
","""event"",""trial"",""time""
""fullscreenenter"",""1"",""3219""
","
","","","1418.5","","","12","13619","5915","&#9776;","elianto","#3366ff99"," "," ","1","+10","[2269.0999999046326]","1","0","1","","","","","","","",""
"call-function","35","348039","0.0-2.0-9.0","battery-v0.2","","""event"",""trial"",""time""
""fullscreenenter"",""1"",""3219""
","
","
","""event"",""trial"",""time""
""fullscreenenter"",""1"",""3219""
","
","","","","","","","","","","","","","","","","","","","","","","","","","","",""
"pit-instructions","36","390522","0.0-2.0-10.0","battery-v0.2","","""event"",""trial"",""time""
""fullscreenenter"",""1"",""3219""
","
","
","""event"",""trial"",""time""
""fullscreenenter"",""1"",""3219""
","
","","[{""page_index"":0,""viewing_time"":6728},{""page_index"":1,""viewing_time"":7973.100000023842},{""page_index"":2,""viewing_time"":9693.899999976158},{""page_index"":3,""viewing_time"":9930.199999928474},{""page_index"":4,""viewing_time"":8106.100000023842}]","42431.60000002384","","","","","","","","","","","","","","","","","","","","","","","",""
"pit-trial","37","394154","0.0-2.0-11.0-0.0","battery-v0.2","","""event"",""trial"",""time""
""fullscreenenter"",""1"",""3219""
","
","
","""event"",""trial"",""time""
""fullscreenenter"",""1"",""3219""
","
","","","776.8999999761581","","","12","13619","5915","&#9761;","elianto","#3366ff99","-1"," ","0","0","[1629]","1","0","2","","","","","","","",""
"pit-trial","38","399007","0.0-2.0-11.0-1.0","battery-v0.2","","""event"",""trial"",""time""
""fullscreenenter"",""1"",""3219""
","
","
","""event"",""trial"",""time""
""fullscreenenter"",""1"",""3219""
","
","","","-1","","","12","13619","5915","&#9761;","elianto","#3366ff99","-1","-1","1","+10","[]","0","0","2","","","","","","","",""
"pit-trial","39","403693","0.0-2.0-11.0-2.0","battery-v0.2","","""event"",""trial"",""time""
""fullscreenenter"",""1"",""3219""
","
","
","""event"",""trial"",""time""
""fullscreenenter"",""1"",""3219""
","
","","","1829.3000000715256","","","12","13619","5915","&#9761;","elianto","#3366ff99","-1"," ","0","0","[843.1000000238419,2679.8000000715256,2842.7000000476837]","3","0","2","","","","","","","",""
"pit-trial","40","406853","0.0-2.0-11.0-3.0","battery-v0.2","","""event"",""trial"",""time""
""fullscreenenter"",""1"",""3219""
","
","
","""event"",""trial"",""time""
""fullscreenenter"",""1"",""3219""
","
","","","303.6999999284744","","","12","13619","5915","&#9761;","elianto","#3366ff99","-1"," ","0","+10","[1154.1000000238419]","1","0","2","","","","","","","",""
"pit-trial","41","411711","0.0-2.0-11.0-4.0","battery-v0.2","","""event"",""trial"",""time""
""fullscreenenter"",""1"",""3219""
","
","
","""event"",""trial"",""time""
""fullscreenenter"",""1"",""3219""
","
","","","-1","","","12","13619","5915","&#9761;","elianto","#3366ff99","-1","-1","1","+10","[]","0","0","2","","","","","","","",""
"pit-trial","42","414735","0.0-2.0-11.1-0.1","battery-v0.2","","""event"",""trial"",""time""
""fullscreenenter"",""1"",""3219""
","
","
","""event"",""trial"",""time""
""fullscreenenter"",""1"",""3219""
","
","","","167.5","","","12","13619","5915","&#9761;","elianto","#3366ff99","-1"," ","0","0","[1017.7999999523163]","1","0","2","","","","","","","",""
"pit-trial","43","417848","0.0-2.0-11.1-1.1","battery-v0.2","","""event"",""trial"",""time""
""fullscreenenter"",""1"",""3219""
","
","
","""event"",""trial"",""time""
""fullscreenenter"",""1"",""3219""
","
","","","257.5","","","12","13619","5915","&#9761;","elianto","#3366ff99","-1"," ","0","0","[1108.6000000238419]","1","0","2","","","","","","","",""
"pit-trial","44","420740","0.0-2.0-11.1-2.1","battery-v0.2","","""event"",""trial"",""time""
""fullscreenenter"",""1"",""3219""
","
","
","""event"",""trial"",""time""
""fullscreenenter"",""1"",""3219""
","
","","","38.89999997615814","","","12","13619","5915","&#9761;","elianto","#3366ff99","-1"," ","0","0","[889.7999999523163]","1","0","2","","","","","","","",""
"pit-trial","45","423958","0.0-2.0-11.1-3.1","battery-v0.2","","""event"",""trial"",""time""
""fullscreenenter"",""1"",""3219""
","
","
","""event"",""trial"",""time""
""fullscreenenter"",""1"",""3219""
","
","","","363.5","","","12","13619","5915","&#9761;","elianto","#3366ff99","-1"," ","0","+10","[1214.6000000238419]","1","0","2","","","","","","","",""
"pit-trial","46","427300","0.0-2.0-11.1-4.1","battery-v0.2","","""event"",""trial"",""time""
""fullscreenenter"",""1"",""3219""
","
","
","""event"",""trial"",""time""
""fullscreenenter"",""1"",""3219""
","
","","","486.60000002384186","","","12","13619","5915","&#9761;","elianto","#3366ff99","-1"," ","0","0","[1337.3000000715256]","1","0","2","","","","","","","",""
"pit-trial","47","430383","0.0-2.0-11.2-0.2","battery-v0.2","","""event"",""trial"",""time""
""fullscreenenter"",""1"",""3219""
","
","
","""event"",""trial"",""time""
""fullscreenenter"",""1"",""3219""
","
","","","224.79999995231628","","","12","13619","5915","&#9761;","elianto","#3366ff99","-1"," ","0","0","[1075]","1","0","2","","","","","","","",""
"pit-trial","48","433710","0.0-2.0-11.2-1.2","battery-v0.2","","""event"",""trial"",""time""
""fullscreenenter"",""1"",""3219""
","
","
","""event"",""trial"",""time""
""fullscreenenter"",""1"",""3219""
","
","","","470.60000002384186","","","12","13619","5915","&#9761;","elianto","#3366ff99","-1"," ","0","0","[783.1999999284744,1322.1999999284744]","2","0","2","","","","","","","",""
"pit-trial","49","436756","0.0-2.0-11.2-2.2","battery-v0.2","","""event"",""trial"",""time""
""fullscreenenter"",""1"",""3219""
","
","
","""event"",""trial"",""time""
""fullscreenenter"",""1"",""3219""
","
","","","192.79999995231628","","","12","13619","5915","&#9761;","elianto","#3366ff99","-1"," ","0","0","[1043.2000000476837]","1","0","2","","","","","","","",""
"pit-trial","50","439774","0.0-2.0-11.2-3.2","battery-v0.2","","""event"",""trial"",""time""
""fullscreenenter"",""1"",""3219""
","
","
","""event"",""trial"",""time""
""fullscreenenter"",""1"",""3219""
","
","","","163","","","12","13619","5915","&#9761;","elianto","#3366ff99","-1"," ","0","+10","[1014.5]","1","0","2","","","","","","","",""
"pit-trial","51","443044","0.0-2.0-11.2-4.2","battery-v0.2","","""event"",""trial"",""time""
""fullscreenenter"",""1"",""3219""
","
","
","""event"",""trial"",""time""
""fullscreenenter"",""1"",""3219""
","
","","","412.60000002384186","","","12","13619","5915","&#9761;","elianto","#3366ff99","-1"," ","0","0","[1264.2000000476837,1657.3000000715256]","2","0","2","","","","","","","",""
"pit-trial","52","446607","0.0-2.0-11.3-0.3","battery-v0.2","","""event"",""trial"",""time""
""fullscreenenter"",""1"",""3219""
","
","
","""event"",""trial"",""time""
""fullscreenenter"",""1"",""3219""
","
","","","706.1000000238419","","","12","13619","5915","&#9761;","elianto","#3366ff99","-1"," ","0","0","[1557.1000000238419]","1","0","2","","","","","","","",""
"pit-trial","53","449673","0.0-2.0-11.3-1.3","battery-v0.2","","""event"",""trial"",""time""
""fullscreenenter"",""1"",""3219""
","
","
","""event"",""trial"",""time""
""fullscreenenter"",""1"",""3219""
","
","","","208.39999997615814","","","12","13619","5915","&#9761;","elianto","#3366ff99","-1"," ","0","0","[248.30000007152557,1059.5]","2","0","2","","","","","","","",""
"pit-trial","54","452825","0.0-2.0-11.3-2.3","battery-v0.2","","""event"",""trial"",""time""
""fullscreenenter"",""1"",""3219""
","
","
","""event"",""trial"",""time""
""fullscreenenter"",""1"",""3219""
","
","","","298.60000002384186","","","12","13619","5915","&#9761;","elianto","#3366ff99","-1"," ","0","0","[1148.6000000238419]","1","0","2","","","","","","","",""
"pit-trial","55","456174","0.0-2.0-11.3-3.3","battery-v0.2","","""event"",""trial"",""time""
""fullscreenenter"",""1"",""3219""
","
","
","""event"",""trial"",""time""
""fullscreenenter"",""1"",""3219""
","
","","","492.39999997615814","","","12","13619","5915","&#9761;","elianto","#3366ff99","-1"," ","0","+10","[1344.3999999761581]","1","0","2","","","","","","","",""
"pit-trial","56","459508","0.0-2.0-11.3-4.3","battery-v0.2","","""event"",""trial"",""time""
""fullscreenenter"",""1"",""3219""
","
","
","""event"",""trial"",""time""
""fullscreenenter"",""1"",""3219""
","
","","","480.39999997615814","","","12","13619","5915","&#9761;","elianto","#3366ff99","-1"," ","0","0","[1331.6000000238419]","1","0","2","","","","","","","",""
"call-function","57","459510","0.0-2.0-12.0","battery-v0.2","","""event"",""trial"",""time""
""fullscreenenter"",""1"",""3219""
","
","
","""event"",""trial"",""time""
""fullscreenenter"",""1"",""3219""
","
","","","","","","","","","","","","","","","","","","","","","","","","","","",""
"pit-instructions","58","493079","0.0-2.0-13.0","battery-v0.2","","""event"",""trial"",""time""
""fullscreenenter"",""1"",""3219""
","
","
","""event"",""trial"",""time""
""fullscreenenter"",""1"",""3219""
","
","","[{""page_index"":0,""viewing_time"":6638.200000047684},{""page_index"":1,""viewing_time"":7720.199999928474},{""page_index"":2,""viewing_time"":3931.2000000476837},{""page_index"":3,""viewing_time"":10296.399999976158},{""page_index"":4,""viewing_time"":4982.200000047684}]","33568.5","","","","","","","","","","","","","","","","","","","","","","","",""
"pit-trial","59","497940","0.0-2.0-14.0-0.0","battery-v0.2","","""event"",""trial"",""time""
""fullscreenenter"",""1"",""3219""
","
","
","""event"",""trial"",""time""
""fullscreenenter"",""1"",""3219""
","
","","","-1","","","12","13619","5915","&#9826;","elianto","#f73b6a7A","-1","-1","1","0","[]","0","0","3","","","","","","","",""
"pit-trial","60","502799","0.0-2.0-14.0-1.0","battery-v0.2","","""event"",""trial"",""time""
""fullscreenenter"",""1"",""3219""
","
","
","""event"",""trial"",""time""
""fullscreenenter"",""1"",""3219""
","
","","","-1","","","12","13619","5915","&#9826;","elianto","#f73b6a7A","-1","-1","1","0","[]","0","0","3","","","","","","","",""
"pit-trial","61","507657","0.0-2.0-14.0-2.0","battery-v0.2","","""event"",""trial"",""time""
""fullscreenenter"",""1"",""3219""
","
","
","""event"",""trial"",""time""
""fullscreenenter"",""1"",""3219""
","
","","","-1","","","12","13619","5915","&#9826;","elianto","#f73b6a7A","-1","-1","1","0","[]","0","0","3","","","","","","","",""
"pit-trial","62","512515","0.0-2.0-14.0-3.0","battery-v0.2","","""event"",""trial"",""time""
""fullscreenenter"",""1"",""3219""
","
","
","""event"",""trial"",""time""
""fullscreenenter"",""1"",""3219""
","
","","","-1","","","12","13619","5915","&#9826;","elianto","#f73b6a7A","-1","-1","1","-10","[]","0","0","3","","","","","","","",""
"pit-trial","63","517370","0.0-2.0-14.0-4.0","battery-v0.2","","""event"",""trial"",""time""
""fullscreenenter"",""1"",""3219""
","
","
","""event"",""trial"",""time""
""fullscreenenter"",""1"",""3219""
","
","","","-1","","","12","13619","5915","&#9826;","elianto","#f73b6a7A","-1","-1","1","0","[]","0","0","3","","","","","","","",""
"pit-trial","64","522233","0.0-2.0-14.1-0.1","battery-v0.2","","""event"",""trial"",""time""
""fullscreenenter"",""1"",""3219""
","
","
","""event"",""trial"",""time""
""fullscreenenter"",""1"",""3219""
","
","","","-1","","","12","13619","5915","&#9826;","elianto","#f73b6a7A","-1","-1","1","0","[]","0","0","3","","","","","","","",""
"pit-trial","65","527091","0.0-2.0-14.1-1.1","battery-v0.2","","""event"",""trial"",""time""
""fullscreenenter"",""1"",""3219""
","
","
","""event"",""trial"",""time""
""fullscreenenter"",""1"",""3219""
","
","","","-1","","","12","13619","5915","&#9826;","elianto","#f73b6a7A","-1","-1","1","0","[]","0","0","3","","","","","","","",""
"pit-trial","66","531952","0.0-2.0-14.1-2.1","battery-v0.2","","""event"",""trial"",""time""
""fullscreenenter"",""1"",""3219""
","
","
","""event"",""trial"",""time""
""fullscreenenter"",""1"",""3219""
","
","","","-1","","","12","13619","5915","&#9826;","elianto","#f73b6a7A","-1","-1","1","0","[]","0","0","3","","","","","","","",""
"pit-trial","67","536814","0.0-2.0-14.1-3.1","battery-v0.2","","""event"",""trial"",""time""
""fullscreenenter"",""1"",""3219""
","
","
","""event"",""trial"",""time""
""fullscreenenter"",""1"",""3219""
","
","","","-1","","","12","13619","5915","&#9826;","elianto","#f73b6a7A","-1","-1","1","-10","[]","0","0","3","","","","","","","",""
"pit-trial","68","541669","0.0-2.0-14.1-4.1","battery-v0.2","","""event"",""trial"",""time""
""fullscreenenter"",""1"",""3219""
","
","
","""event"",""trial"",""time""
""fullscreenenter"",""1"",""3219""
","
","","","-1","","","12","13619","5915","&#9826;","elianto","#f73b6a7A","-1","-1","1","0","[]","0","0","3","","","","","","","",""
"pit-trial","69","546533","0.0-2.0-14.2-0.2","battery-v0.2","","""event"",""trial"",""time""
""fullscreenenter"",""1"",""3219""
","
","
","""event"",""trial"",""time""
""fullscreenenter"",""1"",""3219""
","
","","","-1","","","12","13619","5915","&#9826;","elianto","#f73b6a7A","-1","-1","1","0","[]","0","0","3","","","","","","","",""
"pit-trial","70","551390","0.0-2.0-14.2-1.2","battery-v0.2","","""event"",""trial"",""time""
""fullscreenenter"",""1"",""3219""
","
","
","""event"",""trial"",""time""
""fullscreenenter"",""1"",""3219""
","
","","","-1","","","12","13619","5915","&#9826;","elianto","#f73b6a7A","-1","-1","1","0","[]","0","0","3","","","","","","","",""
"pit-trial","71","556251","0.0-2.0-14.2-2.2","battery-v0.2","","""event"",""trial"",""time""
""fullscreenenter"",""1"",""3219""
","
","
","""event"",""trial"",""time""
""fullscreenenter"",""1"",""3219""
","
","","","-1","","","12","13619","5915","&#9826;","elianto","#f73b6a7A","-1","-1","1","0","[]","0","0","3","","","","","","","",""
"pit-trial","72","561113","0.0-2.0-14.2-3.2","battery-v0.2","","""event"",""trial"",""time""
""fullscreenenter"",""1"",""3219""
","
","
","""event"",""trial"",""time""
""fullscreenenter"",""1"",""3219""
","
","","","-1","","","12","13619","5915","&#9826;","elianto","#f73b6a7A","-1","-1","1","-10","[]","0","0","3","","","","","","","",""
"pit-trial","73","565973","0.0-2.0-14.2-4.2","battery-v0.2","","""event"",""trial"",""time""
""fullscreenenter"",""1"",""3219""
","
","
","""event"",""trial"",""time""
""fullscreenenter"",""1"",""3219""
","
","","","-1","","","12","13619","5915","&#9826;","elianto","#f73b6a7A","-1","-1","1","0","[]","0","0","3","","","","","","","",""
"pit-trial","74","570835","0.0-2.0-14.3-0.3","battery-v0.2","","""event"",""trial"",""time""
""fullscreenenter"",""1"",""3219""
","
","
","""event"",""trial"",""time""
""fullscreenenter"",""1"",""3219""
","
","","","-1","","","12","13619","5915","&#9826;","elianto","#f73b6a7A","-1","-1","1","0","[]","0","0","3","","","","","","","",""
"pit-trial","75","575696","0.0-2.0-14.3-1.3","battery-v0.2","","""event"",""trial"",""time""
""fullscreenenter"",""1"",""3219""
","
","
","""event"",""trial"",""time""
""fullscreenenter"",""1"",""3219""
","
","","","-1","","","12","13619","5915","&#9826;","elianto","#f73b6a7A","-1","-1","1","0","[]","0","0","3","","","","","","","",""
"pit-trial","76","580555","0.0-2.0-14.3-2.3","battery-v0.2","","""event"",""trial"",""time""
""fullscreenenter"",""1"",""3219""
","
","
","""event"",""trial"",""time""
""fullscreenenter"",""1"",""3219""
","
","","","-1","","","12","13619","5915","&#9826;","elianto","#f73b6a7A","-1","-1","1","0","[]","0","0","3","","","","","","","",""
"pit-trial","77","584805","0.0-2.0-14.3-3.3","battery-v0.2","","""event"",""trial"",""time""
""fullscreenenter"",""1"",""3219""
","
","
","""event"",""trial"",""time""
""fullscreenenter"",""1"",""3219""
","
","","","1394.5","","","12","13619","5915","&#9826;","elianto","#f73b6a7A","-1"," ","0","0","[2245.8000000715256]","1","0","3","","","","","","","",""
"pit-trial","78","588153","0.0-2.0-14.3-4.3","battery-v0.2","","""event"",""trial"",""time""
""fullscreenenter"",""1"",""3219""
","
","
","""event"",""trial"",""time""
""fullscreenenter"",""1"",""3219""
","
","","","495.10000002384186","","","12","13619","5915","&#9826;","elianto","#f73b6a7A","-1"," ","0","-10","[1345.8999999761581]","1","0","3","","","","","","","",""
"call-function","79","588155","0.0-2.0-15.0","battery-v0.2","","""event"",""trial"",""time""
""fullscreenenter"",""1"",""3219""
","
","
","""event"",""trial"",""time""
""fullscreenenter"",""1"",""3219""
","
","","","","","","","","","","","","","","","","","","","","","","","","","","",""
"pit-instructions","80","612496","0.0-2.0-16.0","battery-v0.2","","""event"",""trial"",""time""
""fullscreenenter"",""1"",""3219""
","
","
","""event"",""trial"",""time""
""fullscreenenter"",""1"",""3219""
","
","","[{""page_index"":0,""viewing_time"":6913.300000071526},{""page_index"":1,""viewing_time"":8501.299999952316},{""page_index"":2,""viewing_time"":4301.700000047684},{""page_index"":3,""viewing_time"":4624.100000023842}]","24340.600000023842","","","","","","","","","","","","","","","","","","","","","","","",""
"pit-trial","81","615834","0.0-2.0-17.0-0.0","battery-v0.2","","""event"",""trial"",""time""
""fullscreenenter"",""1"",""3219""
","
","
","""event"",""trial"",""time""
""fullscreenenter"",""1"",""3219""
","
","","","485.7999999523163","","","12","13619","5915","&#9789;","elianto","#f73b6a7A"," "," ","1","0","[1336.2000000476837,1478.8000000715256]","2","0","4","","","","","","","",""
"pit-trial","82","618926","0.0-2.0-17.0-1.0","battery-v0.2","","""event"",""trial"",""time""
""fullscreenenter"",""1"",""3219""
","
","
","""event"",""trial"",""time""
""fullscreenenter"",""1"",""3219""
","
","","","240","","","12","13619","5915","&#9789;","elianto","#f73b6a7A"," "," ","1","0","[1090.1999999284744,1272]","2","0","4","","","","","","","",""
"pit-trial","83","622098","0.0-2.0-17.0-2.0","battery-v0.2","","""event"",""trial"",""time""
""fullscreenenter"",""1"",""3219""
","
","
","""event"",""trial"",""time""
""fullscreenenter"",""1"",""3219""
","
","","","316.89999997615814","","","12","13619","5915","&#9789;","elianto","#f73b6a7A"," "," ","1","0","[1167.3999999761581]","1","0","4","","","","","","","",""
"pit-trial","84","625133","0.0-2.0-17.0-3.0","battery-v0.2","","""event"",""trial"",""time""
""fullscreenenter"",""1"",""3219""
","
","
","""event"",""trial"",""time""
""fullscreenenter"",""1"",""3219""
","
","","","180.30000007152557","","","12","13619","5915","&#9789;","elianto","#f73b6a7A"," "," ","1","-10","[1032.3999999761581,1239.2999999523163]","2","0","4","","","","","","","",""
"pit-trial","85","628051","0.0-2.0-17.0-4.0","battery-v0.2","","""event"",""trial"",""time""
""fullscreenenter"",""1"",""3219""
","
","
","""event"",""trial"",""time""
""fullscreenenter"",""1"",""3219""
","
","","","59.799999952316284","","","12","13619","5915","&#9789;","elianto","#f73b6a7A"," "," ","1","0","[910]","1","0","4","","","","","","","",""
"pit-trial","86","632906","0.0-2.0-17.1-0.1","battery-v0.2","","""event"",""trial"",""time""
""fullscreenenter"",""1"",""3219""
","
","
","""event"",""trial"",""time""
""fullscreenenter"",""1"",""3219""
","
","","","-1","","","12","13619","5915","&#9789;","elianto","#f73b6a7A"," ","-1","0","-10","[]","0","0","4","","","","","","","",""
"pit-trial","87","637765","0.0-2.0-17.1-1.1","battery-v0.2","","""event"",""trial"",""time""
""fullscreenenter"",""1"",""3219""
","
","
","""event"",""trial"",""time""
""fullscreenenter"",""1"",""3219""
","
","","","-1","","","12","13619","5915","&#9789;","elianto","#f73b6a7A"," ","-1","0","-10","[]","0","0","4","","","","","","","",""
"pit-trial","88","642622","0.0-2.0-17.1-2.1","battery-v0.2","","""event"",""trial"",""time""
""fullscreenenter"",""1"",""3219""
","
","
","""event"",""trial"",""time""
""fullscreenenter"",""1"",""3219""
","
","","","-1","","","12","13619","5915","&#9789;","elianto","#f73b6a7A"," ","-1","0","-10","[]","0","0","4","","","","","","","",""
"pit-trial","89","647480","0.0-2.0-17.1-3.1","battery-v0.2","","""event"",""trial"",""time""
""fullscreenenter"",""1"",""3219""
","
","
","""event"",""trial"",""time""
""fullscreenenter"",""1"",""3219""
","
","","","-1","","","12","13619","5915","&#9789;","elianto","#f73b6a7A"," ","-1","0","0","[]","0","0","4","","","","","","","",""
"pit-trial","90","652336","0.0-2.0-17.1-4.1","battery-v0.2","","""event"",""trial"",""time""
""fullscreenenter"",""1"",""3219""
","
","
","""event"",""trial"",""time""
""fullscreenenter"",""1"",""3219""
","
","","","-1","","","12","13619","5915","&#9789;","elianto","#f73b6a7A"," ","-1","0","-10","[]","0","0","4","","","","","","","",""
"pit-trial","91","657192","0.0-2.0-17.2-0.2","battery-v0.2","","""event"",""trial"",""time""
""fullscreenenter"",""1"",""3219""
","
","
","""event"",""trial"",""time""
""fullscreenenter"",""1"",""3219""
","
","","","-1","","","12","13619","5915","&#9789;","elianto","#f73b6a7A"," ","-1","0","-10","[]","0","0","4","","","","","","","",""
"pit-trial","92","662051","0.0-2.0-17.2-1.2","battery-v0.2","","""event"",""trial"",""time""
""fullscreenenter"",""1"",""3219""
","
","
","""event"",""trial"",""time""
""fullscreenenter"",""1"",""3219""
","
","","","-1","","","12","13619","5915","&#9789;","elianto","#f73b6a7A"," ","-1","0","-10","[]","0","0","4","","","","","","","",""
"pit-trial","93","666910","0.0-2.0-17.2-2.2","battery-v0.2","","""event"",""trial"",""time""
""fullscreenenter"",""1"",""3219""
","
","
","""event"",""trial"",""time""
""fullscreenenter"",""1"",""3219""
","
","","","-1","","","12","13619","5915","&#9789;","elianto","#f73b6a7A"," ","-1","0","-10","[]","0","0","4","","","","","","","",""
"pit-trial","94","671768","0.0-2.0-17.2-3.2","battery-v0.2","","""event"",""trial"",""time""
""fullscreenenter"",""1"",""3219""
","
","
","""event"",""trial"",""time""
""fullscreenenter"",""1"",""3219""
","
","","","-1","","","12","13619","5915","&#9789;","elianto","#f73b6a7A"," ","-1","0","0","[]","0","0","4","","","","","","","",""
"pit-trial","95","676627","0.0-2.0-17.2-4.2","battery-v0.2","","""event"",""trial"",""time""
""fullscreenenter"",""1"",""3219""
","
","
","""event"",""trial"",""time""
""fullscreenenter"",""1"",""3219""
","
","","","-1","","","12","13619","5915","&#9789;","elianto","#f73b6a7A"," ","-1","0","-10","[]","0","0","4","","","","","","","",""
"pit-trial","96","681485","0.0-2.0-17.3-0.3","battery-v0.2","","""event"",""trial"",""time""
""fullscreenenter"",""1"",""3219""
","
","
","""event"",""trial"",""time""
""fullscreenenter"",""1"",""3219""
","
","","","-1","","","12","13619","5915","&#9789;","elianto","#f73b6a7A"," ","-1","0","-10","[]","0","0","4","","","","","","","",""
"pit-trial","97","686344","0.0-2.0-17.3-1.3","battery-v0.2","","""event"",""trial"",""time""
""fullscreenenter"",""1"",""3219""
","
","
","""event"",""trial"",""time""
""fullscreenenter"",""1"",""3219""
","
","","","-1","","","12","13619","5915","&#9789;","elianto","#f73b6a7A"," ","-1","0","-10","[]","0","0","4","","","","","","","",""
"pit-trial","98","691199","0.0-2.0-17.3-2.3","battery-v0.2","","""event"",""trial"",""time""
""fullscreenenter"",""1"",""3219""
","
","
","""event"",""trial"",""time""
""fullscreenenter"",""1"",""3219""
","
","","","-1","","","12","13619","5915","&#9789;","elianto","#f73b6a7A"," ","-1","0","-10","[]","0","0","4","","","","","","","",""
"pit-trial","99","696060","0.0-2.0-17.3-3.3","battery-v0.2","","""event"",""trial"",""time""
""fullscreenenter"",""1"",""3219""
","
","
","""event"",""trial"",""time""
""fullscreenenter"",""1"",""3219""
","
","","","-1","","","12","13619","5915","&#9789;","elianto","#f73b6a7A"," ","-1","0","0","[]","0","0","4","","","","","","","",""
"pit-trial","100","700917","0.0-2.0-17.3-4.3","battery-v0.2","","""event"",""trial"",""time""
""fullscreenenter"",""1"",""3219""
","
","
","""event"",""trial"",""time""
""fullscreenenter"",""1"",""3219""
","
","","","-1","","","12","13619","5915","&#9789;","elianto","#f73b6a7A"," ","-1","0","-10","[]","0","0","4","","","","","","","",""
"call-function","101","700918","0.0-2.0-18.0","battery-v0.2","","""event"",""trial"",""time""
""fullscreenenter"",""1"",""3219""
","
","
","""event"",""trial"",""time""
""fullscreenenter"",""1"",""3219""
","
","","","","","","","","","","","","","","","","","","","","","","","","","","",""
"pit-instructions","102","778092","0.0-2.0-19.0","battery-v0.2","","""event"",""trial"",""time""
""fullscreenenter"",""1"",""3219""
","
","
","""event"",""trial"",""time""
""fullscreenenter"",""1"",""3219""
","
","","[{""page_index"":0,""viewing_time"":7284.599999904633},{""page_index"":1,""viewing_time"":8948.300000071526},{""page_index"":2,""viewing_time"":16181.699999928474},{""page_index"":3,""viewing_time"":4612.700000047684},{""page_index"":4,""viewing_time"":7832},{""page_index"":5,""viewing_time"":8374.799999952316},{""page_index"":6,""viewing_time"":9080.900000095367},{""page_index"":7,""viewing_time"":7445.5},{""page_index"":8,""viewing_time"":7412.799999952316}]","77173.79999995232","","","","","","","","","","","","","","","","","","","","","","","",""
"pit-comprehension","103","782591","0.0-2.0-20.0-0.0","battery-v0.2","","""event"",""trial"",""time""
""fullscreenenter"",""1"",""3219""
","
","
","""event"",""trial"",""time""
""fullscreenenter"",""1"",""3219""
","
","","","4496","[""SPACE""]","0","12","13619","5915","","","","","","","","","","","","","","","","","","",""
"pit-instructions","104","790094","0.0-2.0-20.0-1.0","battery-v0.2","","""event"",""trial"",""time""
""fullscreenenter"",""1"",""3219""
","
","
","""event"",""trial"",""time""
""fullscreenenter"",""1"",""3219""
","
","","[{""page_index"":0,""viewing_time"":7466.800000071526}]","7467.100000023842","","","","","","","","","","","","","","","","","","","","","","","",""
"pit-comprehension","105","796743","0.0-2.0-21.0-0.0","battery-v0.2","","""event"",""trial"",""time""
""fullscreenenter"",""1"",""3219""
","
","
","""event"",""trial"",""time""
""fullscreenenter"",""1"",""3219""
","
","","","6645.599999904633","[""10""]","0","12","13619","5915","","","","","","","","","","","","","","","","","","",""
"pit-instructions","106","798140","0.0-2.0-21.0-1.0","battery-v0.2","","""event"",""trial"",""time""
""fullscreenenter"",""1"",""3219""
","
","
","""event"",""trial"",""time""
""fullscreenenter"",""1"",""3219""
","
","","[{""page_index"":0,""viewing_time"":1365.1999999284744}]","1365.2999999523163","","","","","","","","","","","","","","","","","","","","","","","",""
"pit-comprehension","107","804695","0.0-2.0-22.0-0.0","battery-v0.2","","""event"",""trial"",""time""
""fullscreenenter"",""1"",""3219""
","
","
","""event"",""trial"",""time""
""fullscreenenter"",""1"",""3219""
","
","","","6552.899999976158","[""0""]","0","12","13619","5915","","","","","","","","","","","","","","","","","","",""
"pit-instructions","108","806117","0.0-2.0-22.0-1.0","battery-v0.2","","""event"",""trial"",""time""
""fullscreenenter"",""1"",""3219""
","
","
","""event"",""trial"",""time""
""fullscreenenter"",""1"",""3219""
","
","","[{""page_index"":0,""viewing_time"":1391.8999999761581}]","1392.1000000238419","","","","","","","","","","","","","","","","","","","","","","","",""
"pit-comprehension","109","816974","0.0-2.0-23.0-0.0","battery-v0.2","","""event"",""trial"",""time""
""fullscreenenter"",""1"",""3219""
","
","
","""event"",""trial"",""time""
""fullscreenenter"",""1"",""3219""
","
","","","10854.600000023842","[""False""]","1","12","13619","5915","","","","","","","","","","","","","","","","","","",""
"pit-instructions","110","818798","0.0-2.0-23.0-1.0","battery-v0.2","","""event"",""trial"",""time""
""fullscreenenter"",""1"",""3219""
","
","
","""event"",""trial"",""time""
""fullscreenenter"",""1"",""3219""
","
","","[{""page_index"":0,""viewing_time"":1788.1000000238419}]","1788.4000000953674","","","","","","","","","","","","","","","","","","","","","","","",""
"pit-instructions","111","820452","0.0-2.0-23.0-2.0-0.0","battery-v0.2","","""event"",""trial"",""time""
""fullscreenenter"",""1"",""3219""
","
","
","""event"",""trial"",""time""
""fullscreenenter"",""1"",""3219""
","
","","[{""page_index"":0,""viewing_time"":1652.7999999523163}]","1653","","","","","","","","","","","","","","","","","","","","","","","",""
"pit-comprehension","112","828785","0.0-2.0-23.1-0.1","battery-v0.2","","""event"",""trial"",""time""
""fullscreenenter"",""1"",""3219""
","
","
","""event"",""trial"",""time""
""fullscreenenter"",""1"",""3219""
","
","","","8330.200000047684","[""True""]","0","12","13619","5915","","","","","","","","","","","","","","","","","","",""
"pit-instructions","113","833900","0.0-2.0-23.1-1.1","battery-v0.2","","""event"",""trial"",""time""
""fullscreenenter"",""1"",""3219""
","
","
","""event"",""trial"",""time""
""fullscreenenter"",""1"",""3219""
","
","","[{""page_index"":0,""viewing_time"":5079.799999952316}]","5080.099999904633","","","","","","","","","","","","","","","","","","","","","","","",""
"pit-comprehension","114","841569","0.0-2.0-24.0-0.0","battery-v0.2","","""event"",""trial"",""time""
""fullscreenenter"",""1"",""3219""
","
","
","""event"",""trial"",""time""
""fullscreenenter"",""1"",""3219""
","
","","","7665.600000023842","[""True""]","0","12","13619","5915","","","","","","","","","","","","","","","","","","",""
"pit-instructions","115","843103","0.0-2.0-24.0-1.0","battery-v0.2","","""event"",""trial"",""time""
""fullscreenenter"",""1"",""3219""
","
","
","""event"",""trial"",""time""
""fullscreenenter"",""1"",""3219""
","
","","[{""page_index"":0,""viewing_time"":1498.2000000476837}]","1498.5","","","","","","","","","","","","","","","","","","","","","","","",""
"pit-comprehension","116","849362","0.0-2.0-25.0-0.0","battery-v0.2","","""event"",""trial"",""time""
""fullscreenenter"",""1"",""3219""
","
","
","""event"",""trial"",""time""
""fullscreenenter"",""1"",""3219""
","
","","","6256.399999976158","[""True""]","0","12","13619","5915","","","","","","","","","","","","","","","","","","",""
"pit-instructions","117","851049","0.0-2.0-25.0-1.0","battery-v0.2","","""event"",""trial"",""time""
""fullscreenenter"",""1"",""3219""
","
","
","""event"",""trial"",""time""
""fullscreenenter"",""1"",""3219""
","
","","[{""page_index"":0,""viewing_time"":1646.1999999284744}]","1646.5999999046326","","","","","","","","","","","","","","","","","","","","","","","",""
"pit-comprehension","118","857301","0.0-2.0-26.0-0.0","battery-v0.2","","""event"",""trial"",""time""
""fullscreenenter"",""1"",""3219""
","
","
","""event"",""trial"",""time""
""fullscreenenter"",""1"",""3219""
","
","","","6249.599999904633","[""False""]","0","12","13619","5915","","","","","","","","","","","","","","","","","","",""
"pit-instructions","119","858542","0.0-2.0-26.0-1.0","battery-v0.2","","""event"",""trial"",""time""
""fullscreenenter"",""1"",""3219""
","
","
","""event"",""trial"",""time""
""fullscreenenter"",""1"",""3219""
","
","","[{""page_index"":0,""viewing_time"":1201}]","1201.2999999523163","","","","","","","","","","","","","","","","","","","","","","","",""
"pit-instructions","120","874237","0.0-3.0","battery-v0.2","","""event"",""trial"",""time""
""fullscreenenter"",""1"",""3219""
","
","
","""event"",""trial"",""time""
""fullscreenenter"",""1"",""3219""
","
","","[{""page_index"":0,""viewing_time"":4073.2999999523163},{""page_index"":1,""viewing_time"":5273.899999976158},{""page_index"":2,""viewing_time"":6345.300000071526}]","15692.699999928474","","","","","","","","","","","","","","","","","","","","","","","",""
"pit-trial","121","878066","0.0-4.0","battery-v0.2","","""event"",""trial"",""time""
""fullscreenenter"",""1"",""3219""
","
","
","""event"",""trial"",""time""
""fullscreenenter"",""1"",""3219""
","
","","","969.2000000476837","","","12","13619","5915","&#9730;","elianto","#3366ff99"," "," ","1","+10","[1819.8999999761581]","1","1","","","13619","1","1","1","win","go","0"
"pit-trial","122","881986","0.0-5.0","battery-v0.2","","""event"",""trial"",""time""
""fullscreenenter"",""1"",""3219""
","
","
","""event"",""trial"",""time""
""fullscreenenter"",""1"",""3219""
","
","","","1065","","","12","13619","5915","&#9752;","elianto","#f73b6a7A"," "," ","1","-10","[1916.1000000238419]","1","1","","","13619","2","3","3","lose","go","1"
"pit-trial","123","885329","0.0-6.0","battery-v0.2","","""event"",""trial"",""time""
""fullscreenenter"",""1"",""3219""
","
","
","""event"",""trial"",""time""
""fullscreenenter"",""1"",""3219""
","
","","","490.10000002384186","","","12","13619","5915","&#9733;","elianto","#3366ff99","-1"," ","0","0","[1341.1999999284744,1427.0999999046326]","2","1","","","13619","3","2","2","win","no-go","0"
"pit-trial","124","890188","0.0-7.0","battery-v0.2","","""event"",""trial"",""time""
""fullscreenenter"",""1"",""3219""
","
","
","""event"",""trial"",""time""
""fullscreenenter"",""1"",""3219""
","
","","","-1","","","12","13619","5915","&#9728;","elianto","#f73b6a7A","-1","-1","1","0","[]","0","1","","","13619","4","0","4","lose","no-go","0"
"pit-trial","125","895047","0.0-8.0","battery-v0.2","","""event"",""trial"",""time""
""fullscreenenter"",""1"",""3219""
","
","
","""event"",""trial"",""time""
""fullscreenenter"",""1"",""3219""
","
","","","-1","","","12","13619","5915","&#9728;","elianto","#f73b6a7A","-1","-1","1","0","[]","0","1","","","13619","5","0","4","lose","no-go","0"
"pit-trial","126","899900","0.0-9.0","battery-v0.2","","""event"",""trial"",""time""
""fullscreenenter"",""1"",""3219""
","
","
","""event"",""trial"",""time""
""fullscreenenter"",""1"",""3219""
","
","","","-1","","","12","13619","5915","&#9752;","elianto","#f73b6a7A"," ","-1","0","-10","[]","0","1","","","13619","6","3","3","lose","go","0"
"pit-trial","127","903479","0.0-10.0","battery-v0.2","","""event"",""trial"",""time""
""fullscreenenter"",""1"",""3219""
","
","
","""event"",""trial"",""time""
""fullscreenenter"",""1"",""3219""
","
","","","720.2000000476837","","","12","13619","5915","&#9730;","elianto","#3366ff99"," "," ","1","+10","[1572.1000000238419,1719.2999999523163]","2","1","","","13619","7","1","1","win","go","0"
"pit-trial","128","906922","0.0-11.0","battery-v0.2","","""event"",""trial"",""time""
""fullscreenenter"",""1"",""3219""
","
","
","""event"",""trial"",""time""
""fullscreenenter"",""1"",""3219""
","
","","","586.8000000715256","","","12","13619","5915","&#9733;","elianto","#3366ff99","-1"," ","0","0","[1437.6000000238419,1607.7000000476837]","2","1","","","13619","8","2","2","win","no-go","0"
"pit-trial","129","911783","0.0-12.0","battery-v0.2","","""event"",""trial"",""time""
""fullscreenenter"",""1"",""3219""
","
","
","""event"",""trial"",""time""
""fullscreenenter"",""1"",""3219""
","
","","","-1","","","12","13619","5915","&#9752;","elianto","#f73b6a7A"," ","-1","0","0","[]","0","1","","","13619","9","3","3","lose","go","1"
"pit-trial","130","915210","0.0-13.0","battery-v0.2","","""event"",""trial"",""time""
""fullscreenenter"",""1"",""3219""
","
","
","""event"",""trial"",""time""
""fullscreenenter"",""1"",""3219""
","
","","","569","","","12","13619","5915","&#9730;","elianto","#3366ff99"," "," ","1","0","[1420.4000000953674,1597.2000000476837]","2","1","","","13619","10","1","1","win","go","1"
"pit-trial","131","920070","0.0-14.0","battery-v0.2","","""event"",""trial"",""time""
""fullscreenenter"",""1"",""3219""
","
","
","""event"",""trial"",""time""
""fullscreenenter"",""1"",""3219""
","
","","","-1","","","12","13619","5915","&#9728;","elianto","#f73b6a7A","-1","-1","1","0","[]","0","1","","","13619","11","0","4","lose","no-go","0"
"pit-trial","132","923830","0.0-15.0","battery-v0.2","","""event"",""trial"",""time""
""fullscreenenter"",""1"",""3219""
","
","
","""event"",""trial"",""time""
""fullscreenenter"",""1"",""3219""
","
","","","900.1000000238419","","","12","13619","5915","&#9733;","elianto","#3366ff99","-1"," ","0","0","[1752.3999999761581]","1","1","","","13619","12","2","2","win","no-go","0"
"pit-trial","133","928692","0.0-16.0","battery-v0.2","","""event"",""trial"",""time""
""fullscreenenter"",""1"",""3219""
","
","
","""event"",""trial"",""time""
""fullscreenenter"",""1"",""3219""
","
","","","-1","","","12","13619","5915","&#9733;","elianto","#3366ff99","-1","-1","1","+10","[]","0","1","","","13619","13","2","2","win","no-go","0"
"pit-trial","134","932182","0.0-17.0","battery-v0.2","","""event"",""trial"",""time""
""fullscreenenter"",""1"",""3219""
","
","
","""event"",""trial"",""time""
""fullscreenenter"",""1"",""3219""
","
","","","635.1999999284744","","","12","13619","5915","&#9730;","elianto","#3366ff99"," "," ","1","+10","[1486.1999999284744]","1","1","","","13619","14","1","1","win","go","0"
"pit-trial","135","937045","0.0-18.0","battery-v0.2","","""event"",""trial"",""time""
""fullscreenenter"",""1"",""3219""
","
","
","""event"",""trial"",""time""
""fullscreenenter"",""1"",""3219""
","
","","","-1","","","12","13619","5915","&#9752;","elianto","#f73b6a7A"," ","-1","0","0","[]","0","1","","","13619","15","3","3","lose","go","1"
"pit-trial","136","941905","0.0-19.0","battery-v0.2","","""event"",""trial"",""time""
""fullscreenenter"",""1"",""3219""
","
","
","""event"",""trial"",""time""
""fullscreenenter"",""1"",""3219""
","
","","","-1","","","12","13619","5915","&#9728;","elianto","#f73b6a7A","-1","-1","1","0","[]","0","1","","","13619","16","0","4","lose","no-go","0"
"pit-trial","137","946767","0.0-20.0","battery-v0.2","","""event"",""trial"",""time""
""fullscreenenter"",""1"",""3219""
","
","
","""event"",""trial"",""time""
""fullscreenenter"",""1"",""3219""
","
","","","-1","","","12","13619","5915","&#9728;","elianto","#f73b6a7A","-1","-1","1","0","[]","0","1","","","13619","17","0","4","lose","no-go","0"
"pit-trial","138","951628","0.0-21.0","battery-v0.2","","""event"",""trial"",""time""
""fullscreenenter"",""1"",""3219""
","
","
","""event"",""trial"",""time""
""fullscreenenter"",""1"",""3219""
","
","","","-1","","","12","13619","5915","&#9752;","elianto","#f73b6a7A"," ","-1","0","0","[]","0","1","","","13619","18","3","3","lose","go","1"
"pit-trial","139","955889","0.0-22.0","battery-v0.2","","""event"",""trial"",""time""
""fullscreenenter"",""1"",""3219""
","
","
","""event"",""trial"",""time""
""fullscreenenter"",""1"",""3219""
","
","","","1404.8999999761581","","","12","13619","5915","&#9733;","elianto","#3366ff99","-1"," ","0","0","[2255.7999999523163]","1","1","","","13619","19","2","2","win","no-go","0"
"pit-trial","140","959910","0.0-23.0","battery-v0.2","","""event"",""trial"",""time""
""fullscreenenter"",""1"",""3219""
","
","
","""event"",""trial"",""time""
""fullscreenenter"",""1"",""3219""
","
","","","1164.1000000238419","","","12","13619","5915","&#9730;","elianto","#3366ff99"," "," ","1","+10","[2014.8999999761581,2230.100000023842]","2","1","","","13619","20","1","1","win","go","0"
"pit-instructions","141","972041","0.0-24.0","battery-v0.2","","""event"",""trial"",""time""
""fullscreenenter"",""1"",""3219""
","
","
","""event"",""trial"",""time""
""fullscreenenter"",""1"",""3219""
","
","","[{""page_index"":0,""viewing_time"":5481.899999976158},{""page_index"":1,""viewing_time"":6646.900000095367}]","12129.100000023842","","","","","","","","","","","","","","","","","","","","","","","",""
"pit-trial","142","976898","0.0-25.0","battery-v0.2","","""event"",""trial"",""time""
""fullscreenenter"",""1"",""3219""
","
","
","""event"",""trial"",""time""
""fullscreenenter"",""1"",""3219""
","
","","","-1","","","12","13619","5915","e","elianto","#f73b6a7A","-1","-1","1","0","[]","0","2","","","13619","21","2","4","lose","no-go","0"
"pit-trial","143","980529","0.0-26.0","battery-v0.2","","""event"",""trial"",""time""
""fullscreenenter"",""1"",""3219""
","
","
","""event"",""trial"",""time""
""fullscreenenter"",""1"",""3219""
","
","","","775.3000000715256","","","12","13619","5915","w","elianto","#f73b6a7A"," "," ","1","0","[1627.9000000953674]","1","2","","","13619","22","3","3","lose","go","0"
"pit-trial","144","983958","0.0-27.0","battery-v0.2","","""event"",""trial"",""time""
""fullscreenenter"",""1"",""3219""
","
","
","""event"",""trial"",""time""
""fullscreenenter"",""1"",""3219""
","
","","","571.1000000238419","","","12","13619","5915","d","elianto","#3366ff99"," "," ","1","+10","[1421.7000000476837]","1","2","","","13619","23","1","1","win","go","0"
"pit-trial","145","988817","0.0-28.0","battery-v0.2","","""event"",""trial"",""time""
""fullscreenenter"",""1"",""3219""
","
","
","""event"",""trial"",""time""
""fullscreenenter"",""1"",""3219""
","
","","","-1","","","12","13619","5915","j","elianto","#f73b6a7A","-1","-1","1","0","[]","0","2","","","13619","24","0","4","lose","no-go","0"
"pit-trial","146","993158","0.0-29.0","battery-v0.2","","""event"",""trial"",""time""
""fullscreenenter"",""1"",""3219""
","
","
","""event"",""trial"",""time""
""fullscreenenter"",""1"",""3219""
","
","","","1485.2999999523163","","","12","13619","5915","j","elianto","#f73b6a7A","-1"," ","0","-10","[2336]","1","2","","","13619","25","0","4","lose","no-go","0"
"pit-trial","147","996641","0.0-30.0","battery-v0.2","","""event"",""trial"",""time""
""fullscreenenter"",""1"",""3219""
","
","
","""event"",""trial"",""time""
""fullscreenenter"",""1"",""3219""
","
","","","627.2999999523163","","","12","13619","5915","d","elianto","#3366ff99"," "," ","1","+10","[1478.3999999761581]","1","2","","","13619","26","1","1","win","go","0"
"pit-trial","148","1001503","0.0-31.0","battery-v0.2","","""event"",""trial"",""time""
""fullscreenenter"",""1"",""3219""
","
","
","""event"",""trial"",""time""
""fullscreenenter"",""1"",""3219""
","
","","","-1","","","12","13619","5915","e","elianto","#f73b6a7A","-1","-1","1","-10","[]","0","2","","","13619","27","2","4","lose","no-go","1"
"pit-trial","149","1006363","0.0-32.0","battery-v0.2","","""event"",""trial"",""time""
""fullscreenenter"",""1"",""3219""
","
","
","""event"",""trial"",""time""
""fullscreenenter"",""1"",""3219""
","
","","","-1","","","12","13619","5915","w","elianto","#f73b6a7A"," ","-1","0","0","[]","0","2","","","13619","28","3","3","lose","go","1"
"pit-trial","150","1009863","0.0-33.0","battery-v0.2","","""event"",""trial"",""time""
""fullscreenenter"",""1"",""3219""
","
","
","""event"",""trial"",""time""
""fullscreenenter"",""1"",""3219""
","
","","","643.8999999761581","","","12","13619","5915","d","elianto","#3366ff99"," "," ","1","+10","[1495.3999999761581]","1","2","","","13619","29","1","1","win","go","0"
"pit-trial","151","1014717","0.0-34.0","battery-v0.2","","""event"",""trial"",""time""
""fullscreenenter"",""1"",""3219""
","
","
","""event"",""trial"",""time""
""fullscreenenter"",""1"",""3219""
","
","","","-1","","","12","13619","5915","w","elianto","#f73b6a7A"," ","-1","0","-10","[]","0","2","","","13619","30","3","3","lose","go","0"
"pit-trial","152","1019574","0.0-35.0","battery-v0.2","","""event"",""trial"",""time""
""fullscreenenter"",""1"",""3219""
","
","
","""event"",""trial"",""time""
""fullscreenenter"",""1"",""3219""
","
","","","-1","","","12","13619","5915","e","elianto","#f73b6a7A","-1","-1","1","0","[]","0","2","","","13619","31","2","4","lose","no-go","0"
"pit-trial","153","1024432","0.0-36.0","battery-v0.2","","""event"",""trial"",""time""
""fullscreenenter"",""1"",""3219""
","
","
","""event"",""trial"",""time""
""fullscreenenter"",""1"",""3219""
","
","","","-1","","","12","13619","5915","j","elianto","#f73b6a7A","-1","-1","1","0","[]","0","2","","","13619","32","0","4","lose","no-go","0"
"pit-trial","154","1029291","0.0-37.0","battery-v0.2","","""event"",""trial"",""time""
""fullscreenenter"",""1"",""3219""
","
","
","""event"",""trial"",""time""
""fullscreenenter"",""1"",""3219""
","
","","","-1","","","12","13619","5915","e","elianto","#f73b6a7A","-1","-1","1","0","[]","0","2","","","13619","33","2","4","lose","no-go","0"
"pit-trial","155","1034150","0.0-38.0","battery-v0.2","","""event"",""trial"",""time""
""fullscreenenter"",""1"",""3219""
","
","
","""event"",""trial"",""time""
""fullscreenenter"",""1"",""3219""
","
","","","-1","","","12","13619","5915","w","elianto","#f73b6a7A"," ","-1","0","-10","[]","0","2","","","13619","34","3","3","lose","go","0"
"pit-trial","156","1039008","0.0-39.0","battery-v0.2","","""event"",""trial"",""time""
""fullscreenenter"",""1"",""3219""
","
","
","""event"",""trial"",""time""
""fullscreenenter"",""1"",""3219""
","
","","","-1","","","12","13619","5915","j","elianto","#f73b6a7A","-1","-1","1","-10","[]","0","2","","","13619","35","0","4","lose","no-go","1"
"pit-trial","157","1042678","0.0-40.0","battery-v0.2","","""event"",""trial"",""time""
""fullscreenenter"",""1"",""3219""
","
","
","""event"",""trial"",""time""
""fullscreenenter"",""1"",""3219""
","
","","","812.5","","","12","13619","5915","d","elianto","#3366ff99"," "," ","1","+10","[1663.6999999284744]","1","2","","","13619","36","1","1","win","go","0"
"pit-trial","158","1046352","0.0-41.0","battery-v0.2","","""event"",""trial"",""time""
""fullscreenenter"",""1"",""3219""
","
","
","""event"",""trial"",""time""
""fullscreenenter"",""1"",""3219""
","
","","","819.1000000238419","","","12","13619","5915","d","elianto","#3366ff99"," "," ","1","+10","[1670.6999999284744]","1","2","","","13619","37","1","1","win","go","0"
"pit-trial","159","1051211","0.0-42.0","battery-v0.2","","""event"",""trial"",""time""
""fullscreenenter"",""1"",""3219""
","
","
","""event"",""trial"",""time""
""fullscreenenter"",""1"",""3219""
","
","","","-1","","","12","13619","5915","e","elianto","#f73b6a7A","-1","-1","1","-10","[]","0","2","","","13619","38","2","4","lose","no-go","1"
"pit-trial","160","1056069","0.0-43.0","battery-v0.2","","""event"",""trial"",""time""
""fullscreenenter"",""1"",""3219""
","
","
","""event"",""trial"",""time""
""fullscreenenter"",""1"",""3219""
","
","","","-1","","","12","13619","5915","j","elianto","#f73b6a7A","-1","-1","1","0","[]","0","2","","","13619","39","0","4","lose","no-go","0"
"pit-trial","161","1060928","0.0-44.0","battery-v0.2","","""event"",""trial"",""time""
""fullscreenenter"",""1"",""3219""
","
","
","""event"",""trial"",""time""
""fullscreenenter"",""1"",""3219""
","
","","","-1","","","12","13619","5915","w","elianto","#f73b6a7A"," ","-1","0","0","[]","0","2","","","13619","40","3","3","lose","go","1"
"pit-trial","162","1064682","0.0-45.0","battery-v0.2","","""event"",""trial"",""time""
""fullscreenenter"",""1"",""3219""
","
","
","""event"",""trial"",""time""
""fullscreenenter"",""1"",""3219""
","
","","","896.1999999284744","","","12","13619","5915","d","elianto","#3366ff99"," "," ","1","+10","[1747.2999999523163]","1","2","","","13619","41","1","1","win","go","0"
"pit-trial","163","1069536","0.0-46.0","battery-v0.2","","""event"",""trial"",""time""
""fullscreenenter"",""1"",""3219""
","
","
","""event"",""trial"",""time""
""fullscreenenter"",""1"",""3219""
","
","","","-1","","","12","13619","5915","e","elianto","#f73b6a7A","-1","-1","1","0","[3862.100000023842]","1","2","","","13619","42","2","4","lose","no-go","0"
"pit-trial","164","1074393","0.0-47.0","battery-v0.2","","""event"",""trial"",""time""
""fullscreenenter"",""1"",""3219""
","
","
","""event"",""trial"",""time""
""fullscreenenter"",""1"",""3219""
","
","","","-1","","","12","13619","5915","j","elianto","#f73b6a7A","-1","-1","1","0","[]","0","2","","","13619","43","0","4","lose","no-go","0"
"pit-trial","165","1079248","0.0-48.0","battery-v0.2","","""event"",""trial"",""time""
""fullscreenenter"",""1"",""3219""
","
","
","""event"",""trial"",""time""
""fullscreenenter"",""1"",""3219""
","
","","","-1","","","12","13619","5915","w","elianto","#f73b6a7A"," ","-1","0","-10","[]","0","2","","","13619","44","3","3","lose","go","0"
"pit-trial","166","1082639","0.0-49.0","battery-v0.2","","""event"",""trial"",""time""
""fullscreenenter"",""1"",""3219""
","
","
","""event"",""trial"",""time""
""fullscreenenter"",""1"",""3219""
","
","","","533.8999999761581","","","12","13619","5915","s","elianto","#3366ff99","-1"," ","0","+10","[1385.0999999046326]","1","2","","","13619","45","4","2","win","no-go","1"
"pit-trial","167","1087496","0.0-50.0","battery-v0.2","","""event"",""trial"",""time""
""fullscreenenter"",""1"",""3219""
","
","
","""event"",""trial"",""time""
""fullscreenenter"",""1"",""3219""
","
","","","-1","","","12","13619","5915","w","elianto","#f73b6a7A"," ","-1","0","-10","[]","0","2","","","13619","46","3","3","lose","go","0"
"pit-trial","168","1092353","0.0-51.0","battery-v0.2","","""event"",""trial"",""time""
""fullscreenenter"",""1"",""3219""
","
","
","""event"",""trial"",""time""
""fullscreenenter"",""1"",""3219""
","
","","","-1","","","12","13619","5915","e","elianto","#f73b6a7A","-1","-1","1","0","[]","0","2","","","13619","47","2","4","lose","no-go","0"
"pit-trial","169","1097210","0.0-52.0","battery-v0.2","","""event"",""trial"",""time""
""fullscreenenter"",""1"",""3219""
","
","
","""event"",""trial"",""time""
""fullscreenenter"",""1"",""3219""
","
","","","-1","","","12","13619","5915","j","elianto","#f73b6a7A","-1","-1","1","0","[]","0","2","","","13619","48","0","4","lose","no-go","0"
"pit-trial","170","1100923","0.0-53.0","battery-v0.2","","""event"",""trial"",""time""
""fullscreenenter"",""1"",""3219""
","
","
","""event"",""trial"",""time""
""fullscreenenter"",""1"",""3219""
","
","","","856","","","12","13619","5915","s","elianto","#3366ff99","-1"," ","0","0","[1708.5]","1","2","","","13619","49","4","2","win","no-go","0"
"pit-trial","171","1105781","0.0-54.0","battery-v0.2","","""event"",""trial"",""time""
""fullscreenenter"",""1"",""3219""
","
","
","""event"",""trial"",""time""
""fullscreenenter"",""1"",""3219""
","
","","","-1","","","12","13619","5915","w","elianto","#f73b6a7A"," ","-1","0","-10","[]","0","2","","","13619","50","3","3","lose","go","0"
"pit-trial","172","1109339","0.0-55.0","battery-v0.2","","""event"",""trial"",""time""
""fullscreenenter"",""1"",""3219""
","
","
","""event"",""trial"",""time""
""fullscreenenter"",""1"",""3219""
","
","","","701.2000000476837","","","12","13619","5915","d","elianto","#3366ff99"," "," ","1","+10","[1553.2000000476837]","1","2","","","13619","51","1","1","win","go","0"
"pit-trial","173","1114197","0.0-56.0","battery-v0.2","","""event"",""trial"",""time""
""fullscreenenter"",""1"",""3219""
","
","
","""event"",""trial"",""time""
""fullscreenenter"",""1"",""3219""
","
","","","-1","","","12","13619","5915","j","elianto","#f73b6a7A","-1","-1","1","0","[]","0","2","","","13619","52","0","4","lose","no-go","0"
"pit-trial","174","1119050","0.0-57.0","battery-v0.2","","""event"",""trial"",""time""
""fullscreenenter"",""1"",""3219""
","
","
","""event"",""trial"",""time""
""fullscreenenter"",""1"",""3219""
","
","","","-1","","","12","13619","5915","j","elianto","#f73b6a7A","-1","-1","1","-10","[]","0","2","","","13619","53","0","4","lose","no-go","1"
"pit-trial","175","1123067","0.0-58.0","battery-v0.2","","""event"",""trial"",""time""
""fullscreenenter"",""1"",""3219""
","
","
","""event"",""trial"",""time""
""fullscreenenter"",""1"",""3219""
","
","","","1163.6000000238419","","","12","13619","5915","s","elianto","#3366ff99","-1"," ","0","0","[2014.1999999284744,2178.899999976158]","2","2","","","13619","54","4","2","win","no-go","0"
"pit-trial","176","1127925","0.0-59.0","battery-v0.2","","""event"",""trial"",""time""
""fullscreenenter"",""1"",""3219""
","
","
","""event"",""trial"",""time""
""fullscreenenter"",""1"",""3219""
","
","","","-1","","","12","13619","5915","e","elianto","#f73b6a7A","-1","-1","1","0","[]","0","2","","","13619","55","2","4","lose","no-go","0"
"pit-trial","177","1131685","0.0-60.0","battery-v0.2","","""event"",""trial"",""time""
""fullscreenenter"",""1"",""3219""
","
","
","""event"",""trial"",""time""
""fullscreenenter"",""1"",""3219""
","
","","","905.5","","","12","13619","5915","d","elianto","#3366ff99"," "," ","1","+10","[1757]","1","2","","","13619","56","1","1","win","go","0"
"pit-trial","178","1135621","0.0-61.0","battery-v0.2","","""event"",""trial"",""time""
""fullscreenenter"",""1"",""3219""
","
","
","""event"",""trial"",""time""
""fullscreenenter"",""1"",""3219""
","
","","","1081.1000000238419","","","12","13619","5915","s","elianto","#3366ff99","-1"," ","0","0","[1932.6000000238419]","1","2","","","13619","57","4","2","win","no-go","0"
"pit-trial","179","1140480","0.0-62.0","battery-v0.2","","""event"",""trial"",""time""
""fullscreenenter"",""1"",""3219""
","
","
","""event"",""trial"",""time""
""fullscreenenter"",""1"",""3219""
","
","","","-1","","","12","13619","5915","w","elianto","#f73b6a7A"," ","-1","0","-10","[]","0","2","","","13619","58","3","3","lose","go","0"
"pit-trial","180","1144234","0.0-63.0","battery-v0.2","","""event"",""trial"",""time""
""fullscreenenter"",""1"",""3219""
","
","
","""event"",""trial"",""time""
""fullscreenenter"",""1"",""3219""
","
","","","897.3999999761581","","","12","13619","5915","d","elianto","#3366ff99"," "," ","1","+10","[1748.1999999284744]","1","2","","","13619","59","1","1","win","go","0"
"pit-trial","181","1149093","0.0-64.0","battery-v0.2","","""event"",""trial"",""time""
""fullscreenenter"",""1"",""3219""
","
","
","""event"",""trial"",""time""
""fullscreenenter"",""1"",""3219""
","
","","","-1","","","12","13619","5915","j","elianto","#f73b6a7A","-1","-1","1","-10","[]","0","2","","","13619","60","0","4","lose","no-go","1"
"pit-trial","182","1153948","0.0-65.0","battery-v0.2","","""event"",""trial"",""time""
""fullscreenenter"",""1"",""3219""
","
","
","""event"",""trial"",""time""
""fullscreenenter"",""1"",""3219""
","
","","","-1","","","12","13619","5915","w","elianto","#f73b6a7A"," ","-1","0","-10","[]","0","2","","","13619","61","3","3","lose","go","0"
"pit-trial","183","1157803","0.0-66.0","battery-v0.2","","""event"",""trial"",""time""
""fullscreenenter"",""1"",""3219""
","
","
","""event"",""trial"",""time""
""fullscreenenter"",""1"",""3219""
","
","","","999.7000000476837","","","12","13619","5915","d","elianto","#3366ff99"," "," ","1","0","[1850.2000000476837]","1","2","","","13619","62","1","1","win","go","1"
"pit-trial","184","1162661","0.0-67.0","battery-v0.2","","""event"",""trial"",""time""
""fullscreenenter"",""1"",""3219""
","
","
","""event"",""trial"",""time""
""fullscreenenter"",""1"",""3219""
","
","","","-1","","","12","13619","5915","s","elianto","#3366ff99","-1","-1","1","+10","[3147.7999999523163]","1","2","","","13619","63","4","2","win","no-go","0"
"pit-trial","185","1167519","0.0-68.0","battery-v0.2","","""event"",""trial"",""time""
""fullscreenenter"",""1"",""3219""
","
","
","""event"",""trial"",""time""
""fullscreenenter"",""1"",""3219""
","
","","","-1","","","12","13619","5915","e","elianto","#f73b6a7A","-1","-1","1","0","[]","0","2","","","13619","64","2","4","lose","no-go","0"
"pit-trial","186","1171129","0.0-69.0","battery-v0.2","","""event"",""trial"",""time""
""fullscreenenter"",""1"",""3219""
","
","
","""event"",""trial"",""time""
""fullscreenenter"",""1"",""3219""
","
","","","753.5","","","12","13619","5915","d","elianto","#3366ff99"," "," ","1","+10","[1605.3000000715256]","1","2","","","13619","65","1","1","win","go","0"
"pit-trial","187","1175983","0.0-70.0","battery-v0.2","","""event"",""trial"",""time""
""fullscreenenter"",""1"",""3219""
","
","
","""event"",""trial"",""time""
""fullscreenenter"",""1"",""3219""
","
","","","-1","","","12","13619","5915","w","elianto","#f73b6a7A"," ","-1","0","0","[]","0","2","","","13619","66","3","3","lose","go","1"
"pit-trial","188","1180842","0.0-71.0","battery-v0.2","","""event"",""trial"",""time""
""fullscreenenter"",""1"",""3219""
","
","
","""event"",""trial"",""time""
""fullscreenenter"",""1"",""3219""
","
","","","-1","","","12","13619","5915","e","elianto","#f73b6a7A","-1","-1","1","-10","[]","0","2","","","13619","67","2","4","lose","no-go","1"
"pit-trial","189","1184549","0.0-72.0","battery-v0.2","","""event"",""trial"",""time""
""fullscreenenter"",""1"",""3219""
","
","
","""event"",""trial"",""time""
""fullscreenenter"",""1"",""3219""
","
","","","849.3999999761581","","","12","13619","5915","s","elianto","#3366ff99","-1"," ","0","0","[1701.1999999284744]","1","2","","","13619","68","4","2","win","no-go","0"
"pit-trial","190","1188191","0.0-73.0","battery-v0.2","","""event"",""trial"",""time""
""fullscreenenter"",""1"",""3219""
","
","
","""event"",""trial"",""time""
""fullscreenenter"",""1"",""3219""
","
","","","787.6000000238419","","","12","13619","5915","p","elianto","#3366ff99"," "," ","1","0","[1639.2000000476837]","1","2","","","13619","69","5","1","win","go","1"
"pit-trial","191","1191557","0.0-74.0","battery-v0.2","","""event"",""trial"",""time""
""fullscreenenter"",""1"",""3219""
","
","
","""event"",""trial"",""time""
""fullscreenenter"",""1"",""3219""
","
","","","506.10000002384186","","","12","13619","5915","s","elianto","#3366ff99","-1"," ","0","0","[1357.5]","1","2","","","13619","70","4","2","win","no-go","0"
"pit-trial","192","1195029","0.0-75.0","battery-v0.2","","""event"",""trial"",""time""
""fullscreenenter"",""1"",""3219""
","
","
","""event"",""trial"",""time""
""fullscreenenter"",""1"",""3219""
","
","","","616.5","","","12","13619","5915","d","elianto","#3366ff99"," "," ","1","+10","[1467.3999999761581]","1","2","","","13619","71","1","1","win","go","0"
"pit-trial","193","1199888","0.0-76.0","battery-v0.2","","""event"",""trial"",""time""
""fullscreenenter"",""1"",""3219""
","
","
","""event"",""trial"",""time""
""fullscreenenter"",""1"",""3219""
","
","","","-1","","","12","13619","5915","w","elianto","#f73b6a7A"," ","-1","0","-10","[]","0","2","","","13619","72","3","3","lose","go","0"
"pit-trial","194","1203743","0.0-77.0","battery-v0.2","","""event"",""trial"",""time""
""fullscreenenter"",""1"",""3219""
","
","
","""event"",""trial"",""time""
""fullscreenenter"",""1"",""3219""
","
","","","1001.3999999761581","","","12","13619","5915","d","elianto","#3366ff99"," "," ","1","+10","[1852.2000000476837]","1","2","","","13619","73","1","1","win","go","0"
"pit-trial","195","1207242","0.0-78.0","battery-v0.2","","""event"",""trial"",""time""
""fullscreenenter"",""1"",""3219""
","
","
","""event"",""trial"",""time""
""fullscreenenter"",""1"",""3219""
","
","","","642.4000000953674","","","12","13619","5915","s","elianto","#3366ff99","-1"," ","0","0","[1494.1000000238419]","1","2","","","13619","74","4","2","win","no-go","0"
"pit-trial","196","1210650","0.0-79.0","battery-v0.2","","""event"",""trial"",""time""
""fullscreenenter"",""1"",""3219""
","
","
","""event"",""trial"",""time""
""fullscreenenter"",""1"",""3219""
","
","","","549.6000000238419","","","12","13619","5915","p","elianto","#3366ff99"," "," ","1","+10","[1400.7000000476837]","1","2","","","13619","75","5","1","win","go","0"
"pit-trial","197","1215509","0.0-80.0","battery-v0.2","","""event"",""trial"",""time""
""fullscreenenter"",""1"",""3219""
","
","
","""event"",""trial"",""time""
""fullscreenenter"",""1"",""3219""
","
","","","-1","","","12","13619","5915","w","elianto","#f73b6a7A"," ","-1","0","-10","[]","0","2","","","13619","76","3","3","lose","go","0"
"pit-trial","198","1220367","0.0-81.0","battery-v0.2","","""event"",""trial"",""time""
""fullscreenenter"",""1"",""3219""
","
","
","""event"",""trial"",""time""
""fullscreenenter"",""1"",""3219""
","
","","","-1","","","12","13619","5915","g","elianto","#f73b6a7A","-1","-1","1","-10","[]","0","2","","","13619","77","6","4","lose","no-go","1"
"pit-trial","199","1225221","0.0-82.0","battery-v0.2","","""event"",""trial"",""time""
""fullscreenenter"",""1"",""3219""
","
","
","""event"",""trial"",""time""
""fullscreenenter"",""1"",""3219""
","
","","","-1","","","12","13619","5915","w","elianto","#f73b6a7A"," ","-1","0","-10","[]","0","2","","","13619","78","3","3","lose","go","0"
"pit-trial","200","1228649","0.0-83.0","battery-v0.2","","""event"",""trial"",""time""
""fullscreenenter"",""1"",""3219""
","
","
","""event"",""trial"",""time""
""fullscreenenter"",""1"",""3219""
","
","","","570.3999999761581","","","12","13619","5915","s","elianto","#3366ff99","-1"," ","0","0","[1421.5999999046326]","1","2","","","13619","79","4","2","win","no-go","0"
"pit-trial","201","1231992","0.0-84.0","battery-v0.2","","""event"",""trial"",""time""
""fullscreenenter"",""1"",""3219""
","
","
","""event"",""trial"",""time""
""fullscreenenter"",""1"",""3219""
","
","","","488","","","12","13619","5915","p","elianto","#3366ff99"," "," ","1","0","[1338.9000000953674]","1","2","","","13619","80","5","1","win","go","1"
"pit-trial","202","1235402","0.0-85.0","battery-v0.2","","""event"",""trial"",""time""
""fullscreenenter"",""1"",""3219""
","
","
","""event"",""trial"",""time""
""fullscreenenter"",""1"",""3219""
","
","","","555.5","","","12","13619","5915","s","elianto","#3366ff99","-1"," ","0","0","[1406.2999999523163]","1","2","","","13619","81","4","2","win","no-go","0"
"pit-trial","203","1238794","0.0-86.0","battery-v0.2","","""event"",""trial"",""time""
""fullscreenenter"",""1"",""3219""
","
","
","""event"",""trial"",""time""
""fullscreenenter"",""1"",""3219""
","
","","","539.3999999761581","","","12","13619","5915","p","elianto","#3366ff99"," "," ","1","+10","[1390.2999999523163]","1","2","","","13619","82","5","1","win","go","0"
"pit-trial","204","1243652","0.0-87.0","battery-v0.2","","""event"",""trial"",""time""
""fullscreenenter"",""1"",""3219""
","
","
","""event"",""trial"",""time""
""fullscreenenter"",""1"",""3219""
","
","","","-1","","","12","13619","5915","a","elianto","#f73b6a7A"," ","-1","0","-10","[]","0","2","","","13619","83","7","3","lose","go","0"
"pit-trial","205","1248510","0.0-88.0","battery-v0.2","","""event"",""trial"",""time""
""fullscreenenter"",""1"",""3219""
","
","
","""event"",""trial"",""time""
""fullscreenenter"",""1"",""3219""
","
","","","-1","","","12","13619","5915","g","elianto","#f73b6a7A","-1","-1","1","0","[]","0","2","","","13619","84","6","4","lose","no-go","0"
"pit-trial","206","1251924","0.0-89.0","battery-v0.2","","""event"",""trial"",""time""
""fullscreenenter"",""1"",""3219""
","
","
","""event"",""trial"",""time""
""fullscreenenter"",""1"",""3219""
","
","","","558.1000000238419","","","12","13619","5915","s","elianto","#3366ff99","-1"," ","0","0","[1410.2000000476837]","1","2","","","13619","85","4","2","win","no-go","0"
"pit-trial","207","1256780","0.0-90.0","battery-v0.2","","""event"",""trial"",""time""
""fullscreenenter"",""1"",""3219""
","
","
","""event"",""trial"",""time""
""fullscreenenter"",""1"",""3219""
","
","","","-1","","","12","13619","5915","a","elianto","#f73b6a7A"," ","-1","0","-10","[]","0","2","","","13619","86","7","3","lose","go","0"
"pit-trial","208","1260612","0.0-91.0","battery-v0.2","","""event"",""trial"",""time""
""fullscreenenter"",""1"",""3219""
","
","
","""event"",""trial"",""time""
""fullscreenenter"",""1"",""3219""
","
","","","973.2999999523163","","","12","13619","5915","p","elianto","#3366ff99"," "," ","1","+10","[1824.8999999761581]","1","2","","","13619","87","5","1","win","go","0"
"pit-trial","209","1265471","0.0-92.0","battery-v0.2","","""event"",""trial"",""time""
""fullscreenenter"",""1"",""3219""
","
","
","""event"",""trial"",""time""
""fullscreenenter"",""1"",""3219""
","
","","","-1","","","12","13619","5915","g","elianto","#f73b6a7A","-1","-1","1","-10","[]","0","2","","","13619","88","6","4","lose","no-go","1"
"pit-trial","210","1268850","0.0-93.0","battery-v0.2","","""event"",""trial"",""time""
""fullscreenenter"",""1"",""3219""
","
","
","""event"",""trial"",""time""
""fullscreenenter"",""1"",""3219""
","
","","","522.6000000238419","","","12","13619","5915","s","elianto","#3366ff99","-1"," ","0","0","[1373.5]","1","2","","","13619","89","4","2","win","no-go","0"
"pit-trial","211","1272308","0.0-94.0","battery-v0.2","","""event"",""trial"",""time""
""fullscreenenter"",""1"",""3219""
","
","
","""event"",""trial"",""time""
""fullscreenenter"",""1"",""3219""
","
","","","599.7999999523163","","","12","13619","5915","p","elianto","#3366ff99"," "," ","1","0","[1452.6000000238419]","1","2","","","13619","90","5","1","win","go","1"
"pit-trial","212","1277166","0.0-95.0","battery-v0.2","","""event"",""trial"",""time""
""fullscreenenter"",""1"",""3219""
","
","
","""event"",""trial"",""time""
""fullscreenenter"",""1"",""3219""
","
","","","-1","","","12","13619","5915","a","elianto","#f73b6a7A"," ","-1","0","-10","[]","0","2","","","13619","91","7","3","lose","go","0"
"pit-trial","213","1282023","0.0-96.0","battery-v0.2","","""event"",""trial"",""time""
""fullscreenenter"",""1"",""3219""
","
","
","""event"",""trial"",""time""
""fullscreenenter"",""1"",""3219""
","
","","","-1","","","12","13619","5915","g","elianto","#f73b6a7A","-1","-1","1","-10","[]","0","2","","","13619","92","6","4","lose","no-go","1"
"pit-trial","214","1285366","0.0-97.0","battery-v0.2","","""event"",""trial"",""time""
""fullscreenenter"",""1"",""3219""
","
","
","""event"",""trial"",""time""
""fullscreenenter"",""1"",""3219""
","
","","","488.5","","","12","13619","5915","l","elianto","#3366ff99","-1"," ","0","0","[1339.1999999284744]","1","2","","","13619","93","8","2","win","no-go","0"
"pit-trial","215","1288703","0.0-98.0","battery-v0.2","","""event"",""trial"",""time""
""fullscreenenter"",""1"",""3219""
","
","
","""event"",""trial"",""time""
""fullscreenenter"",""1"",""3219""
","
","","","477.6999999284744","","","12","13619","5915","p","elianto","#3366ff99"," "," ","1","+10","[1328.8999999761581]","1","2","","","13619","94","5","1","win","go","0"
"pit-trial","216","1293559","0.0-99.0","battery-v0.2","","""event"",""trial"",""time""
""fullscreenenter"",""1"",""3219""
","
","
","""event"",""trial"",""time""
""fullscreenenter"",""1"",""3219""
","
","","","-1","","","12","13619","5915","g","elianto","#f73b6a7A","-1","-1","1","0","[]","0","2","","","13619","95","6","4","lose","no-go","0"
"pit-trial","217","1298411","0.0-100.0","battery-v0.2","","""event"",""trial"",""time""
""fullscreenenter"",""1"",""3219""
","
","
","""event"",""trial"",""time""
""fullscreenenter"",""1"",""3219""
","
","","","-1","","","12","13619","5915","a","elianto","#f73b6a7A"," ","-1","0","-10","[]","0","2","","","13619","96","7","3","lose","go","0"
"pit-trial","218","1302058","0.0-101.0","battery-v0.2","","""event"",""trial"",""time""
""fullscreenenter"",""1"",""3219""
","
","
","""event"",""trial"",""time""
""fullscreenenter"",""1"",""3219""
","
","","","790.1000000238419","","","12","13619","5915","l","elianto","#3366ff99","-1"," ","0","0","[1640.8000000715256]","1","2","","","13619","97","8","2","win","no-go","0"
"pit-trial","219","1306917","0.0-102.0","battery-v0.2","","""event"",""trial"",""time""
""fullscreenenter"",""1"",""3219""
","
","
","""event"",""trial"",""time""
""fullscreenenter"",""1"",""3219""
","
","","","-1","","","12","13619","5915","a","elianto","#f73b6a7A"," ","-1","0","0","[]","0","2","","","13619","98","7","3","lose","go","1"
"pit-trial","220","1310745","0.0-103.0","battery-v0.2","","""event"",""trial"",""time""
""fullscreenenter"",""1"",""3219""
","
","
","""event"",""trial"",""time""
""fullscreenenter"",""1"",""3219""
","
","","","976","","","12","13619","5915","p","elianto","#3366ff99"," "," ","1","+10","[1826.3999999761581]","1","2","","","13619","99","5","1","win","go","0"
"pit-trial","221","1315604","0.0-104.0","battery-v0.2","","""event"",""trial"",""time""
""fullscreenenter"",""1"",""3219""
","
","
","""event"",""trial"",""time""
""fullscreenenter"",""1"",""3219""
","
","","","-1","","","12","13619","5915","g","elianto","#f73b6a7A","-1","-1","1","0","[]","0","2","","","13619","100","6","4","lose","no-go","0"
"pit-trial","222","1320462","0.0-105.0","battery-v0.2","","""event"",""trial"",""time""
""fullscreenenter"",""1"",""3219""
","
","
","""event"",""trial"",""time""
""fullscreenenter"",""1"",""3219""
","
","","","-1","","","12","13619","5915","g","elianto","#f73b6a7A","-1","-1","1","0","[]","0","2","","","13619","101","6","4","lose","no-go","0"
"pit-trial","223","1324036","0.0-106.0","battery-v0.2","","""event"",""trial"",""time""
""fullscreenenter"",""1"",""3219""
","
","
","""event"",""trial"",""time""
""fullscreenenter"",""1"",""3219""
","
","","","718.2999999523163","","","12","13619","5915","p","elianto","#3366ff99"," "," ","1","+10","[1569.1999999284744]","1","2","","","13619","102","5","1","win","go","0"
"pit-trial","224","1328201","0.0-107.0","battery-v0.2","","""event"",""trial"",""time""
""fullscreenenter"",""1"",""3219""
","
","
","""event"",""trial"",""time""
""fullscreenenter"",""1"",""3219""
","
","","","1306.8000000715256","","","12","13619","5915","l","elianto","#3366ff99","-1"," ","0","0","[2157.5]","1","2","","","13619","103","8","2","win","no-go","0"
"pit-trial","225","1331684","0.0-108.0","battery-v0.2","","""event"",""trial"",""time""
""fullscreenenter"",""1"",""3219""
","
","
","""event"",""trial"",""time""
""fullscreenenter"",""1"",""3219""
","
","","","630.1000000238419","","","12","13619","5915","u","elianto","#3366ff99","-1"," ","0","0","[1480.1999999284744]","1","2","","","13619","104","9","2","win","no-go","0"
"pit-trial","226","1335060","0.0-109.0","battery-v0.2","","""event"",""trial"",""time""
""fullscreenenter"",""1"",""3219""
","
","
","""event"",""trial"",""time""
""fullscreenenter"",""1"",""3219""
","
","","","522.6000000238419","","","12","13619","5915","l","elianto","#3366ff99","-1"," ","0","0","[1372.7999999523163]","1","2","","","13619","105","8","2","win","no-go","0"
"pit-trial","227","1339912","0.0-110.0","battery-v0.2","","""event"",""trial"",""time""
""fullscreenenter"",""1"",""3219""
","
","
","""event"",""trial"",""time""
""fullscreenenter"",""1"",""3219""
","
","","","-1","","","12","13619","5915","g","elianto","#f73b6a7A","-1","-1","1","0","[]","0","2","","","13619","106","6","4","lose","no-go","0"
"pit-trial","228","1343369","0.0-111.0","battery-v0.2","","""event"",""trial"",""time""
""fullscreenenter"",""1"",""3219""
","
","
","""event"",""trial"",""time""
""fullscreenenter"",""1"",""3219""
","
","","","600.2999999523163","","","12","13619","5915","u","elianto","#3366ff99","-1"," ","0","0","[1452.4000000953674]","1","2","","","13619","107","9","2","win","no-go","0"
"pit-trial","229","1347380","0.0-112.0","battery-v0.2","","""event"",""trial"",""time""
""fullscreenenter"",""1"",""3219""
","
","
","""event"",""trial"",""time""
""fullscreenenter"",""1"",""3219""
","
","","","1153.5","","","12","13619","5915","p","elianto","#3366ff99"," "," ","1","+10","[2004.3999999761581]","1","2","","","13619","108","5","1","win","go","0"
"pit-trial","230","1352238","0.0-113.0","battery-v0.2","","""event"",""trial"",""time""
""fullscreenenter"",""1"",""3219""
","
","
","""event"",""trial"",""time""
""fullscreenenter"",""1"",""3219""
","
","","","-1","","","12","13619","5915","g","elianto","#f73b6a7A","-1","-1","1","0","[]","0","2","","","13619","109","6","4","lose","no-go","0"
"pit-trial","231","1355652","0.0-114.0","battery-v0.2","","""event"",""trial"",""time""
""fullscreenenter"",""1"",""3219""
","
","
","""event"",""trial"",""time""
""fullscreenenter"",""1"",""3219""
","
","","","556.6999999284744","","","12","13619","5915","u","elianto","#3366ff99","-1"," ","0","0","[1407.2999999523163]","1","2","","","13619","110","9","2","win","no-go","0"
"pit-trial","232","1359255","0.0-115.0","battery-v0.2","","""event"",""trial"",""time""
""fullscreenenter"",""1"",""3219""
","
","
","""event"",""trial"",""time""
""fullscreenenter"",""1"",""3219""
","
","","","748.3000000715256","","","12","13619","5915","p","elianto","#3366ff99"," "," ","1","+10","[1599.1000000238419]","1","2","","","13619","111","5","1","win","go","0"
"pit-trial","233","1364111","0.0-116.0","battery-v0.2","","""event"",""trial"",""time""
""fullscreenenter"",""1"",""3219""
","
","
","""event"",""trial"",""time""
""fullscreenenter"",""1"",""3219""
","
","","","-1","","","12","13619","5915","l","elianto","#3366ff99","-1","-1","1","0","[]","0","2","","","13619","112","8","2","win","no-go","1"
"pit-trial","234","1367811","0.0-117.0","battery-v0.2","","""event"",""trial"",""time""
""fullscreenenter"",""1"",""3219""
","
","
","""event"",""trial"",""time""
""fullscreenenter"",""1"",""3219""
","
","","","845","","","12","13619","5915","p","elianto","#3366ff99"," "," ","1","0","[1695.8999999761581]","1","2","","","13619","113","5","1","win","go","1"
"pit-trial","235","1372665","0.0-118.0","battery-v0.2","","""event"",""trial"",""time""
""fullscreenenter"",""1"",""3219""
","
","
","""event"",""trial"",""time""
""fullscreenenter"",""1"",""3219""
","
","","","-1","","","12","13619","5915","a","elianto","#f73b6a7A"," ","-1","0","0","[]","0","2","","","13619","114","7","3","lose","go","1"
"pit-trial","236","1376715","0.0-119.0","battery-v0.2","","""event"",""trial"",""time""
""fullscreenenter"",""1"",""3219""
","
","
","""event"",""trial"",""time""
""fullscreenenter"",""1"",""3219""
","
","","","1193.1999999284744","","","12","13619","5915","u","elianto","#3366ff99","-1"," ","0","+10","[2045]","1","2","","","13619","115","9","2","win","no-go","1"
"pit-trial","237","1380084","0.0-120.0","battery-v0.2","","""event"",""trial"",""time""
""fullscreenenter"",""1"",""3219""
","
","
","""event"",""trial"",""time""
""fullscreenenter"",""1"",""3219""
","
","","","512.2000000476837","","","12","13619","5915","l","elianto","#3366ff99","-1"," ","0","0","[1363.1000000238419]","1","2","","","13619","116","8","2","win","no-go","0"
"pit-trial","238","1383397","0.0-121.0","battery-v0.2","","""event"",""trial"",""time""
""fullscreenenter"",""1"",""3219""
","
","
","""event"",""trial"",""time""
""fullscreenenter"",""1"",""3219""
","
","","","457.90000009536743","","","12","13619","5915","u","elianto","#3366ff99","-1"," ","0","+10","[1309]","1","2","","","13619","117","9","2","win","no-go","1"
"pit-trial","239","1386835","0.0-122.0","battery-v0.2","","""event"",""trial"",""time""
""fullscreenenter"",""1"",""3219""
","
","
","""event"",""trial"",""time""
""fullscreenenter"",""1"",""3219""
","
","","","583.8000000715256","","","12","13619","5915","l","elianto","#3366ff99","-1"," ","0","0","[1434.1000000238419]","1","2","","","13619","118","8","2","win","no-go","0"
"pit-trial","240","1391696","0.0-123.0","battery-v0.2","","""event"",""trial"",""time""
""fullscreenenter"",""1"",""3219""
","
","
","""event"",""trial"",""time""
""fullscreenenter"",""1"",""3219""
","
","","","-1","","","12","13619","5915","g","elianto","#f73b6a7A","-1","-1","1","-10","[]","0","2","","","13619","119","6","4","lose","no-go","1"
"pit-trial","241","1395678","0.0-124.0","battery-v0.2","","""event"",""trial"",""time""
""fullscreenenter"",""1"",""3219""
","
","
","""event"",""trial"",""time""
""fullscreenenter"",""1"",""3219""
","
","","","1128.6999999284744","","","12","13619","5915","p","elianto","#3366ff99"," "," ","1","+10","[1979]","1","2","","","13619","120","5","1","win","go","0"
"pit-trial","242","1400537","0.0-125.0","battery-v0.2","","""event"",""trial"",""time""
""fullscreenenter"",""1"",""3219""
","
","
","""event"",""trial"",""time""
""fullscreenenter"",""1"",""3219""
","
","","","-1","","","12","13619","5915","a","elianto","#f73b6a7A"," ","-1","0","-10","[]","0","2","","","13619","121","7","3","lose","go","0"
"pit-trial","243","1404456","0.0-126.0","battery-v0.2","","""event"",""trial"",""time""
""fullscreenenter"",""1"",""3219""
","
","
","""event"",""trial"",""time""
""fullscreenenter"",""1"",""3219""
","
","","","1063.8999999761581","","","12","13619","5915","u","elianto","#3366ff99","-1"," ","0","+10","[1915]","1","2","","","13619","122","9","2","win","no-go","1"
"pit-trial","244","1408142","0.0-127.0","battery-v0.2","","""event"",""trial"",""time""
""fullscreenenter"",""1"",""3219""
","
","
","""event"",""trial"",""time""
""fullscreenenter"",""1"",""3219""
","
","","","832.3000000715256","","","12","13619","5915","p","elianto","#3366ff99"," "," ","1","+10","[1682.3999999761581]","1","2","","","13619","123","5","1","win","go","0"
"pit-trial","245","1411971","0.0-128.0","battery-v0.2","","""event"",""trial"",""time""
""fullscreenenter"",""1"",""3219""
","
","
","""event"",""trial"",""time""
""fullscreenenter"",""1"",""3219""
","
","","","971.2999999523163","","","12","13619","5915","l","elianto","#3366ff99","-1"," ","0","0","[1823.7999999523163]","1","2","","","13619","124","8","2","win","no-go","0"
"pit-trial","246","1415550","0.0-129.0","battery-v0.2","","""event"",""trial"",""time""
""fullscreenenter"",""1"",""3219""
","
","
","""event"",""trial"",""time""
""fullscreenenter"",""1"",""3219""
","
","","","720.5","","","12","13619","5915","u","elianto","#3366ff99","-1"," ","0","0","[1572.6000000238419]","1","2","","","13619","125","9","2","win","no-go","0"
"pit-trial","247","1420409","0.0-130.0","battery-v0.2","","""event"",""trial"",""time""
""fullscreenenter"",""1"",""3219""
","
","
","""event"",""trial"",""time""
""fullscreenenter"",""1"",""3219""
","
","","","-1","","","12","13619","5915","a","elianto","#f73b6a7A"," ","-1","0","0","[]","0","2","","","13619","126","7","3","lose","go","1"
"pit-trial","248","1424449","0.0-131.0","battery-v0.2","","""event"",""trial"",""time""
""fullscreenenter"",""1"",""3219""
","
","
","""event"",""trial"",""time""
""fullscreenenter"",""1"",""3219""
","
","","","1185.3999999761581","","","12","13619","5915","l","elianto","#3366ff99","-1"," ","0","+10","[2037.2000000476837]","1","2","","","13619","127","8","2","win","no-go","1"
"pit-trial","249","1429310","0.0-132.0","battery-v0.2","","""event"",""trial"",""time""
""fullscreenenter"",""1"",""3219""
","
","
","""event"",""trial"",""time""
""fullscreenenter"",""1"",""3219""
","
","","","-1","","","12","13619","5915","g","elianto","#f73b6a7A","-1","-1","1","0","[]","0","2","","","13619","128","6","4","lose","no-go","0"
"pit-trial","250","1434169","0.0-133.0","battery-v0.2","","""event"",""trial"",""time""
""fullscreenenter"",""1"",""3219""
","
","
","""event"",""trial"",""time""
""fullscreenenter"",""1"",""3219""
","
","","","-1","","","12","13619","5915","a","elianto","#f73b6a7A"," ","-1","0","-10","[]","0","2","","","13619","129","7","3","lose","go","0"
"pit-trial","251","1437539","0.0-134.0","battery-v0.2","","""event"",""trial"",""time""
""fullscreenenter"",""1"",""3219""
","
","
","""event"",""trial"",""time""
""fullscreenenter"",""1"",""3219""
","
","","","512","","","12","13619","5915","l","elianto","#3366ff99","-1"," ","0","0","[1363.7000000476837]","1","2","","","13619","130","8","2","win","no-go","0"
"pit-trial","252","1442395","0.0-135.0","battery-v0.2","","""event"",""trial"",""time""
""fullscreenenter"",""1"",""3219""
","
","
","""event"",""trial"",""time""
""fullscreenenter"",""1"",""3219""
","
","","","-1","","","12","13619","5915","g","elianto","#f73b6a7A","-1","-1","1","0","[]","0","2","","","13619","131","6","4","lose","no-go","0"
"pit-trial","253","1445779","0.0-136.0","battery-v0.2","","""event"",""trial"",""time""
""fullscreenenter"",""1"",""3219""
","
","
","""event"",""trial"",""time""
""fullscreenenter"",""1"",""3219""
","
","","","528.5999999046326","","","12","13619","5915","u","elianto","#3366ff99","-1"," ","0","+10","[1379.4000000953674]","1","2","","","13619","132","9","2","win","no-go","1"
"pit-trial","254","1450638","0.0-137.0","battery-v0.2","","""event"",""trial"",""time""
""fullscreenenter"",""1"",""3219""
","
","
","""event"",""trial"",""time""
""fullscreenenter"",""1"",""3219""
","
","","","-1","","","12","13619","5915","a","elianto","#f73b6a7A"," ","-1","0","0","[]","0","2","","","13619","133","7","3","lose","go","1"
"pit-trial","255","1454392","0.0-138.0","battery-v0.2","","""event"",""trial"",""time""
""fullscreenenter"",""1"",""3219""
","
","
","""event"",""trial"",""time""
""fullscreenenter"",""1"",""3219""
","
","","","899.2999999523163","","","12","13619","5915","l","elianto","#3366ff99","-1"," ","0","0","[1750.4000000953674]","1","2","","","13619","134","8","2","win","no-go","0"
"pit-trial","256","1457379","0.0-139.0","battery-v0.2","","""event"",""trial"",""time""
""fullscreenenter"",""1"",""3219""
","
","
","""event"",""trial"",""time""
""fullscreenenter"",""1"",""3219""
","
","","","126.20000004768372","","","12","13619","5915","u","elianto","#3366ff99","-1"," ","0","0","[978.2999999523163]","1","2","","","13619","135","9","2","win","no-go","0"
"pit-trial","257","1462232","0.0-140.0","battery-v0.2","","""event"",""trial"",""time""
""fullscreenenter"",""1"",""3219""
","
","
","""event"",""trial"",""time""
""fullscreenenter"",""1"",""3219""
","
","","","-1","","","12","13619","5915","g","elianto","#f73b6a7A","-1","-1","1","0","[]","0","2","","","13619","136","6","4","lose","no-go","0"
"pit-trial","258","1465650","0.0-141.0","battery-v0.2","","""event"",""trial"",""time""
""fullscreenenter"",""1"",""3219""
","
","
","""event"",""trial"",""time""
""fullscreenenter"",""1"",""3219""
","
","","","558.6000000238419","","","12","13619","5915","u","elianto","#3366ff99","-1"," ","0","0","[1411.0999999046326]","1","2","","","13619","137","9","2","win","no-go","0"
"pit-trial","259","1469202","0.0-142.0","battery-v0.2","","""event"",""trial"",""time""
""fullscreenenter"",""1"",""3219""
","
","
","""event"",""trial"",""time""
""fullscreenenter"",""1"",""3219""
","
","","","695.1000000238419","","","12","13619","5915","l","elianto","#3366ff99","-1"," ","0","+10","[1546.1000000238419]","1","2","","","13619","138","8","2","win","no-go","1"
"pit-trial","260","1474061","0.0-143.0","battery-v0.2","","""event"",""trial"",""time""
""fullscreenenter"",""1"",""3219""
","
","
","""event"",""trial"",""time""
""fullscreenenter"",""1"",""3219""
","
","","","-1","","","12","13619","5915","a","elianto","#f73b6a7A"," ","-1","0","-10","[]","0","2","","","13619","139","7","3","lose","go","0"
"pit-trial","261","1478920","0.0-144.0","battery-v0.2","","""event"",""trial"",""time""
""fullscreenenter"",""1"",""3219""
","
","
","""event"",""trial"",""time""
""fullscreenenter"",""1"",""3219""
","
","","","-1","","","12","13619","5915","g","elianto","#f73b6a7A","-1","-1","1","0","[]","0","2","","","13619","140","6","4","lose","no-go","0"
"pit-instructions","262","1496830","0.0-145.0","battery-v0.2","","""event"",""trial"",""time""
""fullscreenenter"",""1"",""3219""
","
","
","""event"",""trial"",""time""
""fullscreenenter"",""1"",""3219""
","
","","[{""page_index"":0,""viewing_time"":9837.299999952316},{""page_index"":1,""viewing_time"":8070.800000071526}]","17908.299999952316","","","","","","","","","","","","","","","","","","","","","","","",""
"pit-trial","263","1501693","0.0-146.0","battery-v0.2","","""event"",""trial"",""time""
""fullscreenenter"",""1"",""3219""
","
","
","""event"",""trial"",""time""
""fullscreenenter"",""1"",""3219""
","
","","","-1","","","12","13619","5915","h","elianto","#f73b6a7A","-1","-1","1","0","[]","0","3","","","13619","141","3","4","lose","no-go","0"
"pit-trial","264","1505053","0.0-147.0","battery-v0.2","","""event"",""trial"",""time""
""fullscreenenter"",""1"",""3219""
","
","
","""event"",""trial"",""time""
""fullscreenenter"",""1"",""3219""
","
","","","508","","","12","13619","5915","r","elianto","#3366ff99","-1"," ","0","0","[1358.2999999523163]","1","3","","","13619","142","1","2","win","no-go","0"
"pit-trial","265","1509910","0.0-148.0","battery-v0.2","","""event"",""trial"",""time""
""fullscreenenter"",""1"",""3219""
","
","
","""event"",""trial"",""time""
""fullscreenenter"",""1"",""3219""
","
","","","-1","","","12","13619","5915","y","elianto","#f73b6a7A"," ","-1","0","-10","[]","0","3","","","13619","143","2","3","lose","go","0"
"pit-trial","266","1514770","0.0-149.0","battery-v0.2","","""event"",""trial"",""time""
""fullscreenenter"",""1"",""3219""
","
","
","""event"",""trial"",""time""
""fullscreenenter"",""1"",""3219""
","
