"trial_type","trial_index","time_elapsed","internal_node_id","task_version","subject_id","interactions","blur_events","focus_events","fullscreenenter_events","fullscreenexit_events","success","view_history","rt","responses","num_errors","age","subject","participantId","rune","rune_set","hex","correct","choice","accuracy","outcome","keys","total_keys","block","practice","value"
"pavlovia","0","16","0.0-0.0","battery-v0.2","","""event"",""trial"",""time""
""fullscreenenter"",""1"",""4830""
","
","
","""event"",""trial"",""time""
""fullscreenenter"",""1"",""4830""
","
","","","","","","","","","","","","","","","","","","","",""
"fullscreen","1","5823","0.0-1.0","battery-v0.2","","""event"",""trial"",""time""
""fullscreenenter"",""1"",""4830""
","
","
","""event"",""trial"",""time""
""fullscreenenter"",""1"",""4830""
","
","true","","","","","","","","","","","","","","","","","","",""
"pit-instructions","2","11328","0.0-2.0-0.0","battery-v0.2","","""event"",""trial"",""time""
""fullscreenenter"",""1"",""4830""
","
","
","""event"",""trial"",""time""
""fullscreenenter"",""1"",""4830""
","
","","[{""page_index"":0,""viewing_time"":5496.0999999940395}]","5497.799999982119","","","","","","","","","","","","","","","","",""
"pit-comprehension","3","24998","0.0-2.0-1.0-0.0","battery-v0.2","","""event"",""trial"",""time""
""fullscreenenter"",""1"",""4830""
","
","
","""event"",""trial"",""time""
""fullscreenenter"",""1"",""4830""
","
","","","13664.5","[""shark""]","0","11","3164","1851","","","","","","","","","","","",""
"pit-instructions","4","27480","0.0-2.0-1.0-1.0","battery-v0.2","","""event"",""trial"",""time""
""fullscreenenter"",""1"",""4830""
","
","
","""event"",""trial"",""time""
""fullscreenenter"",""1"",""4830""
","
","","[{""page_index"":0,""viewing_time"":2461.199999988079}]","2461.800000011921","","","","","","","","","","","","","","","","",""
"pit-comprehension","5","33692","0.0-2.0-2.0-0.0","battery-v0.2","","""event"",""trial"",""time""
""fullscreenenter"",""1"",""4830""
","
","
","""event"",""trial"",""time""
""fullscreenenter"",""1"",""4830""
","
","","","6206.200000017881","[""tiger""]","0","11","3164","1851","","","","","","","","","","","",""
"pit-instructions","6","35740","0.0-2.0-2.0-1.0","battery-v0.2","","""event"",""trial"",""time""
""fullscreenenter"",""1"",""4830""
","
","
","""event"",""trial"",""time""
""fullscreenenter"",""1"",""4830""
","
","","[{""page_index"":0,""viewing_time"":2041.7000000178814}]","2042.5","","","","","","","","","","","","","","","","",""
"pit-instructions","7","143436","0.0-2.0-3.0","battery-v0.2","","""event"",""trial"",""time""
""fullscreenenter"",""1"",""4830""
","
","
","""event"",""trial"",""time""
""fullscreenenter"",""1"",""4830""
","
","","[{""page_index"":0,""viewing_time"":11575.90000000596},{""page_index"":1,""viewing_time"":5963.399999976158},{""page_index"":2,""viewing_time"":7468.4000000059605},{""page_index"":3,""viewing_time"":5931.9000000059605},{""page_index"":4,""viewing_time"":5460.300000011921},{""page_index"":5,""viewing_time"":6030.5999999940395},{""page_index"":6,""viewing_time"":7095.799999982119},{""page_index"":7,""viewing_time"":7746.200000017881},{""page_index"":8,""viewing_time"":8725.699999988079},{""page_index"":9,""viewing_time"":10930},{""page_index"":10,""viewing_time"":8760.200000017881},{""page_index"":11,""viewing_time"":9126.399999976158},{""page_index"":12,""viewing_time"":7964.4000000059605},{""page_index"":13,""viewing_time"":4912.800000011921}]","107693.09999999404","","","","","","","","","","","","","","","","",""
"pit-trial","8","147085","0.0-2.0-4.0-0.0","battery-v0.2","","""event"",""trial"",""time""
""fullscreenenter"",""1"",""4830""
","
","
","""event"",""trial"",""time""
""fullscreenenter"",""1"",""4830""
","
","","","789.7000000178814","","","11","3164","1851","&#9784;","elianto","#FFFFF080"," "," ","1","&#10004","[1639.8999999761581]","1","0","0",""
"pit-trial","9","149989","0.0-2.0-4.1-0.1","battery-v0.2","","""event"",""trial"",""time""
""fullscreenenter"",""1"",""4830""
","
","
","""event"",""trial"",""time""
""fullscreenenter"",""1"",""4830""
","
","","","44.19999998807907","","","11","3164","1851","&#9784;","elianto","#FFFFF080"," "," ","1","&#10004","[894.4000000059605,2352.4000000059605]","2","0","0",""
"pit-trial","10","153308","0.0-2.0-4.2-0.2","battery-v0.2","","""event"",""trial"",""time""
""fullscreenenter"",""1"",""4830""
","
","
","""event"",""trial"",""time""
""fullscreenenter"",""1"",""4830""
","
","","","455.80000001192093","","","11","3164","1851","&#9784;","elianto","#FFFFF080"," "," ","1","&#10004","[1309.2000000178814]","1","0","0",""
"pit-trial","11","156871","0.0-2.0-4.3-0.3","battery-v0.2","","""event"",""trial"",""time""
""fullscreenenter"",""1"",""4830""
","
","
","""event"",""trial"",""time""
""fullscreenenter"",""1"",""4830""
","
","","","701.1000000238419","","","11","3164","1851","&#9784;","elianto","#FFFFF080"," "," ","1","&#10004","[1554.9000000059605]","1","0","0",""
"pit-trial","12","160434","0.0-2.0-4.4-0.4","battery-v0.2","","""event"",""trial"",""time""
""fullscreenenter"",""1"",""4830""
","
","
","""event"",""trial"",""time""
""fullscreenenter"",""1"",""4830""
","
","","","702.4000000059605","","","11","3164","1851","&#9784;","elianto","#FFFFF080"," "," ","1","&#10004","[1557]","1","0","0",""
"pit-instructions","13","185430","0.0-2.0-5.0","battery-v0.2","","""event"",""trial"",""time""
""fullscreenenter"",""1"",""4830""
","
","
","""event"",""trial"",""time""
""fullscreenenter"",""1"",""4830""
","
","","[{""page_index"":0,""viewing_time"":6897.5999999940395},{""page_index"":1,""viewing_time"":5383.9000000059605},{""page_index"":2,""viewing_time"":6637.5999999940395},{""page_index"":3,""viewing_time"":6071.700000017881}]","24991.80000001192","","","","","","","","","","","","","","","","",""
"pit-trial","14","190286","0.0-2.0-6.0-0.0","battery-v0.2","","""event"",""trial"",""time""
""fullscreenenter"",""1"",""4830""
","
","
","""event"",""trial"",""time""
""fullscreenenter"",""1"",""4830""
","
","","","-1","","","11","3164","1851","&#9854;","elianto","#FFFFF080","-1","-1","1","&#10004","[]","0","0","1",""
"pit-trial","15","195149","0.0-2.0-6.1-0.1","battery-v0.2","","""event"",""trial"",""time""
""fullscreenenter"",""1"",""4830""
","
","
","""event"",""trial"",""time""
""fullscreenenter"",""1"",""4830""
","
","","","-1","","","11","3164","1851","&#9854;","elianto","#FFFFF080","-1","-1","1","&#10004","[]","0","0","1",""
"pit-trial","16","200005","0.0-2.0-6.2-0.2","battery-v0.2","","""event"",""trial"",""time""
""fullscreenenter"",""1"",""4830""
","
","
","""event"",""trial"",""time""
""fullscreenenter"",""1"",""4830""
","
","","","-1","","","11","3164","1851","&#9854;","elianto","#FFFFF080","-1","-1","1","&#10004","[]","0","0","1",""
"pit-trial","17","204866","0.0-2.0-6.3-0.3","battery-v0.2","","""event"",""trial"",""time""
""fullscreenenter"",""1"",""4830""
","
","
","""event"",""trial"",""time""
""fullscreenenter"",""1"",""4830""
","
","","","-1","","","11","3164","1851","&#9854;","elianto","#FFFFF080","-1","-1","1","&#10004","[]","0","0","1",""
"pit-trial","18","209726","0.0-2.0-6.4-0.4","battery-v0.2","","""event"",""trial"",""time""
""fullscreenenter"",""1"",""4830""
","
","
","""event"",""trial"",""time""
""fullscreenenter"",""1"",""4830""
","
","","","-1","","","11","3164","1851","&#9854;","elianto","#FFFFF080","-1","-1","1","&#10004","[]","0","0","1",""
"pit-instructions","19","392694","0.0-2.0-7.0","battery-v0.2","","""event"",""trial"",""time""
""fullscreenenter"",""1"",""4830""
","
","
","""event"",""trial"",""time""
""fullscreenenter"",""1"",""4830""
","
","","[{""page_index"":0,""viewing_time"":5658.5},{""page_index"":1,""viewing_time"":7730.199999988079},{""page_index"":2,""viewing_time"":6359.300000011921},{""page_index"":3,""viewing_time"":6780.0999999940395},{""page_index"":4,""viewing_time"":5808.200000017881},{""page_index"":5,""viewing_time"":6116.899999976158},{""page_index"":6,""viewing_time"":6835.800000011921},{""page_index"":7,""viewing_time"":9716.59999999404},{""page_index"":8,""viewing_time"":7132.5999999940395},{""page_index"":9,""viewing_time"":5620.100000023842},{""page_index"":10,""viewing_time"":6816.699999988079},{""page_index"":11,""viewing_time"":7558.0999999940395},{""page_index"":12,""viewing_time"":17211.90000000596},{""page_index"":13,""viewing_time"":24629.09999999404},{""page_index"":14,""viewing_time"":36713.80000001192},{""page_index"":15,""viewing_time"":8061.4000000059605},{""page_index"":16,""viewing_time"":7287.699999988079},{""page_index"":17,""viewing_time"":6929.0999999940395}]","182967.19999998808","","","","","","","","","","","","","","","","",""
"pit-trial","20","396879","0.0-2.0-8.0-0.0","battery-v0.2","","""event"",""trial"",""time""
""fullscreenenter"",""1"",""4830""
","
","
","""event"",""trial"",""time""
""fullscreenenter"",""1"",""4830""
","
","","","1323.5","","","11","3164","1851","&#9776;","elianto","#3366ff99"," "," ","1","+10","[2177.800000011921]","1","0","1",""
"pit-trial","21","400613","0.0-2.0-8.0-1.0","battery-v0.2","","""event"",""trial"",""time""
""fullscreenenter"",""1"",""4830""
","
","
","""event"",""trial"",""time""
""fullscreenenter"",""1"",""4830""
","
","","","874.5","","","11","3164","1851","&#9776;","elianto","#3366ff99"," "," ","1","+10","[1728]","1","0","1",""
"pit-trial","22","403984","0.0-2.0-8.0-2.0","battery-v0.2","","""event"",""trial"",""time""
""fullscreenenter"",""1"",""4830""
","
","
","""event"",""trial"",""time""
""fullscreenenter"",""1"",""4830""
","
","","","512.4000000059605","","","11","3164","1851","&#9776;","elianto","#3366ff99"," "," ","1","+10","[1365.9000000059605]","1","0","1",""
"pit-trial","23","407390","0.0-2.0-8.0-3.0","battery-v0.2","","""event"",""trial"",""time""
""fullscreenenter"",""1"",""4830""
","
","
","""event"",""trial"",""time""
""fullscreenenter"",""1"",""4830""
","
","","","547.3000000119209","","","11","3164","1851","&#9776;","elianto","#3366ff99"," "," ","1","0","[1399.5999999940395]","1","0","1",""
"pit-trial","24","410845","0.0-2.0-8.0-4.0","battery-v0.2","","""event"",""trial"",""time""
""fullscreenenter"",""1"",""4830""
","
","
","""event"",""trial"",""time""
""fullscreenenter"",""1"",""4830""
","
","","","597.1000000238419","","","11","3164","1851","&#9776;","elianto","#3366ff99"," "," ","1","+10","[1447.800000011921]","1","0","1",""
"call-function","25","410848","0.0-2.0-9.0","battery-v0.2","","""event"",""trial"",""time""
""fullscreenenter"",""1"",""4830""
","
","
","""event"",""trial"",""time""
""fullscreenenter"",""1"",""4830""
","
","","","","","","","","","","","","","","","","","","","",""
"pit-instructions","26","459168","0.0-2.0-10.0","battery-v0.2","","""event"",""trial"",""time""
""fullscreenenter"",""1"",""4830""
","
","
","""event"",""trial"",""time""
""fullscreenenter"",""1"",""4830""
","
","","[{""page_index"":0,""viewing_time"":7024.5},{""page_index"":1,""viewing_time"":7683.4000000059605},{""page_index"":2,""viewing_time"":10060.5},{""page_index"":3,""viewing_time"":10363},{""page_index"":4,""viewing_time"":13187.09999999404}]","48319.70000001788","","","","","","","","","","","","","","","","",""
"pit-trial","27","462613","0.0-2.0-11.0-0.0","battery-v0.2","","""event"",""trial"",""time""
""fullscreenenter"",""1"",""4830""
","
","
","""event"",""trial"",""time""
""fullscreenenter"",""1"",""4830""
","
","","","584.7999999821186","","","11","3164","1851","&#9761;","elianto","#3366ff99","-1"," ","0","0","[1435.9000000059605]","1","0","2",""
"pit-trial","28","465532","0.0-2.0-11.0-1.0","battery-v0.2","","""event"",""trial"",""time""
""fullscreenenter"",""1"",""4830""
","
","
","""event"",""trial"",""time""
""fullscreenenter"",""1"",""4830""
","
","","","56","","","11","3164","1851","&#9761;","elianto","#3366ff99","-1"," ","0","0","[910.2999999821186]","1","0","2",""
"pit-trial","29","470392","0.0-2.0-11.0-2.0","battery-v0.2","","""event"",""trial"",""time""
""fullscreenenter"",""1"",""4830""
","
","
","""event"",""trial"",""time""
""fullscreenenter"",""1"",""4830""
","
","","","-1","","","11","3164","1851","&#9761;","elianto","#3366ff99","-1","-1","1","+10","[]","0","0","2",""
"pit-trial","30","473396","0.0-2.0-11.0-3.0","battery-v0.2","","""event"",""trial"",""time""
""fullscreenenter"",""1"",""4830""
","
","
","""event"",""trial"",""time""
""fullscreenenter"",""1"",""4830""
","
","","","145.30000001192093","","","11","3164","1851","&#9761;","elianto","#3366ff99","-1"," ","0","+10","[1000.3999999761581]","1","0","2",""
"pit-trial","31","477252","0.0-2.0-11.0-4.0","battery-v0.2","","""event"",""trial"",""time""
""fullscreenenter"",""1"",""4830""
","
","
","""event"",""trial"",""time""
""fullscreenenter"",""1"",""4830""
","
","","","993","","","11","3164","1851","&#9761;","elianto","#3366ff99","-1"," ","0","0","[1847.6000000238419]","1","0","2",""
"pit-trial","32","482114","0.0-2.0-11.1-0.1","battery-v0.2","","""event"",""trial"",""time""
""fullscreenenter"",""1"",""4830""
","
","
","""event"",""trial"",""time""
""fullscreenenter"",""1"",""4830""
","
","","","-1","","","11","3164","1851","&#9761;","elianto","#3366ff99","-1","-1","1","+10","[]","0","0","2",""
"pit-trial","33","486975","0.0-2.0-11.1-1.1","battery-v0.2","","""event"",""trial"",""time""
""fullscreenenter"",""1"",""4830""
","
","
","""event"",""trial"",""time""
""fullscreenenter"",""1"",""4830""
","
","","","-1","","","11","3164","1851","&#9761;","elianto","#3366ff99","-1","-1","1","+10","[]","0","0","2",""
"pit-trial","34","491839","0.0-2.0-11.1-2.1","battery-v0.2","","""event"",""trial"",""time""
""fullscreenenter"",""1"",""4830""
","
","
","""event"",""trial"",""time""
""fullscreenenter"",""1"",""4830""
","
","","","-1","","","11","3164","1851","&#9761;","elianto","#3366ff99","-1","-1","1","+10","[]","0","0","2",""
"pit-trial","35","495412","0.0-2.0-11.1-3.1","battery-v0.2","","""event"",""trial"",""time""
""fullscreenenter"",""1"",""4830""
","
","
","""event"",""trial"",""time""
""fullscreenenter"",""1"",""4830""
","
","","","713.6999999880791","","","11","3164","1851","&#9761;","elianto","#3366ff99","-1"," ","0","+10","[1567.300000011921]","1","0","2",""
"pit-trial","36","500276","0.0-2.0-11.1-4.1","battery-v0.2","","""event"",""trial"",""time""
""fullscreenenter"",""1"",""4830""
","
","
","""event"",""trial"",""time""
""fullscreenenter"",""1"",""4830""
","
","","","-1","","","11","3164","1851","&#9761;","elianto","#3366ff99","-1","-1","1","+10","[]","0","0","2",""
"pit-trial","37","503391","0.0-2.0-11.2-0.2","battery-v0.2","","""event"",""trial"",""time""
""fullscreenenter"",""1"",""4830""
","
","
","""event"",""trial"",""time""
""fullscreenenter"",""1"",""4830""
","
","","","252.89999997615814","","","11","3164","1851","&#9761;","elianto","#3366ff99","-1"," ","0","0","[1107.2999999821186]","1","0","2",""
"pit-trial","38","506937","0.0-2.0-11.2-1.2","battery-v0.2","","""event"",""trial"",""time""
""fullscreenenter"",""1"",""4830""
","
","
","""event"",""trial"",""time""
""fullscreenenter"",""1"",""4830""
","
","","","683","","","11","3164","1851","&#9761;","elianto","#3366ff99","-1"," ","0","0","[365.19999998807907,793.9000000059605,1537.699999988079]","3","0","2",""
"pit-trial","39","510238","0.0-2.0-11.2-2.2","battery-v0.2","","""event"",""trial"",""time""
""fullscreenenter"",""1"",""4830""
","
","
","""event"",""trial"",""time""
""fullscreenenter"",""1"",""4830""
","
","","","443.30000001192093","","","11","3164","1851","&#9761;","elianto","#3366ff99","-1"," ","0","0","[1293.7000000178814]","1","0","2",""
"pit-trial","40","515102","0.0-2.0-11.2-3.2","battery-v0.2","","""event"",""trial"",""time""
""fullscreenenter"",""1"",""4830""
","
","
","""event"",""trial"",""time""
""fullscreenenter"",""1"",""4830""
","
","","","-1","","","11","3164","1851","&#9761;","elianto","#3366ff99","-1","-1","1","0","[]","0","0","2",""
"pit-trial","41","518985","0.0-2.0-11.2-4.2","battery-v0.2","","""event"",""trial"",""time""
""fullscreenenter"",""1"",""4830""
","
","
","""event"",""trial"",""time""
""fullscreenenter"",""1"",""4830""
","
","","","1022","","","11","3164","1851","&#9761;","elianto","#3366ff99","-1"," ","0","0","[1873.7999999821186]","1","0","2",""
"pit-trial","42","522430","0.0-2.0-11.3-0.3","battery-v0.2","","""event"",""trial"",""time""
""fullscreenenter"",""1"",""4830""
","
","
","""event"",""trial"",""time""
""fullscreenenter"",""1"",""4830""
","
","","","586.6000000238419","","","11","3164","1851","&#9761;","elianto","#3366ff99","-1"," ","0","0","[1436.7000000178814]","1","0","2",""
"pit-trial","43","527294","0.0-2.0-11.3-1.3","battery-v0.2","","""event"",""trial"",""time""
""fullscreenenter"",""1"",""4830""
","
","
","""event"",""trial"",""time""
""fullscreenenter"",""1"",""4830""
","
","","","-1","","","11","3164","1851","&#9761;","elianto","#3366ff99","-1","-1","1","+10","[]","0","0","2",""
"pit-trial","44","530184","0.0-2.0-11.3-2.3","battery-v0.2","","""event"",""trial"",""time""
""fullscreenenter"",""1"",""4830""
","
","
","""event"",""trial"",""time""
""fullscreenenter"",""1"",""4830""
","
","","","33.10000002384186","","","11","3164","1851","&#9761;","elianto","#3366ff99","-1"," ","0","0","[883.5]","1","0","2",""
"pit-trial","45","533852","0.0-2.0-11.3-3.3","battery-v0.2","","""event"",""trial"",""time""
""fullscreenenter"",""1"",""4830""
","
","
","""event"",""trial"",""time""
""fullscreenenter"",""1"",""4830""
","
","","","809.5999999940395","","","11","3164","1851","&#9761;","elianto","#3366ff99","-1"," ","0","+10","[1660.1000000238419]","1","0","2",""
"pit-trial","46","538712","0.0-2.0-11.3-4.3","battery-v0.2","","""event"",""trial"",""time""
""fullscreenenter"",""1"",""4830""
","
","
","""event"",""trial"",""time""
""fullscreenenter"",""1"",""4830""
","
","","","-1","","","11","3164","1851","&#9761;","elianto","#3366ff99","-1","-1","1","+10","[]","0","0","2",""
"pit-trial","47","541663","0.0-2.0-11.4-0.4","battery-v0.2","","""event"",""trial"",""time""
""fullscreenenter"",""1"",""4830""
","
","
","""event"",""trial"",""time""
""fullscreenenter"",""1"",""4830""
","
","","","90","","","11","3164","1851","&#9761;","elianto","#3366ff99","-1"," ","0","0","[945.1000000238419]","1","0","2",""
"pit-trial","48","544638","0.0-2.0-11.4-1.4","battery-v0.2","","""event"",""trial"",""time""
""fullscreenenter"",""1"",""4830""
","
","
","""event"",""trial"",""time""
""fullscreenenter"",""1"",""4830""
","
","","","111.5","","","11","3164","1851","&#9761;","elianto","#3366ff99","-1"," ","0","0","[966.5]","1","0","2",""
"pit-trial","49","547582","0.0-2.0-11.4-2.4","battery-v0.2","","""event"",""trial"",""time""
""fullscreenenter"",""1"",""4830""
","
","
","""event"",""trial"",""time""
""fullscreenenter"",""1"",""4830""
","
","","","80.7000000178814","","","11","3164","1851","&#9761;","elianto","#3366ff99","-1"," ","0","0","[935.8000000119209]","1","0","2",""
"pit-trial","50","550760","0.0-2.0-11.4-3.4","battery-v0.2","","""event"",""trial"",""time""
""fullscreenenter"",""1"",""4830""
","
","
","""event"",""trial"",""time""
""fullscreenenter"",""1"",""4830""
","
","","","318.80000001192093","","","11","3164","1851","&#9761;","elianto","#3366ff99","-1"," ","0","+10","[1172.6000000238419]","1","0","2",""
"pit-trial","51","554830","0.0-2.0-11.4-4.4","battery-v0.2","","""event"",""trial"",""time""
""fullscreenenter"",""1"",""4830""
","
","
","""event"",""trial"",""time""
""fullscreenenter"",""1"",""4830""
","
","","","1205.9000000059605","","","11","3164","1851","&#9761;","elianto","#3366ff99","-1"," ","0","0","[2061]","1","0","2",""
"pit-instructions","52","581725","0.0-2.0-11.4-5.4-0.4","battery-v0.2","","""event"",""trial"",""time""
""fullscreenenter"",""1"",""4830""
","
","
","""event"",""trial"",""time""
""fullscreenenter"",""1"",""4830""
","
","","[{""page_index"":0,""viewing_time"":5707.4000000059605},{""page_index"":1,""viewing_time"":5140.5},{""page_index"":2,""viewing_time"":16043.800000011921}]","26892.90000000596","","","","","","","","","","","","","","","","",""
"pit-trial","53","585299","0.0-2.0-11.5-0.5","battery-v0.2","","""event"",""trial"",""time""
""fullscreenenter"",""1"",""4830""
","
","
","""event"",""trial"",""time""
""fullscreenenter"",""1"",""4830""
","
","","","715.8000000119209","","","11","3164","1851","&#9761;","elianto","#3366ff99","-1"," ","0","0","[1567.2000000178814]","1","0","2",""
"pit-trial","54","589167","0.0-2.0-11.5-1.5","battery-v0.2","","""event"",""trial"",""time""
""fullscreenenter"",""1"",""4830""
","
","
","""event"",""trial"",""time""
""fullscreenenter"",""1"",""4830""
","
","","","1004.7999999821186","","","11","3164","1851","&#9761;","elianto","#3366ff99","-1"," ","0","0","[1857.9000000059605]","1","0","2",""
"pit-trial","55","593326","0.0-2.0-11.5-2.5","battery-v0.2","","""event"",""trial"",""time""
""fullscreenenter"",""1"",""4830""
","
","
","""event"",""trial"",""time""
""fullscreenenter"",""1"",""4830""
","
","","","1300.3999999761581","","","11","3164","1851","&#9761;","elianto","#3366ff99","-1"," ","0","0","[2153]","1","0","2",""
"pit-trial","56","596863","0.0-2.0-11.5-3.5","battery-v0.2","","""event"",""trial"",""time""
""fullscreenenter"",""1"",""4830""
","
","
","""event"",""trial"",""time""
""fullscreenenter"",""1"",""4830""
","
","","","679","","","11","3164","1851","&#9761;","elianto","#3366ff99","-1"," ","0","+10","[1529.7999999821186]","1","0","2",""
"pit-trial","57","600405","0.0-2.0-11.5-4.5","battery-v0.2","","""event"",""trial"",""time""
""fullscreenenter"",""1"",""4830""
","
","
","""event"",""trial"",""time""
""fullscreenenter"",""1"",""4830""
","
","","","682.8000000119209","","","11","3164","1851","&#9761;","elianto","#3366ff99","-1"," ","0","0","[1537.8999999761581]","1","0","2",""
"pit-trial","58","605267","0.0-2.0-11.6-0.6","battery-v0.2","","""event"",""trial"",""time""
""fullscreenenter"",""1"",""4830""
","
","
","""event"",""trial"",""time""
""fullscreenenter"",""1"",""4830""
","
","","","-1","","","11","3164","1851","&#9761;","elianto","#3366ff99","-1","-1","1","+10","[]","0","0","2",""
"pit-trial","59","609315","0.0-2.0-11.6-1.6","battery-v0.2","","""event"",""trial"",""time""
""fullscreenenter"",""1"",""4830""
","
","
","""event"",""trial"",""time""
""fullscreenenter"",""1"",""4830""
","
","","","1191","","","11","3164","1851","&#9761;","elianto","#3366ff99","-1"," ","0","0","[2044]","1","0","2",""
"pit-trial","60","612813","0.0-2.0-11.6-2.6","battery-v0.2","","""event"",""trial"",""time""
""fullscreenenter"",""1"",""4830""
","
","
","""event"",""trial"",""time""
""fullscreenenter"",""1"",""4830""
","
","","","636.4000000059605","","","11","3164","1851","&#9761;","elianto","#3366ff99","-1"," ","0","0","[1491.5]","1","0","2",""
"pit-trial","61","617672","0.0-2.0-11.6-3.6","battery-v0.2","","""event"",""trial"",""time""
""fullscreenenter"",""1"",""4830""
","
","
","""event"",""trial"",""time""
""fullscreenenter"",""1"",""4830""
","
","","","-1","","","11","3164","1851","&#9761;","elianto","#3366ff99","-1","-1","1","0","[2883.2000000178814]","1","0","2",""
"pit-trial","62","622072","0.0-2.0-11.6-4.6","battery-v0.2","","""event"",""trial"",""time""
""fullscreenenter"",""1"",""4830""
","
","
","""event"",""trial"",""time""
""fullscreenenter"",""1"",""4830""
","
","","","1541.0999999940395","","","11","3164","1851","&#9761;","elianto","#3366ff99","-1"," ","0","0","[2391.4000000059605]","1","0","2",""
"pit-trial","63","626936","0.0-2.0-11.7-0.7","battery-v0.2","","""event"",""trial"",""time""
""fullscreenenter"",""1"",""4830""
","
","
","""event"",""trial"",""time""
""fullscreenenter"",""1"",""4830""
","
","","","-1","","","11","3164","1851","&#9761;","elianto","#3366ff99","-1","-1","1","+10","[]","0","0","2",""
"pit-trial","64","630610","0.0-2.0-11.7-1.7","battery-v0.2","","""event"",""trial"",""time""
""fullscreenenter"",""1"",""4830""
","
","
","""event"",""trial"",""time""
""fullscreenenter"",""1"",""4830""
","
","","","816.1000000238419","","","11","3164","1851","&#9761;","elianto","#3366ff99","-1"," ","0","0","[1666.7000000178814]","1","0","2",""
"pit-trial","65","635474","0.0-2.0-11.7-2.7","battery-v0.2","","""event"",""trial"",""time""
""fullscreenenter"",""1"",""4830""
","
","
","""event"",""trial"",""time""
""fullscreenenter"",""1"",""4830""
","
","","","-1","","","11","3164","1851","&#9761;","elianto","#3366ff99","-1","-1","1","+10","[]","0","0","2",""
"pit-trial","66","638856","0.0-2.0-11.7-3.7","battery-v0.2","","""event"",""trial"",""time""
""fullscreenenter"",""1"",""4830""
","
","
","""event"",""trial"",""time""
""fullscreenenter"",""1"",""4830""
","
","","","519","","","11","3164","1851","&#9761;","elianto","#3366ff99","-1"," ","0","+10","[1374.0999999940395]","1","0","2",""
"pit-trial","67","642168","0.0-2.0-11.7-4.7","battery-v0.2","","""event"",""trial"",""time""
""fullscreenenter"",""1"",""4830""
","
","
","""event"",""trial"",""time""
""fullscreenenter"",""1"",""4830""
","
","","","454.5","","","11","3164","1851","&#9761;","elianto","#3366ff99","-1"," ","0","0","[1304.8999999761581]","1","0","2",""
"pit-trial","68","647032","0.0-2.0-11.8-0.8","battery-v0.2","","""event"",""trial"",""time""
""fullscreenenter"",""1"",""4830""
","
","
","""event"",""trial"",""time""
""fullscreenenter"",""1"",""4830""
","
","","","-1","","","11","3164","1851","&#9761;","elianto","#3366ff99","-1","-1","1","+10","[]","0","0","2",""
"pit-trial","69","651725","0.0-2.0-11.8-1.8","battery-v0.2","","""event"",""trial"",""time""
""fullscreenenter"",""1"",""4830""
","
","
","""event"",""trial"",""time""
""fullscreenenter"",""1"",""4830""
","
","","","1831.4000000059605","","","11","3164","1851","&#9761;","elianto","#3366ff99","-1"," ","0","0","[2686.2000000178814]","1","0","2",""
"pit-trial","70","656589","0.0-2.0-11.8-2.8","battery-v0.2","","""event"",""trial"",""time""
""fullscreenenter"",""1"",""4830""
","
","
","""event"",""trial"",""time""
""fullscreenenter"",""1"",""4830""
","
","","","-1","","","11","3164","1851","&#9761;","elianto","#3366ff99","-1","-1","1","+10","[]","0","0","2",""
"pit-trial","71","660593","0.0-2.0-11.8-3.8","battery-v0.2","","""event"",""trial"",""time""
""fullscreenenter"",""1"",""4830""
","
","
","""event"",""trial"",""time""
""fullscreenenter"",""1"",""4830""
","
","","","1145.699999988079","","","11","3164","1851","&#9761;","elianto","#3366ff99","-1"," ","0","+10","[1996]","1","0","2",""
"pit-trial","72","664716","0.0-2.0-11.8-4.8","battery-v0.2","","""event"",""trial"",""time""
""fullscreenenter"",""1"",""4830""
","
","
","""event"",""trial"",""time""
""fullscreenenter"",""1"",""4830""
","
","","","1266.7999999821186","","","11","3164","1851","&#9761;","elianto","#3366ff99","-1"," ","0","0","[2117.800000011921]","1","0","2",""
"pit-trial","73","669580","0.0-2.0-11.9-0.9","battery-v0.2","","""event"",""trial"",""time""
""fullscreenenter"",""1"",""4830""
","
","
","""event"",""trial"",""time""
""fullscreenenter"",""1"",""4830""
","
","","","-1","","","11","3164","1851","&#9761;","elianto","#3366ff99","-1","-1","1","+10","[3139.7000000178814,3379,3627.5999999940395]","3","0","2",""
"pit-trial","74","674439","0.0-2.0-11.9-1.9","battery-v0.2","","""event"",""trial"",""time""
""fullscreenenter"",""1"",""4830""
","
","
","""event"",""trial"",""time""
""fullscreenenter"",""1"",""4830""
","
","","","-1","","","11","3164","1851","&#9761;","elianto","#3366ff99","-1","-1","1","+10","[]","0","0","2",""
"pit-trial","75","679297","0.0-2.0-11.9-2.9","battery-v0.2","","""event"",""trial"",""time""
""fullscreenenter"",""1"",""4830""
","
","
","""event"",""trial"",""time""
""fullscreenenter"",""1"",""4830""
","
","","","-1","","","11","3164","1851","&#9761;","elianto","#3366ff99","-1","-1","1","+10","[]","0","0","2",""
"pit-trial","76","684153","0.0-2.0-11.9-3.9","battery-v0.2","","""event"",""trial"",""time""
""fullscreenenter"",""1"",""4830""
","
","
","""event"",""trial"",""time""
""fullscreenenter"",""1"",""4830""
","
","","","-1","","","11","3164","1851","&#9761;","elianto","#3366ff99","-1","-1","1","0","[]","0","0","2",""
"pit-trial","77","689015","0.0-2.0-11.9-4.9","battery-v0.2","","""event"",""trial"",""time""
""fullscreenenter"",""1"",""4830""
","
","
","""event"",""trial"",""time""
""fullscreenenter"",""1"",""4830""
","
","","","-1","","","11","3164","1851","&#9761;","elianto","#3366ff99","-1","-1","1","+10","[3211.199999988079]","1","0","2",""
"call-function","78","689017","0.0-2.0-12.0","battery-v0.2","","""event"",""trial"",""time""
""fullscreenenter"",""1"",""4830""
","
","
","""event"",""trial"",""time""
""fullscreenenter"",""1"",""4830""
","
","","","","","","","","","","","","","","","","","","","",""
"pit-instructions","79","730378","0.0-2.0-13.0","battery-v0.2","","""event"",""trial"",""time""
""fullscreenenter"",""1"",""4830""
","
","
","""event"",""trial"",""time""
""fullscreenenter"",""1"",""4830""
","
","","[{""page_index"":0,""viewing_time"":10059.90000000596},{""page_index"":1,""viewing_time"":8100.5},{""page_index"":2,""viewing_time"":5585.800000011921},{""page_index"":3,""viewing_time"":11555.5},{""page_index"":4,""viewing_time"":6057.5999999940395}]","41360.09999999404","","","","","","","","","","","","","","","","",""
"pit-trial","80","733425","0.0-2.0-14.0-0.0","battery-v0.2","","""event"",""trial"",""time""
""fullscreenenter"",""1"",""4830""
","
","
","""event"",""trial"",""time""
""fullscreenenter"",""1"",""4830""
","
","","","189.30000001192093","","","11","3164","1851","&#9826;","elianto","#f73b6a7A","-1"," ","0","-10","[1040.800000011921]","1","0","3",""
"pit-trial","81","738286","0.0-2.0-14.0-1.0","battery-v0.2","","""event"",""trial"",""time""
""fullscreenenter"",""1"",""4830""
","
","
","""event"",""trial"",""time""
""fullscreenenter"",""1"",""4830""
","
","","","-1","","","11","3164","1851","&#9826;","elianto","#f73b6a7A","-1","-1","1","0","[]","0","0","3",""
"pit-trial","82","743146","0.0-2.0-14.0-2.0","battery-v0.2","","""event"",""trial"",""time""
""fullscreenenter"",""1"",""4830""
","
","
","""event"",""trial"",""time""
""fullscreenenter"",""1"",""4830""
","
","","","-1","","","11","3164","1851","&#9826;","elianto","#f73b6a7A","-1","-1","1","0","[]","0","0","3",""
"pit-trial","83","748010","0.0-2.0-14.0-3.0","battery-v0.2","","""event"",""trial"",""time""
""fullscreenenter"",""1"",""4830""
","
","
","""event"",""trial"",""time""
""fullscreenenter"",""1"",""4830""
","
","","","-1","","","11","3164","1851","&#9826;","elianto","#f73b6a7A","-1","-1","1","-10","[]","0","0","3",""
"pit-trial","84","752873","0.0-2.0-14.0-4.0","battery-v0.2","","""event"",""trial"",""time""
""fullscreenenter"",""1"",""4830""
","
","
","""event"",""trial"",""time""
""fullscreenenter"",""1"",""4830""
","
","","","-1","","","11","3164","1851","&#9826;","elianto","#f73b6a7A","-1","-1","1","0","[]","0","0","3",""
"call-function","85","752876","0.0-2.0-15.0","battery-v0.2","","""event"",""trial"",""time""
""fullscreenenter"",""1"",""4830""
","
","
","""event"",""trial"",""time""
""fullscreenenter"",""1"",""4830""
","
","","","","","","","","","","","","","","","","","","","",""
"pit-instructions","86","784661","0.0-2.0-16.0","battery-v0.2","","""event"",""trial"",""time""
""fullscreenenter"",""1"",""4830""
","
","
","""event"",""trial"",""time""
""fullscreenenter"",""1"",""4830""
","
","","[{""page_index"":0,""viewing_time"":7922.0999999940395},{""page_index"":1,""viewing_time"":10073.90000000596},{""page_index"":2,""viewing_time"":8784.09999999404},{""page_index"":3,""viewing_time"":5004.5}]","31785.20000001788","","","","","","","","","","","","","","","","",""
"pit-trial","87","789521","0.0-2.0-17.0-0.0","battery-v0.2","","""event"",""trial"",""time""
""fullscreenenter"",""1"",""4830""
","
","
","""event"",""trial"",""time""
""fullscreenenter"",""1"",""4830""
","
","","","-1","","","11","3164","1851","&#9789;","elianto","#f73b6a7A"," ","-1","0","-10","[]","0","0","4",""
"pit-trial","88","793368","0.0-2.0-17.0-1.0","battery-v0.2","","""event"",""trial"",""time""
""fullscreenenter"",""1"",""4830""
","
","
","""event"",""trial"",""time""
""fullscreenenter"",""1"",""4830""
","
","","","992","","","11","3164","1851","&#9789;","elianto","#f73b6a7A"," "," ","1","0","[1844.4000000059605]","1","0","4",""
"pit-trial","89","798229","0.0-2.0-17.0-2.0","battery-v0.2","","""event"",""trial"",""time""
""fullscreenenter"",""1"",""4830""
","
","
","""event"",""trial"",""time""
""fullscreenenter"",""1"",""4830""
","
","","","-1","","","11","3164","1851","&#9789;","elianto","#f73b6a7A"," ","-1","0","-10","[]","0","0","4",""
"pit-trial","90","803089","0.0-2.0-17.0-3.0","battery-v0.2","","""event"",""trial"",""time""
""fullscreenenter"",""1"",""4830""
","
","
","""event"",""trial"",""time""
""fullscreenenter"",""1"",""4830""
","
","","","-1","","","11","3164","1851","&#9789;","elianto","#f73b6a7A"," ","-1","0","0","[]","0","0","4",""
"pit-trial","91","807953","0.0-2.0-17.0-4.0","battery-v0.2","","""event"",""trial"",""time""
""fullscreenenter"",""1"",""4830""
","
","
","""event"",""trial"",""time""
""fullscreenenter"",""1"",""4830""
","
","","","-1","","","11","3164","1851","&#9789;","elianto","#f73b6a7A"," ","-1","0","-10","[]","0","0","4",""
"pit-trial","92","811271","0.0-2.0-17.1-0.1","battery-v0.2","","""event"",""trial"",""time""
""fullscreenenter"",""1"",""4830""
","
","
","""event"",""trial"",""time""
""fullscreenenter"",""1"",""4830""
","
","","","460.80000001192093","","","11","3164","1851","&#9789;","elianto","#f73b6a7A"," "," ","1","0","[1313.4000000059605]","1","0","4",""
"pit-trial","93","816134","0.0-2.0-17.1-1.1","battery-v0.2","","""event"",""trial"",""time""
""fullscreenenter"",""1"",""4830""
","
","
","""event"",""trial"",""time""
""fullscreenenter"",""1"",""4830""
","
","","","-1","","","11","3164","1851","&#9789;","elianto","#f73b6a7A"," ","-1","0","-10","[]","0","0","4",""
"pit-trial","94","819334","0.0-2.0-17.1-2.1","battery-v0.2","","""event"",""trial"",""time""
""fullscreenenter"",""1"",""4830""
","
","
","""event"",""trial"",""time""
""fullscreenenter"",""1"",""4830""
","
","","","336.10000002384186","","","11","3164","1851","&#9789;","elianto","#f73b6a7A"," "," ","1","0","[1190.9000000059605]","1","0","4",""
"pit-trial","95","824198","0.0-2.0-17.1-3.1","battery-v0.2","","""event"",""trial"",""time""
""fullscreenenter"",""1"",""4830""
","
","
","""event"",""trial"",""time""
""fullscreenenter"",""1"",""4830""
","
","","","-1","","","11","3164","1851","&#9789;","elianto","#f73b6a7A"," ","-1","0","0","[]","0","0","4",""
"pit-trial","96","829062","0.0-2.0-17.1-4.1","battery-v0.2","","""event"",""trial"",""time""
""fullscreenenter"",""1"",""4830""
","
","
","""event"",""trial"",""time""
""fullscreenenter"",""1"",""4830""
","
","","","-1","","","11","3164","1851","&#9789;","elianto","#f73b6a7A"," ","-1","0","-10","[]","0","0","4",""
"pit-trial","97","833926","0.0-2.0-17.2-0.2","battery-v0.2","","""event"",""trial"",""time""
""fullscreenenter"",""1"",""4830""
","
","
","""event"",""trial"",""time""
""fullscreenenter"",""1"",""4830""
","
","","","-1","","","11","3164","1851","&#9789;","elianto","#f73b6a7A"," ","-1","0","-10","[]","0","0","4",""
"pit-trial","98","838790","0.0-2.0-17.2-1.2","battery-v0.2","","""event"",""trial"",""time""
""fullscreenenter"",""1"",""4830""
","
","
","""event"",""trial"",""time""
""fullscreenenter"",""1"",""4830""
","
","","","-1","","","11","3164","1851","&#9789;","elianto","#f73b6a7A"," ","-1","0","-10","[]","0","0","4",""
"pit-trial","99","843654","0.0-2.0-17.2-2.2","battery-v0.2","","""event"",""trial"",""time""
""fullscreenenter"",""1"",""4830""
","
","
","""event"",""trial"",""time""
""fullscreenenter"",""1"",""4830""
","
","","","-1","","","11","3164","1851","&#9789;","elianto","#f73b6a7A"," ","-1","0","-10","[]","0","0","4",""
"pit-trial","100","848517","0.0-2.0-17.2-3.2","battery-v0.2","","""event"",""trial"",""time""
""fullscreenenter"",""1"",""4830""
","
","
","""event"",""trial"",""time""
""fullscreenenter"",""1"",""4830""
","
","","","-1","","","11","3164","1851","&#9789;","elianto","#f73b6a7A"," ","-1","0","0","[]","0","0","4",""
"pit-trial","101","853381","0.0-2.0-17.2-4.2","battery-v0.2","","""event"",""trial"",""time""
""fullscreenenter"",""1"",""4830""
","
","
","""event"",""trial"",""time""
""fullscreenenter"",""1"",""4830""
","
","","","-1","","","11","3164","1851","&#9789;","elianto","#f73b6a7A"," ","-1","0","-10","[]","0","0","4",""
"pit-trial","102","858245","0.0-2.0-17.3-0.3","battery-v0.2","","""event"",""trial"",""time""
""fullscreenenter"",""1"",""4830""
","
","
","""event"",""trial"",""time""
""fullscreenenter"",""1"",""4830""
","
","","","-1","","","11","3164","1851","&#9789;","elianto","#f73b6a7A"," ","-1","0","-10","[]","0","0","4",""
"pit-trial","103","863104","0.0-2.0-17.3-1.3","battery-v0.2","","""event"",""trial"",""time""
""fullscreenenter"",""1"",""4830""
","
","
","""event"",""trial"",""time""
""fullscreenenter"",""1"",""4830""
","
","","","-1","","","11","3164","1851","&#9789;","elianto","#f73b6a7A"," ","-1","0","-10","[]","0","0","4",""
"pit-trial","104","866117","0.0-2.0-17.3-2.3","battery-v0.2","","""event"",""trial"",""time""
""fullscreenenter"",""1"",""4830""
","
","
","""event"",""trial"",""time""
""fullscreenenter"",""1"",""4830""
","
","","","156.69999998807907","","","11","3164","1851","&#9789;","elianto","#f73b6a7A"," "," ","1","0","[1009.3999999761581]","1","0","4",""
"pit-trial","105","870981","0.0-2.0-17.3-3.3","battery-v0.2","","""event"",""trial"",""time""
""fullscreenenter"",""1"",""4830""
","
","
","""event"",""trial"",""time""
""fullscreenenter"",""1"",""4830""
","
","","","-1","","","11","3164","1851","&#9789;","elianto","#f73b6a7A"," ","-1","0","0","[]","0","0","4",""
"pit-trial","106","875845","0.0-2.0-17.3-4.3","battery-v0.2","","""event"",""trial"",""time""
""fullscreenenter"",""1"",""4830""
","
","
","""event"",""trial"",""time""
""fullscreenenter"",""1"",""4830""
","
","","","-1","","","11","3164","1851","&#9789;","elianto","#f73b6a7A"," ","-1","0","-10","[]","0","0","4",""
"pit-trial","107","879018","0.0-2.0-17.4-0.4","battery-v0.2","","""event"",""trial"",""time""
""fullscreenenter"",""1"",""4830""
","
","
","""event"",""trial"",""time""
""fullscreenenter"",""1"",""4830""
","
","","","310","","","11","3164","1851","&#9789;","elianto","#f73b6a7A"," "," ","1","0","[1164.4000000059605]","1","0","4",""
"pit-trial","108","883877","0.0-2.0-17.4-1.4","battery-v0.2","","""event"",""trial"",""time""
""fullscreenenter"",""1"",""4830""
","
","
","""event"",""trial"",""time""
""fullscreenenter"",""1"",""4830""
","
","","","-1","","","11","3164","1851","&#9789;","elianto","#f73b6a7A"," ","-1","0","-10","[]","0","0","4",""
"pit-trial","109","888741","0.0-2.0-17.4-2.4","battery-v0.2","","""event"",""trial"",""time""
""fullscreenenter"",""1"",""4830""
","
","
","""event"",""trial"",""time""
""fullscreenenter"",""1"",""4830""
","
","","","-1","","","11","3164","1851","&#9789;","elianto","#f73b6a7A"," ","-1","0","-10","[]","0","0","4",""
"pit-trial","110","893605","0.0-2.0-17.4-3.4","battery-v0.2","","""event"",""trial"",""time""
""fullscreenenter"",""1"",""4830""
","
","
","""event"",""trial"",""time""
""fullscreenenter"",""1"",""4830""
","
","","","-1","","","11","3164","1851","&#9789;","elianto","#f73b6a7A"," ","-1","0","0","[]","0","0","4",""
"pit-trial","111","898469","0.0-2.0-17.4-4.4","battery-v0.2","","""event"",""trial"",""time""
""fullscreenenter"",""1"",""4830""
","
","
","""event"",""trial"",""time""
""fullscreenenter"",""1"",""4830""
","
","","","-1","","","11","3164","1851","&#9789;","elianto","#f73b6a7A"," ","-1","0","-10","[]","0","0","4",""
"pit-instructions","112","918371","0.0-2.0-17.4-5.4-0.4","battery-v0.2","","""event"",""trial"",""time""
""fullscreenenter"",""1"",""4830""
","
","
","""event"",""trial"",""time""
""fullscreenenter"",""1"",""4830""
","
","","[{""page_index"":0,""viewing_time"":7325.299999982119},{""page_index"":1,""viewing_time"":7179.5},{""page_index"":2,""viewing_time"":5393.800000011921}]","19899.79999998212","","","","","","","","","","","","","","","","",""
"pit-trial","113","923227","0.0-2.0-17.5-0.5","battery-v0.2","","""event"",""trial"",""time""
""fullscreenenter"",""1"",""4830""
","
","
","""event"",""trial"",""time""
""fullscreenenter"",""1"",""4830""
","
","","","-1","","","11","3164","1851","&#9789;","elianto","#f73b6a7A"," ","-1","0","-10","[]","0","0","4",""
"pit-trial","114","926356","0.0-2.0-17.5-1.5","battery-v0.2","","""event"",""trial"",""time""
""fullscreenenter"",""1"",""4830""
","
","
","""event"",""trial"",""time""
""fullscreenenter"",""1"",""4830""
","
","","","271.5","","","11","3164","1851","&#9789;","elianto","#f73b6a7A"," "," ","1","0","[1121.5999999940395]","1","0","4",""
"pit-trial","115","931210","0.0-2.0-17.5-2.5","battery-v0.2","","""event"",""trial"",""time""
""fullscreenenter"",""1"",""4830""
","
","
","""event"",""trial"",""time""
""fullscreenenter"",""1"",""4830""
","
","","","-1","","","11","3164","1851","&#9789;","elianto","#f73b6a7A"," ","-1","0","-10","[]","0","0","4",""
"pit-trial","116","936074","0.0-2.0-17.5-3.5","battery-v0.2","","""event"",""trial"",""time""
""fullscreenenter"",""1"",""4830""
","
","
","""event"",""trial"",""time""
""fullscreenenter"",""1"",""4830""
","
","","","-1","","","11","3164","1851","&#9789;","elianto","#f73b6a7A"," ","-1","0","0","[]","0","0","4",""
"pit-trial","117","940931","0.0-2.0-17.5-4.5","battery-v0.2","","""event"",""trial"",""time""
""fullscreenenter"",""1"",""4830""
","
","
","""event"",""trial"",""time""
""fullscreenenter"",""1"",""4830""
","
","","","-1","","","11","3164","1851","&#9789;","elianto","#f73b6a7A"," ","-1","0","-10","[]","0","0","4",""
"pit-trial","118","945787","0.0-2.0-17.6-0.6","battery-v0.2","","""event"",""trial"",""time""
""fullscreenenter"",""1"",""4830""
","
","
","""event"",""trial"",""time""
""fullscreenenter"",""1"",""4830""
","
","","","-1","","","11","3164","1851","&#9789;","elianto","#f73b6a7A"," ","-1","0","-10","[]","0","0","4",""
"pit-trial","119","950652","0.0-2.0-17.6-1.6","battery-v0.2","","""event"",""trial"",""time""
""fullscreenenter"",""1"",""4830""
","
","
","""event"",""trial"",""time""
""fullscreenenter"",""1"",""4830""
","
","","","-1","","","11","3164","1851","&#9789;","elianto","#f73b6a7A"," ","-1","0","-10","[]","0","0","4",""
"pit-trial","120","955513","0.0-2.0-17.6-2.6","battery-v0.2","","""event"",""trial"",""time""
""fullscreenenter"",""1"",""4830""
","
","
","""event"",""trial"",""time""
""fullscreenenter"",""1"",""4830""
","
","","","-1","","","11","3164","1851","&#9789;","elianto","#f73b6a7A"," ","-1","0","-10","[]","0","0","4",""
"pit-trial","121","960377","0.0-2.0-17.6-3.6","battery-v0.2","","""event"",""trial"",""time""
""fullscreenenter"",""1"",""4830""
","
","
","""event"",""trial"",""time""
""fullscreenenter"",""1"",""4830""
","
","","","-1","","","11","3164","1851","&#9789;","elianto","#f73b6a7A"," ","-1","0","0","[]","0","0","4",""
"pit-trial","122","965241","0.0-2.0-17.6-4.6","battery-v0.2","","""event"",""trial"",""time""
""fullscreenenter"",""1"",""4830""
","
","
","""event"",""trial"",""time""
""fullscreenenter"",""1"",""4830""
","
","","","-1","","","11","3164","1851","&#9789;","elianto","#f73b6a7A"," ","-1","0","-10","[]","0","0","4",""
"pit-trial","123","970105","0.0-2.0-17.7-0.7","battery-v0.2","","""event"",""trial"",""time""
""fullscreenenter"",""1"",""4830""
","
","
","""event"",""trial"",""time""
""fullscreenenter"",""1"",""4830""
","
","","","-1","","","11","3164","1851","&#9789;","elianto","#f73b6a7A"," ","-1","0","-10","[]","0","0","4",""
"pit-trial","124","974969","0.0-2.0-17.7-1.7","battery-v0.2","","""event"",""trial"",""time""
""fullscreenenter"",""1"",""4830""
","
","
","""event"",""trial"",""time""
""fullscreenenter"",""1"",""4830""
","
","","","-1","","","11","3164","1851","&#9789;","elianto","#f73b6a7A"," ","-1","0","-10","[]","0","0","4",""
"pit-trial","125","979833","0.0-2.0-17.7-2.7","battery-v0.2","","""event"",""trial"",""time""
""fullscreenenter"",""1"",""4830""
","
","
","""event"",""trial"",""time""
""fullscreenenter"",""1"",""4830""
","
","","","-1","","","11","3164","1851","&#9789;","elianto","#f73b6a7A"," ","-1","0","-10","[]","0","0","4",""
"pit-trial","126","984696","0.0-2.0-17.7-3.7","battery-v0.2","","""event"",""trial"",""time""
""fullscreenenter"",""1"",""4830""
","
","
","""event"",""trial"",""time""
""fullscreenenter"",""1"",""4830""
","
","","","-1","","","11","3164","1851","&#9789;","elianto","#f73b6a7A"," ","-1","0","0","[]","0","0","4",""
"pit-trial","127","989560","0.0-2.0-17.7-4.7","battery-v0.2","","""event"",""trial"",""time""
""fullscreenenter"",""1"",""4830""
","
","
","""event"",""trial"",""time""
""fullscreenenter"",""1"",""4830""
","
","","","-1","","","11","3164","1851","&#9789;","elianto","#f73b6a7A"," ","-1","0","-10","[]","0","0","4",""
"pit-trial","128","994424","0.0-2.0-17.8-0.8","battery-v0.2","","""event"",""trial"",""time""
""fullscreenenter"",""1"",""4830""
","
","
","""event"",""trial"",""time""
""fullscreenenter"",""1"",""4830""
","
","","","-1","","","11","3164","1851","&#9789;","elianto","#f73b6a7A"," ","-1","0","-10","[]","0","0","4",""
"pit-trial","129","999288","0.0-2.0-17.8-1.8","battery-v0.2","","""event"",""trial"",""time""
""fullscreenenter"",""1"",""4830""
","
","
","""event"",""trial"",""time""
""fullscreenenter"",""1"",""4830""
","
","","","-1","","","11","3164","1851","&#9789;","elianto","#f73b6a7A"," ","-1","0","-10","[]","0","0","4",""
"pit-trial","130","1004152","0.0-2.0-17.8-2.8","battery-v0.2","","""event"",""trial"",""time""
""fullscreenenter"",""1"",""4830""
","
","
","""event"",""trial"",""time""
""fullscreenenter"",""1"",""4830""
","
","","","-1","","","11","3164","1851","&#9789;","elianto","#f73b6a7A"," ","-1","0","-10","[]","0","0","4",""
"pit-trial","131","1009016","0.0-2.0-17.8-3.8","battery-v0.2","","""event"",""trial"",""time""
""fullscreenenter"",""1"",""4830""
","
","
","""event"",""trial"",""time""
""fullscreenenter"",""1"",""4830""
","
","","","-1","","","11","3164","1851","&#9789;","elianto","#f73b6a7A"," ","-1","0","0","[]","0","0","4",""
"pit-trial","132","1013879","0.0-2.0-17.8-4.8","battery-v0.2","","""event"",""trial"",""time""
""fullscreenenter"",""1"",""4830""
","
","
","""event"",""trial"",""time""
""fullscreenenter"",""1"",""4830""
","
","","","-1","","","11","3164","1851","&#9789;","elianto","#f73b6a7A"," ","-1","0","-10","[]","0","0","4",""
"pit-trial","133","1018744","0.0-2.0-17.9-0.9","battery-v0.2","","""event"",""trial"",""time""
""fullscreenenter"",""1"",""4830""
","
","
","""event"",""trial"",""time""
""fullscreenenter"",""1"",""4830""
","
","","","-1","","","11","3164","1851","&#9789;","elianto","#f73b6a7A"," ","-1","0","-10","[]","0","0","4",""
"pit-trial","134","1023607","0.0-2.0-17.9-1.9","battery-v0.2","","""event"",""trial"",""time""
""fullscreenenter"",""1"",""4830""
","
","
","""event"",""trial"",""time""
""fullscreenenter"",""1"",""4830""
","
","","","-1","","","11","3164","1851","&#9789;","elianto","#f73b6a7A"," ","-1","0","-10","[]","0","0","4",""
"pit-trial","135","1028471","0.0-2.0-17.9-2.9","battery-v0.2","","""event"",""trial"",""time""
""fullscreenenter"",""1"",""4830""
","
","
","""event"",""trial"",""time""
""fullscreenenter"",""1"",""4830""
","
","","","-1","","","11","3164","1851","&#9789;","elianto","#f73b6a7A"," ","-1","0","-10","[]","0","0","4",""
"pit-trial","136","1033335","0.0-2.0-17.9-3.9","battery-v0.2","","""event"",""trial"",""time""
""fullscreenenter"",""1"",""4830""
","
","
","""event"",""trial"",""time""
""fullscreenenter"",""1"",""4830""
","
","","","-1","","","11","3164","1851","&#9789;","elianto","#f73b6a7A"," ","-1","0","0","[]","0","0","4",""
"pit-trial","137","1038199","0.0-2.0-17.9-4.9","battery-v0.2","","""event"",""trial"",""time""
""fullscreenenter"",""1"",""4830""
","
","
","""event"",""trial"",""time""
""fullscreenenter"",""1"",""4830""
","
","","","-1","","","11","3164","1851","&#9789;","elianto","#f73b6a7A"," ","-1","0","-10","[]","0","0","4",""
"pit-trial","138","1043063","0.0-2.0-17.10-0.10","battery-v0.2","","""event"",""trial"",""time""
""fullscreenenter"",""1"",""4830""
","
","
","""event"",""trial"",""time""
""fullscreenenter"",""1"",""4830""
","
","","","-1","","","11","3164","1851","&#9789;","elianto","#f73b6a7A"," ","-1","0","-10","[]","0","0","4",""
"pit-trial","139","1047922","0.0-2.0-17.10-1.10","battery-v0.2","","""event"",""trial"",""time""
""fullscreenenter"",""1"",""4830""
","
","
","""event"",""trial"",""time""
""fullscreenenter"",""1"",""4830""
","
","","","-1","","","11","3164","1851","&#9789;","elianto","#f73b6a7A"," ","-1","0","-10","[]","0","0","4",""
"pit-trial","140","1052786","0.0-2.0-17.10-2.10","battery-v0.2","","""event"",""trial"",""time""
""fullscreenenter"",""1"",""4830""
","
","
","""event"",""trial"",""time""
""fullscreenenter"",""1"",""4830""
","
","","","-1","","","11","3164","1851","&#9789;","elianto","#f73b6a7A"," ","-1","0","-10","[]","0","0","4",""
"pit-trial","141","1057650","0.0-2.0-17.10-3.10","battery-v0.2","","""event"",""trial"",""time""
""fullscreenenter"",""1"",""4830""
","
","
","""event"",""trial"",""time""
""fullscreenenter"",""1"",""4830""
","
","","","-1","","","11","3164","1851","&#9789;","elianto","#f73b6a7A"," ","-1","0","0","[]","0","0","4",""
"pit-trial","142","1062513","0.0-2.0-17.10-4.10","battery-v0.2","","""event"",""trial"",""time""
""fullscreenenter"",""1"",""4830""
","
","
","""event"",""trial"",""time""
""fullscreenenter"",""1"",""4830""
","
","","","-1","","","11","3164","1851","&#9789;","elianto","#f73b6a7A"," ","-1","0","-10","[]","0","0","4",""
"pit-trial","143","1067378","0.0-2.0-17.11-0.11","battery-v0.2","","""event"",""trial"",""time""
""fullscreenenter"",""1"",""4830""
","
","
","""event"",""trial"",""time""
""fullscreenenter"",""1"",""4830""
","
","","","-1","","","11","3164","1851","&#9789;","elianto","#f73b6a7A"," ","-1","0","-10","[]","0","0","4",""
"pit-trial","144","1072241","0.0-2.0-17.11-1.11","battery-v0.2","","""event"",""trial"",""time""
""fullscreenenter"",""1"",""4830""
","
","
","""event"",""trial"",""time""
""fullscreenenter"",""1"",""4830""
","
","","","-1","","","11","3164","1851","&#9789;","elianto","#f73b6a7A"," ","-1","0","-10","[]","0","0","4",""
"pit-trial","145","1077105","0.0-2.0-17.11-2.11","battery-v0.2","","""event"",""trial"",""time""
""fullscreenenter"",""1"",""4830""
","
","
","""event"",""trial"",""time""
""fullscreenenter"",""1"",""4830""
","
","","","-1","","","11","3164","1851","&#9789;","elianto","#f73b6a7A"," ","-1","0","-10","[]","0","0","4",""
"pit-trial","146","1081963","0.0-2.0-17.11-3.11","battery-v0.2","","""event"",""trial"",""time""
""fullscreenenter"",""1"",""4830""
","
","
","""event"",""trial"",""time""
""fullscreenenter"",""1"",""4830""
","
","","","-1","","","11","3164","1851","&#9789;","elianto","#f73b6a7A"," ","-1","0","0","[]","0","0","4",""
"pit-trial","147","1086827","0.0-2.0-17.11-4.11","battery-v0.2","","""event"",""trial"",""time""
""fullscreenenter"",""1"",""4830""
","
","
","""event"",""trial"",""time""
""fullscreenenter"",""1"",""4830""
","
","","","-1","","","11","3164","1851","&#9789;","elianto","#f73b6a7A"," ","-1","0","-10","[]","0","0","4",""
"pit-trial","148","1091691","0.0-2.0-17.12-0.12","battery-v0.2","","""event"",""trial"",""time""
""fullscreenenter"",""1"",""4830""
","
","
","""event"",""trial"",""time""
""fullscreenenter"",""1"",""4830""
","
","","","-1","","","11","3164","1851","&#9789;","elianto","#f73b6a7A"," ","-1","0","-10","[]","0","0","4",""
"pit-trial","149","1096555","0.0-2.0-17.12-1.12","battery-v0.2","","""event"",""trial"",""time""
""fullscreenenter"",""1"",""4830""
","
","
","""event"",""trial"",""time""
""fullscreenenter"",""1"",""4830""
","
","","","-1","","","11","3164","1851","&#9789;","elianto","#f73b6a7A"," ","-1","0","-10","[]","0","0","4",""
"pit-trial","150","1101414","0.0-2.0-17.12-2.12","battery-v0.2","","""event"",""trial"",""time""
""fullscreenenter"",""1"",""4830""
","
","
","""event"",""trial"",""time""
""fullscreenenter"",""1"",""4830""
","
","","","-1","","","11","3164","1851","&#9789;","elianto","#f73b6a7A"," ","-1","0","-10","[]","0","0","4",""
"pit-trial","151","1106278","0.0-2.0-17.12-3.12","battery-v0.2","","""event"",""trial"",""time""
""fullscreenenter"",""1"",""4830""
","
","
","""event"",""trial"",""time""
""fullscreenenter"",""1"",""4830""
","
","","","-1","","","11","3164","1851","&#9789;","elianto","#f73b6a7A"," ","-1","0","0","[]","0","0","4",""
"pit-trial","152","1111142","0.0-2.0-17.12-4.12","battery-v0.2","","""event"",""trial"",""time""
""fullscreenenter"",""1"",""4830""
","
","
","""event"",""trial"",""time""
""fullscreenenter"",""1"",""4830""
","
","","","-1","","","11","3164","1851","&#9789;","elianto","#f73b6a7A"," ","-1","0","-10","[]","0","0","4",""
"call-function","153","1111145","0.0-2.0-18.0","battery-v0.2","","""event"",""trial"",""time""
""fullscreenenter"",""1"",""4830""
""blur"",""154"",""1134970""
""focus"",""154"",""1134972""
""fullscreenexit"",""154"",""1134982""
","""event"",""trial"",""time""
""blur"",""154"",""1134970""
","""event"",""trial"",""time""
""focus"",""154"",""1134972""
","""event"",""trial"",""time""
""fullscreenenter"",""1"",""4830""
","""event"",""trial"",""time""
""fullscreenexit"",""154"",""1134982""
","","","","","","","","","","","","","","","","","","","",""
