"trial_type","trial_index","time_elapsed","internal_node_id","task_version","subject_id","interactions","blur_events","focus_events","fullscreenenter_events","fullscreenexit_events","success","view_history","rt","responses","num_errors","age","subject","participantId","rune","rune_set","hex","correct","choice","accuracy","outcome","keys","total_keys","block","practice","value","sub","trial","stimulus","robot","valence","action","sham"
"pavlovia","0","9","0.0-0.0","battery-v0.2","","""event"",""trial"",""time""
""fullscreenenter"",""1"",""2105""
","
","
","""event"",""trial"",""time""
""fullscreenenter"",""1"",""2105""
","
","","","","","","","","","","","","","","","","","","","","","","","","","","",""
"fullscreen","1","3100","0.0-1.0","battery-v0.2","","""event"",""trial"",""time""
""fullscreenenter"",""1"",""2105""
","
","
","""event"",""trial"",""time""
""fullscreenenter"",""1"",""2105""
","
","true","","","","","","","","","","","","","","","","","","","","","","","","","",""
"pit-instructions","2","7791","0.0-2.0-0.0","battery-v0.2","","""event"",""trial"",""time""
""fullscreenenter"",""1"",""2105""
","
","
","""event"",""trial"",""time""
""fullscreenenter"",""1"",""2105""
","
","","[{""page_index"":0,""viewing_time"":4688}]","4688.199999988079","","","","","","","","","","","","","","","","","","","","","","","",""
"pit-comprehension","3","11213","0.0-2.0-1.0-0.0","battery-v0.2","","""event"",""trial"",""time""
""fullscreenenter"",""1"",""2105""
","
","
","""event"",""trial"",""time""
""fullscreenenter"",""1"",""2105""
","
","","","3419.100000023842","[""shark""]","0","13","4440","813","","","","","","","","","","","","","","","","","","",""
"pit-instructions","4","12341","0.0-2.0-1.0-1.0","battery-v0.2","","""event"",""trial"",""time""
""fullscreenenter"",""1"",""2105""
","
","
","""event"",""trial"",""time""
""fullscreenenter"",""1"",""2105""
","
","","[{""page_index"":0,""viewing_time"":1113.6000000238419}]","1113.800000011921","","","","","","","","","","","","","","","","","","","","","","","",""
"pit-comprehension","5","14794","0.0-2.0-2.0-0.0","battery-v0.2","","""event"",""trial"",""time""
""fullscreenenter"",""1"",""2105""
","
","
","""event"",""trial"",""time""
""fullscreenenter"",""1"",""2105""
","
","","","2449.900000035763","[""tiger""]","0","13","4440","813","","","","","","","","","","","","","","","","","","",""
"pit-instructions","6","16119","0.0-2.0-2.0-1.0","battery-v0.2","","""event"",""trial"",""time""
""fullscreenenter"",""1"",""2105""
","
","
","""event"",""trial"",""time""
""fullscreenenter"",""1"",""2105""
","
","","[{""page_index"":0,""viewing_time"":1321}]","1321.3999999761581","","","","","","","","","","","","","","","","","","","","","","","",""
"pit-instructions","7","128433","0.0-2.0-3.0","battery-v0.2","","""event"",""trial"",""time""
""fullscreenenter"",""1"",""2105""
","
","
","""event"",""trial"",""time""
""fullscreenenter"",""1"",""2105""
","
","","[{""page_index"":0,""viewing_time"":8406.399999976158},{""page_index"":1,""viewing_time"":6794.5},{""page_index"":2,""viewing_time"":6764.300000011921},{""page_index"":3,""viewing_time"":6265.600000023842},{""page_index"":4,""viewing_time"":6729.5},{""page_index"":5,""viewing_time"":7730.099999964237},{""page_index"":6,""viewing_time"":7404.400000035763},{""page_index"":7,""viewing_time"":7211.699999988079},{""page_index"":8,""viewing_time"":8106.5},{""page_index"":9,""viewing_time"":6309.800000011921},{""page_index"":8,""viewing_time"":1467.3999999761581},{""page_index"":9,""viewing_time"":9313},{""page_index"":10,""viewing_time"":7861.300000011921},{""page_index"":11,""viewing_time"":8357.899999976158},{""page_index"":12,""viewing_time"":6964.200000047684},{""page_index"":13,""viewing_time"":6625.399999976158}]","112312.39999997616","","","","","","","","","","","","","","","","","","","","","","","",""
"pit-trial","8","131860","0.0-2.0-4.0-0.0","battery-v0.2","","""event"",""trial"",""time""
""fullscreenenter"",""1"",""2105""
","
","
","""event"",""trial"",""time""
""fullscreenenter"",""1"",""2105""
","
","","","565.5","","","13","4440","813","&#9784;","elianto","#FFFFF080"," "," ","1","&#10004","[1416.5]","1","0","0","","","","","","","",""
"pit-trial","9","135478","0.0-2.0-4.1-0.1","battery-v0.2","","""event"",""trial"",""time""
""fullscreenenter"",""1"",""2105""
","
","
","""event"",""trial"",""time""
""fullscreenenter"",""1"",""2105""
","
","","","749.4000000357628","","","13","4440","813","&#9784;","elianto","#FFFFF080"," "," ","1","&#10004","[1606.3999999761581]","1","0","0","","","","","","","",""
"pit-trial","10","139033","0.0-2.0-4.2-0.2","battery-v0.2","","""event"",""trial"",""time""
""fullscreenenter"",""1"",""2105""
","
","
","""event"",""trial"",""time""
""fullscreenenter"",""1"",""2105""
","
","","","685.6999999880791","","","13","4440","813","&#9784;","elianto","#FFFFF080"," "," ","1","&#10004","[1539.3999999761581]","1","0","0","","","","","","","",""
"pit-trial","11","142425","0.0-2.0-4.3-0.3","battery-v0.2","","""event"",""trial"",""time""
""fullscreenenter"",""1"",""2105""
","
","
","""event"",""trial"",""time""
""fullscreenenter"",""1"",""2105""
","
","","","525.1999999880791","","","13","4440","813","&#9784;","elianto","#FFFFF080"," "," ","1","&#10004","[1378.5999999642372]","1","0","0","","","","","","","",""
"pit-trial","12","145898","0.0-2.0-4.4-0.4","battery-v0.2","","""event"",""trial"",""time""
""fullscreenenter"",""1"",""2105""
","
","
","""event"",""trial"",""time""
""fullscreenenter"",""1"",""2105""
","
","","","608.6999999880791","","","13","4440","813","&#9784;","elianto","#FFFFF080"," "," ","1","&#10004","[1459.5999999642372]","1","0","0","","","","","","","",""
"pit-instructions","13","169277","0.0-2.0-5.0","battery-v0.2","","""event"",""trial"",""time""
""fullscreenenter"",""1"",""2105""
","
","
","""event"",""trial"",""time""
""fullscreenenter"",""1"",""2105""
","
","","[{""page_index"":0,""viewing_time"":5913.699999988079},{""page_index"":1,""viewing_time"":5724.400000035763},{""page_index"":2,""viewing_time"":5277.399999976158},{""page_index"":3,""viewing_time"":6466.399999976158}]","23382.399999976158","","","","","","","","","","","","","","","","","","","","","","","",""
"pit-trial","14","174144","0.0-2.0-6.0-0.0","battery-v0.2","","""event"",""trial"",""time""
""fullscreenenter"",""1"",""2105""
","
","
","""event"",""trial"",""time""
""fullscreenenter"",""1"",""2105""
","
","","","-1","","","13","4440","813","&#9854;","elianto","#FFFFF080","-1","-1","1","&#10004","[]","0","0","1","","","","","","","",""
"pit-trial","15","179030","0.0-2.0-6.1-0.1","battery-v0.2","","""event"",""trial"",""time""
""fullscreenenter"",""1"",""2105""
","
","
","""event"",""trial"",""time""
""fullscreenenter"",""1"",""2105""
","
","","","-1","","","13","4440","813","&#9854;","elianto","#FFFFF080","-1","-1","1","&#10004","[]","0","0","1","","","","","","","",""
"pit-trial","16","183906","0.0-2.0-6.2-0.2","battery-v0.2","","""event"",""trial"",""time""
""fullscreenenter"",""1"",""2105""
","
","
","""event"",""trial"",""time""
""fullscreenenter"",""1"",""2105""
","
","","","-1","","","13","4440","813","&#9854;","elianto","#FFFFF080","-1","-1","1","&#10004","[]","0","0","1","","","","","","","",""
"pit-trial","17","188775","0.0-2.0-6.3-0.3","battery-v0.2","","""event"",""trial"",""time""
""fullscreenenter"",""1"",""2105""
","
","
","""event"",""trial"",""time""
""fullscreenenter"",""1"",""2105""
","
","","","-1","","","13","4440","813","&#9854;","elianto","#FFFFF080","-1","-1","1","&#10004","[]","0","0","1","","","","","","","",""
"pit-trial","18","193649","0.0-2.0-6.4-0.4","battery-v0.2","","""event"",""trial"",""time""
""fullscreenenter"",""1"",""2105""
","
","
","""event"",""trial"",""time""
""fullscreenenter"",""1"",""2105""
","
","","","-1","","","13","4440","813","&#9854;","elianto","#FFFFF080","-1","-1","1","&#10004","[]","0","0","1","","","","","","","",""
"pit-instructions","19","315755","0.0-2.0-7.0","battery-v0.2","","""event"",""trial"",""time""
""fullscreenenter"",""1"",""2105""
","
","
","""event"",""trial"",""time""
""fullscreenenter"",""1"",""2105""
","
","","[{""page_index"":0,""viewing_time"":6234},{""page_index"":1,""viewing_time"":7528.699999988079},{""page_index"":2,""viewing_time"":6464.5},{""page_index"":3,""viewing_time"":6676.5},{""page_index"":4,""viewing_time"":5795.5},{""page_index"":5,""viewing_time"":5834.300000011921},{""page_index"":6,""viewing_time"":4959.399999976158},{""page_index"":7,""viewing_time"":8240},{""page_index"":8,""viewing_time"":7127.300000011921},{""page_index"":9,""viewing_time"":6059.400000035763},{""page_index"":10,""viewing_time"":6713.299999952316},{""page_index"":11,""viewing_time"":5671.100000023842},{""page_index"":12,""viewing_time"":7965.600000023842},{""page_index"":13,""viewing_time"":7543.099999964237},{""page_index"":14,""viewing_time"":7673.199999988079},{""page_index"":15,""viewing_time"":6728.100000023842},{""page_index"":16,""viewing_time"":7153.899999976158},{""page_index"":17,""viewing_time"":7748.5}]","122116.89999997616","","","","","","","","","","","","","","","","","","","","","","","",""
"pit-trial","20","319401","0.0-2.0-8.0-0.0","battery-v0.2","","""event"",""trial"",""time""
""fullscreenenter"",""1"",""2105""
","
","
","""event"",""trial"",""time""
""fullscreenenter"",""1"",""2105""
","
","","","777.5","","","13","4440","813","&#9776;","elianto","#3366ff99"," "," ","1","+10","[1629]","1","0","1","","","","","","","",""
"pit-trial","21","322777","0.0-2.0-8.0-1.0","battery-v0.2","","""event"",""trial"",""time""
""fullscreenenter"",""1"",""2105""
","
","
","""event"",""trial"",""time""
""fullscreenenter"",""1"",""2105""
","
","","","518.3999999761581","","","13","4440","813","&#9776;","elianto","#3366ff99"," "," ","1","+10","[1371.3999999761581]","1","0","1","","","","","","","",""
"pit-trial","22","326266","0.0-2.0-8.0-2.0","battery-v0.2","","""event"",""trial"",""time""
""fullscreenenter"",""1"",""2105""
","
","
","""event"",""trial"",""time""
""fullscreenenter"",""1"",""2105""
","
","","","630.5","","","13","4440","813","&#9776;","elianto","#3366ff99"," "," ","1","+10","[1483.5999999642372]","1","0","1","","","","","","","",""
"pit-trial","23","329674","0.0-2.0-8.0-3.0","battery-v0.2","","""event"",""trial"",""time""
""fullscreenenter"",""1"",""2105""
","
","
","""event"",""trial"",""time""
""fullscreenenter"",""1"",""2105""
","
","","","542.5","","","13","4440","813","&#9776;","elianto","#3366ff99"," "," ","1","0","[1393.8999999761581]","1","0","1","","","","","","","",""
"pit-trial","24","333036","0.0-2.0-8.0-4.0","battery-v0.2","","""event"",""trial"",""time""
""fullscreenenter"",""1"",""2105""
","
","
","""event"",""trial"",""time""
""fullscreenenter"",""1"",""2105""
","
","","","499.89999997615814","","","13","4440","813","&#9776;","elianto","#3366ff99"," "," ","1","+10","[1352.5]","1","0","1","","","","","","","",""
"pit-trial","25","336430","0.0-2.0-8.1-0.1","battery-v0.2","","""event"",""trial"",""time""
""fullscreenenter"",""1"",""2105""
","
","
","""event"",""trial"",""time""
""fullscreenenter"",""1"",""2105""
","
","","","518.3000000119209","","","13","4440","813","&#9776;","elianto","#3366ff99"," "," ","1","+10","[1375]","1","0","1","","","","","","","",""
"pit-trial","26","339790","0.0-2.0-8.1-1.1","battery-v0.2","","""event"",""trial"",""time""
""fullscreenenter"",""1"",""2105""
","
","
","""event"",""trial"",""time""
""fullscreenenter"",""1"",""2105""
","
","","","495.5999999642372","","","13","4440","813","&#9776;","elianto","#3366ff99"," "," ","1","+10","[1348.4000000357628]","1","0","1","","","","","","","",""
"pit-trial","27","343616","0.0-2.0-8.1-2.1","battery-v0.2","","""event"",""trial"",""time""
""fullscreenenter"",""1"",""2105""
","
","
","""event"",""trial"",""time""
""fullscreenenter"",""1"",""2105""
","
","","","961.7000000476837","","","13","4440","813","&#9776;","elianto","#3366ff99"," "," ","1","+10","[1818.800000011921]","1","0","1","","","","","","","",""
"pit-trial","28","347512","0.0-2.0-8.1-3.1","battery-v0.2","","""event"",""trial"",""time""
""fullscreenenter"",""1"",""2105""
","
","
","""event"",""trial"",""time""
""fullscreenenter"",""1"",""2105""
","
","","","1041","","","13","4440","813","&#9776;","elianto","#3366ff99"," "," ","1","0","[1895]","1","0","1","","","","","","","",""
"pit-trial","29","350961","0.0-2.0-8.1-4.1","battery-v0.2","","""event"",""trial"",""time""
""fullscreenenter"",""1"",""2105""
","
","
","""event"",""trial"",""time""
""fullscreenenter"",""1"",""2105""
","
","","","585.3999999761581","","","13","4440","813","&#9776;","elianto","#3366ff99"," "," ","1","+10","[1440,3339.2000000476837]","2","0","1","","","","","","","",""
"pit-trial","30","354440","0.0-2.0-8.2-0.2","battery-v0.2","","""event"",""trial"",""time""
""fullscreenenter"",""1"",""2105""
","
","
","""event"",""trial"",""time""
""fullscreenenter"",""1"",""2105""
","
","","","615.9000000357628","","","13","4440","813","&#9776;","elianto","#3366ff99"," "," ","1","+10","[1469.2000000476837]","1","0","1","","","","","","","",""
"pit-trial","31","358041","0.0-2.0-8.2-1.2","battery-v0.2","","""event"",""trial"",""time""
""fullscreenenter"",""1"",""2105""
","
","
","""event"",""trial"",""time""
""fullscreenenter"",""1"",""2105""
","
","","","736.9000000357628","","","13","4440","813","&#9776;","elianto","#3366ff99"," "," ","1","+10","[1591.699999988079]","1","0","1","","","","","","","",""
"pit-trial","32","361537","0.0-2.0-8.2-2.2","battery-v0.2","","""event"",""trial"",""time""
""fullscreenenter"",""1"",""2105""
","
","
","""event"",""trial"",""time""
""fullscreenenter"",""1"",""2105""
","
","","","633.2000000476837","","","13","4440","813","&#9776;","elianto","#3366ff99"," "," ","1","+10","[1486.5,2882.699999988079]","2","0","1","","","","","","","",""
"pit-trial","33","365513","0.0-2.0-8.2-3.2","battery-v0.2","","""event"",""trial"",""time""
""fullscreenenter"",""1"",""2105""
","
","
","""event"",""trial"",""time""
""fullscreenenter"",""1"",""2105""
","
","","","1118.300000011921","","","13","4440","813","&#9776;","elianto","#3366ff99"," "," ","1","0","[1972]","1","0","1","","","","","","","",""
"pit-trial","34","369049","0.0-2.0-8.2-4.2","battery-v0.2","","""event"",""trial"",""time""
""fullscreenenter"",""1"",""2105""
","
","
","""event"",""trial"",""time""
""fullscreenenter"",""1"",""2105""
","
","","","675.6000000238419","","","13","4440","813","&#9776;","elianto","#3366ff99"," "," ","1","+10","[1526.5]","1","0","1","","","","","","","",""
"call-function","35","369051","0.0-2.0-9.0","battery-v0.2","","""event"",""trial"",""time""
""fullscreenenter"",""1"",""2105""
","
","
","""event"",""trial"",""time""
""fullscreenenter"",""1"",""2105""
","
","","","","","","","","","","","","","","","","","","","","","","","","","","",""
"pit-instructions","36","414841","0.0-2.0-10.0","battery-v0.2","","""event"",""trial"",""time""
""fullscreenenter"",""1"",""2105""
","
","
","""event"",""trial"",""time""
""fullscreenenter"",""1"",""2105""
","
","","[{""page_index"":0,""viewing_time"":8225},{""page_index"":1,""viewing_time"":7588.5},{""page_index"":2,""viewing_time"":10720},{""page_index"":3,""viewing_time"":10912.599999964237},{""page_index"":4,""viewing_time"":8349.800000011921}]","45796.39999997616","","","","","","","","","","","","","","","","","","","","","","","",""
"pit-trial","37","418202","0.0-2.0-11.0-0.0","battery-v0.2","","""event"",""trial"",""time""
""fullscreenenter"",""1"",""2105""
","
","
","""event"",""trial"",""time""
""fullscreenenter"",""1"",""2105""
","
","","","488.80000001192093","","","13","4440","813","&#9761;","elianto","#3366ff99","-1"," ","0","0","[1347.199999988079]","1","0","2","","","","","","","",""
"pit-trial","38","423074","0.0-2.0-11.0-1.0","battery-v0.2","","""event"",""trial"",""time""
""fullscreenenter"",""1"",""2105""
","
","
","""event"",""trial"",""time""
""fullscreenenter"",""1"",""2105""
","
","","","-1","","","13","4440","813","&#9761;","elianto","#3366ff99","-1","-1","1","+10","[]","0","0","2","","","","","","","",""
"pit-trial","39","427948","0.0-2.0-11.0-2.0","battery-v0.2","","""event"",""trial"",""time""
""fullscreenenter"",""1"",""2105""
","
","
","""event"",""trial"",""time""
""fullscreenenter"",""1"",""2105""
","
","","","-1","","","13","4440","813","&#9761;","elianto","#3366ff99","-1","-1","1","+10","[]","0","0","2","","","","","","","",""
"pit-trial","40","432836","0.0-2.0-11.0-3.0","battery-v0.2","","""event"",""trial"",""time""
""fullscreenenter"",""1"",""2105""
","
","
","""event"",""trial"",""time""
""fullscreenenter"",""1"",""2105""
","
","","","-1","","","13","4440","813","&#9761;","elianto","#3366ff99","-1","-1","1","0","[]","0","0","2","","","","","","","",""
"pit-trial","41","437706","0.0-2.0-11.0-4.0","battery-v0.2","","""event"",""trial"",""time""
""fullscreenenter"",""1"",""2105""
","
","
","""event"",""trial"",""time""
""fullscreenenter"",""1"",""2105""
","
","","","-1","","","13","4440","813","&#9761;","elianto","#3366ff99","-1","-1","1","+10","[]","0","0","2","","","","","","","",""
"pit-trial","42","442579","0.0-2.0-11.1-0.1","battery-v0.2","","""event"",""trial"",""time""
""fullscreenenter"",""1"",""2105""
","
","
","""event"",""trial"",""time""
""fullscreenenter"",""1"",""2105""
","
","","","-1","","","13","4440","813","&#9761;","elianto","#3366ff99","-1","-1","1","+10","[]","0","0","2","","","","","","","",""
"pit-trial","43","447451","0.0-2.0-11.1-1.1","battery-v0.2","","""event"",""trial"",""time""
""fullscreenenter"",""1"",""2105""
","
","
","""event"",""trial"",""time""
""fullscreenenter"",""1"",""2105""
","
","","","-1","","","13","4440","813","&#9761;","elianto","#3366ff99","-1","-1","1","+10","[]","0","0","2","","","","","","","",""
"pit-trial","44","452326","0.0-2.0-11.1-2.1","battery-v0.2","","""event"",""trial"",""time""
""fullscreenenter"",""1"",""2105""
","
","
","""event"",""trial"",""time""
""fullscreenenter"",""1"",""2105""
","
","","","-1","","","13","4440","813","&#9761;","elianto","#3366ff99","-1","-1","1","+10","[]","0","0","2","","","","","","","",""
"pit-trial","45","457186","0.0-2.0-11.1-3.1","battery-v0.2","","""event"",""trial"",""time""
""fullscreenenter"",""1"",""2105""
","
","
","""event"",""trial"",""time""
""fullscreenenter"",""1"",""2105""
","
","","","-1","","","13","4440","813","&#9761;","elianto","#3366ff99","-1","-1","1","0","[]","0","0","2","","","","","","","",""
"pit-trial","46","462051","0.0-2.0-11.1-4.1","battery-v0.2","","""event"",""trial"",""time""
""fullscreenenter"",""1"",""2105""
","
","
","""event"",""trial"",""time""
""fullscreenenter"",""1"",""2105""
","
","","","-1","","","13","4440","813","&#9761;","elianto","#3366ff99","-1","-1","1","+10","[]","0","0","2","","","","","","","",""
"pit-trial","47","466914","0.0-2.0-11.2-0.2","battery-v0.2","","""event"",""trial"",""time""
""fullscreenenter"",""1"",""2105""
","
","
","""event"",""trial"",""time""
""fullscreenenter"",""1"",""2105""
","
","","","-1","","","13","4440","813","&#9761;","elianto","#3366ff99","-1","-1","1","+10","[]","0","0","2","","","","","","","",""
"pit-trial","48","471778","0.0-2.0-11.2-1.2","battery-v0.2","","""event"",""trial"",""time""
""fullscreenenter"",""1"",""2105""
","
","
","""event"",""trial"",""time""
""fullscreenenter"",""1"",""2105""
","
","","","-1","","","13","4440","813","&#9761;","elianto","#3366ff99","-1","-1","1","+10","[]","0","0","2","","","","","","","",""
"pit-trial","49","476648","0.0-2.0-11.2-2.2","battery-v0.2","","""event"",""trial"",""time""
""fullscreenenter"",""1"",""2105""
","
","
","""event"",""trial"",""time""
""fullscreenenter"",""1"",""2105""
","
","","","-1","","","13","4440","813","&#9761;","elianto","#3366ff99","-1","-1","1","+10","[]","0","0","2","","","","","","","",""
"pit-trial","50","481511","0.0-2.0-11.2-3.2","battery-v0.2","","""event"",""trial"",""time""
""fullscreenenter"",""1"",""2105""
","
","
","""event"",""trial"",""time""
""fullscreenenter"",""1"",""2105""
","
","","","-1","","","13","4440","813","&#9761;","elianto","#3366ff99","-1","-1","1","0","[]","0","0","2","","","","","","","",""
"pit-trial","51","486378","0.0-2.0-11.2-4.2","battery-v0.2","","""event"",""trial"",""time""
""fullscreenenter"",""1"",""2105""
","
","
","""event"",""trial"",""time""
""fullscreenenter"",""1"",""2105""
","
","","","-1","","","13","4440","813","&#9761;","elianto","#3366ff99","-1","-1","1","+10","[]","0","0","2","","","","","","","",""
"pit-trial","52","491247","0.0-2.0-11.3-0.3","battery-v0.2","","""event"",""trial"",""time""
""fullscreenenter"",""1"",""2105""
","
","
","""event"",""trial"",""time""
""fullscreenenter"",""1"",""2105""
","
","","","-1","","","13","4440","813","&#9761;","elianto","#3366ff99","-1","-1","1","+10","[]","0","0","2","","","","","","","",""
"pit-trial","53","496109","0.0-2.0-11.3-1.3","battery-v0.2","","""event"",""trial"",""time""
""fullscreenenter"",""1"",""2105""
","
","
","""event"",""trial"",""time""
""fullscreenenter"",""1"",""2105""
","
","","","-1","","","13","4440","813","&#9761;","elianto","#3366ff99","-1","-1","1","+10","[]","0","0","2","","","","","","","",""
"pit-trial","54","500974","0.0-2.0-11.3-2.3","battery-v0.2","","""event"",""trial"",""time""
""fullscreenenter"",""1"",""2105""
","
","
","""event"",""trial"",""time""
""fullscreenenter"",""1"",""2105""
","
","","","-1","","","13","4440","813","&#9761;","elianto","#3366ff99","-1","-1","1","+10","[]","0","0","2","","","","","","","",""
"pit-trial","55","505838","0.0-2.0-11.3-3.3","battery-v0.2","","""event"",""trial"",""time""
""fullscreenenter"",""1"",""2105""
","
","
","""event"",""trial"",""time""
""fullscreenenter"",""1"",""2105""
","
","","","-1","","","13","4440","813","&#9761;","elianto","#3366ff99","-1","-1","1","0","[]","0","0","2","","","","","","","",""
"pit-trial","56","510701","0.0-2.0-11.3-4.3","battery-v0.2","","""event"",""trial"",""time""
""fullscreenenter"",""1"",""2105""
","
","
","""event"",""trial"",""time""
""fullscreenenter"",""1"",""2105""
","
","","","-1","","","13","4440","813","&#9761;","elianto","#3366ff99","-1","-1","1","+10","[]","0","0","2","","","","","","","",""
"call-function","57","510703","0.0-2.0-12.0","battery-v0.2","","""event"",""trial"",""time""
""fullscreenenter"",""1"",""2105""
","
","
","""event"",""trial"",""time""
""fullscreenenter"",""1"",""2105""
","
","","","","","","","","","","","","","","","","","","","","","","","","","","",""
"pit-instructions","58","547859","0.0-2.0-13.0","battery-v0.2","","""event"",""trial"",""time""
""fullscreenenter"",""1"",""2105""
","
","
","""event"",""trial"",""time""
""fullscreenenter"",""1"",""2105""
","
","","[{""page_index"":0,""viewing_time"":4871.399999976158},{""page_index"":1,""viewing_time"":8345.100000023842},{""page_index"":2,""viewing_time"":3690.399999976158},{""page_index"":3,""viewing_time"":12761.400000035763},{""page_index"":4,""viewing_time"":7492.699999988079}]","37161.5","","","","","","","","","","","","","","","","","","","","","","","",""
"pit-trial","59","551199","0.0-2.0-14.0-0.0","battery-v0.2","","""event"",""trial"",""time""
""fullscreenenter"",""1"",""2105""
","
","
","""event"",""trial"",""time""
""fullscreenenter"",""1"",""2105""
","
","","","475.80000001192093","","","13","4440","813","&#9826;","elianto","#f73b6a7A","-1"," ","0","-10","[1334.300000011921]","1","0","3","","","","","","","",""
"pit-trial","60","556073","0.0-2.0-14.0-1.0","battery-v0.2","","""event"",""trial"",""time""
""fullscreenenter"",""1"",""2105""
","
","
","""event"",""trial"",""time""
""fullscreenenter"",""1"",""2105""
","
","","","-1","","","13","4440","813","&#9826;","elianto","#f73b6a7A","-1","-1","1","0","[]","0","0","3","","","","","","","",""
"pit-trial","61","560945","0.0-2.0-14.0-2.0","battery-v0.2","","""event"",""trial"",""time""
""fullscreenenter"",""1"",""2105""
","
","
","""event"",""trial"",""time""
""fullscreenenter"",""1"",""2105""
","
","","","-1","","","13","4440","813","&#9826;","elianto","#f73b6a7A","-1","-1","1","0","[]","0","0","3","","","","","","","",""
"pit-trial","62","565817","0.0-2.0-14.0-3.0","battery-v0.2","","""event"",""trial"",""time""
""fullscreenenter"",""1"",""2105""
","
","
","""event"",""trial"",""time""
""fullscreenenter"",""1"",""2105""
","
","","","-1","","","13","4440","813","&#9826;","elianto","#f73b6a7A","-1","-1","1","-10","[]","0","0","3","","","","","","","",""
"pit-trial","63","570689","0.0-2.0-14.0-4.0","battery-v0.2","","""event"",""trial"",""time""
""fullscreenenter"",""1"",""2105""
","
","
","""event"",""trial"",""time""
""fullscreenenter"",""1"",""2105""
","
","","","-1","","","13","4440","813","&#9826;","elianto","#f73b6a7A","-1","-1","1","0","[]","0","0","3","","","","","","","",""
"pit-trial","64","575563","0.0-2.0-14.1-0.1","battery-v0.2","","""event"",""trial"",""time""
""fullscreenenter"",""1"",""2105""
","
","
","""event"",""trial"",""time""
""fullscreenenter"",""1"",""2105""
","
","","","-1","","","13","4440","813","&#9826;","elianto","#f73b6a7A","-1","-1","1","0","[]","0","0","3","","","","","","","",""
"pit-trial","65","580431","0.0-2.0-14.1-1.1","battery-v0.2","","""event"",""trial"",""time""
""fullscreenenter"",""1"",""2105""
","
","
","""event"",""trial"",""time""
""fullscreenenter"",""1"",""2105""
","
","","","-1","","","13","4440","813","&#9826;","elianto","#f73b6a7A","-1","-1","1","0","[]","0","0","3","","","","","","","",""
"pit-trial","66","585296","0.0-2.0-14.1-2.1","battery-v0.2","","""event"",""trial"",""time""
""fullscreenenter"",""1"",""2105""
","
","
","""event"",""trial"",""time""
""fullscreenenter"",""1"",""2105""
","
","","","-1","","","13","4440","813","&#9826;","elianto","#f73b6a7A","-1","-1","1","0","[]","0","0","3","","","","","","","",""
"pit-trial","67","590159","0.0-2.0-14.1-3.1","battery-v0.2","","""event"",""trial"",""time""
""fullscreenenter"",""1"",""2105""
","
","
","""event"",""trial"",""time""
""fullscreenenter"",""1"",""2105""
","
","","","-1","","","13","4440","813","&#9826;","elianto","#f73b6a7A","-1","-1","1","-10","[]","0","0","3","","","","","","","",""
"pit-trial","68","595023","0.0-2.0-14.1-4.1","battery-v0.2","","""event"",""trial"",""time""
""fullscreenenter"",""1"",""2105""
","
","
","""event"",""trial"",""time""
""fullscreenenter"",""1"",""2105""
","
","","","-1","","","13","4440","813","&#9826;","elianto","#f73b6a7A","-1","-1","1","0","[]","0","0","3","","","","","","","",""
"pit-trial","69","599889","0.0-2.0-14.2-0.2","battery-v0.2","","""event"",""trial"",""time""
""fullscreenenter"",""1"",""2105""
","
","
","""event"",""trial"",""time""
""fullscreenenter"",""1"",""2105""
","
","","","-1","","","13","4440","813","&#9826;","elianto","#f73b6a7A","-1","-1","1","0","[]","0","0","3","","","","","","","",""
"pit-trial","70","604744","0.0-2.0-14.2-1.2","battery-v0.2","","""event"",""trial"",""time""
""fullscreenenter"",""1"",""2105""
","
","
","""event"",""trial"",""time""
""fullscreenenter"",""1"",""2105""
","
","","","-1","","","13","4440","813","&#9826;","elianto","#f73b6a7A","-1","-1","1","0","[]","0","0","3","","","","","","","",""
"pit-trial","71","609609","0.0-2.0-14.2-2.2","battery-v0.2","","""event"",""trial"",""time""
""fullscreenenter"",""1"",""2105""
","
","
","""event"",""trial"",""time""
""fullscreenenter"",""1"",""2105""
","
","","","-1","","","13","4440","813","&#9826;","elianto","#f73b6a7A","-1","-1","1","0","[]","0","0","3","","","","","","","",""
"pit-trial","72","614473","0.0-2.0-14.2-3.2","battery-v0.2","","""event"",""trial"",""time""
""fullscreenenter"",""1"",""2105""
","
","
","""event"",""trial"",""time""
""fullscreenenter"",""1"",""2105""
","
","","","-1","","","13","4440","813","&#9826;","elianto","#f73b6a7A","-1","-1","1","-10","[]","0","0","3","","","","","","","",""
"pit-trial","73","619337","0.0-2.0-14.2-4.2","battery-v0.2","","""event"",""trial"",""time""
""fullscreenenter"",""1"",""2105""
","
","
","""event"",""trial"",""time""
""fullscreenenter"",""1"",""2105""
","
","","","-1","","","13","4440","813","&#9826;","elianto","#f73b6a7A","-1","-1","1","0","[]","0","0","3","","","","","","","",""
"pit-trial","74","624211","0.0-2.0-14.3-0.3","battery-v0.2","","""event"",""trial"",""time""
""fullscreenenter"",""1"",""2105""
","
","
","""event"",""trial"",""time""
""fullscreenenter"",""1"",""2105""
","
","","","-1","","","13","4440","813","&#9826;","elianto","#f73b6a7A","-1","-1","1","0","[]","0","0","3","","","","","","","",""
"pit-trial","75","629072","0.0-2.0-14.3-1.3","battery-v0.2","","""event"",""trial"",""time""
""fullscreenenter"",""1"",""2105""
","
","
","""event"",""trial"",""time""
""fullscreenenter"",""1"",""2105""
","
","","","-1","","","13","4440","813","&#9826;","elianto","#f73b6a7A","-1","-1","1","0","[]","0","0","3","","","","","","","",""
"pit-trial","76","633937","0.0-2.0-14.3-2.3","battery-v0.2","","""event"",""trial"",""time""
""fullscreenenter"",""1"",""2105""
","
","
","""event"",""trial"",""time""
""fullscreenenter"",""1"",""2105""
","
","","","-1","","","13","4440","813","&#9826;","elianto","#f73b6a7A","-1","-1","1","0","[]","0","0","3","","","","","","","",""
"pit-trial","77","638800","0.0-2.0-14.3-3.3","battery-v0.2","","""event"",""trial"",""time""
""fullscreenenter"",""1"",""2105""
","
","
","""event"",""trial"",""time""
""fullscreenenter"",""1"",""2105""
","
","","","-1","","","13","4440","813","&#9826;","elianto","#f73b6a7A","-1","-1","1","-10","[]","0","0","3","","","","","","","",""
"pit-trial","78","643672","0.0-2.0-14.3-4.3","battery-v0.2","","""event"",""trial"",""time""
""fullscreenenter"",""1"",""2105""
","
","
","""event"",""trial"",""time""
""fullscreenenter"",""1"",""2105""
","
","","","-1","","","13","4440","813","&#9826;","elianto","#f73b6a7A","-1","-1","1","0","[]","0","0","3","","","","","","","",""
"call-function","79","643674","0.0-2.0-15.0","battery-v0.2","","""event"",""trial"",""time""
""fullscreenenter"",""1"",""2105""
","
","
","""event"",""trial"",""time""
""fullscreenenter"",""1"",""2105""
","
","","","","","","","","","","","","","","","","","","","","","","","","","","",""
"pit-instructions","80","671859","0.0-2.0-16.0","battery-v0.2","","""event"",""trial"",""time""
""fullscreenenter"",""1"",""2105""
","
","
","""event"",""trial"",""time""
""fullscreenenter"",""1"",""2105""
","
","","[{""page_index"":0,""viewing_time"":8181.899999976158},{""page_index"":1,""viewing_time"":8942.300000011921},{""page_index"":2,""viewing_time"":5298.699999988079},{""page_index"":3,""viewing_time"":5767.699999988079}]","28191.099999964237","","","","","","","","","","","","","","","","","","","","","","","",""
"pit-trial","81","675139","0.0-2.0-17.0-0.0","battery-v0.2","","""event"",""trial"",""time""
""fullscreenenter"",""1"",""2105""
","
","
","""event"",""trial"",""time""
""fullscreenenter"",""1"",""2105""
","
","","","408.7000000476837","","","13","4440","813","&#9789;","elianto","#f73b6a7A"," "," ","1","0","[1262.5]","1","0","4","","","","","","","",""
"pit-trial","82","678340","0.0-2.0-17.0-1.0","battery-v0.2","","""event"",""trial"",""time""
""fullscreenenter"",""1"",""2105""
","
","
","""event"",""trial"",""time""
""fullscreenenter"",""1"",""2105""
","
","","","331","","","13","4440","813","&#9789;","elianto","#f73b6a7A"," "," ","1","0","[1185.0999999642372]","1","0","4","","","","","","","",""
"pit-trial","83","681348","0.0-2.0-17.0-2.0","battery-v0.2","","""event"",""trial"",""time""
""fullscreenenter"",""1"",""2105""
","
","
","""event"",""trial"",""time""
""fullscreenenter"",""1"",""2105""
","
","","","147.5999999642372","","","13","4440","813","&#9789;","elianto","#f73b6a7A"," "," ","1","0","[1000.0999999642372]","1","0","4","","","","","","","",""
"pit-trial","84","684545","0.0-2.0-17.0-3.0","battery-v0.2","","""event"",""trial"",""time""
""fullscreenenter"",""1"",""2105""
","
","
","""event"",""trial"",""time""
""fullscreenenter"",""1"",""2105""
","
","","","330.19999998807907","","","13","4440","813","&#9789;","elianto","#f73b6a7A"," "," ","1","-10","[1182.800000011921]","1","0","4","","","","","","","",""
"pit-trial","85","687923","0.0-2.0-17.0-4.0","battery-v0.2","","""event"",""trial"",""time""
""fullscreenenter"",""1"",""2105""
","
","
","""event"",""trial"",""time""
""fullscreenenter"",""1"",""2105""
","
","","","504.0999999642372","","","13","4440","813","&#9789;","elianto","#f73b6a7A"," "," ","1","0","[1361.5]","1","0","4","","","","","","","",""
"pit-trial","86","691366","0.0-2.0-17.1-0.1","battery-v0.2","","""event"",""trial"",""time""
""fullscreenenter"",""1"",""2105""
","
","
","""event"",""trial"",""time""
""fullscreenenter"",""1"",""2105""
","
","","","569.6000000238419","","","13","4440","813","&#9789;","elianto","#f73b6a7A"," "," ","1","0","[1420.300000011921]","1","0","4","","","","","","","",""
"pit-trial","87","694966","0.0-2.0-17.1-1.1","battery-v0.2","","""event"",""trial"",""time""
""fullscreenenter"",""1"",""2105""
","
","
","""event"",""trial"",""time""
""fullscreenenter"",""1"",""2105""
","
","","","734","","","13","4440","813","&#9789;","elianto","#f73b6a7A"," "," ","1","0","[1584.6000000238419]","1","0","4","","","","","","","",""
"pit-trial","88","698328","0.0-2.0-17.1-2.1","battery-v0.2","","""event"",""trial"",""time""
""fullscreenenter"",""1"",""2105""
","
","
","""event"",""trial"",""time""
""fullscreenenter"",""1"",""2105""
","
","","","490.80000001192093","","","13","4440","813","&#9789;","elianto","#f73b6a7A"," "," ","1","0","[1341.2000000476837]","1","0","4","","","","","","","",""
"pit-trial","89","702282","0.0-2.0-17.1-3.1","battery-v0.2","","""event"",""trial"",""time""
""fullscreenenter"",""1"",""2105""
","
","
","""event"",""trial"",""time""
""fullscreenenter"",""1"",""2105""
","
","","","1094.7999999523163","","","13","4440","813","&#9789;","elianto","#f73b6a7A"," "," ","1","-10","[1951.2999999523163]","1","0","4","","","","","","","",""
"pit-trial","90","705915","0.0-2.0-17.1-4.1","battery-v0.2","","""event"",""trial"",""time""
""fullscreenenter"",""1"",""2105""
","
","
","""event"",""trial"",""time""
""fullscreenenter"",""1"",""2105""
","
","","","773","","","13","4440","813","&#9789;","elianto","#f73b6a7A"," "," ","1","0","[1627.1000000238419]","1","0","4","","","","","","","",""
"pit-trial","91","709051","0.0-2.0-17.2-0.2","battery-v0.2","","""event"",""trial"",""time""
""fullscreenenter"",""1"",""2105""
","
","
","""event"",""trial"",""time""
""fullscreenenter"",""1"",""2105""
","
","","","276.69999998807907","","","13","4440","813","&#9789;","elianto","#f73b6a7A"," "," ","1","0","[1129.5]","1","0","4","","","","","","","",""
"pit-trial","92","712348","0.0-2.0-17.2-1.2","battery-v0.2","","""event"",""trial"",""time""
""fullscreenenter"",""1"",""2105""
","
","
","""event"",""trial"",""time""
""fullscreenenter"",""1"",""2105""
","
","","","442.10000002384186","","","13","4440","813","&#9789;","elianto","#f73b6a7A"," "," ","1","0","[1292.3999999761581]","1","0","4","","","","","","","",""
"pit-trial","93","717210","0.0-2.0-17.2-2.2","battery-v0.2","","""event"",""trial"",""time""
""fullscreenenter"",""1"",""2105""
","
","
","""event"",""trial"",""time""
""fullscreenenter"",""1"",""2105""
","
","","","-1","","","13","4440","813","&#9789;","elianto","#f73b6a7A"," ","-1","0","-10","[3608.899999976158]","1","0","4","","","","","","","",""
"pit-trial","94","720114","0.0-2.0-17.2-3.2","battery-v0.2","","""event"",""trial"",""time""
""fullscreenenter"",""1"",""2105""
","
","
","""event"",""trial"",""time""
""fullscreenenter"",""1"",""2105""
","
","","","40.30000001192093","","","13","4440","813","&#9789;","elianto","#f73b6a7A"," "," ","1","-10","[893.8000000119209,1046.699999988079]","2","0","4","","","","","","","",""
"pit-trial","95","723332","0.0-2.0-17.2-4.2","battery-v0.2","","""event"",""trial"",""time""
""fullscreenenter"",""1"",""2105""
","
","
","""event"",""trial"",""time""
""fullscreenenter"",""1"",""2105""
","
","","","367","","","13","4440","813","&#9789;","elianto","#f73b6a7A"," "," ","1","0","[1218]","1","0","4","","","","","","","",""
"pit-trial","96","726844","0.0-2.0-17.3-0.3","battery-v0.2","","""event"",""trial"",""time""
""fullscreenenter"",""1"",""2105""
","
","
","""event"",""trial"",""time""
""fullscreenenter"",""1"",""2105""
","
","","","651.5","","","13","4440","813","&#9789;","elianto","#f73b6a7A"," "," ","1","0","[1504.199999988079]","1","0","4","","","","","","","",""
"pit-trial","97","730123","0.0-2.0-17.3-1.3","battery-v0.2","","""event"",""trial"",""time""
""fullscreenenter"",""1"",""2105""
","
","
","""event"",""trial"",""time""
""fullscreenenter"",""1"",""2105""
","
","","","422.60000002384186","","","13","4440","813","&#9789;","elianto","#f73b6a7A"," "," ","1","0","[1276.3999999761581]","1","0","4","","","","","","","",""
"pit-trial","98","733603","0.0-2.0-17.3-2.3","battery-v0.2","","""event"",""trial"",""time""
""fullscreenenter"",""1"",""2105""
","
","
","""event"",""trial"",""time""
""fullscreenenter"",""1"",""2105""
","
","","","618.1000000238419","","","13","4440","813","&#9789;","elianto","#f73b6a7A"," "," ","1","0","[1473.199999988079]","1","0","4","","","","","","","",""
"pit-trial","99","736916","0.0-2.0-17.3-3.3","battery-v0.2","","""event"",""trial"",""time""
""fullscreenenter"",""1"",""2105""
","
","
","""event"",""trial"",""time""
""fullscreenenter"",""1"",""2105""
","
","","","451.19999998807907","","","13","4440","813","&#9789;","elianto","#f73b6a7A"," "," ","1","-10","[1302.199999988079]","1","0","4","","","","","","","",""
"pit-trial","100","739908","0.0-2.0-17.3-4.3","battery-v0.2","","""event"",""trial"",""time""
""fullscreenenter"",""1"",""2105""
","
","
","""event"",""trial"",""time""
""fullscreenenter"",""1"",""2105""
","
","","","131.10000002384186","","","13","4440","813","&#9789;","elianto","#f73b6a7A"," "," ","1","0","[983.8999999761581]","1","0","4","","","","","","","",""
"call-function","101","739910","0.0-2.0-18.0","battery-v0.2","","""event"",""trial"",""time""
""fullscreenenter"",""1"",""2105""
","
","
","""event"",""trial"",""time""
""fullscreenenter"",""1"",""2105""
","
","","","","","","","","","","","","","","","","","","","","","","","","","","",""
"pit-instructions","102","815944","0.0-2.0-19.0","battery-v0.2","","""event"",""trial"",""time""
""fullscreenenter"",""1"",""2105""
","
","
","""event"",""trial"",""time""
""fullscreenenter"",""1"",""2105""
","
","","[{""page_index"":0,""viewing_time"":7460.699999988079},{""page_index"":1,""viewing_time"":6302.900000035763},{""page_index"":2,""viewing_time"":14665.800000011921},{""page_index"":3,""viewing_time"":8687.099999964237},{""page_index"":4,""viewing_time"":9150},{""page_index"":5,""viewing_time"":9291.400000035763},{""page_index"":6,""viewing_time"":9009.399999976158},{""page_index"":7,""viewing_time"":7118.600000023842},{""page_index"":8,""viewing_time"":4350.5}]","76037.19999998808","","","","","","","","","","","","","","","","","","","","","","","",""
"pit-comprehension","103","822260","0.0-2.0-20.0-0.0","battery-v0.2","","""event"",""trial"",""time""
""fullscreenenter"",""1"",""2105""
","
","
","""event"",""trial"",""time""
""fullscreenenter"",""1"",""2105""
","
","","","6312.800000011921","[""SPACE""]","0","13","4440","813","","","","","","","","","","","","","","","","","","",""
"pit-instructions","104","825240","0.0-2.0-20.0-1.0","battery-v0.2","","""event"",""trial"",""time""
""fullscreenenter"",""1"",""2105""
","
","
","""event"",""trial"",""time""
""fullscreenenter"",""1"",""2105""
","
","","[{""page_index"":0,""viewing_time"":2943}]","2943.300000011921","","","","","","","","","","","","","","","","","","","","","","","",""
"pit-comprehension","105","833503","0.0-2.0-21.0-0.0","battery-v0.2","","""event"",""trial"",""time""
""fullscreenenter"",""1"",""2105""
","
","
","""event"",""trial"",""time""
""fullscreenenter"",""1"",""2105""
","
","","","8260.799999952316","[""10""]","0","13","4440","813","","","","","","","","","","","","","","","","","","",""
"pit-instructions","106","835602","0.0-2.0-21.0-1.0","battery-v0.2","","""event"",""trial"",""time""
""fullscreenenter"",""1"",""2105""
","
","
","""event"",""trial"",""time""
""fullscreenenter"",""1"",""2105""
","
","","[{""page_index"":0,""viewing_time"":2072.7999999523163}]","2073.399999976158","","","","","","","","","","","","","","","","","","","","","","","",""
"pit-comprehension","107","843159","0.0-2.0-22.0-0.0","battery-v0.2","","""event"",""trial"",""time""
""fullscreenenter"",""1"",""2105""
","
","
","""event"",""trial"",""time""
""fullscreenenter"",""1"",""2105""
","
","","","7554.400000035763","[""0""]","0","13","4440","813","","","","","","","","","","","","","","","","","","",""
"pit-instructions","108","845933","0.0-2.0-22.0-1.0","battery-v0.2","","""event"",""trial"",""time""
""fullscreenenter"",""1"",""2105""
","
","
","""event"",""trial"",""time""
""fullscreenenter"",""1"",""2105""
","
","","[{""page_index"":0,""viewing_time"":2742.399999976158}]","2742.800000011921","","","","","","","","","","","","","","","","","","","","","","","",""
"pit-comprehension","109","855699","0.0-2.0-23.0-0.0","battery-v0.2","","""event"",""trial"",""time""
""fullscreenenter"",""1"",""2105""
","
","
","""event"",""trial"",""time""
""fullscreenenter"",""1"",""2105""
","
","","","9770.5","[""True""]","0","13","4440","813","","","","","","","","","","","","","","","","","","",""
"pit-instructions","110","857587","0.0-2.0-23.0-1.0","battery-v0.2","","""event"",""trial"",""time""
""fullscreenenter"",""1"",""2105""
","
","
","""event"",""trial"",""time""
""fullscreenenter"",""1"",""2105""
","
","","[{""page_index"":0,""viewing_time"":1857.699999988079}]","1858.199999988079","","","","","","","","","","","","","","","","","","","","","","","",""
"pit-comprehension","111","866442","0.0-2.0-24.0-0.0","battery-v0.2","","""event"",""trial"",""time""
""fullscreenenter"",""1"",""2105""
","
","
","""event"",""trial"",""time""
""fullscreenenter"",""1"",""2105""
","
","","","8851.699999988079","[""True""]","0","13","4440","813","","","","","","","","","","","","","","","","","","",""
"pit-instructions","112","868424","0.0-2.0-24.0-1.0","battery-v0.2","","""event"",""trial"",""time""
""fullscreenenter"",""1"",""2105""
","
","
","""event"",""trial"",""time""
""fullscreenenter"",""1"",""2105""
","
","","[{""page_index"":0,""viewing_time"":1939.4000000357628}]","1939.7000000476837","","","","","","","","","","","","","","","","","","","","","","","",""
"pit-comprehension","113","876188","0.0-2.0-25.0-0.0","battery-v0.2","","""event"",""trial"",""time""
""fullscreenenter"",""1"",""2105""
","
","
","""event"",""trial"",""time""
""fullscreenenter"",""1"",""2105""
","
","","","7760.099999964237","[""True""]","0","13","4440","813","","","","","","","","","","","","","","","","","","",""
"pit-instructions","114","878050","0.0-2.0-25.0-1.0","battery-v0.2","","""event"",""trial"",""time""
""fullscreenenter"",""1"",""2105""
","
","
","""event"",""trial"",""time""
""fullscreenenter"",""1"",""2105""
","
","","[{""page_index"":0,""viewing_time"":1832.6000000238419}]","1833.1000000238419","","","","","","","","","","","","","","","","","","","","","","","",""
"pit-comprehension","115","883672","0.0-2.0-26.0-0.0","battery-v0.2","","""event"",""trial"",""time""
""fullscreenenter"",""1"",""2105""
","
","
","""event"",""trial"",""time""
""fullscreenenter"",""1"",""2105""
","
","","","5618.299999952316","[""False""]","0","13","4440","813","","","","","","","","","","","","","","","","","","",""
"pit-instructions","116","886726","0.0-2.0-26.0-1.0","battery-v0.2","","""event"",""trial"",""time""
""fullscreenenter"",""1"",""2105""
","
","
","""event"",""trial"",""time""
""fullscreenenter"",""1"",""2105""
","
","","[{""page_index"":0,""viewing_time"":3023.5}]","3024","","","","","","","","","","","","","","","","","","","","","","","",""
"pit-instructions","117","905152","0.0-3.0","battery-v0.2","","""event"",""trial"",""time""
""fullscreenenter"",""1"",""2105""
","
","
","""event"",""trial"",""time""
""fullscreenenter"",""1"",""2105""
","
","","[{""page_index"":0,""viewing_time"":5373.799999952316},{""page_index"":1,""viewing_time"":5042.100000023842},{""page_index"":2,""viewing_time"":8006}]","18422.399999976158","","","","","","","","","","","","","","","","","","","","","","","",""
"pit-trial","118","908725","0.0-4.0","battery-v0.2","","""event"",""trial"",""time""
""fullscreenenter"",""1"",""2105""
","
","
","""event"",""trial"",""time""
""fullscreenenter"",""1"",""2105""
","
","","","701","","","13","4440","813","&#9728;","elianto","#f73b6a7A","-1"," ","0","0","[1559.199999988079]","1","1","","","4440","1","0","4","lose","no-go","1"
"pit-trial","119","912423","0.0-5.0","battery-v0.2","","""event"",""trial"",""time""
""fullscreenenter"",""1"",""2105""
","
","
","""event"",""trial"",""time""
""fullscreenenter"",""1"",""2105""
","
","","","832.3000000119209","","","13","4440","813","&#9733;","elianto","#3366ff99","-1"," ","0","+10","[1685.6000000238419]","1","1","","","4440","2","2","2","win","no-go","1"
"pit-trial","120","917295","0.0-6.0","battery-v0.2","","""event"",""trial"",""time""
""fullscreenenter"",""1"",""2105""
","
","
","""event"",""trial"",""time""
""fullscreenenter"",""1"",""2105""
","
","","","-1","","","13","4440","813","&#9752;","elianto","#f73b6a7A"," ","-1","0","0","[]","0","1","","","4440","3","3","3","lose","go","1"
"pit-trial","121","921107","0.0-7.0","battery-v0.2","","""event"",""trial"",""time""
""fullscreenenter"",""1"",""2105""
","
","
","""event"",""trial"",""time""
""fullscreenenter"",""1"",""2105""
","
","","","939.9000000357628","","","13","4440","813","&#9730;","elianto","#3366ff99"," "," ","1","0","[1792.1000000238419]","1","1","","","4440","4","1","1","win","go","1"
"pit-trial","122","924613","0.0-8.0","battery-v0.2","","""event"",""trial"",""time""
""fullscreenenter"",""1"",""2105""
","
","
","""event"",""trial"",""time""
""fullscreenenter"",""1"",""2105""
","
","","","631.3999999761581","","","13","4440","813","&#9728;","elianto","#f73b6a7A","-1"," ","0","-10","[1481.8999999761581]","1","1","","","4440","5","0","4","lose","no-go","0"
"pit-trial","123","928195","0.0-9.0","battery-v0.2","","""event"",""trial"",""time""
""fullscreenenter"",""1"",""2105""
","
","
","""event"",""trial"",""time""
""fullscreenenter"",""1"",""2105""
","
","","","711.3000000119209","","","13","4440","813","&#9733;","elianto","#3366ff99","-1"," ","0","0","[1564.7000000476837]","1","1","","","4440","6","2","2","win","no-go","0"
"pit-trial","124","931881","0.0-10.0","battery-v0.2","","""event"",""trial"",""time""
""fullscreenenter"",""1"",""2105""
","
","
","""event"",""trial"",""time""
""fullscreenenter"",""1"",""2105""
","
","","","818.3000000119209","","","13","4440","813","&#9752;","elianto","#f73b6a7A"," "," ","1","-10","[1674.199999988079]","1","1","","","4440","7","3","3","lose","go","1"
"pit-trial","125","936748","0.0-11.0","battery-v0.2","","""event"",""trial"",""time""
""fullscreenenter"",""1"",""2105""
","
","
","""event"",""trial"",""time""
""fullscreenenter"",""1"",""2105""
","
","","","-1","","","13","4440","813","&#9730;","elianto","#3366ff99"," ","-1","0","0","[]","0","1","","","4440","8","1","1","win","go","0"
"pit-trial","126","940373","0.0-12.0","battery-v0.2","","""event"",""trial"",""time""
""fullscreenenter"",""1"",""2105""
","
","
","""event"",""trial"",""time""
""fullscreenenter"",""1"",""2105""
","
","","","760.8999999761581","","","13","4440","813","&#9733;","elianto","#3366ff99","-1"," ","0","0","[1615.1000000238419]","1","1","","","4440","9","2","2","win","no-go","0"
"pit-trial","127","945237","0.0-13.0","battery-v0.2","","""event"",""trial"",""time""
""fullscreenenter"",""1"",""2105""
","
","
","""event"",""trial"",""time""
""fullscreenenter"",""1"",""2105""
","
","","","-1","","","13","4440","813","&#9752;","elianto","#f73b6a7A"," ","-1","0","-10","[]","0","1","","","4440","10","3","3","lose","go","0"
"pit-trial","128","950101","0.0-14.0","battery-v0.2","","""event"",""trial"",""time""
""fullscreenenter"",""1"",""2105""
","
","
","""event"",""trial"",""time""
""fullscreenenter"",""1"",""2105""
","
","","","-1","","","13","4440","813","&#9730;","elianto","#3366ff99"," ","-1","0","0","[2997.900000035763]","1","1","","","4440","11","1","1","win","go","0"
"pit-trial","129","953877","0.0-15.0","battery-v0.2","","""event"",""trial"",""time""
""fullscreenenter"",""1"",""2105""
","
","
","""event"",""trial"",""time""
""fullscreenenter"",""1"",""2105""
","
","","","911.3000000119209","","","13","4440","813","&#9728;","elianto","#f73b6a7A","-1"," ","0","-10","[1766.0999999642372]","1","1","","","4440","12","0","4","lose","no-go","0"
"pit-trial","130","957797","0.0-16.0","battery-v0.2","","""event"",""trial"",""time""
""fullscreenenter"",""1"",""2105""
","
","
","""event"",""trial"",""time""
""fullscreenenter"",""1"",""2105""
","
","","","1061.8999999761581","","","13","4440","813","&#9730;","elianto","#3366ff99"," "," ","1","0","[1914.5999999642372]","1","1","","","4440","13","1","1","win","go","1"
"pit-trial","131","962660","0.0-17.0","battery-v0.2","","""event"",""trial"",""time""
""fullscreenenter"",""1"",""2105""
","
","
","""event"",""trial"",""time""
""fullscreenenter"",""1"",""2105""
","
","","","-1","","","13","4440","813","&#9752;","elianto","#f73b6a7A"," ","-1","0","-10","[]","0","1","","","4440","14","3","3","lose","go","0"
"pit-trial","132","967518","0.0-18.0","battery-v0.2","","""event"",""trial"",""time""
""fullscreenenter"",""1"",""2105""
","
","
","""event"",""trial"",""time""
""fullscreenenter"",""1"",""2105""
","
","","","-1","","","13","4440","813","&#9733;","elianto","#3366ff99","-1","-1","1","0","[]","0","1","","","4440","15","2","2","win","no-go","1"
"pit-trial","133","972382","0.0-19.0","battery-v0.2","","""event"",""trial"",""time""
""fullscreenenter"",""1"",""2105""
","
","
","""event"",""trial"",""time""
""fullscreenenter"",""1"",""2105""
","
","","","-1","","","13","4440","813","&#9728;","elianto","#f73b6a7A","-1","-1","1","-10","[]","0","1","","","4440","16","0","4","lose","no-go","1"
"pit-trial","134","975998","0.0-20.0","battery-v0.2","","""event"",""trial"",""time""
""fullscreenenter"",""1"",""2105""
","
","
","""event"",""trial"",""time""
""fullscreenenter"",""1"",""2105""
","
","","","756.8999999761581","","","13","4440","813","&#9730;","elianto","#3366ff99"," "," ","1","+10","[1608.199999988079]","1","1","","","4440","17","1","1","win","go","0"
"pit-trial","135","979518","0.0-21.0","battery-v0.2","","""event"",""trial"",""time""
""fullscreenenter"",""1"",""2105""
","
","
","""event"",""trial"",""time""
""fullscreenenter"",""1"",""2105""
","
","","","659.5","","","13","4440","813","&#9733;","elianto","#3366ff99","-1"," ","0","+10","[1510.300000011921]","1","1","","","4440","18","2","2","win","no-go","1"
"pit-trial","136","983263","0.0-22.0","battery-v0.2","","""event"",""trial"",""time""
""fullscreenenter"",""1"",""2105""
","
","
","""event"",""trial"",""time""
""fullscreenenter"",""1"",""2105""
","
","","","878.3999999761581","","","13","4440","813","&#9752;","elianto","#f73b6a7A"," "," ","1","0","[1733.3999999761581]","1","1","","","4440","19","3","3","lose","go","0"
"pit-trial","137","988126","0.0-23.0","battery-v0.2","","""event"",""trial"",""time""
""fullscreenenter"",""1"",""2105""
","
","
","""event"",""trial"",""time""
""fullscreenenter"",""1"",""2105""
","
","","","-1","","","13","4440","813","&#9728;","elianto","#f73b6a7A","-1","-1","1","0","[]","0","1","","","4440","20","0","4","lose","no-go","0"
"pit-instructions","138","1003010","0.0-24.0","battery-v0.2","","""event"",""trial"",""time""
""fullscreenenter"",""1"",""2105""
","
","
","""event"",""trial"",""time""
""fullscreenenter"",""1"",""2105""
","
","","[{""page_index"":0,""viewing_time"":7537.5},{""page_index"":1,""viewing_time"":7344.199999988079}]","14882.399999976158","","","","","","","","","","","","","","","","","","","","","","","",""
"pit-trial","139","1006474","0.0-25.0","battery-v0.2","","""event"",""trial"",""time""
""fullscreenenter"",""1"",""2105""
","
","
","""event"",""trial"",""time""
""fullscreenenter"",""1"",""2105""
","
","","","593","","","13","4440","813","t","elianto","#f73b6a7A"," "," ","1","0","[1449.300000011921]","1","2","","","4440","21","2","3","lose","go","0"
"pit-trial","140","1010571","0.0-26.0","battery-v0.2","","""event"",""trial"",""time""
""fullscreenenter"",""1"",""2105""
","
","
","""event"",""trial"",""time""
""fullscreenenter"",""1"",""2105""
","
","","","1226.3999999761581","","","13","4440","813","b","elianto","#f73b6a7A","-1"," ","0","-10","[2077]","1","2","","","4440","22","3","4","lose","no-go","0"
"pit-trial","141","1014724","0.0-27.0","battery-v0.2","","""event"",""trial"",""time""
""fullscreenenter"",""1"",""2105""
","
","
","""event"",""trial"",""time""
""fullscreenenter"",""1"",""2105""
","
","","","1281.5","","","13","4440","813","n","elianto","#f73b6a7A"," "," ","1","0","[2133.300000011921]","1","2","","","4440","23","0","3","lose","go","0"
"pit-trial","142","1018667","0.0-28.0","battery-v0.2","","""event"",""trial"",""time""
""fullscreenenter"",""1"",""2105""
","
","
","""event"",""trial"",""time""
""fullscreenenter"",""1"",""2105""
","
","","","1068.7000000476837","","","13","4440","813","f","elianto","#3366ff99","-1"," ","0","0","[1925]","1","2","","","4440","24","1","2","win","no-go","0"
"pit-trial","143","1022606","0.0-29.0","battery-v0.2","","""event"",""trial"",""time""
""fullscreenenter"",""1"",""2105""
","
","
","""event"",""trial"",""time""
""fullscreenenter"",""1"",""2105""
","
","","","1070.699999988079","","","13","4440","813","n","elianto","#f73b6a7A"," "," ","1","-10","[1921.699999988079]","1","2","","","4440","25","0","3","lose","go","1"
"pit-trial","144","1027479","0.0-30.0","battery-v0.2","","""event"",""trial"",""time""
""fullscreenenter"",""1"",""2105""
","
","
","""event"",""trial"",""time""
""fullscreenenter"",""1"",""2105""
","
","","","-1","","","13","4440","813","f","elianto","#3366ff99","-1","-1","1","+10","[]","0","2","","","4440","26","1","2","win","no-go","0"
"pit-trial","145","1030929","0.0-31.0","battery-v0.2","","""event"",""trial"",""time""
""fullscreenenter"",""1"",""2105""
","
","
","""event"",""trial"",""time""
""fullscreenenter"",""1"",""2105""
","
","","","591.9000000357628","","","13","4440","813","t","elianto","#f73b6a7A"," "," ","1","0","[1446]","1","2","","","4440","27","2","3","lose","go","0"
"pit-trial","146","1035792","0.0-32.0","battery-v0.2","","""event"",""trial"",""time""
""fullscreenenter"",""1"",""2105""
","
","
","""event"",""trial"",""time""
""fullscreenenter"",""1"",""2105""
","
","","","-1","","","13","4440","813","b","elianto","#f73b6a7A","-1","-1","1","0","[]","0","2","","","4440","28","3","4","lose","no-go","0"
"pit-trial","147","1039376","0.0-33.0","battery-v0.2","","""event"",""trial"",""time""
""fullscreenenter"",""1"",""2105""
","
","
","""event"",""trial"",""time""
""fullscreenenter"",""1"",""2105""
","
","","","729.5","","","13","4440","813","t","elianto","#f73b6a7A"," "," ","1","0","[1580.199999988079]","1","2","","","4440","29","2","3","lose","go","0"
"pit-trial","148","1044241","0.0-34.0","battery-v0.2","","""event"",""trial"",""time""
""fullscreenenter"",""1"",""2105""
","
","
","""event"",""trial"",""time""
""fullscreenenter"",""1"",""2105""
","
","","","-1","","","13","4440","813","f","elianto","#3366ff99","-1","-1","1","+10","[]","0","2","","","4440","30","1","2","win","no-go","0"
"pit-trial","149","1047897","0.0-35.0","battery-v0.2","","""event"",""trial"",""time""
""fullscreenenter"",""1"",""2105""
","
","
","""event"",""trial"",""time""
""fullscreenenter"",""1"",""2105""
","
","","","794.1000000238419","","","13","4440","813","n","elianto","#f73b6a7A"," "," ","1","-10","[1648.6000000238419]","1","2","","","4440","31","0","3","lose","go","1"
"pit-trial","150","1052761","0.0-36.0","battery-v0.2","","""event"",""trial"",""time""
""fullscreenenter"",""1"",""2105""
","
","
","""event"",""trial"",""time""
""fullscreenenter"",""1"",""2105""
","
","","","-1","","","13","4440","813","b","elianto","#f73b6a7A","-1","-1","1","0","[]","0","2","","","4440","32","3","4","lose","no-go","0"
"pit-trial","151","1057624","0.0-37.0","battery-v0.2","","""event"",""trial"",""time""
""fullscreenenter"",""1"",""2105""
","
","
","""event"",""trial"",""time""
""fullscreenenter"",""1"",""2105""
","
","","","-1","","","13","4440","813","b","elianto","#f73b6a7A","-1","-1","1","0","[]","0","2","","","4440","33","3","4","lose","no-go","0"
"pit-trial","152","1062489","0.0-38.0","battery-v0.2","","""event"",""trial"",""time""
""fullscreenenter"",""1"",""2105""
","
","
","""event"",""trial"",""time""
""fullscreenenter"",""1"",""2105""
","
","","","-1","","","13","4440","813","f","elianto","#3366ff99","-1","-1","1","0","[]","0","2","","","4440","34","1","2","win","no-go","1"
"pit-trial","153","1065961","0.0-39.0","battery-v0.2","","""event"",""trial"",""time""
""fullscreenenter"",""1"",""2105""
","
","
","""event"",""trial"",""time""
""fullscreenenter"",""1"",""2105""
","
","","","609.1000000238419","","","13","4440","813","t","elianto","#f73b6a7A"," "," ","1","0","[1462.699999988079]","1","2","","","4440","35","2","3","lose","go","0"
"pit-trial","154","1070826","0.0-40.0","battery-v0.2","","""event"",""trial"",""time""
""fullscreenenter"",""1"",""2105""
","
","
","""event"",""trial"",""time""
""fullscreenenter"",""1"",""2105""
","
","","","-1","","","13","4440","813","n","elianto","#f73b6a7A"," ","-1","0","-10","[]","0","2","","","4440","36","0","3","lose","go","0"
"pit-trial","155","1074513","0.0-41.0","battery-v0.2","","""event"",""trial"",""time""
""fullscreenenter"",""1"",""2105""
","
","
","""event"",""trial"",""time""
""fullscreenenter"",""1"",""2105""
","
","","","829.1999999880791","","","13","4440","813","n","elianto","#f73b6a7A"," "," ","1","-10","[1681.0999999642372]","1","2","","","4440","37","0","3","lose","go","1"
"pit-trial","156","1079384","0.0-42.0","battery-v0.2","","""event"",""trial"",""time""
""fullscreenenter"",""1"",""2105""
","
","
","""event"",""trial"",""time""
""fullscreenenter"",""1"",""2105""
","
","","","-1","","","13","4440","813","f","elianto","#3366ff99","-1","-1","1","+10","[]","0","2","","","4440","38","1","2","win","no-go","0"
"pit-trial","157","1082856","0.0-43.0","battery-v0.2","","""event"",""trial"",""time""
""fullscreenenter"",""1"",""2105""
","
","
","""event"",""trial"",""time""
""fullscreenenter"",""1"",""2105""
","
","","","610.1000000238419","","","13","4440","813","t","elianto","#f73b6a7A"," "," ","1","0","[1464]","1","2","","","4440","39","2","3","lose","go","0"
"pit-trial","158","1087716","0.0-44.0","battery-v0.2","","""event"",""trial"",""time""
""fullscreenenter"",""1"",""2105""
","
","
","""event"",""trial"",""time""
""fullscreenenter"",""1"",""2105""
","
","","","-1","","","13","4440","813","b","elianto","#f73b6a7A","-1","-1","1","0","[]","0","2","","","4440","40","3","4","lose","no-go","0"
"pit-trial","159","1092580","0.0-45.0","battery-v0.2","","""event"",""trial"",""time""
""fullscreenenter"",""1"",""2105""
","
","
","""event"",""trial"",""time""
""fullscreenenter"",""1"",""2105""
","
","","","-1","","","13","4440","813","b","elianto","#f73b6a7A","-1","-1","1","0","[]","0","2","","","4440","41","3","4","lose","no-go","0"
"pit-trial","160","1097442","0.0-46.0","battery-v0.2","","""event"",""trial"",""time""
""fullscreenenter"",""1"",""2105""
","
","
","""event"",""trial"",""time""
""fullscreenenter"",""1"",""2105""
","
","","","-1","","","13","4440","813","n","elianto","#f73b6a7A"," ","-1","0","-10","[]","0","2","","","4440","42","0","3","lose","go","0"
"pit-trial","161","1102306","0.0-47.0","battery-v0.2","","""event"",""trial"",""time""
""fullscreenenter"",""1"",""2105""
","
","
","""event"",""trial"",""time""
""fullscreenenter"",""1"",""2105""
","
","","","-1","","","13","4440","813","f","elianto","#3366ff99","-1","-1","1","+10","[]","0","2","","","4440","43","1","2","win","no-go","0"
"pit-trial","162","1106087","0.0-48.0","battery-v0.2","","""event"",""trial"",""time""
""fullscreenenter"",""1"",""2105""
","
","
","""event"",""trial"",""time""
""fullscreenenter"",""1"",""2105""
","
","","","912","","","13","4440","813","t","elianto","#f73b6a7A"," "," ","1","0","[1767]","1","2","","","4440","44","2","3","lose","go","0"
"pit-trial","163","1110956","0.0-49.0","battery-v0.2","","""event"",""trial"",""time""
""fullscreenenter"",""1"",""2105""
","
","
","""event"",""trial"",""time""
""fullscreenenter"",""1"",""2105""
","
","","","-1","","","13","4440","813","b","elianto","#f73b6a7A","-1","-1","1","0","[]","0","2","","","4440","45","3","4","lose","no-go","0"
"pit-trial","164","1115826","0.0-50.0","battery-v0.2","","""event"",""trial"",""time""
""fullscreenenter"",""1"",""2105""
","
","
","""event"",""trial"",""time""
""fullscreenenter"",""1"",""2105""
","
","","","-1","","","13","4440","813","n","elianto","#f73b6a7A"," ","-1","0","0","[]","0","2","","","4440","46","0","3","lose","go","1"
"pit-trial","165","1120690","0.0-51.0","battery-v0.2","","""event"",""trial"",""time""
""fullscreenenter"",""1"",""2105""
","
","
","""event"",""trial"",""time""
""fullscreenenter"",""1"",""2105""
","
","","","-1","","","13","4440","813","f","elianto","#3366ff99","-1","-1","1","+10","[]","0","2","","","4440","47","1","2","win","no-go","0"
"pit-trial","166","1124258","0.0-52.0","battery-v0.2","","""event"",""trial"",""time""
""fullscreenenter"",""1"",""2105""
","
","
","""event"",""trial"",""time""
""fullscreenenter"",""1"",""2105""
","
","","","712.8000000119209","","","13","4440","813","t","elianto","#f73b6a7A"," "," ","1","0","[1563.0999999642372]","1","2","","","4440","48","2","3","lose","go","0"
"pit-trial","167","1129131","0.0-53.0","battery-v0.2","","""event"",""trial"",""time""
""fullscreenenter"",""1"",""2105""
","
","
","""event"",""trial"",""time""
""fullscreenenter"",""1"",""2105""
","
","","","-1","","","13","4440","813","f","elianto","#3366ff99","-1","-1","1","+10","[]","0","2","","","4440","49","1","2","win","no-go","0"
"pit-trial","168","1133995","0.0-54.0","battery-v0.2","","""event"",""trial"",""time""
""fullscreenenter"",""1"",""2105""
","
","
","""event"",""trial"",""time""
""fullscreenenter"",""1"",""2105""
","
","","","-1","","","13","4440","813","b","elianto","#f73b6a7A","-1","-1","1","0","[]","0","2","","","4440","50","3","4","lose","no-go","0"
"pit-trial","169","1137682","0.0-55.0","battery-v0.2","","""event"",""trial"",""time""
""fullscreenenter"",""1"",""2105""
","
","
","""event"",""trial"",""time""
""fullscreenenter"",""1"",""2105""
","
","","","827.3999999761581","","","13","4440","813","t","elianto","#f73b6a7A"," "," ","1","0","[1682.5]","1","2","","","4440","51","2","3","lose","go","0"
"pit-trial","170","1141299","0.0-56.0","battery-v0.2","","""event"",""trial"",""time""
""fullscreenenter"",""1"",""2105""
","
","
","""event"",""trial"",""time""
""fullscreenenter"",""1"",""2105""
","
","","","756.6999999880791","","","13","4440","813","n","elianto","#f73b6a7A"," "," ","1","-10","[1607]","1","2","","","4440","52","0","3","lose","go","1"
"pit-trial","171","1146164","0.0-57.0","battery-v0.2","","""event"",""trial"",""time""
""fullscreenenter"",""1"",""2105""
","
","
","""event"",""trial"",""time""
""fullscreenenter"",""1"",""2105""
","
","","","-1","","","13","4440","813","f","elianto","#3366ff99","-1","-1","1","0","[]","0","2","","","4440","53","1","2","win","no-go","1"
"pit-trial","172","1151033","0.0-58.0","battery-v0.2","","""event"",""trial"",""time""
""fullscreenenter"",""1"",""2105""
","
","
","""event"",""trial"",""time""
""fullscreenenter"",""1"",""2105""
","
","","","-1","","","13","4440","813","b","elianto","#f73b6a7A","-1","-1","1","0","[]","0","2","","","4440","54","3","4","lose","no-go","0"
"pit-trial","173","1154432","0.0-59.0","battery-v0.2","","""event"",""trial"",""time""
""fullscreenenter"",""1"",""2105""
","
","
","""event"",""trial"",""time""
""fullscreenenter"",""1"",""2105""
","
","","","538.6999999880791","","","13","4440","813","t","elianto","#f73b6a7A"," "," ","1","0","[1389.6000000238419]","1","2","","","4440","55","2","3","lose","go","0"
"pit-trial","174","1159296","0.0-60.0","battery-v0.2","","""event"",""trial"",""time""
""fullscreenenter"",""1"",""2105""
","
","
","""event"",""trial"",""time""
""fullscreenenter"",""1"",""2105""
","
","","","-1","","","13","4440","813","n","elianto","#f73b6a7A"," ","-1","0","-10","[]","0","2","","","4440","56","0","3","lose","go","0"
"pit-trial","175","1163728","0.0-61.0","battery-v0.2","","""event"",""trial"",""time""
""fullscreenenter"",""1"",""2105""
","
","
","""event"",""trial"",""time""
""fullscreenenter"",""1"",""2105""
","
","","","1574.5","","","13","4440","813","c","elianto","#3366ff99"," "," ","1","+10","[2427.099999964237]","1","2","","","4440","57","4","1","win","go","0"
"pit-trial","176","1168591","0.0-62.0","battery-v0.2","","""event"",""trial"",""time""
""fullscreenenter"",""1"",""2105""
","
","
","""event"",""trial"",""time""
""fullscreenenter"",""1"",""2105""
","
","","","-1","","","13","4440","813","n","elianto","#f73b6a7A"," ","-1","0","-10","[]","0","2","","","4440","58","0","3","lose","go","0"
"pit-trial","177","1172063","0.0-63.0","battery-v0.2","","""event"",""trial"",""time""
""fullscreenenter"",""1"",""2105""
","
","
","""event"",""trial"",""time""
""fullscreenenter"",""1"",""2105""
","
","","","611.0999999642372","","","13","4440","813","t","elianto","#f73b6a7A"," "," ","1","-10","[1465.0999999642372]","1","2","","","4440","59","2","3","lose","go","1"
"pit-trial","178","1176927","0.0-64.0","battery-v0.2","","""event"",""trial"",""time""
""fullscreenenter"",""1"",""2105""
","
","
","""event"",""trial"",""time""
""fullscreenenter"",""1"",""2105""
","
","","","-1","","","13","4440","813","b","elianto","#f73b6a7A","-1","-1","1","0","[]","0","2","","","4440","60","3","4","lose","no-go","0"
"pit-trial","179","1181790","0.0-65.0","battery-v0.2","","""event"",""trial"",""time""
""fullscreenenter"",""1"",""2105""
","
","
","""event"",""trial"",""time""
""fullscreenenter"",""1"",""2105""
","
","","","-1","","","13","4440","813","f","elianto","#3366ff99","-1","-1","1","+10","[]","0","2","","","4440","61","1","2","win","no-go","0"
"pit-trial","180","1185295","0.0-66.0","battery-v0.2","","""event"",""trial"",""time""
""fullscreenenter"",""1"",""2105""
","
","
","""event"",""trial"",""time""
""fullscreenenter"",""1"",""2105""
","
","","","644.2000000476837","","","13","4440","813","t","elianto","#f73b6a7A"," "," ","1","0","[1497.0999999642372]","1","2","","","4440","62","2","3","lose","go","0"
"pit-trial","181","1190160","0.0-67.0","battery-v0.2","","""event"",""trial"",""time""
""fullscreenenter"",""1"",""2105""
","
","
","""event"",""trial"",""time""
""fullscreenenter"",""1"",""2105""
","
","","","-1","","","13","4440","813","b","elianto","#f73b6a7A","-1","-1","1","0","[]","0","2","","","4440","63","3","4","lose","no-go","0"
"pit-trial","182","1193718","0.0-68.0","battery-v0.2","","""event"",""trial"",""time""
""fullscreenenter"",""1"",""2105""
","
","
","""event"",""trial"",""time""
""fullscreenenter"",""1"",""2105""
","
","","","697.8999999761581","","","13","4440","813","c","elianto","#3366ff99"," "," ","1","+10","[1549]","1","2","","","4440","64","4","1","win","go","0"
"pit-trial","183","1198583","0.0-69.0","battery-v0.2","","""event"",""trial"",""time""
""fullscreenenter"",""1"",""2105""
","
","
","""event"",""trial"",""time""
""fullscreenenter"",""1"",""2105""
","
","","","-1","","","13","4440","813","b","elianto","#f73b6a7A","-1","-1","1","0","[]","0","2","","","4440","65","3","4","lose","no-go","0"
"pit-trial","184","1203446","0.0-70.0","battery-v0.2","","""event"",""trial"",""time""
""fullscreenenter"",""1"",""2105""
","
","
","""event"",""trial"",""time""
""fullscreenenter"",""1"",""2105""
","
","","","-1","","","13","4440","813","f","elianto","#3366ff99","-1","-1","1","+10","[]","0","2","","","4440","66","1","2","win","no-go","0"
"pit-trial","185","1207502","0.0-71.0","battery-v0.2","","""event"",""trial"",""time""
""fullscreenenter"",""1"",""2105""
","
","
","""event"",""trial"",""time""
""fullscreenenter"",""1"",""2105""
","
","","","1196.199999988079","","","13","4440","813","z","elianto","#3366ff99","-1"," ","0","0","[2050.600000023842]","1","2","","","4440","67","5","2","win","no-go","0"
"pit-trial","186","1211002","0.0-72.0","battery-v0.2","","""event"",""trial"",""time""
""fullscreenenter"",""1"",""2105""
","
","
","""event"",""trial"",""time""
""fullscreenenter"",""1"",""2105""
","
","","","643.6000000238419","","","13","4440","813","c","elianto","#3366ff99"," "," ","1","+10","[1496.800000011921]","1","2","","","4440","68","4","1","win","go","0"
"pit-trial","187","1214514","0.0-73.0","battery-v0.2","","""event"",""trial"",""time""
""fullscreenenter"",""1"",""2105""
","
","
","""event"",""trial"",""time""
""fullscreenenter"",""1"",""2105""
","
","","","651.5","","","13","4440","813","t","elianto","#f73b6a7A"," "," ","1","-10","[1502]","1","2","","","4440","69","2","3","lose","go","1"
"pit-trial","188","1219388","0.0-74.0","battery-v0.2","","""event"",""trial"",""time""
""fullscreenenter"",""1"",""2105""
","
","
","""event"",""trial"",""time""
""fullscreenenter"",""1"",""2105""
","
","","","-1","","","13","4440","813","f","elianto","#3366ff99","-1","-1","1","0","[]","0","2","","","4440","70","1","2","win","no-go","1"
"pit-trial","189","1223202","0.0-75.0","battery-v0.2","","""event"",""trial"",""time""
""fullscreenenter"",""1"",""2105""
","
","
","""event"",""trial"",""time""
""fullscreenenter"",""1"",""2105""
","
","","","956.2999999523163","","","13","4440","813","z","elianto","#3366ff99","-1"," ","0","0","[1809.1000000238419]","1","2","","","4440","71","5","2","win","no-go","0"
"pit-trial","190","1226683","0.0-76.0","battery-v0.2","","""event"",""trial"",""time""
""fullscreenenter"",""1"",""2105""
","
","
","""event"",""trial"",""time""
""fullscreenenter"",""1"",""2105""
","
","","","616.5999999642372","","","13","4440","813","c","elianto","#3366ff99"," "," ","1","+10","[1470.699999988079]","1","2","","","4440","72","4","1","win","go","0"
"pit-trial","191","1231547","0.0-77.0","battery-v0.2","","""event"",""trial"",""time""
""fullscreenenter"",""1"",""2105""
","
","
","""event"",""trial"",""time""
""fullscreenenter"",""1"",""2105""
","
","","","-1","","","13","4440","813","z","elianto","#3366ff99","-1","-1","1","+10","[]","0","2","","","4440","73","5","2","win","no-go","0"
"pit-trial","192","1235204","0.0-78.0","battery-v0.2","","""event"",""trial"",""time""
""fullscreenenter"",""1"",""2105""
","
","
","""event"",""trial"",""time""
""fullscreenenter"",""1"",""2105""
","
","","","791.8000000119209","","","13","4440","813","c","elianto","#3366ff99"," "," ","1","+10","[1645.199999988079]","1","2","","","4440","74","4","1","win","go","0"
"pit-trial","193","1240066","0.0-79.0","battery-v0.2","","""event"",""trial"",""time""
""fullscreenenter"",""1"",""2105""
","
","
","""event"",""trial"",""time""
""fullscreenenter"",""1"",""2105""
","
","","","-1","","","13","4440","813","b","elianto","#f73b6a7A","-1","-1","1","-10","[]","0","2","","","4440","75","3","4","lose","no-go","1"
"pit-trial","194","1244930","0.0-80.0","battery-v0.2","","""event"",""trial"",""time""
""fullscreenenter"",""1"",""2105""
","
","
","""event"",""trial"",""time""
""fullscreenenter"",""1"",""2105""
","
","","","-1","","","13","4440","813","f","elianto","#3366ff99","-1","-1","1","+10","[]","0","2","","","4440","76","1","2","win","no-go","0"
"pit-trial","195","1248506","0.0-81.0","battery-v0.2","","""event"",""trial"",""time""
""fullscreenenter"",""1"",""2105""
","
","
","""event"",""trial"",""time""
""fullscreenenter"",""1"",""2105""
","
","","","714.8000000119209","","","13","4440","813","c","elianto","#3366ff99"," "," ","1","+10","[1569]","1","2","","","4440","77","4","1","win","go","0"
"pit-trial","196","1253370","0.0-82.0","battery-v0.2","","""event"",""trial"",""time""
""fullscreenenter"",""1"",""2105""
","
","
","""event"",""trial"",""time""
""fullscreenenter"",""1"",""2105""
","
","","","-1","","","13","4440","813","b","elianto","#f73b6a7A","-1","-1","1","0","[]","0","2","","","4440","78","3","4","lose","no-go","0"
"pit-trial","197","1257131","0.0-83.0","battery-v0.2","","""event"",""trial"",""time""
""fullscreenenter"",""1"",""2105""
","
","
","""event"",""trial"",""time""
""fullscreenenter"",""1"",""2105""
","
","","","902.5","","","13","4440","813","c","elianto","#3366ff99"," "," ","1","+10","[1752.7000000476837]","1","2","","","4440","79","4","1","win","go","0"
"pit-trial","198","1261996","0.0-84.0","battery-v0.2","","""event"",""trial"",""time""
""fullscreenenter"",""1"",""2105""
","
","
","""event"",""trial"",""time""
""fullscreenenter"",""1"",""2105""
","
","","","-1","","","13","4440","813","z","elianto","#3366ff99","-1","-1","1","0","[]","0","2","","","4440","80","5","2","win","no-go","1"
"pit-trial","199","1265426","0.0-85.0","battery-v0.2","","""event"",""trial"",""time""
""fullscreenenter"",""1"",""2105""
","
","
","""event"",""trial"",""time""
""fullscreenenter"",""1"",""2105""
","
","","","572.1999999880791","","","13","4440","813","c","elianto","#3366ff99"," "," ","1","+10","[1424.5999999642372]","1","2","","","4440","81","4","1","win","go","0"
"pit-trial","200","1269442","0.0-86.0","battery-v0.2","","""event"",""trial"",""time""
""fullscreenenter"",""1"",""2105""
","
","
","""event"",""trial"",""time""
""fullscreenenter"",""1"",""2105""
","
","","","1153.7999999523163","","","13","4440","813","y","elianto","#f73b6a7A","-1"," ","0","0","[2007.2999999523163]","1","2","","","4440","82","7","4","lose","no-go","1"
"pit-trial","201","1274300","0.0-87.0","battery-v0.2","","""event"",""trial"",""time""
""fullscreenenter"",""1"",""2105""
","
","
","""event"",""trial"",""time""
""fullscreenenter"",""1"",""2105""
","
","","","-1","","","13","4440","813","b","elianto","#f73b6a7A","-1","-1","1","0","[]","0","2","","","4440","83","3","4","lose","no-go","0"
"pit-trial","202","1279164","0.0-88.0","battery-v0.2","","""event"",""trial"",""time""
""fullscreenenter"",""1"",""2105""
","
","
","""event"",""trial"",""time""
""fullscreenenter"",""1"",""2105""
","
","","","-1","","","13","4440","813","z","elianto","#3366ff99","-1","-1","1","0","[]","0","2","","","4440","84","5","2","win","no-go","1"
"pit-trial","203","1282924","0.0-89.0","battery-v0.2","","""event"",""trial"",""time""
""fullscreenenter"",""1"",""2105""
","
","
","""event"",""trial"",""time""
""fullscreenenter"",""1"",""2105""
","
","","","897.5","","","13","4440","813","y","elianto","#f73b6a7A","-1"," ","0","-10","[1752.0999999642372]","1","2","","","4440","85","7","4","lose","no-go","0"
"pit-trial","204","1286436","0.0-90.0","battery-v0.2","","""event"",""trial"",""time""
""fullscreenenter"",""1"",""2105""
","
","
","""event"",""trial"",""time""
""fullscreenenter"",""1"",""2105""
","
","","","655.6999999880791","","","13","4440","813","c","elianto","#3366ff99"," "," ","1","0","[1509.699999988079]","1","2","","","4440","86","4","1","win","go","1"
"pit-trial","205","1290532","0.0-91.0","battery-v0.2","","""event"",""trial"",""time""
""fullscreenenter"",""1"",""2105""
","
","
","""event"",""trial"",""time""
""fullscreenenter"",""1"",""2105""
","
","","","1240","","","13","4440","813","h","elianto","#f73b6a7A"," "," ","1","0","[2090.5]","1","2","","","4440","87","6","3","lose","go","0"
"pit-trial","206","1295397","0.0-92.0","battery-v0.2","","""event"",""trial"",""time""
""fullscreenenter"",""1"",""2105""
","
","
","""event"",""trial"",""time""
""fullscreenenter"",""1"",""2105""
","
","","","-1","","","13","4440","813","z","elianto","#3366ff99","-1","-1","1","0","[]","0","2","","","4440","88","5","2","win","no-go","1"
"pit-trial","207","1299564","0.0-93.0","battery-v0.2","","""event"",""trial"",""time""
""fullscreenenter"",""1"",""2105""
","
","
","""event"",""trial"",""time""
""fullscreenenter"",""1"",""2105""
","
","","","1311.8999999761581","","","13","4440","813","h","elianto","#f73b6a7A"," "," ","1","0","[2163.699999988079]","1","2","","","4440","89","6","3","lose","go","0"
"pit-trial","208","1303117","0.0-94.0","battery-v0.2","","""event"",""trial"",""time""
""fullscreenenter"",""1"",""2105""
","
","
","""event"",""trial"",""time""
""fullscreenenter"",""1"",""2105""
","
","","","691","","","13","4440","813","c","elianto","#3366ff99"," "," ","1","+10","[1542.3999999761581]","1","2","","","4440","90","4","1","win","go","0"
"pit-trial","209","1306829","0.0-95.0","battery-v0.2","","""event"",""trial"",""time""
""fullscreenenter"",""1"",""2105""
","
","
","""event"",""trial"",""time""
""fullscreenenter"",""1"",""2105""
","
","","","853.0999999642372","","","13","4440","813","z","elianto","#3366ff99","-1"," ","0","0","[1706.5999999642372]","1","2","","","4440","91","5","2","win","no-go","0"
"pit-trial","210","1310365","0.0-96.0","battery-v0.2","","""event"",""trial"",""time""
""fullscreenenter"",""1"",""2105""
","
","
","""event"",""trial"",""time""
""fullscreenenter"",""1"",""2105""
","
","","","674.1000000238419","","","13","4440","813","y","elianto","#f73b6a7A","-1"," ","0","-10","[1525.5]","1","2","","","4440","92","7","4","lose","no-go","0"
"pit-trial","211","1314133","0.0-97.0","battery-v0.2","","""event"",""trial"",""time""
""fullscreenenter"",""1"",""2105""
","
","
","""event"",""trial"",""time""
""fullscreenenter"",""1"",""2105""
","
","","","908.8999999761581","","","13","4440","813","r","elianto","#3366ff99"," "," ","1","+10","[1762.8999999761581]","1","2","","","4440","93","8","1","win","go","0"
"pit-trial","212","1318996","0.0-98.0","battery-v0.2","","""event"",""trial"",""time""
""fullscreenenter"",""1"",""2105""
","
","
","""event"",""trial"",""time""
""fullscreenenter"",""1"",""2105""
","
","","","-1","","","13","4440","813","z","elianto","#3366ff99","-1","-1","1","0","[]","0","2","","","4440","94","5","2","win","no-go","1"
"pit-trial","213","1323476","0.0-99.0","battery-v0.2","","""event"",""trial"",""time""
""fullscreenenter"",""1"",""2105""
","
","
","""event"",""trial"",""time""
""fullscreenenter"",""1"",""2105""
","
","","","1615.5","","","13","4440","813","y","elianto","#f73b6a7A","-1"," ","0","-10","[2468.699999988079]","1","2","","","4440","95","7","4","lose","no-go","0"
"pit-trial","214","1327284","0.0-100.0","battery-v0.2","","""event"",""trial"",""time""
""fullscreenenter"",""1"",""2105""
","
","
","""event"",""trial"",""time""
""fullscreenenter"",""1"",""2105""
","
","","","951.1999999880791","","","13","4440","813","h","elianto","#f73b6a7A"," "," ","1","0","[1801.300000011921]","1","2","","","4440","96","6","3","lose","go","0"
"pit-trial","215","1330918","0.0-101.0","battery-v0.2","","""event"",""trial"",""time""
""fullscreenenter"",""1"",""2105""
","
","
","""event"",""trial"",""time""
""fullscreenenter"",""1"",""2105""
","
","","","770.8000000119209","","","13","4440","813","h","elianto","#f73b6a7A"," "," ","1","0","[1624.300000011921]","1","2","","","4440","97","6","3","lose","go","0"
"pit-trial","216","1335775","0.0-102.0","battery-v0.2","","""event"",""trial"",""time""
""fullscreenenter"",""1"",""2105""
","
","
","""event"",""trial"",""time""
""fullscreenenter"",""1"",""2105""
","
","","","-1","","","13","4440","813","y","elianto","#f73b6a7A","-1","-1","1","0","[]","0","2","","","4440","98","7","4","lose","no-go","0"
"pit-trial","217","1340639","0.0-103.0","battery-v0.2","","""event"",""trial"",""time""
""fullscreenenter"",""1"",""2105""
","
","
","""event"",""trial"",""time""
""fullscreenenter"",""1"",""2105""
","
","","","-1","","","13","4440","813","z","elianto","#3366ff99","-1","-1","1","0","[]","0","2","","","4440","99","5","2","win","no-go","1"
"pit-trial","218","1344407","0.0-104.0","battery-v0.2","","""event"",""trial"",""time""
""fullscreenenter"",""1"",""2105""
","
","
","""event"",""trial"",""time""
""fullscreenenter"",""1"",""2105""
","
","","","909.0999999642372","","","13","4440","813","r","elianto","#3366ff99"," "," ","1","+10","[1763.2000000476837]","1","2","","","4440","100","8","1","win","go","0"
"pit-trial","219","1349271","0.0-105.0","battery-v0.2","","""event"",""trial"",""time""
""fullscreenenter"",""1"",""2105""
","
","
","""event"",""trial"",""time""
""fullscreenenter"",""1"",""2105""
","
","","","-1","","","13","4440","813","y","elianto","#f73b6a7A","-1","-1","1","0","[]","0","2","","","4440","101","7","4","lose","no-go","0"
"pit-trial","220","1352927","0.0-106.0","battery-v0.2","","""event"",""trial"",""time""
""fullscreenenter"",""1"",""2105""
","
","
","""event"",""trial"",""time""
""fullscreenenter"",""1"",""2105""
","
","","","797.1999999880791","","","13","4440","813","r","elianto","#3366ff99"," "," ","1","+10","[1651.1000000238419]","1","2","","","4440","102","8","1","win","go","0"
"pit-trial","221","1356814","0.0-107.0","battery-v0.2","","""event"",""trial"",""time""
""fullscreenenter"",""1"",""2105""
","
","
","""event"",""trial"",""time""
""fullscreenenter"",""1"",""2105""
","
","","","1007.1999999880791","","","13","4440","813","m","elianto","#3366ff99"," "," ","1","+10","[1860.699999988079]","1","2","","","4440","103","9","1","win","go","0"
"pit-trial","222","1360567","0.0-108.0","battery-v0.2","","""event"",""trial"",""time""
""fullscreenenter"",""1"",""2105""
","
","
","""event"",""trial"",""time""
""fullscreenenter"",""1"",""2105""
","
","","","888.5","","","13","4440","813","z","elianto","#3366ff99","-1"," ","0","0","[1743.300000011921]","1","2","","","4440","104","5","2","win","no-go","0"
"pit-trial","223","1364319","0.0-109.0","battery-v0.2","","""event"",""trial"",""time""
""fullscreenenter"",""1"",""2105""
","
","
","""event"",""trial"",""time""
""fullscreenenter"",""1"",""2105""
","
","","","894","","","13","4440","813","h","elianto","#f73b6a7A"," "," ","1","0","[1747.199999988079]","1","2","","","4440","105","6","3","lose","go","0"
"pit-trial","224","1368103","0.0-110.0","battery-v0.2","","""event"",""trial"",""time""
""fullscreenenter"",""1"",""2105""
","
","
","""event"",""trial"",""time""
""fullscreenenter"",""1"",""2105""
","
","","","925.4000000357628","","","13","4440","813","m","elianto","#3366ff99"," "," ","1","+10","[1776.300000011921]","1","2","","","4440","106","9","1","win","go","0"
"pit-trial","225","1371766","0.0-111.0","battery-v0.2","","""event"",""trial"",""time""
""fullscreenenter"",""1"",""2105""
","
","
","""event"",""trial"",""time""
""fullscreenenter"",""1"",""2105""
","
","","","805.6000000238419","","","13","4440","813","c","elianto","#3366ff99"," "," ","1","+10","[1656.199999988079]","1","2","","","4440","107","4","1","win","go","0"
"pit-trial","226","1375406","0.0-112.0","battery-v0.2","","""event"",""trial"",""time""
""fullscreenenter"",""1"",""2105""
","
","
","""event"",""trial"",""time""
""fullscreenenter"",""1"",""2105""
","
","","","785.8999999761581","","","13","4440","813","r","elianto","#3366ff99"," "," ","1","+10","[1636.8999999761581,3349.099999964237]","2","2","","","4440","108","8","1","win","go","0"
"pit-trial","227","1379102","0.0-113.0","battery-v0.2","","""event"",""trial"",""time""
""fullscreenenter"",""1"",""2105""
","
","
","""event"",""trial"",""time""
""fullscreenenter"",""1"",""2105""
","
","","","834","","","13","4440","813","h","elianto","#f73b6a7A"," "," ","1","0","[1690.1000000238419]","1","2","","","4440","109","6","3","lose","go","0"
"pit-trial","228","1382847","0.0-114.0","battery-v0.2","","""event"",""trial"",""time""
""fullscreenenter"",""1"",""2105""
","
","
","""event"",""trial"",""time""
""fullscreenenter"",""1"",""2105""
","
","","","885.6999999880791","","","13","4440","813","r","elianto","#3366ff99"," "," ","1","+10","[1739.6000000238419]","1","2","","","4440","110","8","1","win","go","0"
"pit-trial","229","1386679","0.0-115.0","battery-v0.2","","""event"",""trial"",""time""
""fullscreenenter"",""1"",""2105""
","
","
","""event"",""trial"",""time""
""fullscreenenter"",""1"",""2105""
","
","","","971.1999999880791","","","13","4440","813","z","elianto","#3366ff99","-1"," ","0","+10","[1822.3999999761581]","1","2","","","4440","111","5","2","win","no-go","1"
"pit-trial","230","1390270","0.0-116.0","battery-v0.2","","""event"",""trial"",""time""
""fullscreenenter"",""1"",""2105""
","
","
","""event"",""trial"",""time""
""fullscreenenter"",""1"",""2105""
","
","","","733.5","","","13","4440","813","m","elianto","#3366ff99"," "," ","1","0","[1583.699999988079]","1","2","","","4440","112","9","1","win","go","1"
"pit-trial","231","1393883","0.0-117.0","battery-v0.2","","""event"",""trial"",""time""
""fullscreenenter"",""1"",""2105""
","
","
","""event"",""trial"",""time""
""fullscreenenter"",""1"",""2105""
","
","","","754.8999999761581","","","13","4440","813","r","elianto","#3366ff99"," "," ","1","+10","[1608.699999988079]","1","2","","","4440","113","8","1","win","go","0"
"pit-trial","232","1397474","0.0-118.0","battery-v0.2","","""event"",""trial"",""time""
""fullscreenenter"",""1"",""2105""
","
","
","""event"",""trial"",""time""
""fullscreenenter"",""1"",""2105""
","
","","","729","","","13","4440","813","h","elianto","#f73b6a7A"," "," ","1","0","[1581.699999988079]","1","2","","","4440","114","6","3","lose","go","0"
"pit-trial","233","1401225","0.0-119.0","battery-v0.2","","""event"",""trial"",""time""
""fullscreenenter"",""1"",""2105""
","
","
","""event"",""trial"",""time""
""fullscreenenter"",""1"",""2105""
","
","","","892.2000000476837","","","13","4440","813","z","elianto","#3366ff99","-1"," ","0","0","[226.80000001192093,1745.4000000357628]","2","2","","","4440","115","5","2","win","no-go","0"
"pit-trial","234","1405097","0.0-120.0","battery-v0.2","","""event"",""trial"",""time""
""fullscreenenter"",""1"",""2105""
","
","
","""event"",""trial"",""time""
""fullscreenenter"",""1"",""2105""
","
","","","1008.3000000119209","","","13","4440","813","m","elianto","#3366ff99"," "," ","1","+10","[1862.2000000476837]","1","2","","","4440","116","9","1","win","go","0"
"pit-trial","235","1408625","0.0-121.0","battery-v0.2","","""event"",""trial"",""time""
""fullscreenenter"",""1"",""2105""
","
","
","""event"",""trial"",""time""
""fullscreenenter"",""1"",""2105""
","
","","","666.5999999642372","","","13","4440","813","r","elianto","#3366ff99"," "," ","1","+10","[1520.0999999642372]","1","2","","","4440","117","8","1","win","go","0"
"pit-trial","236","1412290","0.0-122.0","battery-v0.2","","""event"",""trial"",""time""
""fullscreenenter"",""1"",""2105""
","
","
","""event"",""trial"",""time""
""fullscreenenter"",""1"",""2105""
","
","","","806.5999999642372","","","13","4440","813","z","elianto","#3366ff99","-1"," ","0","0","[1660.2999999523163]","1","2","","","4440","118","5","2","win","no-go","0"
"pit-trial","237","1415874","0.0-123.0","battery-v0.2","","""event"",""trial"",""time""
""fullscreenenter"",""1"",""2105""
","
","
","""event"",""trial"",""time""
""fullscreenenter"",""1"",""2105""
","
","","","721.5999999642372","","","13","4440","813","h","elianto","#f73b6a7A"," "," ","1","-10","[1574.7999999523163]","1","2","","","4440","119","6","3","lose","go","1"
"pit-trial","238","1419483","0.0-124.0","battery-v0.2","","""event"",""trial"",""time""
""fullscreenenter"",""1"",""2105""
","
","
","""event"",""trial"",""time""
""fullscreenenter"",""1"",""2105""
","
","","","746","","","13","4440","813","m","elianto","#3366ff99"," "," ","1","+10","[1599.5]","1","2","","","4440","120","9","1","win","go","0"
"pit-trial","239","1424346","0.0-125.0","battery-v0.2","","""event"",""trial"",""time""
""fullscreenenter"",""1"",""2105""
","
","
","""event"",""trial"",""time""
""fullscreenenter"",""1"",""2105""
","
","","","-1","","","13","4440","813","y","elianto","#f73b6a7A","-1","-1","1","0","[]","0","2","","","4440","121","7","4","lose","no-go","0"
"pit-trial","240","1428050","0.0-126.0","battery-v0.2","","""event"",""trial"",""time""
""fullscreenenter"",""1"",""2105""
","
","
","""event"",""trial"",""time""
""fullscreenenter"",""1"",""2105""
","
","","","846","","","13","4440","813","m","elianto","#3366ff99"," "," ","1","+10","[1696.5]","1","2","","","4440","122","9","1","win","go","0"
"pit-trial","241","1431577","0.0-127.0","battery-v0.2","","""event"",""trial"",""time""
""fullscreenenter"",""1"",""2105""
","
","
","""event"",""trial"",""time""
""fullscreenenter"",""1"",""2105""
","
","","","667.8000000119209","","","13","4440","813","r","elianto","#3366ff99"," "," ","1","+10","[1521]","1","2","","","4440","123","8","1","win","go","0"
"pit-trial","242","1435154","0.0-128.0","battery-v0.2","","""event"",""trial"",""time""
""fullscreenenter"",""1"",""2105""
","
","
","""event"",""trial"",""time""
""fullscreenenter"",""1"",""2105""
","
","","","718.0999999642372","","","13","4440","813","h","elianto","#f73b6a7A"," "," ","1","0","[1568.3999999761581]","1","2","","","4440","124","6","3","lose","go","0"
"pit-trial","243","1438706","0.0-129.0","battery-v0.2","","""event"",""trial"",""time""
""fullscreenenter"",""1"",""2105""
","
","
","""event"",""trial"",""time""
""fullscreenenter"",""1"",""2105""
","
","","","694.8000000119209","","","13","4440","813","h","elianto","#f73b6a7A"," "," ","1","-10","[1549]","1","2","","","4440","125","6","3","lose","go","1"
"pit-trial","244","1442208","0.0-130.0","battery-v0.2","","""event"",""trial"",""time""
""fullscreenenter"",""1"",""2105""
","
","
","""event"",""trial"",""time""
""fullscreenenter"",""1"",""2105""
","
","","","641","","","13","4440","813","r","elianto","#3366ff99"," "," ","1","+10","[1491.5]","1","2","","","4440","126","8","1","win","go","0"
"pit-trial","245","1445726","0.0-131.0","battery-v0.2","","""event"",""trial"",""time""
""fullscreenenter"",""1"",""2105""
","
","
","""event"",""trial"",""time""
""fullscreenenter"",""1"",""2105""
","
","","","645","","","13","4440","813","m","elianto","#3366ff99"," "," ","1","0","[1499.9000000357628]","1","2","","","4440","127","9","1","win","go","1"
"pit-trial","246","1450593","0.0-132.0","battery-v0.2","","""event"",""trial"",""time""
""fullscreenenter"",""1"",""2105""
","
","
","""event"",""trial"",""time""
""fullscreenenter"",""1"",""2105""
","
","","","-1","","","13","4440","813","y","elianto","#f73b6a7A","-1","-1","1","0","[]","0","2","","","4440","128","7","4","lose","no-go","0"
"pit-trial","247","1455452","0.0-133.0","battery-v0.2","","""event"",""trial"",""time""
""fullscreenenter"",""1"",""2105""
","
","
","""event"",""trial"",""time""
""fullscreenenter"",""1"",""2105""
","
","","","-1","","","13","4440","813","y","elianto","#f73b6a7A","-1","-1","1","-10","[]","0","2","","","4440","129","7","4","lose","no-go","1"
"pit-trial","248","1458885","0.0-134.0","battery-v0.2","","""event"",""trial"",""time""
""fullscreenenter"",""1"",""2105""
","
","
","""event"",""trial"",""time""
""fullscreenenter"",""1"",""2105""
","
","","","568.8999999761581","","","13","4440","813","r","elianto","#3366ff99"," "," ","1","+10","[1423.2000000476837]","1","2","","","4440","130","8","1","win","go","0"
"pit-trial","249","1462419","0.0-135.0","battery-v0.2","","""event"",""trial"",""time""
""fullscreenenter"",""1"",""2105""
","
","
","""event"",""trial"",""time""
""fullscreenenter"",""1"",""2105""
","
","","","675.1000000238419","","","13","4440","813","h","elianto","#f73b6a7A"," "," ","1","0","[1528.199999988079]","1","2","","","4440","131","6","3","lose","go","0"
"pit-trial","250","1465828","0.0-136.0","battery-v0.2","","""event"",""trial"",""time""
""fullscreenenter"",""1"",""2105""
","
","
","""event"",""trial"",""time""
""fullscreenenter"",""1"",""2105""
","
","","","551.1999999880791","","","13","4440","813","m","elianto","#3366ff99"," "," ","1","0","[1405.5999999642372]","1","2","","","4440","132","9","1","win","go","1"
"pit-trial","251","1469315","0.0-137.0","battery-v0.2","","""event"",""trial"",""time""
""fullscreenenter"",""1"",""2105""
","
","
","""event"",""trial"",""time""
""fullscreenenter"",""1"",""2105""
","
","","","628.8000000119209","","","13","4440","813","r","elianto","#3366ff99"," "," ","1","+10","[1482.4000000357628]","1","2","","","4440","133","8","1","win","go","0"
"pit-trial","252","1474179","0.0-138.0","battery-v0.2","","""event"",""trial"",""time""
""fullscreenenter"",""1"",""2105""
","
","
","""event"",""trial"",""time""
""fullscreenenter"",""1"",""2105""
","
","","","-1","","","13","4440","813","y","elianto","#f73b6a7A","-1","-1","1","-10","[252.0999999642372]","1","2","","","4440","134","7","4","lose","no-go","1"
"pit-trial","253","1477844","0.0-139.0","battery-v0.2","","""event"",""trial"",""time""
""fullscreenenter"",""1"",""2105""
","
","
","""event"",""trial"",""time""
""fullscreenenter"",""1"",""2105""
","
","","","794.7000000476837","","","13","4440","813","m","elianto","#3366ff99"," "," ","1","+10","[1649.300000011921]","1","2","","","4440","135","9","1","win","go","0"
"pit-trial","254","1481748","0.0-140.0","battery-v0.2","","""event"",""trial"",""time""
""fullscreenenter"",""1"",""2105""
","
","
","""event"",""trial"",""time""
""fullscreenenter"",""1"",""2105""
","
","","","1042.300000011921","","","13","4440","813","h","elianto","#f73b6a7A"," "," ","1","-10","[1896.300000011921]","1","2","","","4440","136","6","3","lose","go","1"
"pit-trial","255","1486612","0.0-141.0","battery-v0.2","","""event"",""trial"",""time""
""fullscreenenter"",""1"",""2105""
","
","
","""event"",""trial"",""time""
""fullscreenenter"",""1"",""2105""
","
","","","-1","","","13","4440","813","y","elianto","#f73b6a7A","-1","-1","1","0","[]","0","2","","","4440","137","7","4","lose","no-go","0"
"pit-trial","256","1490099","0.0-142.0","battery-v0.2","","""event"",""trial"",""time""
""fullscreenenter"",""1"",""2105""
","
","
","""event"",""trial"",""time""
""fullscreenenter"",""1"",""2105""
","
","","","624.3000000119209","","","13","4440","813","h","elianto","#f73b6a7A"," "," ","1","0","[1478.6000000238419]","1","2","","","4440","138","6","3","lose","go","0"
"pit-trial","257","1493765","0.0-143.0","battery-v0.2","","""event"",""trial"",""time""
""fullscreenenter"",""1"",""2105""
","
","
","""event"",""trial"",""time""
""fullscreenenter"",""1"",""2105""
","
","","","807.3000000119209","","","13","4440","813","m","elianto","#3366ff99"," "," ","1","+10","[1657.5]","1","2","","","4440","139","9","1","win","go","0"
"pit-trial","258","1497452","0.0-144.0","battery-v0.2","","""event"",""trial"",""time""
""fullscreenenter"",""1"",""2105""
","
","
","""event"",""trial"",""time""
""fullscreenenter"",""1"",""2105""
","
","","","830.5999999642372","","","13","4440","813","r","elianto","#3366ff99"," "," ","1","+10","[1682.0999999642372]","1","2","","","4440","140","8","1","win","go","0"
"pit-instructions","259","1516653","0.0-145.0","battery-v0.2","","""event"",""trial"",""time""
""fullscreenenter"",""1"",""2105""
","
","
","""event"",""trial"",""time""
""fullscreenenter"",""1"",""2105""
","
","","[{""page_index"":0,""viewing_time"":9847.300000011921},{""page_index"":1,""viewing_time"":9354.699999988079}]","19202.5","","","","","","","","","","","","","","","","","","","","","","","",""
"pit-trial","260","1520550","0.0-146.0","battery-v0.2","","""event"",""trial"",""time""
""fullscreenenter"",""1"",""2105""
","
","
","""event"",""trial"",""time""
""fullscreenenter"",""1"",""2105""
","
","","","1024","","","13","4440","813","d","elianto","#3366ff99"," "," ","1","+10","[1878.3999999761581]","1","3","","","4440","141","1","1","win","go","0"
"pit-trial","261","1525422","0.0-147.0","battery-v0.2","","""event"",""trial"",""time""
""fullscreenenter"",""1"",""2105""
","
","
","""event"",""trial"",""time""
""fullscreenenter"",""1"",""2105""
","
","","","-1","","","13","4440","813","e","elianto","#f73b6a7A","-1","-1","1","0","[]","0","3","","","4440","142","2","4","lose","no-go","0"
"pit-trial","262","1530295","0.0-148.0","battery-v0.2","","""event"",""trial"",""time""
""fullscreenenter"",""1"",""2105""
","
","
","""event"",""trial"",""time""
""fullscreenenter"",""1"",""2105""
","
","","","-1","","","13","4440","813","w","elianto","#f73b6a7A"," ","-1","0","-10","[]","0","3","","","4440","143","3","3","lose","go","0"
"pit-trial","263","1535165","0.0-149.0","battery-v0.2","","""event"",""trial"",""time""
""fullscreenenter"",""1"",""2105""
","
","
","""event"",""trial"",""time""
""fullscreenenter"",""1"",""2105""
","
","","","-1","","","13","4440","813","j","elianto","#f73b6a7A","-1","-1","1","0","[]","0","3","","","4440","144","0","4","lose","no-go","0"
"pit-trial","264","1539187","0.0-150.0","battery-v0.2","","""event"",""trial"",""time""
""fullscreenenter"",""1"",""2105""
","
","
","""event"",""trial"",""time""
""fullscreenenter"",""1"",""2105""
","
","","","1157.5999999642372","","","13","4440","813","w","elianto","#f73b6a7A"," "," ","1","0","[2008]","1","3","","","4440","145","3","3","lose","go","0"
"pit-trial","265","1542629","0.0-151.0","battery-v0.2","","""event"",""trial"",""time""
""fullscreenenter"",""1"",""2105""
","
","
","""event"",""trial"",""time""
""fullscreenenter"",""1"",""2105""
","
","","","581.7000000476837","","","13","4440","813","d","elianto","#3366ff99"," "," ","1","+10","[1435.6000000238419]","1","3","","","4440","146","1","1","win","go","0"
"pit-trial","266","1547497","0.0-152.0","battery-v0.2","","""event"",""trial"",""time""
""fullscreenenter"",""1"",""2105""
","
","
","""event"",""trial"",""time""
""fullscreenenter"",""1"",""2105""
","
","","","-1","","","13","4440","813","j","elianto","#f73b6a7A","-1","-1","1","-10","[]","0","3","","","4440","147","0","4","lose","no-go","1"
"pit-trial","267","1552361","0.0-153.0","battery-v0.2","","""event"",""trial"",""time""
""fullscreenenter"",""1"",""2105""
","
","
","""event"",""trial"",""time""
""fullscreenenter"",""1"",""2105""
","
","","","-1","","","13","4440","813","e","elianto","#f73b6a7A","-1","-1","1","0","[]","0","3","","","4440","148","2","4","lose","no-go","0"
"pit-trial","268","1557246","0.0-154.0","battery-v0.2","","""event"",""trial"",""time""
""fullscreenenter"",""1"",""2105""
","
","
","""event"",""trial"",""time""
