"trial_type","trial_index","time_elapsed","internal_node_id","task_version","subject_id","interactions","blur_events","focus_events","fullscreenenter_events","fullscreenexit_events","success","view_history","rt","responses","num_errors","age","subject","participantId","rune","rune_set","hex","correct","choice","accuracy","outcome","keys","total_keys","block","practice","value","sub","trial","stimulus","robot","valence","action","sham"
"pavlovia","0","12","0.0-0.0","battery-v0.2","","""event"",""trial"",""time""
""focus"",""0"",""1""
""fullscreenenter"",""1"",""4649""
","
","""event"",""trial"",""time""
""focus"",""0"",""1""
","""event"",""trial"",""time""
""fullscreenenter"",""1"",""4649""
","
","","","","","","","","","","","","","","","","","","","","","","","","","","",""
"fullscreen","1","5372","0.0-1.0","battery-v0.2","","""event"",""trial"",""time""
""focus"",""0"",""1""
""fullscreenenter"",""1"",""4649""
""blur"",""2"",""8052""
""focus"",""2"",""8452""
""fullscreenexit"",""2"",""8465""
","""event"",""trial"",""time""
""blur"",""2"",""8052""
","""event"",""trial"",""time""
""focus"",""0"",""1""
""focus"",""2"",""8452""
","""event"",""trial"",""time""
""fullscreenenter"",""1"",""4649""
","""event"",""trial"",""time""
""fullscreenexit"",""2"",""8465""
","true","","","","","","","","","","","","","","","","","","","","","","","","","",""
"pit-instructions","2","11353","0.0-2.0-0.0","battery-v0.2","","""event"",""trial"",""time""
""focus"",""0"",""1""
""fullscreenenter"",""1"",""4649""
""blur"",""2"",""8052""
""focus"",""2"",""8452""
""fullscreenexit"",""2"",""8465""
","""event"",""trial"",""time""
""blur"",""2"",""8052""
","""event"",""trial"",""time""
""focus"",""0"",""1""
""focus"",""2"",""8452""
","""event"",""trial"",""time""
""fullscreenenter"",""1"",""4649""
","""event"",""trial"",""time""
""fullscreenexit"",""2"",""8465""
","","[{""page_index"":0,""viewing_time"":5975}]","5976","","","","","","","","","","","","","","","","","","","","","","","",""
"pit-comprehension","3","15269","0.0-2.0-1.0-0.0","battery-v0.2","","""event"",""trial"",""time""
""focus"",""0"",""1""
""fullscreenenter"",""1"",""4649""
""blur"",""2"",""8052""
""focus"",""2"",""8452""
""fullscreenexit"",""2"",""8465""
","""event"",""trial"",""time""
""blur"",""2"",""8052""
","""event"",""trial"",""time""
""focus"",""0"",""1""
""focus"",""2"",""8452""
","""event"",""trial"",""time""
""fullscreenenter"",""1"",""4649""
","""event"",""trial"",""time""
""fullscreenexit"",""2"",""8465""
","","","3909","[""shark""]","0","24","7575","3891","","","","","","","","","","","","","","","","","","",""
"pit-instructions","4","17752","0.0-2.0-1.0-1.0","battery-v0.2","","""event"",""trial"",""time""
""focus"",""0"",""1""
""fullscreenenter"",""1"",""4649""
""blur"",""2"",""8052""
""focus"",""2"",""8452""
""fullscreenexit"",""2"",""8465""
","""event"",""trial"",""time""
""blur"",""2"",""8052""
","""event"",""trial"",""time""
""focus"",""0"",""1""
""focus"",""2"",""8452""
","""event"",""trial"",""time""
""fullscreenenter"",""1"",""4649""
","""event"",""trial"",""time""
""fullscreenexit"",""2"",""8465""
","","[{""page_index"":0,""viewing_time"":2475}]","2476","","","","","","","","","","","","","","","","","","","","","","","",""
"pit-comprehension","5","21138","0.0-2.0-2.0-0.0","battery-v0.2","","""event"",""trial"",""time""
""focus"",""0"",""1""
""fullscreenenter"",""1"",""4649""
""blur"",""2"",""8052""
""focus"",""2"",""8452""
""fullscreenexit"",""2"",""8465""
","""event"",""trial"",""time""
""blur"",""2"",""8052""
","""event"",""trial"",""time""
""focus"",""0"",""1""
""focus"",""2"",""8452""
","""event"",""trial"",""time""
""fullscreenenter"",""1"",""4649""
","""event"",""trial"",""time""
""fullscreenexit"",""2"",""8465""
","","","3379","[""tiger""]","0","24","7575","3891","","","","","","","","","","","","","","","","","","",""
"pit-instructions","6","22334","0.0-2.0-2.0-1.0","battery-v0.2","","""event"",""trial"",""time""
""focus"",""0"",""1""
""fullscreenenter"",""1"",""4649""
""blur"",""2"",""8052""
""focus"",""2"",""8452""
""fullscreenexit"",""2"",""8465""
","""event"",""trial"",""time""
""blur"",""2"",""8052""
","""event"",""trial"",""time""
""focus"",""0"",""1""
""focus"",""2"",""8452""
","""event"",""trial"",""time""
""fullscreenenter"",""1"",""4649""
","""event"",""trial"",""time""
""fullscreenexit"",""2"",""8465""
","","[{""page_index"":0,""viewing_time"":1191}]","1192","","","","","","","","","","","","","","","","","","","","","","","",""
"pit-instructions","7","134187","0.0-2.0-3.0","battery-v0.2","","""event"",""trial"",""time""
""focus"",""0"",""1""
""fullscreenenter"",""1"",""4649""
""blur"",""2"",""8052""
""focus"",""2"",""8452""
""fullscreenexit"",""2"",""8465""
","""event"",""trial"",""time""
""blur"",""2"",""8052""
","""event"",""trial"",""time""
""focus"",""0"",""1""
""focus"",""2"",""8452""
","""event"",""trial"",""time""
""fullscreenenter"",""1"",""4649""
","""event"",""trial"",""time""
""fullscreenexit"",""2"",""8465""
","","[{""page_index"":0,""viewing_time"":12630},{""page_index"":1,""viewing_time"":9900},{""page_index"":2,""viewing_time"":8416},{""page_index"":3,""viewing_time"":10218},{""page_index"":4,""viewing_time"":6101},{""page_index"":5,""viewing_time"":6350},{""page_index"":6,""viewing_time"":7632},{""page_index"":7,""viewing_time"":7433},{""page_index"":8,""viewing_time"":7117},{""page_index"":9,""viewing_time"":9287},{""page_index"":10,""viewing_time"":7248},{""page_index"":11,""viewing_time"":7933},{""page_index"":12,""viewing_time"":6482},{""page_index"":13,""viewing_time"":5102}]","111849","","","","","","","","","","","","","","","","","","","","","","","",""
"pit-trial","8","137665","0.0-2.0-4.0-0.0","battery-v0.2","","""event"",""trial"",""time""
""focus"",""0"",""1""
""fullscreenenter"",""1"",""4649""
""blur"",""2"",""8052""
""focus"",""2"",""8452""
""fullscreenexit"",""2"",""8465""
","""event"",""trial"",""time""
""blur"",""2"",""8052""
","""event"",""trial"",""time""
""focus"",""0"",""1""
""focus"",""2"",""8452""
","""event"",""trial"",""time""
""fullscreenenter"",""1"",""4649""
","""event"",""trial"",""time""
""fullscreenexit"",""2"",""8465""
","","","617","","","24","7575","3891","&#9784;","elianto","#FFFFF080"," "," ","1","&#10004","[1467]","1","0","0","","","","","","","",""
"pit-trial","9","140764","0.0-2.0-4.1-0.1","battery-v0.2","","""event"",""trial"",""time""
""focus"",""0"",""1""
""fullscreenenter"",""1"",""4649""
""blur"",""2"",""8052""
""focus"",""2"",""8452""
""fullscreenexit"",""2"",""8465""
","""event"",""trial"",""time""
""blur"",""2"",""8052""
","""event"",""trial"",""time""
""focus"",""0"",""1""
""focus"",""2"",""8452""
","""event"",""trial"",""time""
""fullscreenenter"",""1"",""4649""
","""event"",""trial"",""time""
""fullscreenexit"",""2"",""8465""
","","","238","","","24","7575","3891","&#9784;","elianto","#FFFFF080"," "," ","1","&#10004","[1088]","1","0","0","","","","","","","",""
"pit-trial","10","143896","0.0-2.0-4.2-0.2","battery-v0.2","","""event"",""trial"",""time""
""focus"",""0"",""1""
""fullscreenenter"",""1"",""4649""
""blur"",""2"",""8052""
""focus"",""2"",""8452""
""fullscreenexit"",""2"",""8465""
","""event"",""trial"",""time""
""blur"",""2"",""8052""
","""event"",""trial"",""time""
""focus"",""0"",""1""
""focus"",""2"",""8452""
","""event"",""trial"",""time""
""fullscreenenter"",""1"",""4649""
","""event"",""trial"",""time""
""fullscreenexit"",""2"",""8465""
","","","268","","","24","7575","3891","&#9784;","elianto","#FFFFF080"," "," ","1","&#10004","[1122]","1","0","0","","","","","","","",""
"pit-trial","11","147031","0.0-2.0-4.3-0.3","battery-v0.2","","""event"",""trial"",""time""
""focus"",""0"",""1""
""fullscreenenter"",""1"",""4649""
""blur"",""2"",""8052""
""focus"",""2"",""8452""
""fullscreenexit"",""2"",""8465""
","""event"",""trial"",""time""
""blur"",""2"",""8052""
","""event"",""trial"",""time""
""focus"",""0"",""1""
""focus"",""2"",""8452""
","""event"",""trial"",""time""
""fullscreenenter"",""1"",""4649""
","""event"",""trial"",""time""
""fullscreenexit"",""2"",""8465""
","","","274","","","24","7575","3891","&#9784;","elianto","#FFFFF080"," "," ","1","&#10004","[1124]","1","0","0","","","","","","","",""
"pit-trial","12","150398","0.0-2.0-4.4-0.4","battery-v0.2","","""event"",""trial"",""time""
""focus"",""0"",""1""
""fullscreenenter"",""1"",""4649""
""blur"",""2"",""8052""
""focus"",""2"",""8452""
""fullscreenexit"",""2"",""8465""
","""event"",""trial"",""time""
""blur"",""2"",""8052""
","""event"",""trial"",""time""
""focus"",""0"",""1""
""focus"",""2"",""8452""
","""event"",""trial"",""time""
""fullscreenenter"",""1"",""4649""
","""event"",""trial"",""time""
""fullscreenexit"",""2"",""8465""
","","","506","","","24","7575","3891","&#9784;","elianto","#FFFFF080"," "," ","1","&#10004","[1360]","1","0","0","","","","","","","",""
"pit-instructions","13","177270","0.0-2.0-5.0","battery-v0.2","","""event"",""trial"",""time""
""focus"",""0"",""1""
""fullscreenenter"",""1"",""4649""
""blur"",""2"",""8052""
""focus"",""2"",""8452""
""fullscreenexit"",""2"",""8465""
","""event"",""trial"",""time""
""blur"",""2"",""8052""
","""event"",""trial"",""time""
""focus"",""0"",""1""
""focus"",""2"",""8452""
","""event"",""trial"",""time""
""fullscreenenter"",""1"",""4649""
","""event"",""trial"",""time""
""fullscreenexit"",""2"",""8465""
","","[{""page_index"":0,""viewing_time"":9629},{""page_index"":1,""viewing_time"":6516},{""page_index"":2,""viewing_time"":4818},{""page_index"":3,""viewing_time"":5900}]","26863","","","","","","","","","","","","","","","","","","","","","","","",""
"pit-trial","14","182136","0.0-2.0-6.0-0.0","battery-v0.2","","""event"",""trial"",""time""
""focus"",""0"",""1""
""fullscreenenter"",""1"",""4649""
""blur"",""2"",""8052""
""focus"",""2"",""8452""
""fullscreenexit"",""2"",""8465""
","""event"",""trial"",""time""
""blur"",""2"",""8052""
","""event"",""trial"",""time""
""focus"",""0"",""1""
""focus"",""2"",""8452""
","""event"",""trial"",""time""
""fullscreenenter"",""1"",""4649""
","""event"",""trial"",""time""
""fullscreenexit"",""2"",""8465""
","","","-1","","","24","7575","3891","&#9854;","elianto","#FFFFF080","-1","-1","1","&#10004","[]","0","0","1","","","","","","","",""
"pit-trial","15","186982","0.0-2.0-6.1-0.1","battery-v0.2","","""event"",""trial"",""time""
""focus"",""0"",""1""
""fullscreenenter"",""1"",""4649""
""blur"",""2"",""8052""
""focus"",""2"",""8452""
""fullscreenexit"",""2"",""8465""
","""event"",""trial"",""time""
""blur"",""2"",""8052""
","""event"",""trial"",""time""
""focus"",""0"",""1""
""focus"",""2"",""8452""
","""event"",""trial"",""time""
""fullscreenenter"",""1"",""4649""
","""event"",""trial"",""time""
""fullscreenexit"",""2"",""8465""
","","","1987","","","24","7575","3891","&#9854;","elianto","#FFFFF080","-1"," ","0","&#10060","[2836]","1","0","1","","","","","","","",""
"pit-trial","16","191843","0.0-2.0-6.2-0.2","battery-v0.2","","""event"",""trial"",""time""
""focus"",""0"",""1""
""fullscreenenter"",""1"",""4649""
""blur"",""2"",""8052""
""focus"",""2"",""8452""
""fullscreenexit"",""2"",""8465""
","""event"",""trial"",""time""
""blur"",""2"",""8052""
","""event"",""trial"",""time""
""focus"",""0"",""1""
""focus"",""2"",""8452""
","""event"",""trial"",""time""
""fullscreenenter"",""1"",""4649""
","""event"",""trial"",""time""
""fullscreenexit"",""2"",""8465""
","","","-1","","","24","7575","3891","&#9854;","elianto","#FFFFF080","-1","-1","1","&#10004","[]","0","0","1","","","","","","","",""
"pit-trial","17","196708","0.0-2.0-6.3-0.3","battery-v0.2","","""event"",""trial"",""time""
""focus"",""0"",""1""
""fullscreenenter"",""1"",""4649""
""blur"",""2"",""8052""
""focus"",""2"",""8452""
""fullscreenexit"",""2"",""8465""
","""event"",""trial"",""time""
""blur"",""2"",""8052""
","""event"",""trial"",""time""
""focus"",""0"",""1""
""focus"",""2"",""8452""
","""event"",""trial"",""time""
""fullscreenenter"",""1"",""4649""
","""event"",""trial"",""time""
""fullscreenexit"",""2"",""8465""
","","","-1","","","24","7575","3891","&#9854;","elianto","#FFFFF080","-1","-1","1","&#10004","[]","0","0","1","","","","","","","",""
"pit-trial","18","201569","0.0-2.0-6.4-0.4","battery-v0.2","","""event"",""trial"",""time""
""focus"",""0"",""1""
""fullscreenenter"",""1"",""4649""
""blur"",""2"",""8052""
""focus"",""2"",""8452""
""fullscreenexit"",""2"",""8465""
","""event"",""trial"",""time""
""blur"",""2"",""8052""
","""event"",""trial"",""time""
""focus"",""0"",""1""
""focus"",""2"",""8452""
","""event"",""trial"",""time""
""fullscreenenter"",""1"",""4649""
","""event"",""trial"",""time""
""fullscreenexit"",""2"",""8465""
","","","-1","","","24","7575","3891","&#9854;","elianto","#FFFFF080","-1","-1","1","&#10004","[]","0","0","1","","","","","","","",""
"pit-instructions","19","328917","0.0-2.0-7.0","battery-v0.2","","""event"",""trial"",""time""
""focus"",""0"",""1""
""fullscreenenter"",""1"",""4649""
""blur"",""2"",""8052""
""focus"",""2"",""8452""
""fullscreenexit"",""2"",""8465""
","""event"",""trial"",""time""
""blur"",""2"",""8052""
","""event"",""trial"",""time""
""focus"",""0"",""1""
""focus"",""2"",""8452""
","""event"",""trial"",""time""
""fullscreenenter"",""1"",""4649""
","""event"",""trial"",""time""
""fullscreenexit"",""2"",""8465""
","","[{""page_index"":0,""viewing_time"":6444},{""page_index"":1,""viewing_time"":7598},{""page_index"":2,""viewing_time"":9724},{""page_index"":3,""viewing_time"":6944},{""page_index"":4,""viewing_time"":6966},{""page_index"":5,""viewing_time"":9933},{""page_index"":6,""viewing_time"":5202},{""page_index"":7,""viewing_time"":7816},{""page_index"":8,""viewing_time"":8116},{""page_index"":9,""viewing_time"":6067},{""page_index"":10,""viewing_time"":6383},{""page_index"":11,""viewing_time"":4267},{""page_index"":12,""viewing_time"":7384},{""page_index"":13,""viewing_time"":6883},{""page_index"":14,""viewing_time"":7233},{""page_index"":15,""viewing_time"":6184},{""page_index"":16,""viewing_time"":7301},{""page_index"":17,""viewing_time"":6898}]","127344","","","","","","","","","","","","","","","","","","","","","","","",""
"pit-trial","20","332382","0.0-2.0-8.0-0.0","battery-v0.2","","""event"",""trial"",""time""
""focus"",""0"",""1""
""fullscreenenter"",""1"",""4649""
""blur"",""2"",""8052""
""focus"",""2"",""8452""
""fullscreenexit"",""2"",""8465""
","""event"",""trial"",""time""
""blur"",""2"",""8052""
","""event"",""trial"",""time""
""focus"",""0"",""1""
""focus"",""2"",""8452""
","""event"",""trial"",""time""
""fullscreenenter"",""1"",""4649""
","""event"",""trial"",""time""
""fullscreenexit"",""2"",""8465""
","","","603","","","24","7575","3891","&#9776;","elianto","#3366ff99"," "," ","1","+10","[1454]","1","0","1","","","","","","","",""
"pit-trial","21","335876","0.0-2.0-8.0-1.0","battery-v0.2","","""event"",""trial"",""time""
""focus"",""0"",""1""
""fullscreenenter"",""1"",""4649""
""blur"",""2"",""8052""
""focus"",""2"",""8452""
""fullscreenexit"",""2"",""8465""
","""event"",""trial"",""time""
""blur"",""2"",""8052""
","""event"",""trial"",""time""
""focus"",""0"",""1""
""focus"",""2"",""8452""
","""event"",""trial"",""time""
""fullscreenenter"",""1"",""4649""
","""event"",""trial"",""time""
""fullscreenexit"",""2"",""8465""
","","","633","","","24","7575","3891","&#9776;","elianto","#3366ff99"," "," ","1","+10","[1486]","1","0","1","","","","","","","",""
"pit-trial","22","339242","0.0-2.0-8.0-2.0","battery-v0.2","","""event"",""trial"",""time""
""focus"",""0"",""1""
""fullscreenenter"",""1"",""4649""
""blur"",""2"",""8052""
""focus"",""2"",""8452""
""fullscreenexit"",""2"",""8465""
","""event"",""trial"",""time""
""blur"",""2"",""8052""
","""event"",""trial"",""time""
""focus"",""0"",""1""
""focus"",""2"",""8452""
","""event"",""trial"",""time""
""fullscreenenter"",""1"",""4649""
","""event"",""trial"",""time""
""fullscreenexit"",""2"",""8465""
","","","511","","","24","7575","3891","&#9776;","elianto","#3366ff99"," "," ","1","+10","[1361]","1","0","1","","","","","","","",""
"pit-trial","23","342654","0.0-2.0-8.0-3.0","battery-v0.2","","""event"",""trial"",""time""
""focus"",""0"",""1""
""fullscreenenter"",""1"",""4649""
""blur"",""2"",""8052""
""focus"",""2"",""8452""
""fullscreenexit"",""2"",""8465""
","""event"",""trial"",""time""
""blur"",""2"",""8052""
","""event"",""trial"",""time""
""focus"",""0"",""1""
""focus"",""2"",""8452""
","""event"",""trial"",""time""
""fullscreenenter"",""1"",""4649""
","""event"",""trial"",""time""
""fullscreenexit"",""2"",""8465""
","","","551","","","24","7575","3891","&#9776;","elianto","#3366ff99"," "," ","1","0","[1403]","1","0","1","","","","","","","",""
"pit-trial","24","346001","0.0-2.0-8.0-4.0","battery-v0.2","","""event"",""trial"",""time""
""focus"",""0"",""1""
""fullscreenenter"",""1"",""4649""
""blur"",""2"",""8052""
""focus"",""2"",""8452""
""fullscreenexit"",""2"",""8465""
","""event"",""trial"",""time""
""blur"",""2"",""8052""
","""event"",""trial"",""time""
""focus"",""0"",""1""
""focus"",""2"",""8452""
","""event"",""trial"",""time""
""fullscreenenter"",""1"",""4649""
","""event"",""trial"",""time""
""fullscreenexit"",""2"",""8465""
","","","482","","","24","7575","3891","&#9776;","elianto","#3366ff99"," "," ","1","+10","[1337]","1","0","1","","","","","","","",""
"pit-trial","25","349420","0.0-2.0-8.1-0.1","battery-v0.2","","""event"",""trial"",""time""
""focus"",""0"",""1""
""fullscreenenter"",""1"",""4649""
""blur"",""2"",""8052""
""focus"",""2"",""8452""
""fullscreenexit"",""2"",""8465""
","""event"",""trial"",""time""
""blur"",""2"",""8052""
","""event"",""trial"",""time""
""focus"",""0"",""1""
""focus"",""2"",""8452""
","""event"",""trial"",""time""
""fullscreenenter"",""1"",""4649""
","""event"",""trial"",""time""
""fullscreenexit"",""2"",""8465""
","","","561","","","24","7575","3891","&#9776;","elianto","#3366ff99"," "," ","1","+10","[1412]","1","0","1","","","","","","","",""
"pit-trial","26","352711","0.0-2.0-8.1-1.1","battery-v0.2","","""event"",""trial"",""time""
""focus"",""0"",""1""
""fullscreenenter"",""1"",""4649""
""blur"",""2"",""8052""
""focus"",""2"",""8452""
""fullscreenexit"",""2"",""8465""
","""event"",""trial"",""time""
""blur"",""2"",""8052""
","""event"",""trial"",""time""
""focus"",""0"",""1""
""focus"",""2"",""8452""
","""event"",""trial"",""time""
""fullscreenenter"",""1"",""4649""
","""event"",""trial"",""time""
""fullscreenexit"",""2"",""8465""
","","","432","","","24","7575","3891","&#9776;","elianto","#3366ff99"," "," ","1","+10","[1283]","1","0","1","","","","","","","",""
"pit-trial","27","355954","0.0-2.0-8.1-2.1","battery-v0.2","","""event"",""trial"",""time""
""focus"",""0"",""1""
""fullscreenenter"",""1"",""4649""
""blur"",""2"",""8052""
""focus"",""2"",""8452""
""fullscreenexit"",""2"",""8465""
","""event"",""trial"",""time""
""blur"",""2"",""8052""
","""event"",""trial"",""time""
""focus"",""0"",""1""
""focus"",""2"",""8452""
","""event"",""trial"",""time""
""fullscreenenter"",""1"",""4649""
","""event"",""trial"",""time""
""fullscreenexit"",""2"",""8465""
","","","386","","","24","7575","3891","&#9776;","elianto","#3366ff99"," "," ","1","+10","[1237]","1","0","1","","","","","","","",""
"pit-trial","28","359171","0.0-2.0-8.1-3.1","battery-v0.2","","""event"",""trial"",""time""
""focus"",""0"",""1""
""fullscreenenter"",""1"",""4649""
""blur"",""2"",""8052""
""focus"",""2"",""8452""
""fullscreenexit"",""2"",""8465""
","""event"",""trial"",""time""
""blur"",""2"",""8052""
","""event"",""trial"",""time""
""focus"",""0"",""1""
""focus"",""2"",""8452""
","""event"",""trial"",""time""
""fullscreenenter"",""1"",""4649""
","""event"",""trial"",""time""
""fullscreenexit"",""2"",""8465""
","","","355","","","24","7575","3891","&#9776;","elianto","#3366ff99"," "," ","1","0","[1208]","1","0","1","","","","","","","",""
"pit-trial","29","362314","0.0-2.0-8.1-4.1","battery-v0.2","","""event"",""trial"",""time""
""focus"",""0"",""1""
""fullscreenenter"",""1"",""4649""
""blur"",""2"",""8052""
""focus"",""2"",""8452""
""fullscreenexit"",""2"",""8465""
","""event"",""trial"",""time""
""blur"",""2"",""8052""
","""event"",""trial"",""time""
""focus"",""0"",""1""
""focus"",""2"",""8452""
","""event"",""trial"",""time""
""fullscreenenter"",""1"",""4649""
","""event"",""trial"",""time""
""fullscreenexit"",""2"",""8465""
","","","290","","","24","7575","3891","&#9776;","elianto","#3366ff99"," "," ","1","+10","[1140]","1","0","1","","","","","","","",""
"pit-trial","30","365442","0.0-2.0-8.2-0.2","battery-v0.2","","""event"",""trial"",""time""
""focus"",""0"",""1""
""fullscreenenter"",""1"",""4649""
""blur"",""2"",""8052""
""focus"",""2"",""8452""
""fullscreenexit"",""2"",""8465""
","""event"",""trial"",""time""
""blur"",""2"",""8052""
","""event"",""trial"",""time""
""focus"",""0"",""1""
""focus"",""2"",""8452""
","""event"",""trial"",""time""
""fullscreenenter"",""1"",""4649""
","""event"",""trial"",""time""
""fullscreenexit"",""2"",""8465""
","","","274","","","24","7575","3891","&#9776;","elianto","#3366ff99"," "," ","1","+10","[1124]","1","0","1","","","","","","","",""
"pit-trial","31","368504","0.0-2.0-8.2-1.2","battery-v0.2","","""event"",""trial"",""time""
""focus"",""0"",""1""
""fullscreenenter"",""1"",""4649""
""blur"",""2"",""8052""
""focus"",""2"",""8452""
""fullscreenexit"",""2"",""8465""
","""event"",""trial"",""time""
""blur"",""2"",""8052""
","""event"",""trial"",""time""
""focus"",""0"",""1""
""focus"",""2"",""8452""
","""event"",""trial"",""time""
""fullscreenenter"",""1"",""4649""
","""event"",""trial"",""time""
""fullscreenexit"",""2"",""8465""
","","","203","","","24","7575","3891","&#9776;","elianto","#3366ff99"," "," ","1","+10","[1057]","1","0","1","","","","","","","",""
"pit-trial","32","371707","0.0-2.0-8.2-2.2","battery-v0.2","","""event"",""trial"",""time""
""focus"",""0"",""1""
""fullscreenenter"",""1"",""4649""
""blur"",""2"",""8052""
""focus"",""2"",""8452""
""fullscreenexit"",""2"",""8465""
","""event"",""trial"",""time""
""blur"",""2"",""8052""
","""event"",""trial"",""time""
""focus"",""0"",""1""
""focus"",""2"",""8452""
","""event"",""trial"",""time""
""fullscreenenter"",""1"",""4649""
","""event"",""trial"",""time""
""fullscreenexit"",""2"",""8465""
","","","346","","","24","7575","3891","&#9776;","elianto","#3366ff99"," "," ","1","+10","[1196]","1","0","1","","","","","","","",""
"pit-trial","33","374724","0.0-2.0-8.2-3.2","battery-v0.2","","""event"",""trial"",""time""
""focus"",""0"",""1""
""fullscreenenter"",""1"",""4649""
""blur"",""2"",""8052""
""focus"",""2"",""8452""
""fullscreenexit"",""2"",""8465""
","""event"",""trial"",""time""
""blur"",""2"",""8052""
","""event"",""trial"",""time""
""focus"",""0"",""1""
""focus"",""2"",""8452""
","""event"",""trial"",""time""
""fullscreenenter"",""1"",""4649""
","""event"",""trial"",""time""
""fullscreenexit"",""2"",""8465""
","","","159","","","24","7575","3891","&#9776;","elianto","#3366ff99"," "," ","1","0","[1010]","1","0","1","","","","","","","",""
"pit-trial","34","377942","0.0-2.0-8.2-4.2","battery-v0.2","","""event"",""trial"",""time""
""focus"",""0"",""1""
""fullscreenenter"",""1"",""4649""
""blur"",""2"",""8052""
""focus"",""2"",""8452""
""fullscreenexit"",""2"",""8465""
","""event"",""trial"",""time""
""blur"",""2"",""8052""
","""event"",""trial"",""time""
""focus"",""0"",""1""
""focus"",""2"",""8452""
","""event"",""trial"",""time""
""fullscreenenter"",""1"",""4649""
","""event"",""trial"",""time""
""fullscreenexit"",""2"",""8465""
","","","358","","","24","7575","3891","&#9776;","elianto","#3366ff99"," "," ","1","+10","[1209]","1","0","1","","","","","","","",""
"call-function","35","377946","0.0-2.0-9.0","battery-v0.2","","""event"",""trial"",""time""
""focus"",""0"",""1""
""fullscreenenter"",""1"",""4649""
""blur"",""2"",""8052""
""focus"",""2"",""8452""
""fullscreenexit"",""2"",""8465""
","""event"",""trial"",""time""
""blur"",""2"",""8052""
","""event"",""trial"",""time""
""focus"",""0"",""1""
""focus"",""2"",""8452""
","""event"",""trial"",""time""
""fullscreenenter"",""1"",""4649""
","""event"",""trial"",""time""
""fullscreenexit"",""2"",""8465""
","","","","","","","","","","","","","","","","","","","","","","","","","","",""
"pit-instructions","36","422119","0.0-2.0-10.0","battery-v0.2","","""event"",""trial"",""time""
""focus"",""0"",""1""
""fullscreenenter"",""1"",""4649""
""blur"",""2"",""8052""
""focus"",""2"",""8452""
""fullscreenexit"",""2"",""8465""
","""event"",""trial"",""time""
""blur"",""2"",""8052""
","""event"",""trial"",""time""
""focus"",""0"",""1""
""focus"",""2"",""8452""
","""event"",""trial"",""time""
""fullscreenenter"",""1"",""4649""
","""event"",""trial"",""time""
""fullscreenexit"",""2"",""8465""
","","[{""page_index"":0,""viewing_time"":10887},{""page_index"":1,""viewing_time"":7666},{""page_index"":2,""viewing_time"":9350},{""page_index"":3,""viewing_time"":8767},{""page_index"":4,""viewing_time"":7500}]","44171","","","","","","","","","","","","","","","","","","","","","","","",""
"pit-trial","37","425499","0.0-2.0-11.0-0.0","battery-v0.2","","""event"",""trial"",""time""
""focus"",""0"",""1""
""fullscreenenter"",""1"",""4649""
""blur"",""2"",""8052""
""focus"",""2"",""8452""
""fullscreenexit"",""2"",""8465""
","""event"",""trial"",""time""
""blur"",""2"",""8052""
","""event"",""trial"",""time""
""focus"",""0"",""1""
""focus"",""2"",""8452""
","""event"",""trial"",""time""
""fullscreenenter"",""1"",""4649""
","""event"",""trial"",""time""
""fullscreenexit"",""2"",""8465""
","","","516","","","24","7575","3891","&#9761;","elianto","#3366ff99","-1"," ","0","0","[1366]","1","0","2","","","","","","","",""
"pit-trial","38","428539","0.0-2.0-11.0-1.0","battery-v0.2","","""event"",""trial"",""time""
""focus"",""0"",""1""
""fullscreenenter"",""1"",""4649""
""blur"",""2"",""8052""
""focus"",""2"",""8452""
""fullscreenexit"",""2"",""8465""
","""event"",""trial"",""time""
""blur"",""2"",""8052""
","""event"",""trial"",""time""
""focus"",""0"",""1""
""focus"",""2"",""8452""
","""event"",""trial"",""time""
""fullscreenenter"",""1"",""4649""
","""event"",""trial"",""time""
""fullscreenexit"",""2"",""8465""
","","","177","","","24","7575","3891","&#9761;","elianto","#3366ff99","-1"," ","0","0","[1031]","1","0","2","","","","","","","",""
"pit-trial","39","432148","0.0-2.0-11.0-2.0","battery-v0.2","","""event"",""trial"",""time""
""focus"",""0"",""1""
""fullscreenenter"",""1"",""4649""
""blur"",""2"",""8052""
""focus"",""2"",""8452""
""fullscreenexit"",""2"",""8465""
","""event"",""trial"",""time""
""blur"",""2"",""8052""
","""event"",""trial"",""time""
""focus"",""0"",""1""
""focus"",""2"",""8452""
","""event"",""trial"",""time""
""fullscreenenter"",""1"",""4649""
","""event"",""trial"",""time""
""fullscreenexit"",""2"",""8465""
","","","746","","","24","7575","3891","&#9761;","elianto","#3366ff99","-1"," ","0","0","[1599]","1","0","2","","","","","","","",""
"pit-trial","40","436139","0.0-2.0-11.0-3.0","battery-v0.2","","""event"",""trial"",""time""
""focus"",""0"",""1""
""fullscreenenter"",""1"",""4649""
""blur"",""2"",""8052""
""focus"",""2"",""8452""
""fullscreenexit"",""2"",""8465""
","""event"",""trial"",""time""
""blur"",""2"",""8052""
","""event"",""trial"",""time""
""focus"",""0"",""1""
""focus"",""2"",""8452""
","""event"",""trial"",""time""
""fullscreenenter"",""1"",""4649""
","""event"",""trial"",""time""
""fullscreenexit"",""2"",""8465""
","","","1129","","","24","7575","3891","&#9761;","elianto","#3366ff99","-1"," ","0","+10","[1984]","1","0","2","","","","","","","",""
"pit-trial","41","439540","0.0-2.0-11.0-4.0","battery-v0.2","","""event"",""trial"",""time""
""focus"",""0"",""1""
""fullscreenenter"",""1"",""4649""
""blur"",""2"",""8052""
""focus"",""2"",""8452""
""fullscreenexit"",""2"",""8465""
","""event"",""trial"",""time""
""blur"",""2"",""8052""
","""event"",""trial"",""time""
""focus"",""0"",""1""
""focus"",""2"",""8452""
","""event"",""trial"",""time""
""fullscreenenter"",""1"",""4649""
","""event"",""trial"",""time""
""fullscreenexit"",""2"",""8465""
","","","546","","","24","7575","3891","&#9761;","elianto","#3366ff99","-1"," ","0","0","[1395]","1","0","2","","","","","","","",""
"pit-trial","42","443218","0.0-2.0-11.1-0.1","battery-v0.2","","""event"",""trial"",""time""
""focus"",""0"",""1""
""fullscreenenter"",""1"",""4649""
""blur"",""2"",""8052""
""focus"",""2"",""8452""
""fullscreenexit"",""2"",""8465""
","""event"",""trial"",""time""
""blur"",""2"",""8052""
","""event"",""trial"",""time""
""focus"",""0"",""1""
""focus"",""2"",""8452""
","""event"",""trial"",""time""
""fullscreenenter"",""1"",""4649""
","""event"",""trial"",""time""
""fullscreenexit"",""2"",""8465""
","","","817","","","24","7575","3891","&#9761;","elianto","#3366ff99","-1"," ","0","0","[1667]","1","0","2","","","","","","","",""
"pit-trial","43","446494","0.0-2.0-11.1-1.1","battery-v0.2","","""event"",""trial"",""time""
""focus"",""0"",""1""
""fullscreenenter"",""1"",""4649""
""blur"",""2"",""8052""
""focus"",""2"",""8452""
""fullscreenexit"",""2"",""8465""
","""event"",""trial"",""time""
""blur"",""2"",""8052""
","""event"",""trial"",""time""
""focus"",""0"",""1""
""focus"",""2"",""8452""
","""event"",""trial"",""time""
""fullscreenenter"",""1"",""4649""
","""event"",""trial"",""time""
""fullscreenexit"",""2"",""8465""
","","","413","","","24","7575","3891","&#9761;","elianto","#3366ff99","-1"," ","0","0","[1265]","1","0","2","","","","","","","",""
"pit-trial","44","449611","0.0-2.0-11.1-2.1","battery-v0.2","","""event"",""trial"",""time""
""focus"",""0"",""1""
""fullscreenenter"",""1"",""4649""
""blur"",""2"",""8052""
""focus"",""2"",""8452""
""fullscreenexit"",""2"",""8465""
","""event"",""trial"",""time""
""blur"",""2"",""8052""
","""event"",""trial"",""time""
""focus"",""0"",""1""
""focus"",""2"",""8452""
","""event"",""trial"",""time""
""fullscreenenter"",""1"",""4649""
","""event"",""trial"",""time""
""fullscreenexit"",""2"",""8465""
","","","260","","","24","7575","3891","&#9761;","elianto","#3366ff99","-1"," ","0","0","[1111]","1","0","2","","","","","","","",""
"pit-trial","45","452905","0.0-2.0-11.1-3.1","battery-v0.2","","""event"",""trial"",""time""
""focus"",""0"",""1""
""fullscreenenter"",""1"",""4649""
""blur"",""2"",""8052""
""focus"",""2"",""8452""
""fullscreenexit"",""2"",""8465""
","""event"",""trial"",""time""
""blur"",""2"",""8052""
","""event"",""trial"",""time""
""focus"",""0"",""1""
""focus"",""2"",""8452""
","""event"",""trial"",""time""
""fullscreenenter"",""1"",""4649""
","""event"",""trial"",""time""
""fullscreenexit"",""2"",""8465""
","","","426","","","24","7575","3891","&#9761;","elianto","#3366ff99","-1"," ","0","+10","[1278,2437]","2","0","2","","","","","","","",""
"pit-trial","46","456075","0.0-2.0-11.1-4.1","battery-v0.2","","""event"",""trial"",""time""
""focus"",""0"",""1""
""fullscreenenter"",""1"",""4649""
""blur"",""2"",""8052""
""focus"",""2"",""8452""
""fullscreenexit"",""2"",""8465""
","""event"",""trial"",""time""
""blur"",""2"",""8052""
","""event"",""trial"",""time""
""focus"",""0"",""1""
""focus"",""2"",""8452""
","""event"",""trial"",""time""
""fullscreenenter"",""1"",""4649""
","""event"",""trial"",""time""
""fullscreenexit"",""2"",""8465""
","","","311","","","24","7575","3891","&#9761;","elianto","#3366ff99","-1"," ","0","0","[1162]","1","0","2","","","","","","","",""
"pit-trial","47","459464","0.0-2.0-11.2-0.2","battery-v0.2","","""event"",""trial"",""time""
""focus"",""0"",""1""
""fullscreenenter"",""1"",""4649""
""blur"",""2"",""8052""
""focus"",""2"",""8452""
""fullscreenexit"",""2"",""8465""
","""event"",""trial"",""time""
""blur"",""2"",""8052""
","""event"",""trial"",""time""
""focus"",""0"",""1""
""focus"",""2"",""8452""
","""event"",""trial"",""time""
""fullscreenenter"",""1"",""4649""
","""event"",""trial"",""time""
""fullscreenexit"",""2"",""8465""
","","","525","","","24","7575","3891","&#9761;","elianto","#3366ff99","-1"," ","0","0","[788,1376]","2","0","2","","","","","","","",""
"pit-trial","48","462522","0.0-2.0-11.2-1.2","battery-v0.2","","""event"",""trial"",""time""
""focus"",""0"",""1""
""fullscreenenter"",""1"",""4649""
""blur"",""2"",""8052""
""focus"",""2"",""8452""
""fullscreenexit"",""2"",""8465""
","""event"",""trial"",""time""
""blur"",""2"",""8052""
","""event"",""trial"",""time""
""focus"",""0"",""1""
""focus"",""2"",""8452""
","""event"",""trial"",""time""
""fullscreenenter"",""1"",""4649""
","""event"",""trial"",""time""
""fullscreenexit"",""2"",""8465""
","","","203","","","24","7575","3891","&#9761;","elianto","#3366ff99","-1"," ","0","0","[1054]","1","0","2","","","","","","","",""
"pit-trial","49","465616","0.0-2.0-11.2-2.2","battery-v0.2","","""event"",""trial"",""time""
""focus"",""0"",""1""
""fullscreenenter"",""1"",""4649""
""blur"",""2"",""8052""
""focus"",""2"",""8452""
""fullscreenexit"",""2"",""8465""
","""event"",""trial"",""time""
""blur"",""2"",""8052""
","""event"",""trial"",""time""
""focus"",""0"",""1""
""focus"",""2"",""8452""
","""event"",""trial"",""time""
""fullscreenenter"",""1"",""4649""
","""event"",""trial"",""time""
""fullscreenexit"",""2"",""8465""
","","","233","","","24","7575","3891","&#9761;","elianto","#3366ff99","-1"," ","0","0","[1084,2975]","2","0","2","","","","","","","",""
"pit-trial","50","468828","0.0-2.0-11.2-3.2","battery-v0.2","","""event"",""trial"",""time""
""focus"",""0"",""1""
""fullscreenenter"",""1"",""4649""
""blur"",""2"",""8052""
""focus"",""2"",""8452""
""fullscreenexit"",""2"",""8465""
","""event"",""trial"",""time""
""blur"",""2"",""8052""
","""event"",""trial"",""time""
""focus"",""0"",""1""
""focus"",""2"",""8452""
","""event"",""trial"",""time""
""fullscreenenter"",""1"",""4649""
","""event"",""trial"",""time""
""fullscreenexit"",""2"",""8465""
","","","354","","","24","7575","3891","&#9761;","elianto","#3366ff99","-1"," ","0","+10","[1205]","1","0","2","","","","","","","",""
"pit-trial","51","472163","0.0-2.0-11.2-4.2","battery-v0.2","","""event"",""trial"",""time""
""focus"",""0"",""1""
""fullscreenenter"",""1"",""4649""
""blur"",""2"",""8052""
""focus"",""2"",""8452""
""fullscreenexit"",""2"",""8465""
","""event"",""trial"",""time""
""blur"",""2"",""8052""
","""event"",""trial"",""time""
""focus"",""0"",""1""
""focus"",""2"",""8452""
","""event"",""trial"",""time""
""fullscreenenter"",""1"",""4649""
","""event"",""trial"",""time""
""fullscreenexit"",""2"",""8465""
","","","474","","","24","7575","3891","&#9761;","elianto","#3366ff99","-1"," ","0","0","[1324]","1","0","2","","","","","","","",""
"pit-trial","52","475496","0.0-2.0-11.3-0.3","battery-v0.2","","""event"",""trial"",""time""
""focus"",""0"",""1""
""fullscreenenter"",""1"",""4649""
""blur"",""2"",""8052""
""focus"",""2"",""8452""
""fullscreenexit"",""2"",""8465""
","""event"",""trial"",""time""
""blur"",""2"",""8052""
","""event"",""trial"",""time""
""focus"",""0"",""1""
""focus"",""2"",""8452""
","""event"",""trial"",""time""
""fullscreenenter"",""1"",""4649""
","""event"",""trial"",""time""
""fullscreenexit"",""2"",""8465""
","","","473","","","24","7575","3891","&#9761;","elianto","#3366ff99","-1"," ","0","0","[1324,2420]","2","0","2","","","","","","","",""
"pit-trial","53","480357","0.0-2.0-11.3-1.3","battery-v0.2","","""event"",""trial"",""time""
""focus"",""0"",""1""
""fullscreenenter"",""1"",""4649""
""blur"",""2"",""8052""
""focus"",""2"",""8452""
""fullscreenexit"",""2"",""8465""
","""event"",""trial"",""time""
""blur"",""2"",""8052""
","""event"",""trial"",""time""
""focus"",""0"",""1""
""focus"",""2"",""8452""
","""event"",""trial"",""time""
""fullscreenenter"",""1"",""4649""
","""event"",""trial"",""time""
""fullscreenexit"",""2"",""8465""
","","","-1","","","24","7575","3891","&#9761;","elianto","#3366ff99","-1","-1","1","+10","[]","0","0","2","","","","","","","",""
"pit-trial","54","485215","0.0-2.0-11.3-2.3","battery-v0.2","","""event"",""trial"",""time""
""focus"",""0"",""1""
""fullscreenenter"",""1"",""4649""
""blur"",""2"",""8052""
""focus"",""2"",""8452""
""fullscreenexit"",""2"",""8465""
","""event"",""trial"",""time""
""blur"",""2"",""8052""
","""event"",""trial"",""time""
""focus"",""0"",""1""
""focus"",""2"",""8452""
","""event"",""trial"",""time""
""fullscreenenter"",""1"",""4649""
","""event"",""trial"",""time""
""fullscreenexit"",""2"",""8465""
","","","-1","","","24","7575","3891","&#9761;","elianto","#3366ff99","-1","-1","1","+10","[]","0","0","2","","","","","","","",""
"pit-trial","55","488466","0.0-2.0-11.3-3.3","battery-v0.2","","""event"",""trial"",""time""
""focus"",""0"",""1""
""fullscreenenter"",""1"",""4649""
""blur"",""2"",""8052""
""focus"",""2"",""8452""
""fullscreenexit"",""2"",""8465""
","""event"",""trial"",""time""
""blur"",""2"",""8052""
","""event"",""trial"",""time""
""focus"",""0"",""1""
""focus"",""2"",""8452""
","""event"",""trial"",""time""
""fullscreenenter"",""1"",""4649""
","""event"",""trial"",""time""
""fullscreenexit"",""2"",""8465""
","","","387","","","24","7575","3891","&#9761;","elianto","#3366ff99","-1"," ","0","+10","[1240]","1","0","2","","","","","","","",""
"pit-trial","56","491852","0.0-2.0-11.3-4.3","battery-v0.2","","""event"",""trial"",""time""
""focus"",""0"",""1""
""fullscreenenter"",""1"",""4649""
""blur"",""2"",""8052""
""focus"",""2"",""8452""
""fullscreenexit"",""2"",""8465""
","""event"",""trial"",""time""
""blur"",""2"",""8052""
","""event"",""trial"",""time""
""focus"",""0"",""1""
""focus"",""2"",""8452""
","""event"",""trial"",""time""
""fullscreenenter"",""1"",""4649""
","""event"",""trial"",""time""
""fullscreenexit"",""2"",""8465""
","","","523","","","24","7575","3891","&#9761;","elianto","#3366ff99","-1"," ","0","0","[1374]","1","0","2","","","","","","","",""
"call-function","57","491854","0.0-2.0-12.0","battery-v0.2","","""event"",""trial"",""time""
""focus"",""0"",""1""
""fullscreenenter"",""1"",""4649""
""blur"",""2"",""8052""
""focus"",""2"",""8452""
""fullscreenexit"",""2"",""8465""
","""event"",""trial"",""time""
""blur"",""2"",""8052""
","""event"",""trial"",""time""
""focus"",""0"",""1""
""focus"",""2"",""8452""
","""event"",""trial"",""time""
""fullscreenenter"",""1"",""4649""
","""event"",""trial"",""time""
""fullscreenexit"",""2"",""8465""
","","","","","","","","","","","","","","","","","","","","","","","","","","",""
"pit-instructions","58","535449","0.0-2.0-13.0","battery-v0.2","","""event"",""trial"",""time""
""focus"",""0"",""1""
""fullscreenenter"",""1"",""4649""
""blur"",""2"",""8052""
""focus"",""2"",""8452""
""fullscreenexit"",""2"",""8465""
","""event"",""trial"",""time""
""blur"",""2"",""8052""
","""event"",""trial"",""time""
""focus"",""0"",""1""
""focus"",""2"",""8452""
","""event"",""trial"",""time""
""fullscreenenter"",""1"",""4649""
","""event"",""trial"",""time""
""fullscreenexit"",""2"",""8465""
","","[{""page_index"":0,""viewing_time"":10428},{""page_index"":1,""viewing_time"":12149},{""page_index"":2,""viewing_time"":3285},{""page_index"":3,""viewing_time"":13064},{""page_index"":4,""viewing_time"":4667}]","43593","","","","","","","","","","","","","","","","","","","","","","","",""
"pit-trial","59","538848","0.0-2.0-14.0-0.0","battery-v0.2","","""event"",""trial"",""time""
""focus"",""0"",""1""
""fullscreenenter"",""1"",""4649""
""blur"",""2"",""8052""
""focus"",""2"",""8452""
""fullscreenexit"",""2"",""8465""
","""event"",""trial"",""time""
""blur"",""2"",""8052""
","""event"",""trial"",""time""
""focus"",""0"",""1""
""focus"",""2"",""8452""
","""event"",""trial"",""time""
""fullscreenenter"",""1"",""4649""
","""event"",""trial"",""time""
""fullscreenexit"",""2"",""8465""
","","","536","","","24","7575","3891","&#9826;","elianto","#f73b6a7A","-1"," ","0","-10","[1391]","1","0","3","","","","","","","",""
"pit-trial","60","543708","0.0-2.0-14.0-1.0","battery-v0.2","","""event"",""trial"",""time""
""focus"",""0"",""1""
""fullscreenenter"",""1"",""4649""
""blur"",""2"",""8052""
""focus"",""2"",""8452""
""fullscreenexit"",""2"",""8465""
","""event"",""trial"",""time""
""blur"",""2"",""8052""
","""event"",""trial"",""time""
""focus"",""0"",""1""
""focus"",""2"",""8452""
","""event"",""trial"",""time""
""fullscreenenter"",""1"",""4649""
","""event"",""trial"",""time""
""fullscreenexit"",""2"",""8465""
","","","-1","","","24","7575","3891","&#9826;","elianto","#f73b6a7A","-1","-1","1","0","[]","0","0","3","","","","","","","",""
"pit-trial","61","548574","0.0-2.0-14.0-2.0","battery-v0.2","","""event"",""trial"",""time""
""focus"",""0"",""1""
""fullscreenenter"",""1"",""4649""
""blur"",""2"",""8052""
""focus"",""2"",""8452""
""fullscreenexit"",""2"",""8465""
","""event"",""trial"",""time""
""blur"",""2"",""8052""
","""event"",""trial"",""time""
""focus"",""0"",""1""
""focus"",""2"",""8452""
","""event"",""trial"",""time""
""fullscreenenter"",""1"",""4649""
","""event"",""trial"",""time""
""fullscreenexit"",""2"",""8465""
","","","-1","","","24","7575","3891","&#9826;","elianto","#f73b6a7A","-1","-1","1","0","[]","0","0","3","","","","","","","",""
"pit-trial","62","553438","0.0-2.0-14.0-3.0","battery-v0.2","","""event"",""trial"",""time""
""focus"",""0"",""1""
""fullscreenenter"",""1"",""4649""
""blur"",""2"",""8052""
""focus"",""2"",""8452""
""fullscreenexit"",""2"",""8465""
","""event"",""trial"",""time""
""blur"",""2"",""8052""
","""event"",""trial"",""time""
""focus"",""0"",""1""
""focus"",""2"",""8452""
","""event"",""trial"",""time""
""fullscreenenter"",""1"",""4649""
","""event"",""trial"",""time""
""fullscreenexit"",""2"",""8465""
","","","-1","","","24","7575","3891","&#9826;","elianto","#f73b6a7A","-1","-1","1","-10","[]","0","0","3","","","","","","","",""
"pit-trial","63","558299","0.0-2.0-14.0-4.0","battery-v0.2","","""event"",""trial"",""time""
""focus"",""0"",""1""
""fullscreenenter"",""1"",""4649""
""blur"",""2"",""8052""
""focus"",""2"",""8452""
""fullscreenexit"",""2"",""8465""
","""event"",""trial"",""time""
""blur"",""2"",""8052""
","""event"",""trial"",""time""
""focus"",""0"",""1""
""focus"",""2"",""8452""
","""event"",""trial"",""time""
""fullscreenenter"",""1"",""4649""
","""event"",""trial"",""time""
""fullscreenexit"",""2"",""8465""
","","","-1","","","24","7575","3891","&#9826;","elianto","#f73b6a7A","-1","-1","1","0","[]","0","0","3","","","","","","","",""
"pit-trial","64","563160","0.0-2.0-14.1-0.1","battery-v0.2","","""event"",""trial"",""time""
""focus"",""0"",""1""
""fullscreenenter"",""1"",""4649""
""blur"",""2"",""8052""
""focus"",""2"",""8452""
""fullscreenexit"",""2"",""8465""
","""event"",""trial"",""time""
""blur"",""2"",""8052""
","""event"",""trial"",""time""
""focus"",""0"",""1""
""focus"",""2"",""8452""
","""event"",""trial"",""time""
""fullscreenenter"",""1"",""4649""
","""event"",""trial"",""time""
""fullscreenexit"",""2"",""8465""
","","","-1","","","24","7575","3891","&#9826;","elianto","#f73b6a7A","-1","-1","1","0","[]","0","0","3","","","","","","","",""
"pit-trial","65","568022","0.0-2.0-14.1-1.1","battery-v0.2","","""event"",""trial"",""time""
""focus"",""0"",""1""
""fullscreenenter"",""1"",""4649""
""blur"",""2"",""8052""
""focus"",""2"",""8452""
""fullscreenexit"",""2"",""8465""
","""event"",""trial"",""time""
""blur"",""2"",""8052""
","""event"",""trial"",""time""
""focus"",""0"",""1""
""focus"",""2"",""8452""
","""event"",""trial"",""time""
""fullscreenenter"",""1"",""4649""
","""event"",""trial"",""time""
""fullscreenexit"",""2"",""8465""
","","","-1","","","24","7575","3891","&#9826;","elianto","#f73b6a7A","-1","-1","1","0","[]","0","0","3","","","","","","","",""
"pit-trial","66","572881","0.0-2.0-14.1-2.1","battery-v0.2","","""event"",""trial"",""time""
""focus"",""0"",""1""
""fullscreenenter"",""1"",""4649""
""blur"",""2"",""8052""
""focus"",""2"",""8452""
""fullscreenexit"",""2"",""8465""
","""event"",""trial"",""time""
""blur"",""2"",""8052""
","""event"",""trial"",""time""
""focus"",""0"",""1""
""focus"",""2"",""8452""
","""event"",""trial"",""time""
""fullscreenenter"",""1"",""4649""
","""event"",""trial"",""time""
""fullscreenexit"",""2"",""8465""
","","","-1","","","24","7575","3891","&#9826;","elianto","#f73b6a7A","-1","-1","1","0","[]","0","0","3","","","","","","","",""
"pit-trial","67","577743","0.0-2.0-14.1-3.1","battery-v0.2","","""event"",""trial"",""time""
""focus"",""0"",""1""
""fullscreenenter"",""1"",""4649""
""blur"",""2"",""8052""
""focus"",""2"",""8452""
""fullscreenexit"",""2"",""8465""
","""event"",""trial"",""time""
""blur"",""2"",""8052""
","""event"",""trial"",""time""
""focus"",""0"",""1""
""focus"",""2"",""8452""
","""event"",""trial"",""time""
""fullscreenenter"",""1"",""4649""
","""event"",""trial"",""time""
""fullscreenexit"",""2"",""8465""
","","","-1","","","24","7575","3891","&#9826;","elianto","#f73b6a7A","-1","-1","1","-10","[]","0","0","3","","","","","","","",""
"pit-trial","68","582603","0.0-2.0-14.1-4.1","battery-v0.2","","""event"",""trial"",""time""
""focus"",""0"",""1""
""fullscreenenter"",""1"",""4649""
""blur"",""2"",""8052""
""focus"",""2"",""8452""
""fullscreenexit"",""2"",""8465""
","""event"",""trial"",""time""
""blur"",""2"",""8052""
","""event"",""trial"",""time""
""focus"",""0"",""1""
""focus"",""2"",""8452""
","""event"",""trial"",""time""
""fullscreenenter"",""1"",""4649""
","""event"",""trial"",""time""
""fullscreenexit"",""2"",""8465""
","","","-1","","","24","7575","3891","&#9826;","elianto","#f73b6a7A","-1","-1","1","0","[]","0","0","3","","","","","","","",""
"pit-trial","69","587467","0.0-2.0-14.2-0.2","battery-v0.2","","""event"",""trial"",""time""
""focus"",""0"",""1""
""fullscreenenter"",""1"",""4649""
""blur"",""2"",""8052""
""focus"",""2"",""8452""
""fullscreenexit"",""2"",""8465""
","""event"",""trial"",""time""
""blur"",""2"",""8052""
","""event"",""trial"",""time""
""focus"",""0"",""1""
""focus"",""2"",""8452""
","""event"",""trial"",""time""
""fullscreenenter"",""1"",""4649""
","""event"",""trial"",""time""
""fullscreenexit"",""2"",""8465""
","","","-1","","","24","7575","3891","&#9826;","elianto","#f73b6a7A","-1","-1","1","0","[]","0","0","3","","","","","","","",""
"pit-trial","70","590979","0.0-2.0-14.2-1.2","battery-v0.2","","""event"",""trial"",""time""
""focus"",""0"",""1""
""fullscreenenter"",""1"",""4649""
""blur"",""2"",""8052""
""focus"",""2"",""8452""
""fullscreenexit"",""2"",""8465""
","""event"",""trial"",""time""
""blur"",""2"",""8052""
","""event"",""trial"",""time""
""focus"",""0"",""1""
""focus"",""2"",""8452""
","""event"",""trial"",""time""
""fullscreenenter"",""1"",""4649""
","""event"",""trial"",""time""
""fullscreenexit"",""2"",""8465""
","","","655","","","24","7575","3891","&#9826;","elianto","#f73b6a7A","-1"," ","0","-10","[1504]","1","0","3","","","","","","","",""
"pit-trial","71","595843","0.0-2.0-14.2-2.2","battery-v0.2","","""event"",""trial"",""time""
""focus"",""0"",""1""
""fullscreenenter"",""1"",""4649""
""blur"",""2"",""8052""
""focus"",""2"",""8452""
""fullscreenexit"",""2"",""8465""
","""event"",""trial"",""time""
""blur"",""2"",""8052""
","""event"",""trial"",""time""
""focus"",""0"",""1""
""focus"",""2"",""8452""
","""event"",""trial"",""time""
""fullscreenenter"",""1"",""4649""
","""event"",""trial"",""time""
""fullscreenexit"",""2"",""8465""
","","","-1","","","24","7575","3891","&#9826;","elianto","#f73b6a7A","-1","-1","1","0","[]","0","0","3","","","","","","","",""
"pit-trial","72","598941","0.0-2.0-14.2-3.2","battery-v0.2","","""event"",""trial"",""time""
""focus"",""0"",""1""
""fullscreenenter"",""1"",""4649""
""blur"",""2"",""8052""
""focus"",""2"",""8452""
""fullscreenexit"",""2"",""8465""
","""event"",""trial"",""time""
""blur"",""2"",""8052""
","""event"",""trial"",""time""
""focus"",""0"",""1""
""focus"",""2"",""8452""
","""event"",""trial"",""time""
""fullscreenenter"",""1"",""4649""
","""event"",""trial"",""time""
""fullscreenexit"",""2"",""8465""
","","","239","","","24","7575","3891","&#9826;","elianto","#f73b6a7A","-1"," ","0","0","[1091]","1","0","3","","","","","","","",""
"pit-trial","73","603803","0.0-2.0-14.2-4.2","battery-v0.2","","""event"",""trial"",""time""
""focus"",""0"",""1""
""fullscreenenter"",""1"",""4649""
""blur"",""2"",""8052""
""focus"",""2"",""8452""
""fullscreenexit"",""2"",""8465""
","""event"",""trial"",""time""
""blur"",""2"",""8052""
","""event"",""trial"",""time""
""focus"",""0"",""1""
""focus"",""2"",""8452""
","""event"",""trial"",""time""
""fullscreenenter"",""1"",""4649""
","""event"",""trial"",""time""
""fullscreenexit"",""2"",""8465""
","","","-1","","","24","7575","3891","&#9826;","elianto","#f73b6a7A","-1","-1","1","0","[]","0","0","3","","","","","","","",""
"pit-trial","74","608667","0.0-2.0-14.3-0.3","battery-v0.2","","""event"",""trial"",""time""
""focus"",""0"",""1""
""fullscreenenter"",""1"",""4649""
""blur"",""2"",""8052""
""focus"",""2"",""8452""
""fullscreenexit"",""2"",""8465""
","""event"",""trial"",""time""
""blur"",""2"",""8052""
","""event"",""trial"",""time""
""focus"",""0"",""1""
""focus"",""2"",""8452""
","""event"",""trial"",""time""
""fullscreenenter"",""1"",""4649""
","""event"",""trial"",""time""
""fullscreenexit"",""2"",""8465""
","","","-1","","","24","7575","3891","&#9826;","elianto","#f73b6a7A","-1","-1","1","0","[]","0","0","3","","","","","","","",""
"pit-trial","75","613530","0.0-2.0-14.3-1.3","battery-v0.2","","""event"",""trial"",""time""
""focus"",""0"",""1""
""fullscreenenter"",""1"",""4649""
""blur"",""2"",""8052""
""focus"",""2"",""8452""
""fullscreenexit"",""2"",""8465""
","""event"",""trial"",""time""
""blur"",""2"",""8052""
","""event"",""trial"",""time""
""focus"",""0"",""1""
""focus"",""2"",""8452""
","""event"",""trial"",""time""
""fullscreenenter"",""1"",""4649""
","""event"",""trial"",""time""
""fullscreenexit"",""2"",""8465""
","","","-1","","","24","7575","3891","&#9826;","elianto","#f73b6a7A","-1","-1","1","0","[]","0","0","3","","","","","","","",""
"pit-trial","76","618394","0.0-2.0-14.3-2.3","battery-v0.2","","""event"",""trial"",""time""
""focus"",""0"",""1""
""fullscreenenter"",""1"",""4649""
""blur"",""2"",""8052""
""focus"",""2"",""8452""
""fullscreenexit"",""2"",""8465""
","""event"",""trial"",""time""
""blur"",""2"",""8052""
","""event"",""trial"",""time""
""focus"",""0"",""1""
""focus"",""2"",""8452""
","""event"",""trial"",""time""
""fullscreenenter"",""1"",""4649""
","""event"",""trial"",""time""
""fullscreenexit"",""2"",""8465""
","","","-1","","","24","7575","3891","&#9826;","elianto","#f73b6a7A","-1","-1","1","0","[]","0","0","3","","","","","","","",""
"pit-trial","77","623252","0.0-2.0-14.3-3.3","battery-v0.2","","""event"",""trial"",""time""
""focus"",""0"",""1""
""fullscreenenter"",""1"",""4649""
""blur"",""2"",""8052""
""focus"",""2"",""8452""
""fullscreenexit"",""2"",""8465""
","""event"",""trial"",""time""
""blur"",""2"",""8052""
","""event"",""trial"",""time""
""focus"",""0"",""1""
""focus"",""2"",""8452""
","""event"",""trial"",""time""
""fullscreenenter"",""1"",""4649""
","""event"",""trial"",""time""
""fullscreenexit"",""2"",""8465""
","","","-1","","","24","7575","3891","&#9826;","elianto","#f73b6a7A","-1","-1","1","-10","[]","0","0","3","","","","","","","",""
"pit-trial","78","626245","0.0-2.0-14.3-4.3","battery-v0.2","","""event"",""trial"",""time""
""focus"",""0"",""1""
""fullscreenenter"",""1"",""4649""
""blur"",""2"",""8052""
""focus"",""2"",""8452""
""fullscreenexit"",""2"",""8465""
","""event"",""trial"",""time""
""blur"",""2"",""8052""
","""event"",""trial"",""time""
""focus"",""0"",""1""
""focus"",""2"",""8452""
","""event"",""trial"",""time""
""fullscreenenter"",""1"",""4649""
","""event"",""trial"",""time""
""fullscreenexit"",""2"",""8465""
","","","136","","","24","7575","3891","&#9826;","elianto","#f73b6a7A","-1"," ","0","-10","[987]","1","0","3","","","","","","","",""
"call-function","79","626247","0.0-2.0-15.0","battery-v0.2","","""event"",""trial"",""time""
""focus"",""0"",""1""
""fullscreenenter"",""1"",""4649""
""blur"",""2"",""8052""
""focus"",""2"",""8452""
""fullscreenexit"",""2"",""8465""
","""event"",""trial"",""time""
""blur"",""2"",""8052""
","""event"",""trial"",""time""
""focus"",""0"",""1""
""focus"",""2"",""8452""
","""event"",""trial"",""time""
""fullscreenenter"",""1"",""4649""
","""event"",""trial"",""time""
""fullscreenexit"",""2"",""8465""
","","","","","","","","","","","","","","","","","","","","","","","","","","",""
"pit-instructions","80","659735","0.0-2.0-16.0","battery-v0.2","","""event"",""trial"",""time""
""focus"",""0"",""1""
""fullscreenenter"",""1"",""4649""
""blur"",""2"",""8052""
""focus"",""2"",""8452""
""fullscreenexit"",""2"",""8465""
","""event"",""trial"",""time""
""blur"",""2"",""8052""
","""event"",""trial"",""time""
""focus"",""0"",""1""
""focus"",""2"",""8452""
","""event"",""trial"",""time""
""fullscreenenter"",""1"",""4649""
","""event"",""trial"",""time""
""fullscreenexit"",""2"",""8465""
","","[{""page_index"":0,""viewing_time"":9501},{""page_index"":1,""viewing_time"":9283},{""page_index"":2,""viewing_time"":7218},{""page_index"":3,""viewing_time"":7483}]","33486","","","","","","","","","","","","","","","","","","","","","","","",""
"pit-trial","81","664594","0.0-2.0-17.0-0.0","battery-v0.2","","""event"",""trial"",""time""
""focus"",""0"",""1""
""fullscreenenter"",""1"",""4649""
""blur"",""2"",""8052""
""focus"",""2"",""8452""
""fullscreenexit"",""2"",""8465""
","""event"",""trial"",""time""
""blur"",""2"",""8052""
","""event"",""trial"",""time""
""focus"",""0"",""1""
""focus"",""2"",""8452""
","""event"",""trial"",""time""
""fullscreenenter"",""1"",""4649""
","""event"",""trial"",""time""
""fullscreenexit"",""2"",""8465""
","","","-1","","","24","7575","3891","&#9789;","elianto","#f73b6a7A"," ","-1","0","-10","[]","0","0","4","","","","","","","",""
"pit-trial","82","669455","0.0-2.0-17.0-1.0","battery-v0.2","","""event"",""trial"",""time""
""focus"",""0"",""1""
""fullscreenenter"",""1"",""4649""
""blur"",""2"",""8052""
""focus"",""2"",""8452""
""fullscreenexit"",""2"",""8465""
","""event"",""trial"",""time""
""blur"",""2"",""8052""
","""event"",""trial"",""time""
""focus"",""0"",""1""
""focus"",""2"",""8452""
","""event"",""trial"",""time""
""fullscreenenter"",""1"",""4649""
","""event"",""trial"",""time""
""fullscreenexit"",""2"",""8465""
","","","-1","","","24","7575","3891","&#9789;","elianto","#f73b6a7A"," ","-1","0","-10","[]","0","0","4","","","","","","","",""
"pit-trial","83","674319","0.0-2.0-17.0-2.0","battery-v0.2","","""event"",""trial"",""time""
""focus"",""0"",""1""
""fullscreenenter"",""1"",""4649""
""blur"",""2"",""8052""
""focus"",""2"",""8452""
""fullscreenexit"",""2"",""8465""
","""event"",""trial"",""time""
""blur"",""2"",""8052""
","""event"",""trial"",""time""
""focus"",""0"",""1""
""focus"",""2"",""8452""
","""event"",""trial"",""time""
""fullscreenenter"",""1"",""4649""
","""event"",""trial"",""time""
""fullscreenexit"",""2"",""8465""
","","","-1","","","24","7575","3891","&#9789;","elianto","#f73b6a7A"," ","-1","0","-10","[]","0","0","4","","","","","","","",""
"pit-trial","84","679178","0.0-2.0-17.0-3.0","battery-v0.2","","""event"",""trial"",""time""
""focus"",""0"",""1""
""fullscreenenter"",""1"",""4649""
""blur"",""2"",""8052""
""focus"",""2"",""8452""
""fullscreenexit"",""2"",""8465""
","""event"",""trial"",""time""
""blur"",""2"",""8052""
","""event"",""trial"",""time""
""focus"",""0"",""1""
""focus"",""2"",""8452""
","""event"",""trial"",""time""
""fullscreenenter"",""1"",""4649""
","""event"",""trial"",""time""
""fullscreenexit"",""2"",""8465""
","","","-1","","","24","7575","3891","&#9789;","elianto","#f73b6a7A"," ","-1","0","0","[]","0","0","4","","","","","","","",""
"pit-trial","85","684043","0.0-2.0-17.0-4.0","battery-v0.2","","""event"",""trial"",""time""
""focus"",""0"",""1""
""fullscreenenter"",""1"",""4649""
""blur"",""2"",""8052""
""focus"",""2"",""8452""
""fullscreenexit"",""2"",""8465""
","""event"",""trial"",""time""
""blur"",""2"",""8052""
","""event"",""trial"",""time""
""focus"",""0"",""1""
""focus"",""2"",""8452""
","""event"",""trial"",""time""
""fullscreenenter"",""1"",""4649""
","""event"",""trial"",""time""
""fullscreenexit"",""2"",""8465""
","","","-1","","","24","7575","3891","&#9789;","elianto","#f73b6a7A"," ","-1","0","-10","[]","0","0","4","","","","","","","",""
"pit-trial","86","688908","0.0-2.0-17.1-0.1","battery-v0.2","","""event"",""trial"",""time""
""focus"",""0"",""1""
""fullscreenenter"",""1"",""4649""
""blur"",""2"",""8052""
""focus"",""2"",""8452""
""fullscreenexit"",""2"",""8465""
","""event"",""trial"",""time""
""blur"",""2"",""8052""
","""event"",""trial"",""time""
""focus"",""0"",""1""
""focus"",""2"",""8452""
","""event"",""trial"",""time""
""fullscreenenter"",""1"",""4649""
","""event"",""trial"",""time""
""fullscreenexit"",""2"",""8465""
","","","-1","","","24","7575","3891","&#9789;","elianto","#f73b6a7A"," ","-1","0","-10","[]","0","0","4","","","","","","","",""
"pit-trial","87","693768","0.0-2.0-17.1-1.1","battery-v0.2","","""event"",""trial"",""time""
""focus"",""0"",""1""
""fullscreenenter"",""1"",""4649""
""blur"",""2"",""8052""
""focus"",""2"",""8452""
""fullscreenexit"",""2"",""8465""
","""event"",""trial"",""time""
""blur"",""2"",""8052""
","""event"",""trial"",""time""
""focus"",""0"",""1""
""focus"",""2"",""8452""
","""event"",""trial"",""time""
""fullscreenenter"",""1"",""4649""
","""event"",""trial"",""time""
""fullscreenexit"",""2"",""8465""
","","","-1","","","24","7575","3891","&#9789;","elianto","#f73b6a7A"," ","-1","0","-10","[]","0","0","4","","","","","","","",""
"pit-trial","88","698633","0.0-2.0-17.1-2.1","battery-v0.2","","""event"",""trial"",""time""
""focus"",""0"",""1""
""fullscreenenter"",""1"",""4649""
""blur"",""2"",""8052""
""focus"",""2"",""8452""
""fullscreenexit"",""2"",""8465""
","""event"",""trial"",""time""
""blur"",""2"",""8052""
","""event"",""trial"",""time""
""focus"",""0"",""1""
""focus"",""2"",""8452""
","""event"",""trial"",""time""
""fullscreenenter"",""1"",""4649""
","""event"",""trial"",""time""
""fullscreenexit"",""2"",""8465""
","","","-1","","","24","7575","3891","&#9789;","elianto","#f73b6a7A"," ","-1","0","-10","[]","0","0","4","","","","","","","",""
"pit-trial","89","703491","0.0-2.0-17.1-3.1","battery-v0.2","","""event"",""trial"",""time""
""focus"",""0"",""1""
""fullscreenenter"",""1"",""4649""
""blur"",""2"",""8052""
""focus"",""2"",""8452""
""fullscreenexit"",""2"",""8465""
","""event"",""trial"",""time""
""blur"",""2"",""8052""
","""event"",""trial"",""time""
""focus"",""0"",""1""
""focus"",""2"",""8452""
","""event"",""trial"",""time""
""fullscreenenter"",""1"",""4649""
","""event"",""trial"",""time""
""fullscreenexit"",""2"",""8465""
","","","-1","","","24","7575","3891","&#9789;","elianto","#f73b6a7A"," ","-1","0","0","[]","0","0","4","","","","","","","",""
"pit-trial","90","708348","0.0-2.0-17.1-4.1","battery-v0.2","","""event"",""trial"",""time""
""focus"",""0"",""1""
""fullscreenenter"",""1"",""4649""
""blur"",""2"",""8052""
""focus"",""2"",""8452""
""fullscreenexit"",""2"",""8465""
","""event"",""trial"",""time""
""blur"",""2"",""8052""
","""event"",""trial"",""time""
""focus"",""0"",""1""
""focus"",""2"",""8452""
","""event"",""trial"",""time""
""fullscreenenter"",""1"",""4649""
","""event"",""trial"",""time""
""fullscreenexit"",""2"",""8465""
","","","-1","","","24","7575","3891","&#9789;","elianto","#f73b6a7A"," ","-1","0","-10","[]","0","0","4","","","","","","","",""
"pit-trial","91","713214","0.0-2.0-17.2-0.2","battery-v0.2","","""event"",""trial"",""time""
""focus"",""0"",""1""
""fullscreenenter"",""1"",""4649""
""blur"",""2"",""8052""
""focus"",""2"",""8452""
""fullscreenexit"",""2"",""8465""
","""event"",""trial"",""time""
""blur"",""2"",""8052""
","""event"",""trial"",""time""
""focus"",""0"",""1""
""focus"",""2"",""8452""
","""event"",""trial"",""time""
""fullscreenenter"",""1"",""4649""
","""event"",""trial"",""time""
""fullscreenexit"",""2"",""8465""
","","","-1","","","24","7575","3891","&#9789;","elianto","#f73b6a7A"," ","-1","0","-10","[]","0","0","4","","","","","","","",""
"pit-trial","92","718077","0.0-2.0-17.2-1.2","battery-v0.2","","""event"",""trial"",""time""
""focus"",""0"",""1""
""fullscreenenter"",""1"",""4649""
""blur"",""2"",""8052""
""focus"",""2"",""8452""
""fullscreenexit"",""2"",""8465""
","""event"",""trial"",""time""
""blur"",""2"",""8052""
","""event"",""trial"",""time""
""focus"",""0"",""1""
""focus"",""2"",""8452""
","""event"",""trial"",""time""
""fullscreenenter"",""1"",""4649""
","""event"",""trial"",""time""
""fullscreenexit"",""2"",""8465""
","","","-1","","","24","7575","3891","&#9789;","elianto","#f73b6a7A"," ","-1","0","-10","[]","0","0","4","","","","","","","",""
"pit-trial","93","722937","0.0-2.0-17.2-2.2","battery-v0.2","","""event"",""trial"",""time""
""focus"",""0"",""1""
""fullscreenenter"",""1"",""4649""
""blur"",""2"",""8052""
""focus"",""2"",""8452""
""fullscreenexit"",""2"",""8465""
","""event"",""trial"",""time""
""blur"",""2"",""8052""
","""event"",""trial"",""time""
""focus"",""0"",""1""
""focus"",""2"",""8452""
","""event"",""trial"",""time""
""fullscreenenter"",""1"",""4649""
","""event"",""trial"",""time""
""fullscreenexit"",""2"",""8465""
","","","-1","","","24","7575","3891","&#9789;","elianto","#f73b6a7A"," ","-1","0","-10","[]","0","0","4","","","","","","","",""
"pit-trial","94","727794","0.0-2.0-17.2-3.2","battery-v0.2","","""event"",""trial"",""time""
""focus"",""0"",""1""
""fullscreenenter"",""1"",""4649""
""blur"",""2"",""8052""
""focus"",""2"",""8452""
""fullscreenexit"",""2"",""8465""
","""event"",""trial"",""time""
""blur"",""2"",""8052""
","""event"",""trial"",""time""
""focus"",""0"",""1""
""focus"",""2"",""8452""
","""event"",""trial"",""time""
""fullscreenenter"",""1"",""4649""
","""event"",""trial"",""time""
""fullscreenexit"",""2"",""8465""
","","","-1","","","24","7575","3891","&#9789;","elianto","#f73b6a7A"," ","-1","0","0","[]","0","0","4","","","","","","","",""
"pit-trial","95","731718","0.0-2.0-17.2-4.2","battery-v0.2","","""event"",""trial"",""time""
""focus"",""0"",""1""
""fullscreenenter"",""1"",""4649""
""blur"",""2"",""8052""
""focus"",""2"",""8452""
""fullscreenexit"",""2"",""8465""
","""event"",""trial"",""time""
""blur"",""2"",""8052""
","""event"",""trial"",""time""
""focus"",""0"",""1""
""focus"",""2"",""8452""
","""event"",""trial"",""time""
""fullscreenenter"",""1"",""4649""
","""event"",""trial"",""time""
""fullscreenexit"",""2"",""8465""
","","","1063","","","24","7575","3891","&#9789;","elianto","#f73b6a7A"," "," ","1","0","[1915]","1","0","4","","","","","","","",""
"pit-trial","96","736580","0.0-2.0-17.3-0.3","battery-v0.2","","""event"",""trial"",""time""
""focus"",""0"",""1""
""fullscreenenter"",""1"",""4649""
""blur"",""2"",""8052""
""focus"",""2"",""8452""
""fullscreenexit"",""2"",""8465""
","""event"",""trial"",""time""
""blur"",""2"",""8052""
","""event"",""trial"",""time""
""focus"",""0"",""1""
""focus"",""2"",""8452""
","""event"",""trial"",""time""
""fullscreenenter"",""1"",""4649""
","""event"",""trial"",""time""
""fullscreenexit"",""2"",""8465""
","","","-1","","","24","7575","3891","&#9789;","elianto","#f73b6a7A"," ","-1","0","-10","[]","0","0","4","","","","","","","",""
"pit-trial","97","741446","0.0-2.0-17.3-1.3","battery-v0.2","","""event"",""trial"",""time""
""focus"",""0"",""1""
""fullscreenenter"",""1"",""4649""
""blur"",""2"",""8052""
""focus"",""2"",""8452""
""fullscreenexit"",""2"",""8465""
","""event"",""trial"",""time""
""blur"",""2"",""8052""
","""event"",""trial"",""time""
""focus"",""0"",""1""
""focus"",""2"",""8452""
","""event"",""trial"",""time""
""fullscreenenter"",""1"",""4649""
","""event"",""trial"",""time""
""fullscreenexit"",""2"",""8465""
","","","-1","","","24","7575","3891","&#9789;","elianto","#f73b6a7A"," ","-1","0","-10","[]","0","0","4","","","","","","","",""
"pit-trial","98","746308","0.0-2.0-17.3-2.3","battery-v0.2","","""event"",""trial"",""time""
""focus"",""0"",""1""
""fullscreenenter"",""1"",""4649""
""blur"",""2"",""8052""
""focus"",""2"",""8452""
""fullscreenexit"",""2"",""8465""
","""event"",""trial"",""time""
""blur"",""2"",""8052""
","""event"",""trial"",""time""
""focus"",""0"",""1""
""focus"",""2"",""8452""
","""event"",""trial"",""time""
""fullscreenenter"",""1"",""4649""
","""event"",""trial"",""time""
""fullscreenexit"",""2"",""8465""
","","","2003","","","24","7575","3891","&#9789;","elianto","#f73b6a7A"," "," ","1","0","[2854]","1","0","4","","","","","","","",""
"pit-trial","99","751170","0.0-2.0-17.3-3.3","battery-v0.2","","""event"",""trial"",""time""
""focus"",""0"",""1""
""fullscreenenter"",""1"",""4649""
""blur"",""2"",""8052""
""focus"",""2"",""8452""
""fullscreenexit"",""2"",""8465""
","""event"",""trial"",""time""
""blur"",""2"",""8052""
","""event"",""trial"",""time""
""focus"",""0"",""1""
""focus"",""2"",""8452""
","""event"",""trial"",""time""
""fullscreenenter"",""1"",""4649""
","""event"",""trial"",""time""
""fullscreenexit"",""2"",""8465""
","","","-1","","","24","7575","3891","&#9789;","elianto","#f73b6a7A"," ","-1","0","0","[]","0","0","4","","","","","","","",""
"pit-trial","100","756033","0.0-2.0-17.3-4.3","battery-v0.2","","""event"",""trial"",""time""
""focus"",""0"",""1""
""fullscreenenter"",""1"",""4649""
""blur"",""2"",""8052""
""focus"",""2"",""8452""
""fullscreenexit"",""2"",""8465""
","""event"",""trial"",""time""
""blur"",""2"",""8052""
","""event"",""trial"",""time""
""focus"",""0"",""1""
""focus"",""2"",""8452""
","""event"",""trial"",""time""
""fullscreenenter"",""1"",""4649""
","""event"",""trial"",""time""
""fullscreenexit"",""2"",""8465""
","","","-1","","","24","7575","3891","&#9789;","elianto","#f73b6a7A"," ","-1","0","-10","[]","0","0","4","","","","","","","",""
"call-function","101","756038","0.0-2.0-18.0","battery-v0.2","","""event"",""trial"",""time""
""focus"",""0"",""1""
""fullscreenenter"",""1"",""4649""
""blur"",""2"",""8052""
""focus"",""2"",""8452""
""fullscreenexit"",""2"",""8465""
","""event"",""trial"",""time""
""blur"",""2"",""8052""
","""event"",""trial"",""time""
""focus"",""0"",""1""
""focus"",""2"",""8452""
","""event"",""trial"",""time""
""fullscreenenter"",""1"",""4649""
","""event"",""trial"",""time""
""fullscreenexit"",""2"",""8465""
","","","","","","","","","","","","","","","","","","","","","","","","","","",""
"pit-instructions","102","836124","0.0-2.0-19.0","battery-v0.2","","""event"",""trial"",""time""
""focus"",""0"",""1""
""fullscreenenter"",""1"",""4649""
""blur"",""2"",""8052""
""focus"",""2"",""8452""
""fullscreenexit"",""2"",""8465""
","""event"",""trial"",""time""
""blur"",""2"",""8052""
","""event"",""trial"",""time""
""focus"",""0"",""1""
""focus"",""2"",""8452""
","""event"",""trial"",""time""
""fullscreenenter"",""1"",""4649""
","""event"",""trial"",""time""
""fullscreenexit"",""2"",""8465""
","","[{""page_index"":0,""viewing_time"":10411},{""page_index"":1,""viewing_time"":6482},{""page_index"":2,""viewing_time"":14468},{""page_index"":3,""viewing_time"":7733},{""page_index"":4,""viewing_time"":8600},{""page_index"":5,""viewing_time"":12117},{""page_index"":6,""viewing_time"":8850},{""page_index"":7,""viewing_time"":6632},{""page_index"":8,""viewing_time"":4734}]","80029","","","","","","","","","","","","","","","","","","","","","","","",""
"pit-comprehension","103","841479","0.0-2.0-20.0-0.0","battery-v0.2","","""event"",""trial"",""time""
""focus"",""0"",""1""
""fullscreenenter"",""1"",""4649""
""blur"",""2"",""8052""
""focus"",""2"",""8452""
""fullscreenexit"",""2"",""8465""
","""event"",""trial"",""time""
""blur"",""2"",""8052""
","""event"",""trial"",""time""
""focus"",""0"",""1""
""focus"",""2"",""8452""
","""event"",""trial"",""time""
""fullscreenenter"",""1"",""4649""
","""event"",""trial"",""time""
""fullscreenexit"",""2"",""8465""
","","","5343","[""SPACE""]","0","24","7575","3891","","","","","","","","","","","","","","","","","","",""
"pit-instructions","104","845322","0.0-2.0-20.0-1.0","battery-v0.2","","""event"",""trial"",""time""
""focus"",""0"",""1""
""fullscreenenter"",""1"",""4649""
""blur"",""2"",""8052""
""focus"",""2"",""8452""
""fullscreenexit"",""2"",""8465""
","""event"",""trial"",""time""
""blur"",""2"",""8052""
","""event"",""trial"",""time""
""focus"",""0"",""1""
""focus"",""2"",""8452""
","""event"",""trial"",""time""
""fullscreenenter"",""1"",""4649""
","""event"",""trial"",""time""
""fullscreenexit"",""2"",""8465""
","","[{""page_index"":0,""viewing_time"":3818}]","3818","","","","","","","","","","","","","","","","","","","","","","","",""
"pit-comprehension","105","852709","0.0-2.0-21.0-0.0","battery-v0.2","","""event"",""trial"",""time""
""focus"",""0"",""1""
""fullscreenenter"",""1"",""4649""
""blur"",""2"",""8052""
""focus"",""2"",""8452""
""fullscreenexit"",""2"",""8465""
","""event"",""trial"",""time""
""blur"",""2"",""8052""
","""event"",""trial"",""time""
""focus"",""0"",""1""
""focus"",""2"",""8452""
","""event"",""trial"",""time""
""fullscreenenter"",""1"",""4649""
","""event"",""trial"",""time""
""fullscreenexit"",""2"",""8465""
","","","7378","[""10""]","0","24","7575","3891","","","","","","","","","","","","","","","","","","",""
"pit-instructions","106","859241","0.0-2.0-21.0-1.0","battery-v0.2","","""event"",""trial"",""time""
""focus"",""0"",""1""
""fullscreenenter"",""1"",""4649""
""blur"",""2"",""8052""
""focus"",""2"",""8452""
""fullscreenexit"",""2"",""8465""
","""event"",""trial"",""time""
""blur"",""2"",""8052""
","""event"",""trial"",""time""
""focus"",""0"",""1""
""focus"",""2"",""8452""
","""event"",""trial"",""time""
""fullscreenenter"",""1"",""4649""
","""event"",""trial"",""time""
""fullscreenexit"",""2"",""8465""
","","[{""page_index"":0,""viewing_time"":6509}]","6510","","","","","","","","","","","","","","","","","","","","","","","",""
"pit-comprehension","107","866657","0.0-2.0-22.0-0.0","battery-v0.2","","""event"",""trial"",""time""
""focus"",""0"",""1""
""fullscreenenter"",""1"",""4649""
""blur"",""2"",""8052""
""focus"",""2"",""8452""
""fullscreenexit"",""2"",""8465""
","""event"",""trial"",""time""
""blur"",""2"",""8052""
","""event"",""trial"",""time""
""focus"",""0"",""1""
""focus"",""2"",""8452""
","""event"",""trial"",""time""
""fullscreenenter"",""1"",""4649""
","""event"",""trial"",""time""
""fullscreenexit"",""2"",""8465""
","","","7409","[""-10""]","1","24","7575","3891","","","","","","","","","","","","","","","","","","",""
"pit-instructions","108","884492","0.0-2.0-22.0-1.0","battery-v0.2","","""event"",""trial"",""time""
""focus"",""0"",""1""
""fullscreenenter"",""1"",""4649""
""blur"",""2"",""8052""
""focus"",""2"",""8452""
""fullscreenexit"",""2"",""8465""
","""event"",""trial"",""time""
""blur"",""2"",""8052""
","""event"",""trial"",""time""
""focus"",""0"",""1""
""focus"",""2"",""8452""
","""event"",""trial"",""time""
""fullscreenenter"",""1"",""4649""
","""event"",""trial"",""time""
""fullscreenexit"",""2"",""8465""
","","[{""page_index"":0,""viewing_time"":17812}]","17813","","","","","","","","","","","","","","","","","","","","","","","",""
"pit-instructions","109","888107","0.0-2.0-22.0-2.0-0.0","battery-v0.2","","""event"",""trial"",""time""
""focus"",""0"",""1""
""fullscreenenter"",""1"",""4649""
""blur"",""2"",""8052""
""focus"",""2"",""8452""
""fullscreenexit"",""2"",""8465""
","""event"",""trial"",""time""
""blur"",""2"",""8052""
","""event"",""trial"",""time""
""focus"",""0"",""1""
""focus"",""2"",""8452""
","""event"",""trial"",""time""
""fullscreenenter"",""1"",""4649""
","""event"",""trial"",""time""
""fullscreenexit"",""2"",""8465""
","","[{""page_index"":0,""viewing_time"":3611}]","3611","","","","","","","","","","","","","","","","","","","","","","","",""
"pit-comprehension","110","896093","0.0-2.0-22.1-0.1","battery-v0.2","","""event"",""trial"",""time""
""focus"",""0"",""1""
""fullscreenenter"",""1"",""4649""
""blur"",""2"",""8052""
""focus"",""2"",""8452""
""fullscreenexit"",""2"",""8465""
","""event"",""trial"",""time""
""blur"",""2"",""8052""
","""event"",""trial"",""time""
""focus"",""0"",""1""
""focus"",""2"",""8452""
","""event"",""trial"",""time""
""fullscreenenter"",""1"",""4649""
","""event"",""trial"",""time""
""fullscreenexit"",""2"",""8465""
","","","7980","[""0""]","0","24","7575","3891","","","","","","","","","","","","","","","","","","",""
"pit-instructions","111","901624","0.0-2.0-22.1-1.1","battery-v0.2","","""event"",""trial"",""time""
""focus"",""0"",""1""
""fullscreenenter"",""1"",""4649""
""blur"",""2"",""8052""
""focus"",""2"",""8452""
""fullscreenexit"",""2"",""8465""
","""event"",""trial"",""time""
""blur"",""2"",""8052""
","""event"",""trial"",""time""
""focus"",""0"",""1""
""focus"",""2"",""8452""
","""event"",""trial"",""time""
""fullscreenenter"",""1"",""4649""
","""event"",""trial"",""time""
""fullscreenexit"",""2"",""8465""
","","[{""page_index"":0,""viewing_time"":5510}]","5511","","","","","","","","","","","","","","","","","","","","","","","",""
"pit-comprehension","112","915761","0.0-2.0-23.0-0.0","battery-v0.2","","""event"",""trial"",""time""
""focus"",""0"",""1""
""fullscreenenter"",""1"",""4649""
""blur"",""2"",""8052""
""focus"",""2"",""8452""
""fullscreenexit"",""2"",""8465""
","""event"",""trial"",""time""
""blur"",""2"",""8052""
","""event"",""trial"",""time""
""focus"",""0"",""1""
""focus"",""2"",""8452""
","""event"",""trial"",""time""
""fullscreenenter"",""1"",""4649""
","""event"",""trial"",""time""
""fullscreenexit"",""2"",""8465""
","","","14129","[""False""]","1","24","7575","3891","","","","","","","","","","","","","","","","","","",""
"pit-instructions","113","923708","0.0-2.0-23.0-1.0","battery-v0.2","","""event"",""trial"",""time""
""focus"",""0"",""1""
""fullscreenenter"",""1"",""4649""
""blur"",""2"",""8052""
""focus"",""2"",""8452""
""fullscreenexit"",""2"",""8465""
","""event"",""trial"",""time""
""blur"",""2"",""8052""
","""event"",""trial"",""time""
""focus"",""0"",""1""
""focus"",""2"",""8452""
","""event"",""trial"",""time""
""fullscreenenter"",""1"",""4649""
","""event"",""trial"",""time""
""fullscreenexit"",""2"",""8465""
","","[{""page_index"":0,""viewing_time"":7923}]","7924","","","","","","","","","","","","","","","","","","","","","","","",""
"pit-instructions","114","924875","0.0-2.0-23.0-2.0-0.0","battery-v0.2","","""event"",""trial"",""time""
""focus"",""0"",""1""
""fullscreenenter"",""1"",""4649""
""blur"",""2"",""8052""
""focus"",""2"",""8452""
""fullscreenexit"",""2"",""8465""
","""event"",""trial"",""time""
""blur"",""2"",""8052""
","""event"",""trial"",""time""
""focus"",""0"",""1""
""focus"",""2"",""8452""
","""event"",""trial"",""time""
""fullscreenenter"",""1"",""4649""
","""event"",""trial"",""time""
""fullscreenexit"",""2"",""8465""
","","[{""page_index"":0,""viewing_time"":1161}]","1162","","","","","","","","","","","","","","","","","","","","","","","",""
"pit-comprehension","115","936160","0.0-2.0-23.1-0.1","battery-v0.2","","""event"",""trial"",""time""
""focus"",""0"",""1""
""fullscreenenter"",""1"",""4649""
""blur"",""2"",""8052""
""focus"",""2"",""8452""
""fullscreenexit"",""2"",""8465""
","""event"",""trial"",""time""
""blur"",""2"",""8052""
","""event"",""trial"",""time""
""focus"",""0"",""1""
""focus"",""2"",""8452""
","""event"",""trial"",""time""
""fullscreenenter"",""1"",""4649""
","""event"",""trial"",""time""
""fullscreenexit"",""2"",""8465""
","","","11279","[""True""]","0","24","7575","3891","","","","","","","","","","","","","","","","","","",""
"pit-instructions","116","942525","0.0-2.0-23.1-1.1","battery-v0.2","","""event"",""trial"",""time""
""focus"",""0"",""1""
""fullscreenenter"",""1"",""4649""
""blur"",""2"",""8052""
""focus"",""2"",""8452""
""fullscreenexit"",""2"",""8465""
","""event"",""trial"",""time""
""blur"",""2"",""8052""
","""event"",""trial"",""time""
""focus"",""0"",""1""
""focus"",""2"",""8452""
","""event"",""trial"",""time""
""fullscreenenter"",""1"",""4649""
","""event"",""trial"",""time""
""fullscreenexit"",""2"",""8465""
","","[{""page_index"":0,""viewing_time"":6343}]","6343","","","","","","","","","","","","","","","","","","","","","","","",""
"pit-comprehension","117","951126","0.0-2.0-24.0-0.0","battery-v0.2","","""event"",""trial"",""time""
""focus"",""0"",""1""
""fullscreenenter"",""1"",""4649""
""blur"",""2"",""8052""
""focus"",""2"",""8452""
""fullscreenexit"",""2"",""8465""
","""event"",""trial"",""time""
""blur"",""2"",""8052""
","""event"",""trial"",""time""
""focus"",""0"",""1""
""focus"",""2"",""8452""
","""event"",""trial"",""time""
""fullscreenenter"",""1"",""4649""
","""event"",""trial"",""time""
""fullscreenexit"",""2"",""8465""
","","","8593","[""True""]","0","24","7575","3891","","","","","","","","","","","","","","","","","","",""
"pit-instructions","118","959838","0.0-2.0-24.0-1.0","battery-v0.2","","""event"",""trial"",""time""
""focus"",""0"",""1""
""fullscreenenter"",""1"",""4649""
""blur"",""2"",""8052""
""focus"",""2"",""8452""
""fullscreenexit"",""2"",""8465""
","""event"",""trial"",""time""
""blur"",""2"",""8052""
","""event"",""trial"",""time""
""focus"",""0"",""1""
""focus"",""2"",""8452""
","""event"",""trial"",""time""
""fullscreenenter"",""1"",""4649""
","""event"",""trial"",""time""
""fullscreenexit"",""2"",""8465""
","","[{""page_index"":0,""viewing_time"":8690}]","8690","","","","","","","","","","","","","","","","","","","","","","","",""
"pit-comprehension","119","970526","0.0-2.0-25.0-0.0","battery-v0.2","","""event"",""trial"",""time""
""focus"",""0"",""1""
""fullscreenenter"",""1"",""4649""
""blur"",""2"",""8052""
""focus"",""2"",""8452""
""fullscreenexit"",""2"",""8465""
","""event"",""trial"",""time""
""blur"",""2"",""8052""
","""event"",""trial"",""time""
""focus"",""0"",""1""
""focus"",""2"",""8452""
","""event"",""trial"",""time""
""fullscreenenter"",""1"",""4649""
","""event"",""trial"",""time""
""fullscreenexit"",""2"",""8465""
","","","10684","[""True""]","0","24","7575","3891","","","","","","","","","","","","","","","","","","",""
"pit-instructions","120","979125","0.0-2.0-25.0-1.0","battery-v0.2","","""event"",""trial"",""time""
""focus"",""0"",""1""
""fullscreenenter"",""1"",""4649""
""blur"",""2"",""8052""
""focus"",""2"",""8452""
""fullscreenexit"",""2"",""8465""
","""event"",""trial"",""time""
""blur"",""2"",""8052""
","""event"",""trial"",""time""
""focus"",""0"",""1""
""focus"",""2"",""8452""
","""event"",""trial"",""time""
""fullscreenenter"",""1"",""4649""
","""event"",""trial"",""time""
""fullscreenexit"",""2"",""8465""
","","[{""page_index"":0,""viewing_time"":8572}]","8573","","","","","","","","","","","","","","","","","","","","","","","",""
"pit-comprehension","121","993560","0.0-2.0-26.0-0.0","battery-v0.2","","""event"",""trial"",""time""
""focus"",""0"",""1""
""fullscreenenter"",""1"",""4649""
""blur"",""2"",""8052""
""focus"",""2"",""8452""
""fullscreenexit"",""2"",""8465""
","""event"",""trial"",""time""
""blur"",""2"",""8052""
","""event"",""trial"",""time""
""focus"",""0"",""1""
""focus"",""2"",""8452""
","""event"",""trial"",""time""
""fullscreenenter"",""1"",""4649""
","""event"",""trial"",""time""
""fullscreenexit"",""2"",""8465""
","","","14429","[""False""]","0","24","7575","3891","","","","","","","","","","","","","","","","","","",""
"pit-instructions","122","998091","0.0-2.0-26.0-1.0","battery-v0.2","","""event"",""trial"",""time""
""focus"",""0"",""1""
""fullscreenenter"",""1"",""4649""
""blur"",""2"",""8052""
""focus"",""2"",""8452""
""fullscreenexit"",""2"",""8465""
","""event"",""trial"",""time""
""blur"",""2"",""8052""
","""event"",""trial"",""time""
""focus"",""0"",""1""
""focus"",""2"",""8452""
","""event"",""trial"",""time""
""fullscreenenter"",""1"",""4649""
","""event"",""trial"",""time""
""fullscreenexit"",""2"",""8465""
","","[{""page_index"":0,""viewing_time"":4506}]","4507","","","","","","","","","","","","","","","","","","","","","","","",""
"pit-instructions","123","1016676","0.0-3.0","battery-v0.2","","""event"",""trial"",""time""
""focus"",""0"",""1""
""fullscreenenter"",""1"",""4649""
""blur"",""2"",""8052""
""focus"",""2"",""8452""
""fullscreenexit"",""2"",""8465""
","""event"",""trial"",""time""
""blur"",""2"",""8052""
","""event"",""trial"",""time""
""focus"",""0"",""1""
""focus"",""2"",""8452""
","""event"",""trial"",""time""
""fullscreenenter"",""1"",""4649""
","""event"",""trial"",""time""
""fullscreenexit"",""2"",""8465""
","","[{""page_index"":0,""viewing_time"":4994},{""page_index"":1,""viewing_time"":5584},{""page_index"":2,""viewing_time"":7999}]","18579","","","","","","","","","","","","","","","","","","","","","","","",""
"pit-trial","124","1021544","0.0-4.0","battery-v0.2","","""event"",""trial"",""time""
""focus"",""0"",""1""
""fullscreenenter"",""1"",""4649""
""blur"",""2"",""8052""
""focus"",""2"",""8452""
""fullscreenexit"",""2"",""8465""
","""event"",""trial"",""time""
""blur"",""2"",""8052""
","""event"",""trial"",""time""
""focus"",""0"",""1""
""focus"",""2"",""8452""
","""event"",""trial"",""time""
""fullscreenenter"",""1"",""4649""
","""event"",""trial"",""time""
""fullscreenexit"",""2"",""8465""
","","","-1","","","24","7575","3891","&#9752;","elianto","#f73b6a7A"," ","-1","0","-10","[]","0","1","","","7575","1","3","3","lose","go","0"
"pit-trial","125","1025107","0.0-5.0","battery-v0.2","","""event"",""trial"",""time""
""focus"",""0"",""1""
""fullscreenenter"",""1"",""4649""
""blur"",""2"",""8052""
""focus"",""2"",""8452""
""fullscreenexit"",""2"",""8465""
","""event"",""trial"",""time""
""blur"",""2"",""8052""
","""event"",""trial"",""time""
""focus"",""0"",""1""
""focus"",""2"",""8452""
","""event"",""trial"",""time""
""fullscreenenter"",""1"",""4649""
","""event"",""trial"",""time""
""fullscreenexit"",""2"",""8465""
","","","702","","","24","7575","3891","&#9730;","elianto","#3366ff99"," "," ","1","+10","[1554]","1","1","","","7575","2","1","1","win","go","0"
"pit-trial","126","1028679","0.0-6.0","battery-v0.2","","""event"",""trial"",""time""
""focus"",""0"",""1""
""fullscreenenter"",""1"",""4649""
""blur"",""2"",""8052""
""focus"",""2"",""8452""
""fullscreenexit"",""2"",""8465""
","""event"",""trial"",""time""
""blur"",""2"",""8052""
","""event"",""trial"",""time""
""focus"",""0"",""1""
""focus"",""2"",""8452""
","""event"",""trial"",""time""
""fullscreenenter"",""1"",""4649""
","""event"",""trial"",""time""
""fullscreenexit"",""2"",""8465""
","","","713","","","24","7575","3891","&#9733;","elianto","#3366ff99","-1"," ","0","0","[1564]","1","1","","","7575","3","2","2","win","no-go","0"
"pit-trial","127","1033545","0.0-7.0","battery-v0.2","","""event"",""trial"",""time""
""focus"",""0"",""1""
""fullscreenenter"",""1"",""4649""
""blur"",""2"",""8052""
""focus"",""2"",""8452""
""fullscreenexit"",""2"",""8465""
","""event"",""trial"",""time""
""blur"",""2"",""8052""
","""event"",""trial"",""time""
""focus"",""0"",""1""
""focus"",""2"",""8452""
","""event"",""trial"",""time""
""fullscreenenter"",""1"",""4649""
","""event"",""trial"",""time""
""fullscreenexit"",""2"",""8465""
","","","-1","","","24","7575","3891","&#9728;","elianto","#f73b6a7A","-1","-1","1","0","[]","0","1","","","7575","4","0","4","lose","no-go","0"
"pit-trial","128","1038409","0.0-8.0","battery-v0.2","","""event"",""trial"",""time""
""focus"",""0"",""1""
""fullscreenenter"",""1"",""4649""
""blur"",""2"",""8052""
""focus"",""2"",""8452""
""fullscreenexit"",""2"",""8465""
","""event"",""trial"",""time""
""blur"",""2"",""8052""
","""event"",""trial"",""time""
""focus"",""0"",""1""
""focus"",""2"",""8452""
","""event"",""trial"",""time""
""fullscreenenter"",""1"",""4649""
","""event"",""trial"",""time""
""fullscreenexit"",""2"",""8465""
","","","-1","","","24","7575","3891","&#9728;","elianto","#f73b6a7A","-1","-1","1","0","[]","0","1","","","7575","5","0","4","lose","no-go","0"
"pit-trial","129","1041806","0.0-9.0","battery-v0.2","","""event"",""trial"",""time""
""focus"",""0"",""1""
""fullscreenenter"",""1"",""4649""
""blur"",""2"",""8052""
""focus"",""2"",""8452""
""fullscreenexit"",""2"",""8465""
","""event"",""trial"",""time""
""blur"",""2"",""8052""
","""event"",""trial"",""time""
""focus"",""0"",""1""
""focus"",""2"",""8452""
","""event"",""trial"",""time""
""fullscreenenter"",""1"",""4649""
","""event"",""trial"",""time""
""fullscreenexit"",""2"",""8465""
","","","539","","","24","7575","3891","&#9733;","elianto","#3366ff99","-1"," ","0","0","[1389]","1","1","","","7575","6","2","2","win","no-go","0"
"pit-trial","130","1045394","0.0-10.0","battery-v0.2","","""event"",""trial"",""time""
""focus"",""0"",""1""
""fullscreenenter"",""1"",""4649""
""blur"",""2"",""8052""
""focus"",""2"",""8452""
""fullscreenexit"",""2"",""8465""
","""event"",""trial"",""time""
""blur"",""2"",""8052""
","""event"",""trial"",""time""
""focus"",""0"",""1""
""focus"",""2"",""8452""
","""event"",""trial"",""time""
""fullscreenenter"",""1"",""4649""
","""event"",""trial"",""time""
""fullscreenexit"",""2"",""8465""
","","","727","","","24","7575","3891","&#9730;","elianto","#3366ff99"," "," ","1","+10","[1579]","1","1","","","7575","7","1","1","win","go","0"
"pit-trial","131","1048712","0.0-11.0","battery-v0.2","","""event"",""trial"",""time""
""focus"",""0"",""1""
""fullscreenenter"",""1"",""4649""
""blur"",""2"",""8052""
""focus"",""2"",""8452""
""fullscreenexit"",""2"",""8465""
","""event"",""trial"",""time""
""blur"",""2"",""8052""
","""event"",""trial"",""time""
""focus"",""0"",""1""
""focus"",""2"",""8452""
","""event"",""trial"",""time""
""fullscreenenter"",""1"",""4649""
","""event"",""trial"",""time""
""fullscreenexit"",""2"",""8465""
","","","461","","","24","7575","3891","&#9752;","elianto","#f73b6a7A"," "," ","1","0","[1311]","1","1","","","7575","8","3","3","lose","go","0"
"pit-trial","132","1052861","0.0-12.0","battery-v0.2","","""event"",""trial"",""time""
""focus"",""0"",""1""
""fullscreenenter"",""1"",""4649""
""blur"",""2"",""8052""
""focus"",""2"",""8452""
""fullscreenexit"",""2"",""8465""
","""event"",""trial"",""time""
""blur"",""2"",""8052""
","""event"",""trial"",""time""
""focus"",""0"",""1""
""focus"",""2"",""8452""
","""event"",""trial"",""time""
""fullscreenenter"",""1"",""4649""
","""event"",""trial"",""time""
""fullscreenexit"",""2"",""8465""
","","","1294","","","24","7575","3891","&#9730;","elianto","#3366ff99"," "," ","1","0","[2145]","1","1","","","7575","9","1","1","win","go","1"
"pit-trial","133","1057730","0.0-13.0","battery-v0.2","","""event"",""trial"",""time""
""focus"",""0"",""1""
""fullscreenenter"",""1"",""4649""
""blur"",""2"",""8052""
""focus"",""2"",""8452""
""fullscreenexit"",""2"",""8465""
","""event"",""trial"",""time""
""blur"",""2"",""8052""
","""event"",""trial"",""time""
""focus"",""0"",""1""
""focus"",""2"",""8452""
","""event"",""trial"",""time""
""fullscreenenter"",""1"",""4649""
","""event"",""trial"",""time""
""fullscreenexit"",""2"",""8465""
","","","-1","","","24","7575","3891","&#9752;","elianto","#f73b6a7A"," ","-1","0","-10","[]","0","1","","","7575","10","3","3","lose","go","0"
"pit-trial","134","1061115","0.0-14.0","battery-v0.2","","""event"",""trial"",""time""
""focus"",""0"",""1""
""fullscreenenter"",""1"",""4649""
""blur"",""2"",""8052""
""focus"",""2"",""8452""
""fullscreenexit"",""2"",""8465""
","""event"",""trial"",""time""
""blur"",""2"",""8052""
","""event"",""trial"",""time""
""focus"",""0"",""1""
""focus"",""2"",""8452""
","""event"",""trial"",""time""
""fullscreenenter"",""1"",""4649""
","""event"",""trial"",""time""
""fullscreenexit"",""2"",""8465""
","","","520","","","24","7575","3891","&#9733;","elianto","#3366ff99","-1"," ","0","0","[1374]","1","1","","","7575","11","2","2","win","no-go","0"
"pit-trial","135","1065977","0.0-15.0","battery-v0.2","","""event"",""trial"",""time""
""focus"",""0"",""1""
""fullscreenenter"",""1"",""4649""
""blur"",""2"",""8052""
""focus"",""2"",""8452""
""fullscreenexit"",""2"",""8465""
","""event"",""trial"",""time""
""blur"",""2"",""8052""
","""event"",""trial"",""time""
""focus"",""0"",""1""
""focus"",""2"",""8452""
","""event"",""trial"",""time""
""fullscreenenter"",""1"",""4649""
","""event"",""trial"",""time""
""fullscreenexit"",""2"",""8465""
","","","-1","","","24","7575","3891","&#9728;","elianto","#f73b6a7A","-1","-1","1","0","[]","0","1","","","7575","12","0","4","lose","no-go","0"
"pit-trial","136","1069466","0.0-16.0","battery-v0.2","","""event"",""trial"",""time""
""focus"",""0"",""1""
""fullscreenenter"",""1"",""4649""
""blur"",""2"",""8052""
""focus"",""2"",""8452""
""fullscreenexit"",""2"",""8465""
","""event"",""trial"",""time""
""blur"",""2"",""8052""
","""event"",""trial"",""time""
""focus"",""0"",""1""
""focus"",""2"",""8452""
","""event"",""trial"",""time""
""fullscreenenter"",""1"",""4649""
","""event"",""trial"",""time""
""fullscreenexit"",""2"",""8465""
","","","631","","","24","7575","3891","&#9733;","elianto","#3366ff99","-1"," ","0","0","[1482]","1","1","","","7575","13","2","2","win","no-go","0"
"pit-trial","137","1074326","0.0-17.0","battery-v0.2","","""event"",""trial"",""time""
""focus"",""0"",""1""
""fullscreenenter"",""1"",""4649""
""blur"",""2"",""8052""
""focus"",""2"",""8452""
""fullscreenexit"",""2"",""8465""
","""event"",""trial"",""time""
""blur"",""2"",""8052""
","""event"",""trial"",""time""
""focus"",""0"",""1""
""focus"",""2"",""8452""
","""event"",""trial"",""time""
""fullscreenenter"",""1"",""4649""
","""event"",""trial"",""time""
""fullscreenexit"",""2"",""8465""
","","","-1","","","24","7575","3891","&#9728;","elianto","#f73b6a7A","-1","-1","1","0","[]","0","1","","","7575","14","0","4","lose","no-go","0"
"pit-trial","138","1079185","0.0-18.0","battery-v0.2","","""event"",""trial"",""time""
""focus"",""0"",""1""
""fullscreenenter"",""1"",""4649""
""blur"",""2"",""8052""
""focus"",""2"",""8452""
""fullscreenexit"",""2"",""8465""
","""event"",""trial"",""time""
""blur"",""2"",""8052""
","""event"",""trial"",""time""
""focus"",""0"",""1""
""focus"",""2"",""8452""
","""event"",""trial"",""time""
""fullscreenenter"",""1"",""4649""
","""event"",""trial"",""time""
""fullscreenexit"",""2"",""8465""
","","","-1","","","24","7575","3891","&#9752;","elianto","#f73b6a7A"," ","-1","0","0","[]","0","1","","","7575","15","3","3","lose","go","1"
"pit-trial","139","1082747","0.0-19.0","battery-v0.2","","""event"",""trial"",""time""
""focus"",""0"",""1""
""fullscreenenter"",""1"",""4649""
""blur"",""2"",""8052""
""focus"",""2"",""8452""
""fullscreenexit"",""2"",""8465""
","""event"",""trial"",""time""
""blur"",""2"",""8052""
","""event"",""trial"",""time""
""focus"",""0"",""1""
""focus"",""2"",""8452""
","""event"",""trial"",""time""
""fullscreenenter"",""1"",""4649""
","""event"",""trial"",""time""
""fullscreenexit"",""2"",""8465""
","","","698","","","24","7575","3891","&#9730;","elianto","#3366ff99"," "," ","1","+10","[1552]","1","1","","","7575","16","1","1","win","go","0"
"pit-trial","140","1087612","0.0-20.0","battery-v0.2","","""event"",""trial"",""time""
""focus"",""0"",""1""
""fullscreenenter"",""1"",""4649""
""blur"",""2"",""8052""
""focus"",""2"",""8452""
""fullscreenexit"",""2"",""8465""
","""event"",""trial"",""time""
""blur"",""2"",""8052""
","""event"",""trial"",""time""
""focus"",""0"",""1""
""focus"",""2"",""8452""
","""event"",""trial"",""time""
""fullscreenenter"",""1"",""4649""
","""event"",""trial"",""time""
""fullscreenexit"",""2"",""8465""
","","","-1","","","24","7575","3891","&#9752;","elianto","#f73b6a7A"," ","-1","0","-10","[]","0","1","","","7575","17","3","3","lose","go","0"
"pit-trial","141","1091162","0.0-21.0","battery-v0.2","","""event"",""trial"",""time""
""focus"",""0"",""1""
""fullscreenenter"",""1"",""4649""
""blur"",""2"",""8052""
""focus"",""2"",""8452""
""fullscreenexit"",""2"",""8465""
","""event"",""trial"",""time""
""blur"",""2"",""8052""
","""event"",""trial"",""time""
""focus"",""0"",""1""
""focus"",""2"",""8452""
","""event"",""trial"",""time""
""fullscreenenter"",""1"",""4649""
","""event"",""trial"",""time""
""fullscreenexit"",""2"",""8465""
","","","685","","","24","7575","3891","&#9733;","elianto","#3366ff99","-1"," ","0","0","[1538]","1","1","","","7575","18","2","2","win","no-go","0"
"pit-trial","142","1096022","0.0-22.0","battery-v0.2","","""event"",""trial"",""time""
""focus"",""0"",""1""
""fullscreenenter"",""1"",""4649""
""blur"",""2"",""8052""
""focus"",""2"",""8452""
""fullscreenexit"",""2"",""8465""
","""event"",""trial"",""time""
""blur"",""2"",""8052""
","""event"",""trial"",""time""
""focus"",""0"",""1""
""focus"",""2"",""8452""
","""event"",""trial"",""time""
""fullscreenenter"",""1"",""4649""
","""event"",""trial"",""time""
""fullscreenexit"",""2"",""8465""
","","","-1","","","24","7575","3891","&#9728;","elianto","#f73b6a7A","-1","-1","1","0","[]","0","1","","","7575","19","0","4","lose","no-go","0"
"pit-trial","143","1099570","0.0-23.0","battery-v0.2","","""event"",""trial"",""time""
""focus"",""0"",""1""
""fullscreenenter"",""1"",""4649""
""blur"",""2"",""8052""
""focus"",""2"",""8452""
""fullscreenexit"",""2"",""8465""
","""event"",""trial"",""time""
""blur"",""2"",""8052""
","""event"",""trial"",""time""
""focus"",""0"",""1""
""focus"",""2"",""8452""
","""event"",""trial"",""time""
""fullscreenenter"",""1"",""4649""
","""event"",""trial"",""time""
""fullscreenexit"",""2"",""8465""
","","","684","","","24","7575","3891","&#9730;","elianto","#3366ff99"," "," ","1","0","[1538]","1","1","","","7575","20","1","1","win","go","1"
"pit-instructions","144","1126808","0.0-24.0","battery-v0.2","","""event"",""trial"",""time""
""focus"",""0"",""1""
""fullscreenenter"",""1"",""4649""
""blur"",""2"",""8052""
""focus"",""2"",""8452""
""fullscreenexit"",""2"",""8465""
","""event"",""trial"",""time""
""blur"",""2"",""8052""
","""event"",""trial"",""time""
""focus"",""0"",""1""
""focus"",""2"",""8452""
","""event"",""trial"",""time""
""fullscreenenter"",""1"",""4649""
","""event"",""trial"",""time""
""fullscreenexit"",""2"",""8465""
","","[{""page_index"":0,""viewing_time"":14687},{""page_index"":1,""viewing_time"":12548}]","27235","","","","","","","","","","","","","","","","","","","","","","","",""
"pit-trial","145","1131668","0.0-25.0","battery-v0.2","","""event"",""trial"",""time""
""focus"",""0"",""1""
""fullscreenenter"",""1"",""4649""
""blur"",""2"",""8052""
""focus"",""2"",""8452""
""fullscreenexit"",""2"",""8465""
","""event"",""trial"",""time""
""blur"",""2"",""8052""
","""event"",""trial"",""time""
""focus"",""0"",""1""
""focus"",""2"",""8452""
","""event"",""trial"",""time""
""fullscreenenter"",""1"",""4649""
","""event"",""trial"",""time""
""fullscreenexit"",""2"",""8465""
","","","-1","","","24","7575","3891","j","elianto","#f73b6a7A"," ","-1","0","-10","[]","0","2","","","7575","21","0","3","lose","go","0"
"pit-trial","146","1135063","0.0-26.0","battery-v0.2","","""event"",""trial"",""time""
""focus"",""0"",""1""
""fullscreenenter"",""1"",""4649""
""blur"",""2"",""8052""
""focus"",""2"",""8452""
""fullscreenexit"",""2"",""8465""
","""event"",""trial"",""time""
""blur"",""2"",""8052""
","""event"",""trial"",""time""
""focus"",""0"",""1""
""focus"",""2"",""8452""
","""event"",""trial"",""time""
""fullscreenenter"",""1"",""4649""
","""event"",""trial"",""time""
""fullscreenexit"",""2"",""8465""
","","","530","","","24","7575","3891","d","elianto","#3366ff99","-1"," ","0","0","[1385]","1","2","","","7575","22","1","2","win","no-go","0"
"pit-trial","147","1139923","0.0-27.0","battery-v0.2","","""event"",""trial"",""time""
""focus"",""0"",""1""
""fullscreenenter"",""1"",""4649""
""blur"",""2"",""8052""
""focus"",""2"",""8452""
""fullscreenexit"",""2"",""8465""
","""event"",""trial"",""time""
""blur"",""2"",""8052""
","""event"",""trial"",""time""
""focus"",""0"",""1""
""focus"",""2"",""8452""
","""event"",""trial"",""time""
""fullscreenenter"",""1"",""4649""
","""event"",""trial"",""time""
""fullscreenexit"",""2"",""8465""
","","","-1","","","24","7575","3891","w","elianto","#f73b6a7A","-1","-1","1","-10","[]","0","2","","","7575","23","3","4","lose","no-go","1"
"pit-trial","148","1144784","0.0-28.0","battery-v0.2","","""event"",""trial"",""time""
""focus"",""0"",""1""
""fullscreenenter"",""1"",""4649""
""blur"",""2"",""8052""
""focus"",""2"",""8452""
""fullscreenexit"",""2"",""8465""
","""event"",""trial"",""time""
""blur"",""2"",""8052""
","""event"",""trial"",""time""
""focus"",""0"",""1""
""focus"",""2"",""8452""
","""event"",""trial"",""time""
""fullscreenenter"",""1"",""4649""
","""event"",""trial"",""time""
""fullscreenexit"",""2"",""8465""
","","","-1","","","24","7575","3891","e","elianto","#f73b6a7A"," ","-1","0","-10","[]","0","2","","","7575","24","2","3","lose","go","0"
"pit-trial","149","1149645","0.0-29.0","battery-v0.2","","""event"",""trial"",""time""
""focus"",""0"",""1""
""fullscreenenter"",""1"",""4649""
""blur"",""2"",""8052""
""focus"",""2"",""8452""
""fullscreenexit"",""2"",""8465""
","""event"",""trial"",""time""
""blur"",""2"",""8052""
","""event"",""trial"",""time""
""focus"",""0"",""1""
""focus"",""2"",""8452""
","""event"",""trial"",""time""
""fullscreenenter"",""1"",""4649""
","""event"",""trial"",""time""
""fullscreenexit"",""2"",""8465""
","","","-1","","","24","7575","3891","j","elianto","#f73b6a7A"," ","-1","0","-10","[]","0","2","","","7575","25","0","3","lose","go","0"
"pit-trial","150","1153119","0.0-30.0","battery-v0.2","","""event"",""trial"",""time""
""focus"",""0"",""1""
""fullscreenenter"",""1"",""4649""
""blur"",""2"",""8052""
""focus"",""2"",""8452""
""fullscreenexit"",""2"",""8465""
","""event"",""trial"",""time""
""blur"",""2"",""8052""
","""event"",""trial"",""time""
""focus"",""0"",""1""
""focus"",""2"",""8452""
