"trial_type","trial_index","time_elapsed","internal_node_id","task_version","subject_id","interactions","blur_events","focus_events","fullscreenenter_events","fullscreenexit_events","success","view_history","rt","responses","num_errors","age","subject","participantId","rune","rune_set","hex","correct","choice","accuracy","outcome","keys","total_keys","block","practice","value","sub","trial","stimulus","robot","valence","action","sham"
"pavlovia","0","22","0.0-0.0","battery-v0.2","","""event"",""trial"",""time""
""fullscreenenter"",""1"",""3007""
","
","
","""event"",""trial"",""time""
""fullscreenenter"",""1"",""3007""
","
","","","","","","","","","","","","","","","","","","","","","","","","","","",""
"fullscreen","1","3992","0.0-1.0","battery-v0.2","","""event"",""trial"",""time""
""fullscreenenter"",""1"",""3007""
","
","
","""event"",""trial"",""time""
""fullscreenenter"",""1"",""3007""
","
","true","","","","","","","","","","","","","","","","","","","","","","","","","",""
"pit-instructions","2","18201","0.0-2.0-0.0","battery-v0.2","","""event"",""trial"",""time""
""fullscreenenter"",""1"",""3007""
","
","
","""event"",""trial"",""time""
""fullscreenenter"",""1"",""3007""
","
","","[{""page_index"":0,""viewing_time"":14204.400000000373}]","14204.700000000186","","","","","","","","","","","","","","","","","","","","","","","",""
"pit-comprehension","3","22089","0.0-2.0-1.0-0.0","battery-v0.2","","""event"",""trial"",""time""
""fullscreenenter"",""1"",""3007""
","
","
","""event"",""trial"",""time""
""fullscreenenter"",""1"",""3007""
","
","","","3884.4000000003725","[""shark""]","0","20","16217","2661","","","","","","","","","","","","","","","","","","",""
"pit-instructions","4","24689","0.0-2.0-1.0-1.0","battery-v0.2","","""event"",""trial"",""time""
""fullscreenenter"",""1"",""3007""
","
","
","""event"",""trial"",""time""
""fullscreenenter"",""1"",""3007""
","
","","[{""page_index"":0,""viewing_time"":2594.7999999998137}]","2595.100000000559","","","","","","","","","","","","","","","","","","","","","","","",""
"pit-comprehension","5","27208","0.0-2.0-2.0-0.0","battery-v0.2","","""event"",""trial"",""time""
""fullscreenenter"",""1"",""3007""
","
","
","""event"",""trial"",""time""
""fullscreenenter"",""1"",""3007""
","
","","","2517","[""tiger""]","0","20","16217","2661","","","","","","","","","","","","","","","","","","",""
"pit-instructions","6","28039","0.0-2.0-2.0-1.0","battery-v0.2","","""event"",""trial"",""time""
""fullscreenenter"",""1"",""3007""
","
","
","""event"",""trial"",""time""
""fullscreenenter"",""1"",""3007""
","
","","[{""page_index"":0,""viewing_time"":828.4000000003725}]","828.6000000005588","","","","","","","","","","","","","","","","","","","","","","","",""
"pit-instructions","7","135344","0.0-2.0-3.0","battery-v0.2","","""event"",""trial"",""time""
""fullscreenenter"",""1"",""3007""
","
","
","""event"",""trial"",""time""
""fullscreenenter"",""1"",""3007""
","
","","[{""page_index"":0,""viewing_time"":8609},{""page_index"":1,""viewing_time"":6276.100000000559},{""page_index"":2,""viewing_time"":6919.799999999814},{""page_index"":3,""viewing_time"":5454.700000000186},{""page_index"":4,""viewing_time"":6581.5},{""page_index"":5,""viewing_time"":7811},{""page_index"":6,""viewing_time"":8560.799999999814},{""page_index"":7,""viewing_time"":7994.200000000186},{""page_index"":8,""viewing_time"":8678.299999999814},{""page_index"":9,""viewing_time"":9011.299999999814},{""page_index"":10,""viewing_time"":7679.5},{""page_index"":11,""viewing_time"":10616.5},{""page_index"":12,""viewing_time"":7207.4000000003725},{""page_index"":13,""viewing_time"":5905}]","107305.40000000037","","","","","","","","","","","","","","","","","","","","","","","",""
"pit-trial","8","138235","0.0-2.0-4.0-0.0","battery-v0.2","","""event"",""trial"",""time""
""fullscreenenter"",""1"",""3007""
","
","
","""event"",""trial"",""time""
""fullscreenenter"",""1"",""3007""
","
","","","37","","","20","16217","2661","&#9784;","elianto","#FFFFF080"," "," ","1","&#10004","[888.7000000001863]","1","0","0","","","","","","","",""
"pit-trial","9","141245","0.0-2.0-4.1-0.1","battery-v0.2","","""event"",""trial"",""time""
""fullscreenenter"",""1"",""3007""
","
","
","""event"",""trial"",""time""
""fullscreenenter"",""1"",""3007""
","
","","","156.29999999981374","","","20","16217","2661","&#9784;","elianto","#FFFFF080"," "," ","1","&#10004","[1007.0999999996275]","1","0","0","","","","","","","",""
"pit-trial","10","144442","0.0-2.0-4.2-0.2","battery-v0.2","","""event"",""trial"",""time""
""fullscreenenter"",""1"",""3007""
","
","
","""event"",""trial"",""time""
""fullscreenenter"",""1"",""3007""
","
","","","344.70000000018626","","","20","16217","2661","&#9784;","elianto","#FFFFF080"," "," ","1","&#10004","[1194.7999999998137]","1","0","0","","","","","","","",""
"pit-trial","11","147669","0.0-2.0-4.3-0.3","battery-v0.2","","""event"",""trial"",""time""
""fullscreenenter"",""1"",""3007""
","
","
","""event"",""trial"",""time""
""fullscreenenter"",""1"",""3007""
","
","","","373.20000000018626","","","20","16217","2661","&#9784;","elianto","#FFFFF080"," "," ","1","&#10004","[1224.6000000005588]","1","0","0","","","","","","","",""
"pit-trial","12","150939","0.0-2.0-4.4-0.4","battery-v0.2","","""event"",""trial"",""time""
""fullscreenenter"",""1"",""3007""
","
","
","""event"",""trial"",""time""
""fullscreenenter"",""1"",""3007""
","
","","","416.79999999981374","","","20","16217","2661","&#9784;","elianto","#FFFFF080"," "," ","1","&#10004","[1268.5999999996275]","1","0","0","","","","","","","",""
"pit-instructions","13","174385","0.0-2.0-5.0","battery-v0.2","","""event"",""trial"",""time""
""fullscreenenter"",""1"",""3007""
","
","
","""event"",""trial"",""time""
""fullscreenenter"",""1"",""3007""
","
","","[{""page_index"":0,""viewing_time"":5450.700000000186},{""page_index"":1,""viewing_time"":6027.199999999255},{""page_index"":2,""viewing_time"":6369.700000000186},{""page_index"":3,""viewing_time"":5596}]","23443.799999999814","","","","","","","","","","","","","","","","","","","","","","","",""
"pit-trial","14","179239","0.0-2.0-6.0-0.0","battery-v0.2","","""event"",""trial"",""time""
""fullscreenenter"",""1"",""3007""
","
","
","""event"",""trial"",""time""
""fullscreenenter"",""1"",""3007""
","
","","","-1","","","20","16217","2661","&#9854;","elianto","#FFFFF080","-1","-1","1","&#10004","[]","0","0","1","","","","","","","",""
"pit-trial","15","184094","0.0-2.0-6.1-0.1","battery-v0.2","","""event"",""trial"",""time""
""fullscreenenter"",""1"",""3007""
","
","
","""event"",""trial"",""time""
""fullscreenenter"",""1"",""3007""
","
","","","-1","","","20","16217","2661","&#9854;","elianto","#FFFFF080","-1","-1","1","&#10004","[]","0","0","1","","","","","","","",""
"pit-trial","16","188947","0.0-2.0-6.2-0.2","battery-v0.2","","""event"",""trial"",""time""
""fullscreenenter"",""1"",""3007""
","
","
","""event"",""trial"",""time""
""fullscreenenter"",""1"",""3007""
","
","","","-1","","","20","16217","2661","&#9854;","elianto","#FFFFF080","-1","-1","1","&#10004","[]","0","0","1","","","","","","","",""
"pit-trial","17","193803","0.0-2.0-6.3-0.3","battery-v0.2","","""event"",""trial"",""time""
""fullscreenenter"",""1"",""3007""
","
","
","""event"",""trial"",""time""
""fullscreenenter"",""1"",""3007""
","
","","","-1","","","20","16217","2661","&#9854;","elianto","#FFFFF080","-1","-1","1","&#10004","[]","0","0","1","","","","","","","",""
"pit-trial","18","198656","0.0-2.0-6.4-0.4","battery-v0.2","","""event"",""trial"",""time""
""fullscreenenter"",""1"",""3007""
","
","
","""event"",""trial"",""time""
""fullscreenenter"",""1"",""3007""
","
","","","-1","","","20","16217","2661","&#9854;","elianto","#FFFFF080","-1","-1","1","&#10004","[]","0","0","1","","","","","","","",""
"pit-instructions","19","336197","0.0-2.0-7.0","battery-v0.2","","""event"",""trial"",""time""
""fullscreenenter"",""1"",""3007""
","
","
","""event"",""trial"",""time""
""fullscreenenter"",""1"",""3007""
","
","","[{""page_index"":0,""viewing_time"":8204.100000000559},{""page_index"":1,""viewing_time"":7901.899999999441},{""page_index"":2,""viewing_time"":6668.700000000186},{""page_index"":3,""viewing_time"":7432.299999999814},{""page_index"":4,""viewing_time"":8127.5},{""page_index"":5,""viewing_time"":8864.400000000373},{""page_index"":6,""viewing_time"":5810.200000000186},{""page_index"":7,""viewing_time"":7967.299999999814},{""page_index"":8,""viewing_time"":7190.200000000186},{""page_index"":9,""viewing_time"":8860.599999999627},{""page_index"":10,""viewing_time"":7420.799999999814},{""page_index"":11,""viewing_time"":7304.9000000003725},{""page_index"":12,""viewing_time"":8176.5999999996275},{""page_index"":13,""viewing_time"":7793.9000000003725},{""page_index"":14,""viewing_time"":8078.899999999441},{""page_index"":15,""viewing_time"":7225.300000000745},{""page_index"":16,""viewing_time"":6852.5999999996275},{""page_index"":17,""viewing_time"":7661.5}]","137541.90000000037","","","","","","","","","","","","","","","","","","","","","","","",""
"pit-trial","20","339168","0.0-2.0-8.0-0.0","battery-v0.2","","""event"",""trial"",""time""
""fullscreenenter"",""1"",""3007""
","
","
","""event"",""trial"",""time""
""fullscreenenter"",""1"",""3007""
","
","","","117.79999999981374","","","20","16217","2661","&#9776;","elianto","#3366ff99"," "," ","1","+10","[968.8999999994412]","1","0","1","","","","","","","",""
"pit-trial","21","342155","0.0-2.0-8.0-1.0","battery-v0.2","","""event"",""trial"",""time""
""fullscreenenter"",""1"",""3007""
","
","
","""event"",""trial"",""time""
""fullscreenenter"",""1"",""3007""
","
","","","133.80000000074506","","","20","16217","2661","&#9776;","elianto","#3366ff99"," "," ","1","+10","[984.7000000001863]","1","0","1","","","","","","","",""
"pit-trial","22","345056","0.0-2.0-8.0-2.0","battery-v0.2","","""event"",""trial"",""time""
""fullscreenenter"",""1"",""3007""
","
","
","""event"",""trial"",""time""
""fullscreenenter"",""1"",""3007""
","
","","","47.59999999962747","","","20","16217","2661","&#9776;","elianto","#3366ff99"," "," ","1","+10","[899.4000000003725]","1","0","1","","","","","","","",""
"pit-trial","23","348018","0.0-2.0-8.0-3.0","battery-v0.2","","""event"",""trial"",""time""
""fullscreenenter"",""1"",""3007""
","
","
","""event"",""trial"",""time""
""fullscreenenter"",""1"",""3007""
","
","","","108.80000000074506","","","20","16217","2661","&#9776;","elianto","#3366ff99"," "," ","1","0","[960]","1","0","1","","","","","","","",""
"pit-trial","24","350955","0.0-2.0-8.0-4.0","battery-v0.2","","""event"",""trial"",""time""
""fullscreenenter"",""1"",""3007""
","
","
","""event"",""trial"",""time""
""fullscreenenter"",""1"",""3007""
","
","","","82.8999999994412","","","20","16217","2661","&#9776;","elianto","#3366ff99"," "," ","1","+10","[934.0999999996275]","1","0","1","","","","","","","",""
"pit-trial","25","353861","0.0-2.0-8.1-0.1","battery-v0.2","","""event"",""trial"",""time""
""fullscreenenter"",""1"",""3007""
","
","
","""event"",""trial"",""time""
""fullscreenenter"",""1"",""3007""
","
","","","53.700000000186265","","","20","16217","2661","&#9776;","elianto","#3366ff99"," "," ","1","+10","[904.5]","1","0","1","","","","","","","",""
"pit-trial","26","356765","0.0-2.0-8.1-1.1","battery-v0.2","","""event"",""trial"",""time""
""fullscreenenter"",""1"",""3007""
","
","
","""event"",""trial"",""time""
""fullscreenenter"",""1"",""3007""
","
","","","50.09999999962747","","","20","16217","2661","&#9776;","elianto","#3366ff99"," "," ","1","+10","[901.7000000001863]","1","0","1","","","","","","","",""
"pit-trial","27","359690","0.0-2.0-8.1-2.1","battery-v0.2","","""event"",""trial"",""time""
""fullscreenenter"",""1"",""3007""
","
","
","""event"",""trial"",""time""
""fullscreenenter"",""1"",""3007""
","
","","","71.09999999962747","","","20","16217","2661","&#9776;","elianto","#3366ff99"," "," ","1","+10","[922.5]","1","0","1","","","","","","","",""
"pit-trial","28","362610","0.0-2.0-8.1-3.1","battery-v0.2","","""event"",""trial"",""time""
""fullscreenenter"",""1"",""3007""
","
","
","""event"",""trial"",""time""
""fullscreenenter"",""1"",""3007""
","
","","","65.80000000074506","","","20","16217","2661","&#9776;","elianto","#3366ff99"," "," ","1","0","[917.2999999998137]","1","0","1","","","","","","","",""
"pit-trial","29","365519","0.0-2.0-8.1-4.1","battery-v0.2","","""event"",""trial"",""time""
""fullscreenenter"",""1"",""3007""
","
","
","""event"",""trial"",""time""
""fullscreenenter"",""1"",""3007""
","
","","","56.299999999813735","","","20","16217","2661","&#9776;","elianto","#3366ff99"," "," ","1","+10","[907.2999999998137]","1","0","1","","","","","","","",""
"pit-trial","30","368445","0.0-2.0-8.2-0.2","battery-v0.2","","""event"",""trial"",""time""
""fullscreenenter"",""1"",""3007""
","
","
","""event"",""trial"",""time""
""fullscreenenter"",""1"",""3007""
","
","","","72","","","20","16217","2661","&#9776;","elianto","#3366ff99"," "," ","1","+10","[923.4000000003725]","1","0","1","","","","","","","",""
"pit-trial","31","371399","0.0-2.0-8.2-1.2","battery-v0.2","","""event"",""trial"",""time""
""fullscreenenter"",""1"",""3007""
","
","
","""event"",""trial"",""time""
""fullscreenenter"",""1"",""3007""
","
","","","98.6000000005588","","","20","16217","2661","&#9776;","elianto","#3366ff99"," "," ","1","+10","[950]","1","0","1","","","","","","","",""
"pit-trial","32","374423","0.0-2.0-8.2-2.2","battery-v0.2","","""event"",""trial"",""time""
""fullscreenenter"",""1"",""3007""
","
","
","""event"",""trial"",""time""
""fullscreenenter"",""1"",""3007""
","
","","","168.8999999994412","","","20","16217","2661","&#9776;","elianto","#3366ff99"," "," ","1","+10","[1019.8999999994412]","1","0","1","","","","","","","",""
"pit-trial","33","377373","0.0-2.0-8.2-3.2","battery-v0.2","","""event"",""trial"",""time""
""fullscreenenter"",""1"",""3007""
","
","
","""event"",""trial"",""time""
""fullscreenenter"",""1"",""3007""
","
","","","95.90000000037253","","","20","16217","2661","&#9776;","elianto","#3366ff99"," "," ","1","0","[946.7999999998137]","1","0","1","","","","","","","",""
"pit-trial","34","380370","0.0-2.0-8.2-4.2","battery-v0.2","","""event"",""trial"",""time""
""fullscreenenter"",""1"",""3007""
","
","
","""event"",""trial"",""time""
""fullscreenenter"",""1"",""3007""
","
","","","142.1000000005588","","","20","16217","2661","&#9776;","elianto","#3366ff99"," "," ","1","+10","[992.8999999994412]","1","0","1","","","","","","","",""
"call-function","35","380373","0.0-2.0-9.0","battery-v0.2","","""event"",""trial"",""time""
""fullscreenenter"",""1"",""3007""
","
","
","""event"",""trial"",""time""
""fullscreenenter"",""1"",""3007""
","
","","","","","","","","","","","","","","","","","","","","","","","","","","",""
"pit-instructions","36","420588","0.0-2.0-10.0","battery-v0.2","","""event"",""trial"",""time""
""fullscreenenter"",""1"",""3007""
","
","
","""event"",""trial"",""time""
""fullscreenenter"",""1"",""3007""
","
","","[{""page_index"":0,""viewing_time"":5767.799999999814},{""page_index"":1,""viewing_time"":6997.799999999814},{""page_index"":2,""viewing_time"":9566.099999999627},{""page_index"":3,""viewing_time"":9503.700000000186},{""page_index"":4,""viewing_time"":8379.100000000559}]","40214.699999999255","","","","","","","","","","","","","","","","","","","","","","","",""
"pit-trial","37","423601","0.0-2.0-11.0-0.0","battery-v0.2","","""event"",""trial"",""time""
""fullscreenenter"",""1"",""3007""
","
","
","""event"",""trial"",""time""
""fullscreenenter"",""1"",""3007""
","
","","","159.59999999962747","","","20","16217","2661","&#9761;","elianto","#3366ff99","-1"," ","0","0","[1011.1000000005588]","1","0","2","","","","","","","",""
"pit-trial","38","426566","0.0-2.0-11.0-1.0","battery-v0.2","","""event"",""trial"",""time""
""fullscreenenter"",""1"",""3007""
","
","
","""event"",""trial"",""time""
""fullscreenenter"",""1"",""3007""
","
","","","113.5","","","20","16217","2661","&#9761;","elianto","#3366ff99","-1"," ","0","0","[963.5999999996275]","1","0","2","","","","","","","",""
"pit-trial","39","431420","0.0-2.0-11.0-2.0","battery-v0.2","","""event"",""trial"",""time""
""fullscreenenter"",""1"",""3007""
","
","
","""event"",""trial"",""time""
""fullscreenenter"",""1"",""3007""
","
","","","-1","","","20","16217","2661","&#9761;","elianto","#3366ff99","-1","-1","1","+10","[]","0","0","2","","","","","","","",""
"pit-trial","40","436273","0.0-2.0-11.0-3.0","battery-v0.2","","""event"",""trial"",""time""
""fullscreenenter"",""1"",""3007""
","
","
","""event"",""trial"",""time""
""fullscreenenter"",""1"",""3007""
","
","","","-1","","","20","16217","2661","&#9761;","elianto","#3366ff99","-1","-1","1","0","[]","0","0","2","","","","","","","",""
"pit-trial","41","441127","0.0-2.0-11.0-4.0","battery-v0.2","","""event"",""trial"",""time""
""fullscreenenter"",""1"",""3007""
","
","
","""event"",""trial"",""time""
""fullscreenenter"",""1"",""3007""
","
","","","-1","","","20","16217","2661","&#9761;","elianto","#3366ff99","-1","-1","1","+10","[]","0","0","2","","","","","","","",""
"pit-trial","42","445981","0.0-2.0-11.1-0.1","battery-v0.2","","""event"",""trial"",""time""
""fullscreenenter"",""1"",""3007""
","
","
","""event"",""trial"",""time""
""fullscreenenter"",""1"",""3007""
","
","","","-1","","","20","16217","2661","&#9761;","elianto","#3366ff99","-1","-1","1","+10","[]","0","0","2","","","","","","","",""
"pit-trial","43","450833","0.0-2.0-11.1-1.1","battery-v0.2","","""event"",""trial"",""time""
""fullscreenenter"",""1"",""3007""
","
","
","""event"",""trial"",""time""
""fullscreenenter"",""1"",""3007""
","
","","","-1","","","20","16217","2661","&#9761;","elianto","#3366ff99","-1","-1","1","+10","[]","0","0","2","","","","","","","",""
"pit-trial","44","455688","0.0-2.0-11.1-2.1","battery-v0.2","","""event"",""trial"",""time""
""fullscreenenter"",""1"",""3007""
","
","
","""event"",""trial"",""time""
""fullscreenenter"",""1"",""3007""
","
","","","-1","","","20","16217","2661","&#9761;","elianto","#3366ff99","-1","-1","1","+10","[]","0","0","2","","","","","","","",""
"pit-trial","45","460544","0.0-2.0-11.1-3.1","battery-v0.2","","""event"",""trial"",""time""
""fullscreenenter"",""1"",""3007""
","
","
","""event"",""trial"",""time""
""fullscreenenter"",""1"",""3007""
","
","","","-1","","","20","16217","2661","&#9761;","elianto","#3366ff99","-1","-1","1","0","[]","0","0","2","","","","","","","",""
"pit-trial","46","465398","0.0-2.0-11.1-4.1","battery-v0.2","","""event"",""trial"",""time""
""fullscreenenter"",""1"",""3007""
","
","
","""event"",""trial"",""time""
""fullscreenenter"",""1"",""3007""
","
","","","-1","","","20","16217","2661","&#9761;","elianto","#3366ff99","-1","-1","1","+10","[]","0","0","2","","","","","","","",""
"pit-trial","47","470254","0.0-2.0-11.2-0.2","battery-v0.2","","""event"",""trial"",""time""
""fullscreenenter"",""1"",""3007""
","
","
","""event"",""trial"",""time""
""fullscreenenter"",""1"",""3007""
","
","","","-1","","","20","16217","2661","&#9761;","elianto","#3366ff99","-1","-1","1","+10","[]","0","0","2","","","","","","","",""
"pit-trial","48","475109","0.0-2.0-11.2-1.2","battery-v0.2","","""event"",""trial"",""time""
""fullscreenenter"",""1"",""3007""
","
","
","""event"",""trial"",""time""
""fullscreenenter"",""1"",""3007""
","
","","","-1","","","20","16217","2661","&#9761;","elianto","#3366ff99","-1","-1","1","+10","[]","0","0","2","","","","","","","",""
"pit-trial","49","479965","0.0-2.0-11.2-2.2","battery-v0.2","","""event"",""trial"",""time""
""fullscreenenter"",""1"",""3007""
","
","
","""event"",""trial"",""time""
""fullscreenenter"",""1"",""3007""
","
","","","-1","","","20","16217","2661","&#9761;","elianto","#3366ff99","-1","-1","1","+10","[]","0","0","2","","","","","","","",""
"pit-trial","50","484819","0.0-2.0-11.2-3.2","battery-v0.2","","""event"",""trial"",""time""
""fullscreenenter"",""1"",""3007""
","
","
","""event"",""trial"",""time""
""fullscreenenter"",""1"",""3007""
","
","","","-1","","","20","16217","2661","&#9761;","elianto","#3366ff99","-1","-1","1","0","[]","0","0","2","","","","","","","",""
"pit-trial","51","489674","0.0-2.0-11.2-4.2","battery-v0.2","","""event"",""trial"",""time""
""fullscreenenter"",""1"",""3007""
","
","
","""event"",""trial"",""time""
""fullscreenenter"",""1"",""3007""
","
","","","-1","","","20","16217","2661","&#9761;","elianto","#3366ff99","-1","-1","1","+10","[]","0","0","2","","","","","","","",""
"pit-trial","52","494531","0.0-2.0-11.3-0.3","battery-v0.2","","""event"",""trial"",""time""
""fullscreenenter"",""1"",""3007""
","
","
","""event"",""trial"",""time""
""fullscreenenter"",""1"",""3007""
","
","","","-1","","","20","16217","2661","&#9761;","elianto","#3366ff99","-1","-1","1","+10","[]","0","0","2","","","","","","","",""
"pit-trial","53","499386","0.0-2.0-11.3-1.3","battery-v0.2","","""event"",""trial"",""time""
""fullscreenenter"",""1"",""3007""
","
","
","""event"",""trial"",""time""
""fullscreenenter"",""1"",""3007""
","
","","","-1","","","20","16217","2661","&#9761;","elianto","#3366ff99","-1","-1","1","+10","[]","0","0","2","","","","","","","",""
"pit-trial","54","504242","0.0-2.0-11.3-2.3","battery-v0.2","","""event"",""trial"",""time""
""fullscreenenter"",""1"",""3007""
","
","
","""event"",""trial"",""time""
""fullscreenenter"",""1"",""3007""
","
","","","-1","","","20","16217","2661","&#9761;","elianto","#3366ff99","-1","-1","1","+10","[]","0","0","2","","","","","","","",""
"pit-trial","55","509096","0.0-2.0-11.3-3.3","battery-v0.2","","""event"",""trial"",""time""
""fullscreenenter"",""1"",""3007""
","
","
","""event"",""trial"",""time""
""fullscreenenter"",""1"",""3007""
","
","","","-1","","","20","16217","2661","&#9761;","elianto","#3366ff99","-1","-1","1","0","[]","0","0","2","","","","","","","",""
"pit-trial","56","513951","0.0-2.0-11.3-4.3","battery-v0.2","","""event"",""trial"",""time""
""fullscreenenter"",""1"",""3007""
","
","
","""event"",""trial"",""time""
""fullscreenenter"",""1"",""3007""
","
","","","-1","","","20","16217","2661","&#9761;","elianto","#3366ff99","-1","-1","1","+10","[]","0","0","2","","","","","","","",""
"call-function","57","513954","0.0-2.0-12.0","battery-v0.2","","""event"",""trial"",""time""
""fullscreenenter"",""1"",""3007""
","
","
","""event"",""trial"",""time""
""fullscreenenter"",""1"",""3007""
","
","","","","","","","","","","","","","","","","","","","","","","","","","","",""
"pit-instructions","58","547981","0.0-2.0-13.0","battery-v0.2","","""event"",""trial"",""time""
""fullscreenenter"",""1"",""3007""
","
","
","""event"",""trial"",""time""
""fullscreenenter"",""1"",""3007""
","
","","[{""page_index"":0,""viewing_time"":4907.5999999996275},{""page_index"":1,""viewing_time"":7477.299999999814},{""page_index"":2,""viewing_time"":3933.7000000001863},{""page_index"":3,""viewing_time"":12231},{""page_index"":4,""viewing_time"":5478}]","34027.799999999814","","","","","","","","","","","","","","","","","","","","","","","",""
"pit-trial","59","550907","0.0-2.0-14.0-0.0","battery-v0.2","","""event"",""trial"",""time""
""fullscreenenter"",""1"",""3007""
","
","
","""event"",""trial"",""time""
""fullscreenenter"",""1"",""3007""
","
","","","71.5","","","20","16217","2661","&#9826;","elianto","#f73b6a7A","-1"," ","0","-10","[922.6999999992549]","1","0","3","","","","","","","",""
"pit-trial","60","555761","0.0-2.0-14.0-1.0","battery-v0.2","","""event"",""trial"",""time""
""fullscreenenter"",""1"",""3007""
","
","
","""event"",""trial"",""time""
""fullscreenenter"",""1"",""3007""
","
","","","-1","","","20","16217","2661","&#9826;","elianto","#f73b6a7A","-1","-1","1","0","[]","0","0","3","","","","","","","",""
"pit-trial","61","560614","0.0-2.0-14.0-2.0","battery-v0.2","","""event"",""trial"",""time""
""fullscreenenter"",""1"",""3007""
","
","
","""event"",""trial"",""time""
""fullscreenenter"",""1"",""3007""
","
","","","-1","","","20","16217","2661","&#9826;","elianto","#f73b6a7A","-1","-1","1","0","[]","0","0","3","","","","","","","",""
"pit-trial","62","565467","0.0-2.0-14.0-3.0","battery-v0.2","","""event"",""trial"",""time""
""fullscreenenter"",""1"",""3007""
","
","
","""event"",""trial"",""time""
""fullscreenenter"",""1"",""3007""
","
","","","-1","","","20","16217","2661","&#9826;","elianto","#f73b6a7A","-1","-1","1","-10","[]","0","0","3","","","","","","","",""
"pit-trial","63","568494","0.0-2.0-14.0-4.0","battery-v0.2","","""event"",""trial"",""time""
""fullscreenenter"",""1"",""3007""
","
","
","""event"",""trial"",""time""
""fullscreenenter"",""1"",""3007""
","
","","","171.69999999925494","","","20","16217","2661","&#9826;","elianto","#f73b6a7A","-1"," ","0","-10","[1023.7999999998137]","1","0","3","","","","","","","",""
"pit-trial","64","573348","0.0-2.0-14.1-0.1","battery-v0.2","","""event"",""trial"",""time""
""fullscreenenter"",""1"",""3007""
","
","
","""event"",""trial"",""time""
""fullscreenenter"",""1"",""3007""
","
","","","-1","","","20","16217","2661","&#9826;","elianto","#f73b6a7A","-1","-1","1","0","[]","0","0","3","","","","","","","",""
"pit-trial","65","578202","0.0-2.0-14.1-1.1","battery-v0.2","","""event"",""trial"",""time""
""fullscreenenter"",""1"",""3007""
","
","
","""event"",""trial"",""time""
""fullscreenenter"",""1"",""3007""
","
","","","-1","","","20","16217","2661","&#9826;","elianto","#f73b6a7A","-1","-1","1","0","[]","0","0","3","","","","","","","",""
"pit-trial","66","583057","0.0-2.0-14.1-2.1","battery-v0.2","","""event"",""trial"",""time""
""fullscreenenter"",""1"",""3007""
","
","
","""event"",""trial"",""time""
""fullscreenenter"",""1"",""3007""
","
","","","-1","","","20","16217","2661","&#9826;","elianto","#f73b6a7A","-1","-1","1","0","[]","0","0","3","","","","","","","",""
"pit-trial","67","587911","0.0-2.0-14.1-3.1","battery-v0.2","","""event"",""trial"",""time""
""fullscreenenter"",""1"",""3007""
","
","
","""event"",""trial"",""time""
""fullscreenenter"",""1"",""3007""
","
","","","-1","","","20","16217","2661","&#9826;","elianto","#f73b6a7A","-1","-1","1","-10","[]","0","0","3","","","","","","","",""
"pit-trial","68","592764","0.0-2.0-14.1-4.1","battery-v0.2","","""event"",""trial"",""time""
""fullscreenenter"",""1"",""3007""
","
","
","""event"",""trial"",""time""
""fullscreenenter"",""1"",""3007""
","
","","","-1","","","20","16217","2661","&#9826;","elianto","#f73b6a7A","-1","-1","1","0","[]","0","0","3","","","","","","","",""
"pit-trial","69","597618","0.0-2.0-14.2-0.2","battery-v0.2","","""event"",""trial"",""time""
""fullscreenenter"",""1"",""3007""
","
","
","""event"",""trial"",""time""
""fullscreenenter"",""1"",""3007""
","
","","","-1","","","20","16217","2661","&#9826;","elianto","#f73b6a7A","-1","-1","1","0","[]","0","0","3","","","","","","","",""
"pit-trial","70","602475","0.0-2.0-14.2-1.2","battery-v0.2","","""event"",""trial"",""time""
""fullscreenenter"",""1"",""3007""
","
","
","""event"",""trial"",""time""
""fullscreenenter"",""1"",""3007""
","
","","","-1","","","20","16217","2661","&#9826;","elianto","#f73b6a7A","-1","-1","1","0","[]","0","0","3","","","","","","","",""
"pit-trial","71","607330","0.0-2.0-14.2-2.2","battery-v0.2","","""event"",""trial"",""time""
""fullscreenenter"",""1"",""3007""
","
","
","""event"",""trial"",""time""
""fullscreenenter"",""1"",""3007""
","
","","","-1","","","20","16217","2661","&#9826;","elianto","#f73b6a7A","-1","-1","1","0","[]","0","0","3","","","","","","","",""
"pit-trial","72","612184","0.0-2.0-14.2-3.2","battery-v0.2","","""event"",""trial"",""time""
""fullscreenenter"",""1"",""3007""
","
","
","""event"",""trial"",""time""
""fullscreenenter"",""1"",""3007""
","
","","","-1","","","20","16217","2661","&#9826;","elianto","#f73b6a7A","-1","-1","1","-10","[]","0","0","3","","","","","","","",""
"pit-trial","73","617039","0.0-2.0-14.2-4.2","battery-v0.2","","""event"",""trial"",""time""
""fullscreenenter"",""1"",""3007""
","
","
","""event"",""trial"",""time""
""fullscreenenter"",""1"",""3007""
","
","","","-1","","","20","16217","2661","&#9826;","elianto","#f73b6a7A","-1","-1","1","0","[]","0","0","3","","","","","","","",""
"pit-trial","74","621893","0.0-2.0-14.3-0.3","battery-v0.2","","""event"",""trial"",""time""
""fullscreenenter"",""1"",""3007""
","
","
","""event"",""trial"",""time""
""fullscreenenter"",""1"",""3007""
","
","","","-1","","","20","16217","2661","&#9826;","elianto","#f73b6a7A","-1","-1","1","0","[]","0","0","3","","","","","","","",""
"pit-trial","75","626748","0.0-2.0-14.3-1.3","battery-v0.2","","""event"",""trial"",""time""
""fullscreenenter"",""1"",""3007""
","
","
","""event"",""trial"",""time""
""fullscreenenter"",""1"",""3007""
","
","","","-1","","","20","16217","2661","&#9826;","elianto","#f73b6a7A","-1","-1","1","0","[]","0","0","3","","","","","","","",""
"pit-trial","76","631603","0.0-2.0-14.3-2.3","battery-v0.2","","""event"",""trial"",""time""
""fullscreenenter"",""1"",""3007""
","
","
","""event"",""trial"",""time""
""fullscreenenter"",""1"",""3007""
","
","","","-1","","","20","16217","2661","&#9826;","elianto","#f73b6a7A","-1","-1","1","0","[]","0","0","3","","","","","","","",""
"pit-trial","77","636458","0.0-2.0-14.3-3.3","battery-v0.2","","""event"",""trial"",""time""
""fullscreenenter"",""1"",""3007""
","
","
","""event"",""trial"",""time""
""fullscreenenter"",""1"",""3007""
","
","","","-1","","","20","16217","2661","&#9826;","elianto","#f73b6a7A","-1","-1","1","-10","[]","0","0","3","","","","","","","",""
"pit-trial","78","641313","0.0-2.0-14.3-4.3","battery-v0.2","","""event"",""trial"",""time""
""fullscreenenter"",""1"",""3007""
","
","
","""event"",""trial"",""time""
""fullscreenenter"",""1"",""3007""
","
","","","-1","","","20","16217","2661","&#9826;","elianto","#f73b6a7A","-1","-1","1","0","[]","0","0","3","","","","","","","",""
"call-function","79","641316","0.0-2.0-15.0","battery-v0.2","","""event"",""trial"",""time""
""fullscreenenter"",""1"",""3007""
","
","
","""event"",""trial"",""time""
""fullscreenenter"",""1"",""3007""
","
","","","","","","","","","","","","","","","","","","","","","","","","","","",""
"pit-instructions","80","670367","0.0-2.0-16.0","battery-v0.2","","""event"",""trial"",""time""
""fullscreenenter"",""1"",""3007""
","
","
","""event"",""trial"",""time""
""fullscreenenter"",""1"",""3007""
","
","","[{""page_index"":0,""viewing_time"":8012.300000000745},{""page_index"":1,""viewing_time"":9538},{""page_index"":2,""viewing_time"":5276.39999999851},{""page_index"":3,""viewing_time"":6224.10000000149}]","29051","","","","","","","","","","","","","","","","","","","","","","","",""
"pit-trial","81","673463","0.0-2.0-17.0-0.0","battery-v0.2","","""event"",""trial"",""time""
""fullscreenenter"",""1"",""3007""
","
","
","""event"",""trial"",""time""
""fullscreenenter"",""1"",""3007""
","
","","","242.2999999988824","","","20","16217","2661","&#9789;","elianto","#f73b6a7A"," "," ","1","0","[1094.199999999255]","1","0","4","","","","","","","",""
"pit-trial","82","676496","0.0-2.0-17.0-1.0","battery-v0.2","","""event"",""trial"",""time""
""fullscreenenter"",""1"",""3007""
","
","
","""event"",""trial"",""time""
""fullscreenenter"",""1"",""3007""
","
","","","178.90000000037253","","","20","16217","2661","&#9789;","elianto","#f73b6a7A"," "," ","1","0","[1030.300000000745]","1","0","4","","","","","","","",""
"pit-trial","83","679482","0.0-2.0-17.0-2.0","battery-v0.2","","""event"",""trial"",""time""
""fullscreenenter"",""1"",""3007""
","
","
","""event"",""trial"",""time""
""fullscreenenter"",""1"",""3007""
","
","","","133.5","","","20","16217","2661","&#9789;","elianto","#f73b6a7A"," "," ","1","0","[983.8999999985099]","1","0","4","","","","","","","",""
"pit-trial","84","682385","0.0-2.0-17.0-3.0","battery-v0.2","","""event"",""trial"",""time""
""fullscreenenter"",""1"",""3007""
","
","
","""event"",""trial"",""time""
""fullscreenenter"",""1"",""3007""
","
","","","50.59999999962747","","","20","16217","2661","&#9789;","elianto","#f73b6a7A"," "," ","1","-10","[900.9000000003725]","1","0","4","","","","","","","",""
"pit-trial","85","686502","0.0-2.0-17.0-4.0","battery-v0.2","","""event"",""trial"",""time""
""fullscreenenter"",""1"",""3007""
","
","
","""event"",""trial"",""time""
""fullscreenenter"",""1"",""3007""
","
","","","1263.5999999996275","","","20","16217","2661","&#9789;","elianto","#f73b6a7A"," "," ","1","0","[821.5999999996275,2114.5999999996275]","2","0","4","","","","","","","",""
"pit-trial","86","689385","0.0-2.0-17.1-0.1","battery-v0.2","","""event"",""trial"",""time""
""fullscreenenter"",""1"",""3007""
","
","
","""event"",""trial"",""time""
""fullscreenenter"",""1"",""3007""
","
","","","28.199999999254942","","","20","16217","2661","&#9789;","elianto","#f73b6a7A"," "," ","1","0","[878.6999999992549]","1","0","4","","","","","","","",""
"pit-trial","87","692404","0.0-2.0-17.1-1.1","battery-v0.2","","""event"",""trial"",""time""
""fullscreenenter"",""1"",""3007""
","
","
","""event"",""trial"",""time""
""fullscreenenter"",""1"",""3007""
","
","","","166.2000000011176","","","20","16217","2661","&#9789;","elianto","#f73b6a7A"," "," ","1","0","[1017.3000000007451]","1","0","4","","","","","","","",""
"pit-trial","88","695292","0.0-2.0-17.1-2.1","battery-v0.2","","""event"",""trial"",""time""
""fullscreenenter"",""1"",""3007""
","
","
","""event"",""trial"",""time""
""fullscreenenter"",""1"",""3007""
","
","","","34.90000000037253","","","20","16217","2661","&#9789;","elianto","#f73b6a7A"," "," ","1","0","[885.6000000014901]","1","0","4","","","","","","","",""
"pit-trial","89","698263","0.0-2.0-17.1-3.1","battery-v0.2","","""event"",""trial"",""time""
""fullscreenenter"",""1"",""3007""
","
","
","""event"",""trial"",""time""
""fullscreenenter"",""1"",""3007""
","
","","","116.90000000037253","","","20","16217","2661","&#9789;","elianto","#f73b6a7A"," "," ","1","-10","[968.6999999992549]","1","0","4","","","","","","","",""
"pit-trial","90","701223","0.0-2.0-17.1-4.1","battery-v0.2","","""event"",""trial"",""time""
""fullscreenenter"",""1"",""3007""
","
","
","""event"",""trial"",""time""
""fullscreenenter"",""1"",""3007""
","
","","","106.59999999962747","","","20","16217","2661","&#9789;","elianto","#f73b6a7A"," "," ","1","0","[957.6999999992549]","1","0","4","","","","","","","",""
"pit-trial","91","704212","0.0-2.0-17.2-0.2","battery-v0.2","","""event"",""trial"",""time""
""fullscreenenter"",""1"",""3007""
","
","
","""event"",""trial"",""time""
""fullscreenenter"",""1"",""3007""
","
","","","133.30000000074506","","","20","16217","2661","&#9789;","elianto","#f73b6a7A"," "," ","1","0","[983.7000000011176]","1","0","4","","","","","","","",""
"pit-trial","92","707178","0.0-2.0-17.2-1.2","battery-v0.2","","""event"",""trial"",""time""
""fullscreenenter"",""1"",""3007""
","
","
","""event"",""trial"",""time""
""fullscreenenter"",""1"",""3007""
","
","","","110.70000000111759","","","20","16217","2661","&#9789;","elianto","#f73b6a7A"," "," ","1","0","[961.7999999988824]","1","0","4","","","","","","","",""
"pit-trial","93","710125","0.0-2.0-17.2-2.2","battery-v0.2","","""event"",""trial"",""time""
""fullscreenenter"",""1"",""3007""
","
","
","""event"",""trial"",""time""
""fullscreenenter"",""1"",""3007""
","
","","","92.30000000074506","","","20","16217","2661","&#9789;","elianto","#f73b6a7A"," "," ","1","0","[943.7000000011176]","1","0","4","","","","","","","",""
"pit-trial","94","713043","0.0-2.0-17.2-3.2","battery-v0.2","","""event"",""trial"",""time""
""fullscreenenter"",""1"",""3007""
","
","
","""event"",""trial"",""time""
""fullscreenenter"",""1"",""3007""
","
","","","64.30000000074506","","","20","16217","2661","&#9789;","elianto","#f73b6a7A"," "," ","1","-10","[915]","1","0","4","","","","","","","",""
"pit-trial","95","715955","0.0-2.0-17.2-4.2","battery-v0.2","","""event"",""trial"",""time""
""fullscreenenter"",""1"",""3007""
","
","
","""event"",""trial"",""time""
""fullscreenenter"",""1"",""3007""
","
","","","56.90000000037253","","","20","16217","2661","&#9789;","elianto","#f73b6a7A"," "," ","1","0","[908.0999999996275]","1","0","4","","","","","","","",""
"pit-trial","96","718851","0.0-2.0-17.3-0.3","battery-v0.2","","""event"",""trial"",""time""
""fullscreenenter"",""1"",""3007""
","
","
","""event"",""trial"",""time""
""fullscreenenter"",""1"",""3007""
","
","","","40.90000000037253","","","20","16217","2661","&#9789;","elianto","#f73b6a7A"," "," ","1","0","[891.5]","1","0","4","","","","","","","",""
"pit-trial","97","721786","0.0-2.0-17.3-1.3","battery-v0.2","","""event"",""trial"",""time""
""fullscreenenter"",""1"",""3007""
","
","
","""event"",""trial"",""time""
""fullscreenenter"",""1"",""3007""
","
","","","80.90000000037253","","","20","16217","2661","&#9789;","elianto","#f73b6a7A"," "," ","1","0","[931.9000000003725]","1","0","4","","","","","","","",""
"pit-trial","98","724785","0.0-2.0-17.3-2.3","battery-v0.2","","""event"",""trial"",""time""
""fullscreenenter"",""1"",""3007""
","
","
","""event"",""trial"",""time""
""fullscreenenter"",""1"",""3007""
","
","","","144.5","","","20","16217","2661","&#9789;","elianto","#f73b6a7A"," "," ","1","0","[995.5999999996275]","1","0","4","","","","","","","",""
"pit-trial","99","727690","0.0-2.0-17.3-3.3","battery-v0.2","","""event"",""trial"",""time""
""fullscreenenter"",""1"",""3007""
","
","
","""event"",""trial"",""time""
""fullscreenenter"",""1"",""3007""
","
","","","51.40000000037253","","","20","16217","2661","&#9789;","elianto","#f73b6a7A"," "," ","1","-10","[902.3000000007451]","1","0","4","","","","","","","",""
"pit-trial","100","730599","0.0-2.0-17.3-4.3","battery-v0.2","","""event"",""trial"",""time""
""fullscreenenter"",""1"",""3007""
","
","
","""event"",""trial"",""time""
""fullscreenenter"",""1"",""3007""
","
","","","54.19999999925494","","","20","16217","2661","&#9789;","elianto","#f73b6a7A"," "," ","1","0","[905.5999999996275]","1","0","4","","","","","","","",""
"call-function","101","730601","0.0-2.0-18.0","battery-v0.2","","""event"",""trial"",""time""
""fullscreenenter"",""1"",""3007""
","
","
","""event"",""trial"",""time""
""fullscreenenter"",""1"",""3007""
","
","","","","","","","","","","","","","","","","","","","","","","","","","","",""
"pit-instructions","102","804623","0.0-2.0-19.0","battery-v0.2","","""event"",""trial"",""time""
""fullscreenenter"",""1"",""3007""
","
","
","""event"",""trial"",""time""
""fullscreenenter"",""1"",""3007""
","
","","[{""page_index"":0,""viewing_time"":6507},{""page_index"":1,""viewing_time"":6187.199999999255},{""page_index"":2,""viewing_time"":13605.700000001118},{""page_index"":3,""viewing_time"":9151.5},{""page_index"":4,""viewing_time"":9138.799999998882},{""page_index"":5,""viewing_time"":8416.60000000149},{""page_index"":6,""viewing_time"":9602.099999999627},{""page_index"":7,""viewing_time"":6168.0999999996275},{""page_index"":8,""viewing_time"":5244.9000000003725}]","74022.19999999925","","","","","","","","","","","","","","","","","","","","","","","",""
"pit-comprehension","103","810089","0.0-2.0-20.0-0.0","battery-v0.2","","""event"",""trial"",""time""
""fullscreenenter"",""1"",""3007""
","
","
","""event"",""trial"",""time""
""fullscreenenter"",""1"",""3007""
","
","","","5464","[""SPACE""]","0","20","16217","2661","","","","","","","","","","","","","","","","","","",""
"pit-instructions","104","813606","0.0-2.0-20.0-1.0","battery-v0.2","","""event"",""trial"",""time""
""fullscreenenter"",""1"",""3007""
","
","
","""event"",""trial"",""time""
""fullscreenenter"",""1"",""3007""
","
","","[{""page_index"":0,""viewing_time"":3488.89999999851}]","3489","","","","","","","","","","","","","","","","","","","","","","","",""
"pit-comprehension","105","818306","0.0-2.0-21.0-0.0","battery-v0.2","","""event"",""trial"",""time""
""fullscreenenter"",""1"",""3007""
","
","
","""event"",""trial"",""time""
""fullscreenenter"",""1"",""3007""
","
","","","4698","[""10""]","0","20","16217","2661","","","","","","","","","","","","","","","","","","",""
"pit-instructions","106","820142","0.0-2.0-21.0-1.0","battery-v0.2","","""event"",""trial"",""time""
""fullscreenenter"",""1"",""3007""
","
","
","""event"",""trial"",""time""
""fullscreenenter"",""1"",""3007""
","
","","[{""page_index"":0,""viewing_time"":1807.9000000003725}]","1808","","","","","","","","","","","","","","","","","","","","","","","",""
"pit-comprehension","107","830514","0.0-2.0-22.0-0.0","battery-v0.2","","""event"",""trial"",""time""
""fullscreenenter"",""1"",""3007""
","
","
","""event"",""trial"",""time""
""fullscreenenter"",""1"",""3007""
","
","","","10369.800000000745","[""0""]","0","20","16217","2661","","","","","","","","","","","","","","","","","","",""
"pit-instructions","108","832268","0.0-2.0-22.0-1.0","battery-v0.2","","""event"",""trial"",""time""
""fullscreenenter"",""1"",""3007""
","
","
","""event"",""trial"",""time""
""fullscreenenter"",""1"",""3007""
","
","","[{""page_index"":0,""viewing_time"":1723.5}]","1723.800000000745","","","","","","","","","","","","","","","","","","","","","","","",""
"pit-comprehension","109","840531","0.0-2.0-23.0-0.0","battery-v0.2","","""event"",""trial"",""time""
""fullscreenenter"",""1"",""3007""
","
","
","""event"",""trial"",""time""
""fullscreenenter"",""1"",""3007""
","
","","","8260.699999999255","[""True""]","0","20","16217","2661","","","","","","","","","","","","","","","","","","",""
"pit-instructions","110","842317","0.0-2.0-23.0-1.0","battery-v0.2","","""event"",""trial"",""time""
""fullscreenenter"",""1"",""3007""
","
","
","""event"",""trial"",""time""
""fullscreenenter"",""1"",""3007""
","
","","[{""page_index"":0,""viewing_time"":1758.0999999996275}]","1758.2000000011176","","","","","","","","","","","","","","","","","","","","","","","",""
"pit-comprehension","111","850288","0.0-2.0-24.0-0.0","battery-v0.2","","""event"",""trial"",""time""
""fullscreenenter"",""1"",""3007""
","
","
","""event"",""trial"",""time""
""fullscreenenter"",""1"",""3007""
","
","","","7969.299999998882","[""True""]","0","20","16217","2661","","","","","","","","","","","","","","","","","","",""
"pit-instructions","112","851873","0.0-2.0-24.0-1.0","battery-v0.2","","""event"",""trial"",""time""
""fullscreenenter"",""1"",""3007""
","
","
","""event"",""trial"",""time""
""fullscreenenter"",""1"",""3007""
","
","","[{""page_index"":0,""viewing_time"":1553.199999999255}]","1553.4000000003725","","","","","","","","","","","","","","","","","","","","","","","",""
"pit-comprehension","113","858065","0.0-2.0-25.0-0.0","battery-v0.2","","""event"",""trial"",""time""
""fullscreenenter"",""1"",""3007""
","
","
","""event"",""trial"",""time""
""fullscreenenter"",""1"",""3007""
","
","","","6189.4000000003725","[""True""]","0","20","16217","2661","","","","","","","","","","","","","","","","","","",""
"pit-instructions","114","859741","0.0-2.0-25.0-1.0","battery-v0.2","","""event"",""trial"",""time""
""fullscreenenter"",""1"",""3007""
","
","
","""event"",""trial"",""time""
""fullscreenenter"",""1"",""3007""
","
","","[{""page_index"":0,""viewing_time"":1648.199999999255}]","1648.3999999985099","","","","","","","","","","","","","","","","","","","","","","","",""
"pit-comprehension","115","865799","0.0-2.0-26.0-0.0","battery-v0.2","","""event"",""trial"",""time""
""fullscreenenter"",""1"",""3007""
","
","
","""event"",""trial"",""time""
""fullscreenenter"",""1"",""3007""
","
","","","6055.800000000745","[""False""]","0","20","16217","2661","","","","","","","","","","","","","","","","","","",""
"pit-instructions","116","867878","0.0-2.0-26.0-1.0","battery-v0.2","","""event"",""trial"",""time""
""fullscreenenter"",""1"",""3007""
","
","
","""event"",""trial"",""time""
""fullscreenenter"",""1"",""3007""
","
","","[{""page_index"":0,""viewing_time"":2047.5}]","2047.800000000745","","","","","","","","","","","","","","","","","","","","","","","",""
"pit-instructions","117","885172","0.0-3.0","battery-v0.2","","""event"",""trial"",""time""
""fullscreenenter"",""1"",""3007""
","
","
","""event"",""trial"",""time""
""fullscreenenter"",""1"",""3007""
","
","","[{""page_index"":0,""viewing_time"":4331.0999999996275},{""page_index"":1,""viewing_time"":5367},{""page_index"":2,""viewing_time"":7594.9000000003725}]","17293.199999999255","","","","","","","","","","","","","","","","","","","","","","","",""
"pit-trial","118","888383","0.0-4.0","battery-v0.2","","""event"",""trial"",""time""
""fullscreenenter"",""1"",""3007""
","
","
","""event"",""trial"",""time""
""fullscreenenter"",""1"",""3007""
","
","","","356.69999999925494","","","20","16217","2661","&#9728;","elianto","#f73b6a7A","-1"," ","0","-10","[1206.800000000745]","1","1","","","16217","1","0","4","lose","no-go","0"
"pit-trial","119","892021","0.0-5.0","battery-v0.2","","""event"",""trial"",""time""
""fullscreenenter"",""1"",""3007""
","
","
","""event"",""trial"",""time""
""fullscreenenter"",""1"",""3007""
","
","","","784.6000000014901","","","20","16217","2661","&#9752;","elianto","#f73b6a7A"," "," ","1","0","[1635.4000000003725]","1","1","","","16217","2","3","3","lose","go","0"
"pit-trial","120","895642","0.0-6.0","battery-v0.2","","""event"",""trial"",""time""
""fullscreenenter"",""1"",""3007""
","
","
","""event"",""trial"",""time""
""fullscreenenter"",""1"",""3007""
","
","","","767.3000000007451","","","20","16217","2661","&#9730;","elianto","#3366ff99"," "," ","1","0","[1618.9000000003725]","1","1","","","16217","3","1","1","win","go","1"
"pit-trial","121","899167","0.0-7.0","battery-v0.2","","""event"",""trial"",""time""
""fullscreenenter"",""1"",""3007""
","
","
","""event"",""trial"",""time""
""fullscreenenter"",""1"",""3007""
","
","","","671.0999999996275","","","20","16217","2661","&#9733;","elianto","#3366ff99","-1"," ","0","0","[1522.9000000003725]","1","1","","","16217","4","2","2","win","no-go","0"
"pit-trial","122","902772","0.0-8.0","battery-v0.2","","""event"",""trial"",""time""
""fullscreenenter"",""1"",""3007""
","
","
","""event"",""trial"",""time""
""fullscreenenter"",""1"",""3007""
","
","","","751.9000000003725","","","20","16217","2661","&#9733;","elianto","#3366ff99","-1"," ","0","+10","[1603.300000000745]","1","1","","","16217","5","2","2","win","no-go","1"
"pit-trial","123","906370","0.0-9.0","battery-v0.2","","""event"",""trial"",""time""
""fullscreenenter"",""1"",""3007""
","
","
","""event"",""trial"",""time""
""fullscreenenter"",""1"",""3007""
","
","","","743.6000000014901","","","20","16217","2661","&#9730;","elianto","#3366ff99"," "," ","1","+10","[1594.5]","1","1","","","16217","6","1","1","win","go","0"
"pit-trial","124","909448","0.0-10.0","battery-v0.2","","""event"",""trial"",""time""
""fullscreenenter"",""1"",""3007""
","
","
","""event"",""trial"",""time""
""fullscreenenter"",""1"",""3007""
","
","","","224.59999999962747","","","20","16217","2661","&#9728;","elianto","#f73b6a7A","-1"," ","0","-10","[1075.5]","1","1","","","16217","7","0","4","lose","no-go","0"
"pit-trial","125","913122","0.0-11.0","battery-v0.2","","""event"",""trial"",""time""
""fullscreenenter"",""1"",""3007""
","
","
","""event"",""trial"",""time""
""fullscreenenter"",""1"",""3007""
","
","","","820.2000000011176","","","20","16217","2661","&#9752;","elianto","#f73b6a7A"," "," ","1","0","[1671.7000000011176]","1","1","","","16217","8","3","3","lose","go","0"
"pit-trial","126","917976","0.0-12.0","battery-v0.2","","""event"",""trial"",""time""
""fullscreenenter"",""1"",""3007""
","
","
","""event"",""trial"",""time""
""fullscreenenter"",""1"",""3007""
","
","","","-1","","","20","16217","2661","&#9728;","elianto","#f73b6a7A","-1","-1","1","0","[]","0","1","","","16217","9","0","4","lose","no-go","0"
"pit-trial","127","921643","0.0-13.0","battery-v0.2","","""event"",""trial"",""time""
""fullscreenenter"",""1"",""3007""
","
","
","""event"",""trial"",""time""
""fullscreenenter"",""1"",""3007""
","
","","","813.2999999988824","","","20","16217","2661","&#9752;","elianto","#f73b6a7A"," "," ","1","-10","[1664.199999999255]","1","1","","","16217","10","3","3","lose","go","1"
"pit-trial","128","925228","0.0-14.0","battery-v0.2","","""event"",""trial"",""time""
""fullscreenenter"",""1"",""3007""
","
","
","""event"",""trial"",""time""
""fullscreenenter"",""1"",""3007""
","
","","","730.1999999992549","","","20","16217","2661","&#9730;","elianto","#3366ff99"," "," ","1","+10","[1581.2999999988824]","1","1","","","16217","11","1","1","win","go","0"
"pit-trial","129","929226","0.0-15.0","battery-v0.2","","""event"",""trial"",""time""
""fullscreenenter"",""1"",""3007""
","
","
","""event"",""trial"",""time""
""fullscreenenter"",""1"",""3007""
","
","","","1143.9000000003725","","","20","16217","2661","&#9733;","elianto","#3366ff99","-1"," ","0","0","[1995.300000000745]","1","1","","","16217","12","2","2","win","no-go","0"
"pit-trial","130","932754","0.0-16.0","battery-v0.2","","""event"",""trial"",""time""
""fullscreenenter"",""1"",""3007""
","
","
","""event"",""trial"",""time""
""fullscreenenter"",""1"",""3007""
","
","","","672.8000000007451","","","20","16217","2661","&#9733;","elianto","#3366ff99","-1"," ","0","0","[1523.800000000745]","1","1","","","16217","13","2","2","win","no-go","0"
"pit-trial","131","936146","0.0-17.0","battery-v0.2","","""event"",""trial"",""time""
""fullscreenenter"",""1"",""3007""
","
","
","""event"",""trial"",""time""
""fullscreenenter"",""1"",""3007""
","
","","","537.1999999992549","","","20","16217","2661","&#9730;","elianto","#3366ff99"," "," ","1","0","[1388]","1","1","","","16217","14","1","1","win","go","1"
"pit-trial","132","941001","0.0-18.0","battery-v0.2","","""event"",""trial"",""time""
""fullscreenenter"",""1"",""3007""
","
","
","""event"",""trial"",""time""
""fullscreenenter"",""1"",""3007""
","
","","","-1","","","20","16217","2661","&#9752;","elianto","#f73b6a7A"," ","-1","0","-10","[]","0","1","","","16217","15","3","3","lose","go","0"
"pit-trial","133","945856","0.0-19.0","battery-v0.2","","""event"",""trial"",""time""
""fullscreenenter"",""1"",""3007""
","
","
","""event"",""trial"",""time""
""fullscreenenter"",""1"",""3007""
","
","","","-1","","","20","16217","2661","&#9728;","elianto","#f73b6a7A","-1","-1","1","0","[]","0","1","","","16217","16","0","4","lose","no-go","0"
"pit-trial","134","950711","0.0-20.0","battery-v0.2","","""event"",""trial"",""time""
""fullscreenenter"",""1"",""3007""
","
","
","""event"",""trial"",""time""
""fullscreenenter"",""1"",""3007""
","
","","","-1","","","20","16217","2661","&#9728;","elianto","#f73b6a7A","-1","-1","1","-10","[]","0","1","","","16217","17","0","4","lose","no-go","1"
"pit-trial","135","954206","0.0-21.0","battery-v0.2","","""event"",""trial"",""time""
""fullscreenenter"",""1"",""3007""
","
","
","""event"",""trial"",""time""
""fullscreenenter"",""1"",""3007""
","
","","","640.3999999985099","","","20","16217","2661","&#9730;","elianto","#3366ff99"," "," ","1","+10","[1490.7999999988824]","1","1","","","16217","18","1","1","win","go","0"
"pit-trial","136","957639","0.0-22.0","battery-v0.2","","""event"",""trial"",""time""
""fullscreenenter"",""1"",""3007""
","
","
","""event"",""trial"",""time""
""fullscreenenter"",""1"",""3007""
","
","","","577.8000000007451","","","20","16217","2661","&#9733;","elianto","#3366ff99","-1"," ","0","0","[1429]","1","1","","","16217","19","2","2","win","no-go","0"
"pit-trial","137","962036","0.0-23.0","battery-v0.2","","""event"",""trial"",""time""
""fullscreenenter"",""1"",""3007""
","
","
","""event"",""trial"",""time""
""fullscreenenter"",""1"",""3007""
","
","","","1543","","","20","16217","2661","&#9752;","elianto","#f73b6a7A"," "," ","1","0","[2394]","1","1","","","16217","20","3","3","lose","go","0"
"pit-instructions","138","975133","0.0-24.0","battery-v0.2","","""event"",""trial"",""time""
""fullscreenenter"",""1"",""3007""
","
","
","""event"",""trial"",""time""
""fullscreenenter"",""1"",""3007""
","
","","[{""page_index"":0,""viewing_time"":5491.9000000003725},{""page_index"":1,""viewing_time"":7603.5999999996275}]","13095.699999999255","","","","","","","","","","","","","","","","","","","","","","","",""
"pit-trial","139","978714","0.0-25.0","battery-v0.2","","""event"",""trial"",""time""
""fullscreenenter"",""1"",""3007""
","
","
","""event"",""trial"",""time""
""fullscreenenter"",""1"",""3007""
","
","","","726.6999999992549","","","20","16217","2661","j","elianto","#f73b6a7A"," "," ","1","0","[1577.5]","1","2","","","16217","21","0","3","lose","go","0"
"pit-trial","140","982010","0.0-26.0","battery-v0.2","","""event"",""trial"",""time""
""fullscreenenter"",""1"",""3007""
","
","
","""event"",""trial"",""time""
""fullscreenenter"",""1"",""3007""
","
","","","442.90000000037253","","","20","16217","2661","w","elianto","#f73b6a7A","-1"," ","0","-10","[1294.0999999996275]","1","2","","","16217","22","3","4","lose","no-go","0"
"pit-trial","141","985522","0.0-27.0","battery-v0.2","","""event"",""trial"",""time""
""fullscreenenter"",""1"",""3007""
","
","
","""event"",""trial"",""time""
""fullscreenenter"",""1"",""3007""
","
","","","659.1999999992549","","","20","16217","2661","d","elianto","#3366ff99","-1"," ","0","0","[1509.5999999996275]","1","2","","","16217","23","1","2","win","no-go","0"
"pit-trial","142","989172","0.0-28.0","battery-v0.2","","""event"",""trial"",""time""
""fullscreenenter"",""1"",""3007""
","
","
","""event"",""trial"",""time""
""fullscreenenter"",""1"",""3007""
","
","","","796.1999999992549","","","20","16217","2661","e","elianto","#f73b6a7A"," "," ","1","0","[1647.5999999996275]","1","2","","","16217","24","2","3","lose","go","0"
"pit-trial","143","993242","0.0-29.0","battery-v0.2","","""event"",""trial"",""time""
""fullscreenenter"",""1"",""3007""
","
","
","""event"",""trial"",""time""
""fullscreenenter"",""1"",""3007""
","
","","","1216","","","20","16217","2661","d","elianto","#3366ff99","-1"," ","0","0","[2067.2999999988824]","1","2","","","16217","25","1","2","win","no-go","0"
"pit-trial","144","998097","0.0-30.0","battery-v0.2","","""event"",""trial"",""time""
""fullscreenenter"",""1"",""3007""
","
","
","""event"",""trial"",""time""
""fullscreenenter"",""1"",""3007""
","
","","","-1","","","20","16217","2661","w","elianto","#f73b6a7A","-1","-1","1","0","[]","0","2","","","16217","26","3","4","lose","no-go","0"
"pit-trial","145","1002104","0.0-31.0","battery-v0.2","","""event"",""trial"",""time""
""fullscreenenter"",""1"",""3007""
","
","
","""event"",""trial"",""time""
""fullscreenenter"",""1"",""3007""
","
","","","1153.300000000745","","","20","16217","2661","e","elianto","#f73b6a7A"," "," ","1","0","[2004.300000000745]","1","2","","","16217","27","2","3","lose","go","0"
"pit-trial","146","1005645","0.0-32.0","battery-v0.2","","""event"",""trial"",""time""
""fullscreenenter"",""1"",""3007""
","
","
","""event"",""trial"",""time""
""fullscreenenter"",""1"",""3007""
","
","","","687.8000000007451","","","20","16217","2661","j","elianto","#f73b6a7A"," "," ","1","0","[1539.1000000014901]","1","2","","","16217","28","0","3","lose","go","0"
"pit-trial","147","1009264","0.0-33.0","battery-v0.2","","""event"",""trial"",""time""
""fullscreenenter"",""1"",""3007""
","
","
","""event"",""trial"",""time""
""fullscreenenter"",""1"",""3007""
","
","","","764.6999999992549","","","20","16217","2661","j","elianto","#f73b6a7A"," "," ","1","0","[1615.5]","1","2","","","16217","29","0","3","lose","go","0"
"pit-trial","148","1012749","0.0-34.0","battery-v0.2","","""event"",""trial"",""time""
""fullscreenenter"",""1"",""3007""
","
","
","""event"",""trial"",""time""
""fullscreenenter"",""1"",""3007""
","
","","","630.7999999988824","","","20","16217","2661","d","elianto","#3366ff99","-1"," ","0","0","[1481.300000000745]","1","2","","","16217","30","1","2","win","no-go","0"
"pit-trial","149","1017604","0.0-35.0","battery-v0.2","","""event"",""trial"",""time""
""fullscreenenter"",""1"",""3007""
","
","
","""event"",""trial"",""time""
""fullscreenenter"",""1"",""3007""
","
","","","-1","","","20","16217","2661","w","elianto","#f73b6a7A","-1","-1","1","-10","[]","0","2","","","16217","31","3","4","lose","no-go","1"
"pit-trial","150","1021621","0.0-36.0","battery-v0.2","","""event"",""trial"",""time""
""fullscreenenter"",""1"",""3007""
","
","
","""event"",""trial"",""time""
""fullscreenenter"",""1"",""3007""
","
","","","1162.5","","","20","16217","2661","e","elianto","#f73b6a7A"," "," ","1","0","[2012.9000000003725]","1","2","","","16217","32","2","3","lose","go","0"
"pit-trial","151","1025322","0.0-37.0","battery-v0.2","","""event"",""trial"",""time""
""fullscreenenter"",""1"",""3007""
","
","
","""event"",""trial"",""time""
""fullscreenenter"",""1"",""3007""
","
","","","846.5","","","20","16217","2661","e","elianto","#f73b6a7A"," "," ","1","0","[1697.800000000745]","1","2","","","16217","33","2","3","lose","go","0"
"pit-trial","152","1029477","0.0-38.0","battery-v0.2","","""event"",""trial"",""time""
""fullscreenenter"",""1"",""3007""
","
","
","""event"",""trial"",""time""
""fullscreenenter"",""1"",""3007""
","
","","","1298.699999999255","","","20","16217","2661","j","elianto","#f73b6a7A"," "," ","1","0","[2151.4000000003725]","1","2","","","16217","34","0","3","lose","go","0"
"pit-trial","153","1033038","0.0-39.0","battery-v0.2","","""event"",""trial"",""time""
""fullscreenenter"",""1"",""3007""
","
","
","""event"",""trial"",""time""
""fullscreenenter"",""1"",""3007""
","
","","","705.5999999996275","","","20","16217","2661","d","elianto","#3366ff99","-1"," ","0","0","[1556.800000000745]","1","2","","","16217","35","1","2","win","no-go","0"
"pit-trial","154","1037894","0.0-40.0","battery-v0.2","","""event"",""trial"",""time""
""fullscreenenter"",""1"",""3007""
","
","
","""event"",""trial"",""time""
""fullscreenenter"",""1"",""3007""
","
","","","-1","","","20","16217","2661","w","elianto","#f73b6a7A","-1","-1","1","-10","[]","0","2","","","16217","36","3","4","lose","no-go","1"
"pit-trial","155","1041339","0.0-41.0","battery-v0.2","","""event"",""trial"",""time""
""fullscreenenter"",""1"",""3007""
","
","
","""event"",""trial"",""time""
""fullscreenenter"",""1"",""3007""
","
","","","590.5999999996275","","","20","16217","2661","e","elianto","#f73b6a7A"," "," ","1","0","[1442.0999999996275]","1","2","","","16217","37","2","3","lose","go","0"
"pit-trial","156","1044876","0.0-42.0","battery-v0.2","","""event"",""trial"",""time""
""fullscreenenter"",""1"",""3007""
","
","
","""event"",""trial"",""time""
""fullscreenenter"",""1"",""3007""
","
","","","681","","","20","16217","2661","d","elianto","#3366ff99","-1"," ","0","0","[1532.699999999255]","1","2","","","16217","38","1","2","win","no-go","0"
"pit-trial","157","1048452","0.0-43.0","battery-v0.2","","""event"",""trial"",""time""
""fullscreenenter"",""1"",""3007""
","
","
","""event"",""trial"",""time""
""fullscreenenter"",""1"",""3007""
","
","","","721.5999999996275","","","20","16217","2661","w","elianto","#f73b6a7A","-1"," ","0","-10","[1572.4000000003725]","1","2","","","16217","39","3","4","lose","no-go","0"
"pit-trial","158","1051999","0.0-44.0","battery-v0.2","","""event"",""trial"",""time""
""fullscreenenter"",""1"",""3007""
","
","
","""event"",""trial"",""time""
""fullscreenenter"",""1"",""3007""
","
","","","693.3000000007451","","","20","16217","2661","j","elianto","#f73b6a7A"," "," ","1","-10","[1544.2999999988824]","1","2","","","16217","40","0","3","lose","go","1"
"pit-trial","159","1056854","0.0-45.0","battery-v0.2","","""event"",""trial"",""time""
""fullscreenenter"",""1"",""3007""
","
","
","""event"",""trial"",""time""
""fullscreenenter"",""1"",""3007""
","
","","","-1","","","20","16217","2661","d","elianto","#3366ff99","-1","-1","1","0","[]","0","2","","","16217","41","1","2","win","no-go","1"
"pit-trial","160","1060812","0.0-46.0","battery-v0.2","","""event"",""trial"",""time""
""fullscreenenter"",""1"",""3007""
","
","
","""event"",""trial"",""time""
""fullscreenenter"",""1"",""3007""
","
","","","1104.199999999255","","","20","16217","2661","w","elianto","#f73b6a7A","-1"," ","0","0","[1955.4000000003725]","1","2","","","16217","42","3","4","lose","no-go","1"
"pit-trial","161","1064375","0.0-47.0","battery-v0.2","","""event"",""trial"",""time""
""fullscreenenter"",""1"",""3007""
","
","
","""event"",""trial"",""time""
""fullscreenenter"",""1"",""3007""
","
","","","707.4000000003725","","","20","16217","2661","j","elianto","#f73b6a7A"," "," ","1","0","[1558.5]","1","2","","","16217","43","0","3","lose","go","0"
"pit-trial","162","1067824","0.0-48.0","battery-v0.2","","""event"",""trial"",""time""
""fullscreenenter"",""1"",""3007""
","
","
","""event"",""trial"",""time""
""fullscreenenter"",""1"",""3007""
","
","","","594.3000000007451","","","20","16217","2661","e","elianto","#f73b6a7A"," "," ","1","0","[1445.2000000011176]","1","2","","","16217","44","2","3","lose","go","0"
"pit-trial","163","1071287","0.0-49.0","battery-v0.2","","""event"",""trial"",""time""
""fullscreenenter"",""1"",""3007""
","
","
","""event"",""trial"",""time""
""fullscreenenter"",""1"",""3007""
","
","","","609.1999999992549","","","20","16217","2661","w","elianto","#f73b6a7A","-1"," ","0","-10","[1460]","1","2","","","16217","45","3","4","lose","no-go","0"
"pit-trial","164","1075291","0.0-50.0","battery-v0.2","","""event"",""trial"",""time""
""fullscreenenter"",""1"",""3007""
","
","
","""event"",""trial"",""time""
""fullscreenenter"",""1"",""3007""
","
","","","1150.5","","","20","16217","2661","j","elianto","#f73b6a7A"," "," ","1","0","[2001.4000000003725]","1","2","","","16217","46","0","3","lose","go","0"
"pit-trial","165","1078705","0.0-51.0","battery-v0.2","","""event"",""trial"",""time""
""fullscreenenter"",""1"",""3007""
","
","
","""event"",""trial"",""time""
""fullscreenenter"",""1"",""3007""
","
","","","560.7999999988824","","","20","16217","2661","e","elianto","#f73b6a7A"," "," ","1","0","[1412.199999999255]","1","2","","","16217","47","2","3","lose","go","0"
"pit-trial","166","1083099","0.0-52.0","battery-v0.2","","""event"",""trial"",""time""
""fullscreenenter"",""1"",""3007""
","
","
","""event"",""trial"",""time""
""fullscreenenter"",""1"",""3007""
","
","","","1539.6000000014901","","","20","16217","2661","d","elianto","#3366ff99","-1"," ","0","0","[2390.7000000011176]","1","2","","","16217","48","1","2","win","no-go","0"
"pit-trial","167","1087955","0.0-53.0","battery-v0.2","","""event"",""trial"",""time""
""fullscreenenter"",""1"",""3007""
","
","
","""event"",""trial"",""time""
""fullscreenenter"",""1"",""3007""
","
","","","-1","","","20","16217","2661","d","elianto","#3366ff99","-1","-1","1","+10","[]","0","2","","","16217","49","1","2","win","no-go","0"
"pit-trial","168","1091888","0.0-54.0","battery-v0.2","","""event"",""trial"",""time""
""fullscreenenter"",""1"",""3007""
","
","
","""event"",""trial"",""time""
""fullscreenenter"",""1"",""3007""
","
","","","1079.4000000003725","","","20","16217","2661","j","elianto","#f73b6a7A"," "," ","1","0","[1930.800000000745]","1","2","","","16217","50","0","3","lose","go","0"
"pit-trial","169","1096744","0.0-55.0","battery-v0.2","","""event"",""trial"",""time""
""fullscreenenter"",""1"",""3007""
","
","
","""event"",""trial"",""time""
""fullscreenenter"",""1"",""3007""
","
","","","-1","","","20","16217","2661","w","elianto","#f73b6a7A","-1","-1","1","0","[]","0","2","","","16217","51","3","4","lose","no-go","0"
"pit-trial","170","1100854","0.0-56.0","battery-v0.2","","""event"",""trial"",""time""
""fullscreenenter"",""1"",""3007""
","
","
","""event"",""trial"",""time""
""fullscreenenter"",""1"",""3007""
","
","","","1255.5","","","20","16217","2661","e","elianto","#f73b6a7A"," "," ","1","0","[2106.5]","1","2","","","16217","52","2","3","lose","go","0"
"pit-trial","171","1105709","0.0-57.0","battery-v0.2","","""event"",""trial"",""time""
""fullscreenenter"",""1"",""3007""
","
","
","""event"",""trial"",""time""
""fullscreenenter"",""1"",""3007""
","
","","","-1","","","20","16217","2661","d","elianto","#3366ff99","-1","-1","1","+10","[]","0","2","","","16217","53","1","2","win","no-go","0"
"pit-trial","172","1110565","0.0-58.0","battery-v0.2","","""event"",""trial"",""time""
""fullscreenenter"",""1"",""3007""
","
","
","""event"",""trial"",""time""
""fullscreenenter"",""1"",""3007""
","
","","","-1","","","20","16217","2661","w","elianto","#f73b6a7A","-1","-1","1","0","[]","0","2","","","16217","54","3","4","lose","no-go","0"
"pit-trial","173","1114064","0.0-59.0","battery-v0.2","","""event"",""trial"",""time""
""fullscreenenter"",""1"",""3007""
","
","
","""event"",""trial"",""time""
""fullscreenenter"",""1"",""3007""
","
","","","645.4000000003725","","","20","16217","2661","e","elianto","#f73b6a7A"," "," ","1","-10","[1496.5999999996275]","1","2","","","16217","55","2","3","lose","go","1"
"pit-trial","174","1117845","0.0-60.0","battery-v0.2","","""event"",""trial"",""time""
""fullscreenenter"",""1"",""3007""
","
","
","""event"",""trial"",""time""
""fullscreenenter"",""1"",""3007""
","
","","","927.4000000003725","","","20","16217","2661","j","elianto","#f73b6a7A"," "," ","1","0","[1777.800000000745]","1","2","","","16217","56","0","3","lose","go","0"
"pit-trial","175","1122701","0.0-61.0","battery-v0.2","","""event"",""trial"",""time""
""fullscreenenter"",""1"",""3007""
","
","
","""event"",""trial"",""time""
""fullscreenenter"",""1"",""3007""
","
","","","-1","","","20","16217","2661","w","elianto","#f73b6a7A","-1","-1","1","0","[]","0","2","","","16217","57","3","4","lose","no-go","0"
"pit-trial","176","1126605","0.0-62.0","battery-v0.2","","""event"",""trial"",""time""
""fullscreenenter"",""1"",""3007""
","
","
","""event"",""trial"",""time""
""fullscreenenter"",""1"",""3007""
","
","","","1050.2000000011176","","","20","16217","2661","e","elianto","#f73b6a7A"," "," ","1","-10","[1901.800000000745]","1","2","","","16217","58","2","3","lose","go","1"
"pit-trial","177","1130441","0.0-63.0","battery-v0.2","","""event"",""trial"",""time""
""fullscreenenter"",""1"",""3007""
","
","
","""event"",""trial"",""time""
""fullscreenenter"",""1"",""3007""
","
","","","981.6999999992549","","","20","16217","2661","s","elianto","#3366ff99"," "," ","1","+10","[1832.0999999996275]","1","2","","","16217","59","4","1","win","go","0"
"pit-trial","178","1134684","0.0-64.0","battery-v0.2","","""event"",""trial"",""time""
""fullscreenenter"",""1"",""3007""
","
","
","""event"",""trial"",""time""
""fullscreenenter"",""1"",""3007""
","
","","","1387.9000000003725","","","20","16217","2661","j","elianto","#f73b6a7A"," "," ","1","0","[2238.199999999255]","1","2","","","16217","60","0","3","lose","go","0"
"pit-trial","179","1138562","0.0-65.0","battery-v0.2","","""event"",""trial"",""time""
""fullscreenenter"",""1"",""3007""
","
","
","""event"",""trial"",""time""
""fullscreenenter"",""1"",""3007""
","
","","","1023.1999999992549","","","20","16217","2661","e","elianto","#f73b6a7A"," "," ","1","0","[1874.5999999996275]","1","2","","","16217","61","2","3","lose","go","0"
"pit-trial","180","1143417","0.0-66.0","battery-v0.2","","""event"",""trial"",""time""
""fullscreenenter"",""1"",""3007""
","
","
","""event"",""trial"",""time""
""fullscreenenter"",""1"",""3007""
","
","","","-1","","","20","16217","2661","d","elianto","#3366ff99","-1","-1","1","+10","[]","0","2","","","16217","62","1","2","win","no-go","0"
"pit-trial","181","1148271","0.0-67.0","battery-v0.2","","""event"",""trial"",""time""
""fullscreenenter"",""1"",""3007""
","
","
","""event"",""trial"",""time""
""fullscreenenter"",""1"",""3007""
","
","","","-1","","","20","16217","2661","w","elianto","#f73b6a7A","-1","-1","1","0","[]","0","2","","","16217","63","3","4","lose","no-go","0"
"pit-trial","182","1151855","0.0-68.0","battery-v0.2","","""event"",""trial"",""time""
""fullscreenenter"",""1"",""3007""
","
","
","""event"",""trial"",""time""
""fullscreenenter"",""1"",""3007""
","
","","","728.5","","","20","16217","2661","s","elianto","#3366ff99"," "," ","1","+10","[1581.8999999985099]","1","2","","","16217","64","4","1","win","go","0"
"pit-trial","183","1156710","0.0-69.0","battery-v0.2","","""event"",""trial"",""time""
""fullscreenenter"",""1"",""3007""
","
","
","""event"",""trial"",""time""
""fullscreenenter"",""1"",""3007""
","
","","","-1","","","20","16217","2661","d","elianto","#3366ff99","-1","-1","1","+10","[]","0","2","","","16217","65","1","2","win","no-go","0"
"pit-trial","184","1160561","0.0-70.0","battery-v0.2","","""event"",""trial"",""time""
""fullscreenenter"",""1"",""3007""
","
","
","""event"",""trial"",""time""
""fullscreenenter"",""1"",""3007""
","
","","","996.6999999992549","","","20","16217","2661","p","elianto","#3366ff99","-1"," ","0","0","[1848.4000000003725]","1","2","","","16217","66","5","2","win","no-go","0"
"pit-trial","185","1164218","0.0-71.0","battery-v0.2","","""event"",""trial"",""time""
""fullscreenenter"",""1"",""3007""
","
","
","""event"",""trial"",""time""
""fullscreenenter"",""1"",""3007""
","
","","","801.3000000007451","","","20","16217","2661","s","elianto","#3366ff99"," "," ","1","+10","[1654]","1","2","","","16217","67","4","1","win","go","0"
"pit-trial","186","1169073","0.0-72.0","battery-v0.2","","""event"",""trial"",""time""
""fullscreenenter"",""1"",""3007""
","
","
","""event"",""trial"",""time""
""fullscreenenter"",""1"",""3007""
","
","","","-1","","","20","16217","2661","w","elianto","#f73b6a7A","-1","-1","1","0","[]","0","2","","","16217","68","3","4","lose","no-go","0"
"pit-trial","187","1172894","0.0-73.0","battery-v0.2","","""event"",""trial"",""time""
""fullscreenenter"",""1"",""3007""
","
","
","""event"",""trial"",""time""
""fullscreenenter"",""1"",""3007""
","
","","","965.5999999996275","","","20","16217","2661","e","elianto","#f73b6a7A"," "," ","1","0","[1817.199999999255]","1","2","","","16217","69","2","3","lose","go","0"
"pit-trial","188","1177750","0.0-74.0","battery-v0.2","","""event"",""trial"",""time""
""fullscreenenter"",""1"",""3007""
","
","
","""event"",""trial"",""time""
""fullscreenenter"",""1"",""3007""
","
","","","-1","","","20","16217","2661","p","elianto","#3366ff99","-1","-1","1","0","[]","0","2","","","16217","70","5","2","win","no-go","1"
"pit-trial","189","1182605","0.0-75.0","battery-v0.2","","""event"",""trial"",""time""
""fullscreenenter"",""1"",""3007""
","
","
","""event"",""trial"",""time""
""fullscreenenter"",""1"",""3007""
","
","","","-1","","","20","16217","2661","d","elianto","#3366ff99","-1","-1","1","+10","[]","0","2","","","16217","71","1","2","win","no-go","0"
"pit-trial","190","1186150","0.0-76.0","battery-v0.2","","""event"",""trial"",""time""
""fullscreenenter"",""1"",""3007""
","
","
","""event"",""trial"",""time""
""fullscreenenter"",""1"",""3007""
","
","","","690","","","20","16217","2661","s","elianto","#3366ff99"," "," ","1","+10","[1541.7999999988824]","1","2","","","16217","72","4","1","win","go","0"
"pit-trial","191","1189806","0.0-77.0","battery-v0.2","","""event"",""trial"",""time""
""fullscreenenter"",""1"",""3007""
","
","
","""event"",""trial"",""time""
""fullscreenenter"",""1"",""3007""
","
","","","801","","","20","16217","2661","s","elianto","#3366ff99"," "," ","1","+10","[1651.4000000003725]","1","2","","","16217","73","4","1","win","go","0"
"pit-trial","192","1194661","0.0-78.0","battery-v0.2","","""event"",""trial"",""time""
""fullscreenenter"",""1"",""3007""
","
","
","""event"",""trial"",""time""
""fullscreenenter"",""1"",""3007""
","
","","","-1","","","20","16217","2661","w","elianto","#f73b6a7A","-1","-1","1","-10","[]","0","2","","","16217","74","3","4","lose","no-go","1"
"pit-trial","193","1198507","0.0-79.0","battery-v0.2","","""event"",""trial"",""time""
""fullscreenenter"",""1"",""3007""
","
","
","""event"",""trial"",""time""
""fullscreenenter"",""1"",""3007""
","
","","","992.1999999992549","","","20","16217","2661","p","elianto","#3366ff99","-1"," ","0","0","[1843.699999999255]","1","2","","","16217","75","5","2","win","no-go","0"
"pit-trial","194","1202181","0.0-80.0","battery-v0.2","","""event"",""trial"",""time""
""fullscreenenter"",""1"",""3007""
","
","
","""event"",""trial"",""time""
""fullscreenenter"",""1"",""3007""
","
","","","818.7000000011176","","","20","16217","2661","d","elianto","#3366ff99","-1"," ","0","0","[1669.5999999996275]","1","2","","","16217","76","1","2","win","no-go","0"
"pit-trial","195","1207037","0.0-81.0","battery-v0.2","","""event"",""trial"",""time""
""fullscreenenter"",""1"",""3007""
","
","
","""event"",""trial"",""time""
""fullscreenenter"",""1"",""3007""
","
","","","-1","","","20","16217","2661","p","elianto","#3366ff99","-1","-1","1","0","[]","0","2","","","16217","77","5","2","win","no-go","1"
"pit-trial","196","1211059","0.0-82.0","battery-v0.2","","""event"",""trial"",""time""
""fullscreenenter"",""1"",""3007""
","
","
","""event"",""trial"",""time""
""fullscreenenter"",""1"",""3007""
","
","","","1168.2000000011176","","","20","16217","2661","s","elianto","#3366ff99"," "," ","1","+10","[2019.199999999255]","1","2","","","16217","78","4","1","win","go","0"
"pit-trial","197","1215914","0.0-83.0","battery-v0.2","","""event"",""trial"",""time""
""fullscreenenter"",""1"",""3007""
","
","
","""event"",""trial"",""time""
""fullscreenenter"",""1"",""3007""
","
","","","-1","","","20","16217","2661","w","elianto","#f73b6a7A","-1","-1","1","0","[]","0","2","","","16217","79","3","4","lose","no-go","0"
"pit-trial","198","1219735","0.0-84.0","battery-v0.2","","""event"",""trial"",""time""
""fullscreenenter"",""1"",""3007""
","
","
","""event"",""trial"",""time""
""fullscreenenter"",""1"",""3007""
","
","","","966.5","","","20","16217","2661","s","elianto","#3366ff99"," "," ","1","+10","[1817.2000000011176]","1","2","","","16217","80","4","1","win","go","0"
"pit-trial","199","1223749","0.0-85.0","battery-v0.2","","""event"",""trial"",""time""
""fullscreenenter"",""1"",""3007""
","
","
","""event"",""trial"",""time""
""fullscreenenter"",""1"",""3007""
","
","","","1160.300000000745","","","20","16217","2661","a","elianto","#f73b6a7A","-1"," ","0","-10","[2010.800000000745]","1","2","","","16217","81","7","4","lose","no-go","0"
"pit-trial","200","1227994","0.0-86.0","battery-v0.2","","""event"",""trial"",""time""
""fullscreenenter"",""1"",""3007""
","
","
","""event"",""trial"",""time""
""fullscreenenter"",""1"",""3007""
","
","","","1391","","","20","16217","2661","s","elianto","#3366ff99"," "," ","1","+10","[2242]","1","2","","","16217","82","4","1","win","go","0"
"pit-trial","201","1231778","0.0-87.0","battery-v0.2","","""event"",""trial"",""time""
""fullscreenenter"",""1"",""3007""
","
","
","""event"",""trial"",""time""
""fullscreenenter"",""1"",""3007""
","
","","","929.5999999996275","","","20","16217","2661","p","elianto","#3366ff99","-1"," ","0","0","[1780.5999999996275]","1","2","","","16217","83","5","2","win","no-go","0"
"pit-trial","202","1236634","0.0-88.0","battery-v0.2","","""event"",""trial"",""time""
""fullscreenenter"",""1"",""3007""
","
","
","""event"",""trial"",""time""
""fullscreenenter"",""1"",""3007""
","
","","","-1","","","20","16217","2661","w","elianto","#f73b6a7A","-1","-1","1","0","[]","0","2","","","16217","84","3","4","lose","no-go","0"
"pit-trial","203","1240326","0.0-89.0","battery-v0.2","","""event"",""trial"",""time""
""fullscreenenter"",""1"",""3007""
","
","
","""event"",""trial"",""time""
""fullscreenenter"",""1"",""3007""
","
","","","837.9000000003725","","","20","16217","2661","s","elianto","#3366ff99"," "," ","1","+10","[1689.2999999988824]","1","2","","","16217","85","4","1","win","go","0"
"pit-trial","204","1245183","0.0-90.0","battery-v0.2","","""event"",""trial"",""time""
""fullscreenenter"",""1"",""3007""
","
","
","""event"",""trial"",""time""
""fullscreenenter"",""1"",""3007""
","
","","","-1","","","20","16217","2661","g","elianto","#f73b6a7A"," ","-1","0","-10","[]","0","2","","","16217","86","6","3","lose","go","0"
"pit-trial","205","1249150","0.0-91.0","battery-v0.2","","""event"",""trial"",""time""
""fullscreenenter"",""1"",""3007""
","
","
","""event"",""trial"",""time""
""fullscreenenter"",""1"",""3007""
","
","","","1112.0999999996275","","","20","16217","2661","p","elianto","#3366ff99","-1"," ","0","+10","[1963.5999999996275]","1","2","","","16217","87","5","2","win","no-go","1"
"pit-trial","206","1254005","0.0-92.0","battery-v0.2","","""event"",""trial"",""time""
""fullscreenenter"",""1"",""3007""
","
","
","""event"",""trial"",""time""
""fullscreenenter"",""1"",""3007""
","
","","","-1","","","20","16217","2661","a","elianto","#f73b6a7A","-1","-1","1","-10","[]","0","2","","","16217","88","7","4","lose","no-go","1"
"pit-trial","207","1257597","0.0-93.0","battery-v0.2","","""event"",""trial"",""time""
""fullscreenenter"",""1"",""3007""
","
","
","""event"",""trial"",""time""
""fullscreenenter"",""1"",""3007""
","
","","","738.3000000007451","","","20","16217","2661","a","elianto","#f73b6a7A","-1"," ","0","-10","[1589.2000000011176]","1","2","","","16217","89","7","4","lose","no-go","0"
"pit-trial","208","1261372","0.0-94.0","battery-v0.2","","""event"",""trial"",""time""
""fullscreenenter"",""1"",""3007""
","
","
","""event"",""trial"",""time""
""fullscreenenter"",""1"",""3007""
","
","","","922","","","20","16217","2661","s","elianto","#3366ff99"," "," ","1","0","[1772.0999999996275]","1","2","","","16217","90","4","1","win","go","1"
"pit-trial","209","1266098","0.0-95.0","battery-v0.2","","""event"",""trial"",""time""
""fullscreenenter"",""1"",""3007""
","
","
","""event"",""trial"",""time""
""fullscreenenter"",""1"",""3007""
","
","","","1871.300000000745","","","20","16217","2661","p","elianto","#3366ff99","-1"," ","0","0","[2722.300000000745]","1","2","","","16217","91","5","2","win","no-go","0"
"pit-trial","210","1269758","0.0-96.0","battery-v0.2","","""event"",""trial"",""time""
""fullscreenenter"",""1"",""3007""
","
","
","""event"",""trial"",""time""
""fullscreenenter"",""1"",""3007""
","
","","","805.4000000003725","","","20","16217","2661","g","elianto","#f73b6a7A"," "," ","1","-10","[1656.4000000003725]","1","2","","","16217","92","6","3","lose","go","1"
"pit-trial","211","1273465","0.0-97.0","battery-v0.2","","""event"",""trial"",""time""
""fullscreenenter"",""1"",""3007""
","
","
","""event"",""trial"",""time""
""fullscreenenter"",""1"",""3007""
","
","","","853.8999999985099","","","20","16217","2661","g","elianto","#f73b6a7A"," "," ","1","0","[1704.199999999255]","1","2","","","16217","93","6","3","lose","go","0"
"pit-trial","212","1277477","0.0-98.0","battery-v0.2","","""event"",""trial"",""time""
""fullscreenenter"",""1"",""3007""
","
","
","""event"",""trial"",""time""
""fullscreenenter"",""1"",""3007""
","
","","","1158.2000000011176","","","20","16217","2661","p","elianto","#3366ff99","-1"," ","0","0","[2009.0999999996275]","1","2","","","16217","94","5","2","win","no-go","0"
"pit-trial","213","1281411","0.0-99.0","battery-v0.2","","""event"",""trial"",""time""
""fullscreenenter"",""1"",""3007""
","
","
","""event"",""trial"",""time""
""fullscreenenter"",""1"",""3007""
","
","","","1077.5","","","20","16217","2661","a","elianto","#f73b6a7A","-1"," ","0","-10","[1929.4000000003725]","1","2","","","16217","95","7","4","lose","no-go","0"
"pit-trial","214","1285083","0.0-100.0","battery-v0.2","","""event"",""trial"",""time""
""fullscreenenter"",""1"",""3007""
","
","
","""event"",""trial"",""time""
""fullscreenenter"",""1"",""3007""
","
","","","816.0999999996275","","","20","16217","2661","l","elianto","#3366ff99"," "," ","1","0","[1668.7999999988824]","1","2","","","16217","96","8","1","win","go","1"
"pit-trial","215","1289939","0.0-101.0","battery-v0.2","","""event"",""trial"",""time""
""fullscreenenter"",""1"",""3007""
","
","
","""event"",""trial"",""time""
""fullscreenenter"",""1"",""3007""
","
","","","-1","","","20","16217","2661","a","elianto","#f73b6a7A","-1","-1","1","-10","[]","0","2","","","16217","97","7","4","lose","no-go","1"
"pit-trial","216","1294340","0.0-102.0","battery-v0.2","","""event"",""trial"",""time""
""fullscreenenter"",""1"",""3007""
","
","
","""event"",""trial"",""time""
""fullscreenenter"",""1"",""3007""
","
","","","1545.7000000011176","","","20","16217","2661","p","elianto","#3366ff99","-1"," ","0","0","[2397.0999999996275]","1","2","","","16217","98","5","2","win","no-go","0"
"pit-trial","217","1298219","0.0-103.0","battery-v0.2","","""event"",""trial"",""time""
""fullscreenenter"",""1"",""3007""
","
","
","""event"",""trial"",""time""
""fullscreenenter"",""1"",""3007""
","
","","","1024.9000000003725","","","20","16217","2661","g","elianto","#f73b6a7A"," "," ","1","0","[1876]","1","2","","","16217","99","6","3","lose","go","0"
"pit-trial","218","1302035","0.0-104.0","battery-v0.2","","""event"",""trial"",""time""
""fullscreenenter"",""1"",""3007""
","
","
","""event"",""trial"",""time""
""fullscreenenter"",""1"",""3007""
","
","","","961.0999999996275","","","20","16217","2661","l","elianto","#3366ff99"," "," ","1","0","[1812.0999999996275]","1","2","","","16217","100","8","1","win","go","1"
"pit-trial","219","1305706","0.0-105.0","battery-v0.2","","""event"",""trial"",""time""
""fullscreenenter"",""1"",""3007""
","
","
","""event"",""trial"",""time""
""fullscreenenter"",""1"",""3007""
","
","","","817","","","20","16217","2661","a","elianto","#f73b6a7A","-1"," ","0","0","[1667.300000000745]","1","2","","","16217","101","7","4","lose","no-go","1"
"pit-trial","220","1309363","0.0-106.0","battery-v0.2","","""event"",""trial"",""time""
""fullscreenenter"",""1"",""3007""
","
","
","""event"",""trial"",""time""
""fullscreenenter"",""1"",""3007""
","
","","","803.3999999985099","","","20","16217","2661","l","elianto","#3366ff99"," "," ","1","+10","[1654.0999999996275]","1","2","","","16217","102","8","1","win","go","0"
"pit-trial","221","1312965","0.0-107.0","battery-v0.2","","""event"",""trial"",""time""
""fullscreenenter"",""1"",""3007""
","
","
","""event"",""trial"",""time""
""fullscreenenter"",""1"",""3007""
","
","","","746.5999999996275","","","20","16217","2661","u","elianto","#3366ff99"," "," ","1","0","[1597.5999999996275]","1","2","","","16217","103","9","1","win","go","1"
"pit-trial","222","1316856","0.0-108.0","battery-v0.2","","""event"",""trial"",""time""
""fullscreenenter"",""1"",""3007""
","
","
","""event"",""trial"",""time""
""fullscreenenter"",""1"",""3007""
","
","","","1036.9000000003725","","","20","16217","2661","p","elianto","#3366ff99","-1"," ","0","0","[1887.5]","1","2","","","16217","104","5","2","win","no-go","0"
"pit-trial","223","1320848","0.0-109.0","battery-v0.2","","""event"",""trial"",""time""
""fullscreenenter"",""1"",""3007""
","
","
","""event"",""trial"",""time""
""fullscreenenter"",""1"",""3007""
","
","","","1138.800000000745","","","20","16217","2661","g","elianto","#f73b6a7A"," "," ","1","0","[1989.2000000011176]","1","2","","","16217","105","6","3","lose","go","0"
"pit-trial","224","1324595","0.0-110.0","battery-v0.2","","""event"",""trial"",""time""
""fullscreenenter"",""1"",""3007""
","
","
","""event"",""trial"",""time""
""fullscreenenter"",""1"",""3007""
","
","","","891.5999999996275","","","20","16217","2661","s","elianto","#3366ff99"," "," ","1","0","[1742.5]","1","2","","","16217","106","4","1","win","go","1"
"pit-trial","225","1329449","0.0-111.0","battery-v0.2","","""event"",""trial"",""time""
""fullscreenenter"",""1"",""3007""
","
","
","""event"",""trial"",""time""
""fullscreenenter"",""1"",""3007""
","
","","","-1","","","20","16217","2661","u","elianto","#3366ff99"," ","-1","0","0","[]","0","2","","","16217","107","9","1","win","go","0"
"pit-trial","226","1332943","0.0-112.0","battery-v0.2","","""event"",""trial"",""time""
""fullscreenenter"",""1"",""3007""
","
","
","""event"",""trial"",""time""
""fullscreenenter"",""1"",""3007""
","
","","","638.8000000007451","","","20","16217","2661","l","elianto","#3366ff99"," "," ","1","0","[1490.2000000011176]","1","2","","","16217","108","8","1","win","go","1"
"pit-trial","227","1336696","0.0-113.0","battery-v0.2","","""event"",""trial"",""time""
""fullscreenenter"",""1"",""3007""
","
","
","""event"",""trial"",""time""
""fullscreenenter"",""1"",""3007""
","
","","","896.9000000003725","","","20","16217","2661","g","elianto","#f73b6a7A"," "," ","1","0","[1748.9000000003725]","1","2","","","16217","109","6","3","lose","go","0"
"pit-trial","228","1340226","0.0-114.0","battery-v0.2","","""event"",""trial"",""time""
""fullscreenenter"",""1"",""3007""
","
","
","""event"",""trial"",""time""
""fullscreenenter"",""1"",""3007""
","
","","","675.8000000007451","","","20","16217","2661","p","elianto","#3366ff99","-1"," ","0","0","[1527.5]","1","2","","","16217","110","5","2","win","no-go","0"
"pit-trial","229","1343812","0.0-115.0","battery-v0.2","","""event"",""trial"",""time""
""fullscreenenter"",""1"",""3007""
","
","
","""event"",""trial"",""time""
""fullscreenenter"",""1"",""3007""
","
","","","731.8000000007451","","","20","16217","2661","l","elianto","#3366ff99"," "," ","1","+10","[1582.2000000011176]","1","2","","","16217","111","8","1","win","go","0"
"pit-trial","230","1347290","0.0-116.0","battery-v0.2","","""event"",""trial"",""time""
""fullscreenenter"",""1"",""3007""
","
","
","""event"",""trial"",""time""
""fullscreenenter"",""1"",""3007""
","
","","","621.9000000003725","","","20","16217","2661","u","elianto","#3366ff99"," "," ","1","+10","[1473.7000000011176]","1","2","","","16217","112","9","1","win","go","0"
"pit-trial","231","1350912","0.0-117.0","battery-v0.2","","""event"",""trial"",""time""
""fullscreenenter"",""1"",""3007""
","
","
","""event"",""trial"",""time""
""fullscreenenter"",""1"",""3007""
","
","","","768.0999999996275","","","20","16217","2661","u","elianto","#3366ff99"," "," ","1","+10","[1618.9000000003725]","1","2","","","16217","113","9","1","win","go","0"
"pit-trial","232","1355018","0.0-118.0","battery-v0.2","","""event"",""trial"",""time""
""fullscreenenter"",""1"",""3007""
","
","
","""event"",""trial"",""time""
""fullscreenenter"",""1"",""3007""
","
","","","1252.2999999988824","","","20","16217","2661","g","elianto","#f73b6a7A"," "," ","1","0","[2103.4000000003725]","1","2","","","16217","114","6","3","lose","go","0"
"pit-trial","233","1358501","0.0-119.0","battery-v0.2","","""event"",""trial"",""time""
""fullscreenenter"",""1"",""3007""
","
","
","""event"",""trial"",""time""
""fullscreenenter"",""1"",""3007""
","
","","","629.4000000003725","","","20","16217","2661","l","elianto","#3366ff99"," "," ","1","+10","[1479.800000000745]","1","2","","","16217","115","8","1","win","go","0"
"pit-trial","234","1361941","0.0-120.0","battery-v0.2","","""event"",""trial"",""time""
""fullscreenenter"",""1"",""3007""
","
","
","""event"",""trial"",""time""
""fullscreenenter"",""1"",""3007""
","
","","","586.4000000003725","","","20","16217","2661","p","elianto","#3366ff99","-1"," ","0","0","[1437]","1","2","","","16217","116","5","2","win","no-go","0"
"pit-trial","235","1365468","0.0-121.0","battery-v0.2","","""event"",""trial"",""time""
""fullscreenenter"",""1"",""3007""
","
","
","""event"",""trial"",""time""
""fullscreenenter"",""1"",""3007""
","
","","","672","","","20","16217","2661","u","elianto","#3366ff99"," "," ","1","+10","[1522.800000000745]","1","2","","","16217","117","9","1","win","go","0"
"pit-trial","236","1369423","0.0-122.0","battery-v0.2","","""event"",""trial"",""time""
""fullscreenenter"",""1"",""3007""
","
","
","""event"",""trial"",""time""
""fullscreenenter"",""1"",""3007""
","
","","","1099.5999999996275","","","20","16217","2661","g","elianto","#f73b6a7A"," "," ","1","-10","[1951.0999999996275]","1","2","","","16217","118","6","3","lose","go","1"
"pit-trial","237","1372876","0.0-123.0","battery-v0.2","","""event"",""trial"",""time""
""fullscreenenter"",""1"",""3007""
","
","
","""event"",""trial"",""time""
""fullscreenenter"",""1"",""3007""
","
","","","599.5999999996275","","","20","16217","2661","p","elianto","#3366ff99","-1"," ","0","+10","[1449.8999999985099]","1","2","","","16217","119","5","2","win","no-go","1"
"pit-trial","238","1376422","0.0-124.0","battery-v0.2","","""event"",""trial"",""time""
""fullscreenenter"",""1"",""3007""
","
","
","""event"",""trial"",""time""
""fullscreenenter"",""1"",""3007""
","
","","","690.4000000003725","","","20","16217","2661","l","elianto","#3366ff99"," "," ","1","+10","[1542.2000000011176]","1","2","","","16217","120","8","1","win","go","0"
"pit-trial","239","1379873","0.0-125.0","battery-v0.2","","""event"",""trial"",""time""
""fullscreenenter"",""1"",""3007""
","
","
","""event"",""trial"",""time""
""fullscreenenter"",""1"",""3007""
","
","","","595.5999999996275","","","20","16217","2661","l","elianto","#3366ff99"," "," ","1","+10","[1446.5999999996275]","1","2","","","16217","121","8","1","win","go","0"
"pit-trial","240","1383358","0.0-126.0","battery-v0.2","","""event"",""trial"",""time""
""fullscreenenter"",""1"",""3007""
","
","
","""event"",""trial"",""time""
""fullscreenenter"",""1"",""3007""
","
","","","629.5","","","20","16217","2661","u","elianto","#3366ff99"," "," ","1","+10","[1480.9000000003725]","1","2","","","16217","122","9","1","win","go","0"
"pit-trial","241","1388214","0.0-127.0","battery-v0.2","","""event"",""trial"",""time""
""fullscreenenter"",""1"",""3007""
","
","
","""event"",""trial"",""time""
""fullscreenenter"",""1"",""3007""
","
","","","-1","","","20","16217","2661","g","elianto","#f73b6a7A"," ","-1","0","-10","[]","0","2","","","16217","123","6","3","lose","go","0"
"pit-trial","242","1393069","0.0-128.0","battery-v0.2","","""event"",""trial"",""time""
""fullscreenenter"",""1"",""3007""
","
","
","""event"",""trial"",""time""
""fullscreenenter"",""1"",""3007""
","
","","","-1","","","20","16217","2661","a","elianto","#f73b6a7A","-1","-1","1","0","[]","0","2","","","16217","124","7","4","lose","no-go","0"
"pit-trial","243","1397046","0.0-129.0","battery-v0.2","","""event"",""trial"",""time""
""fullscreenenter"",""1"",""3007""
","
","
","""event"",""trial"",""time""
""fullscreenenter"",""1"",""3007""
","
","","","1121.9000000003725","","","20","16217","2661","g","elianto","#f73b6a7A"," "," ","1","0","[1974.4000000003725]","1","2","","","16217","125","6","3","lose","go","0"
"pit-trial","244","1400629","0.0-130.0","battery-v0.2","","""event"",""trial"",""time""
""fullscreenenter"",""1"",""3007""
","
","
","""event"",""trial"",""time""
""fullscreenenter"",""1"",""3007""
","
","","","727.4000000003725","","","20","16217","2661","l","elianto","#3366ff99"," "," ","1","+10","[1578.0999999996275]","1","2","","","16217","126","8","1","win","go","0"
"pit-trial","245","1405291","0.0-131.0","battery-v0.2","","""event"",""trial"",""time""
""fullscreenenter"",""1"",""3007""
","
","
","""event"",""trial"",""time""
""fullscreenenter"",""1"",""3007""
","
","","","1807","","","20","16217","2661","a","elianto","#f73b6a7A","-1"," ","0","0","[2658.7999999988824]","1","2","","","16217","127","7","4","lose","no-go","1"
"pit-trial","246","1408838","0.0-132.0","battery-v0.2","","""event"",""trial"",""time""
""fullscreenenter"",""1"",""3007""
","
","
","""event"",""trial"",""time""
""fullscreenenter"",""1"",""3007""
","
","","","691.1999999992549","","","20","16217","2661","u","elianto","#3366ff99"," "," ","1","+10","[1542.4000000003725]","1","2","","","16217","128","9","1","win","go","0"
"pit-trial","247","1413028","0.0-133.0","battery-v0.2","","""event"",""trial"",""time""
""fullscreenenter"",""1"",""3007""
","
","
","""event"",""trial"",""time""
""fullscreenenter"",""1"",""3007""
","
","","","1335.300000000745","","","20","16217","2661","a","elianto","#f73b6a7A","-1"," ","0","-10","[2186.4000000003725]","1","2","","","16217","129","7","4","lose","no-go","0"
"pit-trial","248","1416563","0.0-134.0","battery-v0.2","","""event"",""trial"",""time""
""fullscreenenter"",""1"",""3007""
","
","
","""event"",""trial"",""time""
""fullscreenenter"",""1"",""3007""
","
","","","681.7000000011176","","","20","16217","2661","u","elianto","#3366ff99"," "," ","1","0","[1531.8999999985099]","1","2","","","16217","130","9","1","win","go","1"
"pit-trial","249","1419970","0.0-135.0","battery-v0.2","","""event"",""trial"",""time""
""fullscreenenter"",""1"",""3007""
","
","
","""event"",""trial"",""time""
""fullscreenenter"",""1"",""3007""
","
","","","552.0999999996275","","","20","16217","2661","l","elianto","#3366ff99"," "," ","1","+10","[1403.2999999988824]","1","2","","","16217","131","8","1","win","go","0"
"pit-trial","250","1424826","0.0-136.0","battery-v0.2","","""event"",""trial"",""time""
""fullscreenenter"",""1"",""3007""
","
","
","""event"",""trial"",""time""
""fullscreenenter"",""1"",""3007""
","
","","","-1","","","20","16217","2661","g","elianto","#f73b6a7A"," ","-1","0","-10","[]","0","2","","","16217","132","6","3","lose","go","0"
"pit-trial","251","1428171","0.0-137.0","battery-v0.2","","""event"",""trial"",""time""
""fullscreenenter"",""1"",""3007""
","
","
","""event"",""trial"",""time""
""fullscreenenter"",""1"",""3007""
","
","","","490","","","20","16217","2661","l","elianto","#3366ff99"," "," ","1","+10","[1341.0999999996275]","1","2","","","16217","133","8","1","win","go","0"
"pit-trial","252","1431592","0.0-138.0","battery-v0.2","","""event"",""trial"",""time""
""fullscreenenter"",""1"",""3007""
","
","
","""event"",""trial"",""time""
""fullscreenenter"",""1"",""3007""
","
","","","566.4000000003725","","","20","16217","2661","u","elianto","#3366ff99"," "," ","1","+10","[1417.0999999996275]","1","2","","","16217","134","9","1","win","go","0"
"pit-trial","253","1435410","0.0-139.0","battery-v0.2","","""event"",""trial"",""time""
""fullscreenenter"",""1"",""3007""
","
","
","""event"",""trial"",""time""
""fullscreenenter"",""1"",""3007""
","
","","","962","","","20","16217","2661","g","elianto","#f73b6a7A"," "," ","1","0","[1814]","1","2","","","16217","135","6","3","lose","go","0"
"pit-trial","254","1440266","0.0-140.0","battery-v0.2","","""event"",""trial"",""time""
""fullscreenenter"",""1"",""3007""
","
","
","""event"",""trial"",""time""
""fullscreenenter"",""1"",""3007""
","
","","","-1","","","20","16217","2661","a","elianto","#f73b6a7A","-1","-1","1","0","[]","0","2","","","16217","136","7","4","lose","no-go","0"
"pit-trial","255","1444773","0.0-141.0","battery-v0.2","","""event"",""trial"",""time""
""fullscreenenter"",""1"",""3007""
","
","
","""event"",""trial"",""time""
""fullscreenenter"",""1"",""3007""
","
","","","1652.7000000011176","","","20","16217","2661","g","elianto","#f73b6a7A"," "," ","1","-10","[2503.7000000011176]","1","2","","","16217","137","6","3","lose","go","1"
"pit-trial","256","1448181","0.0-142.0","battery-v0.2","","""event"",""trial"",""time""
""fullscreenenter"",""1"",""3007""
","
","
","""event"",""trial"",""time""
""fullscreenenter"",""1"",""3007""
","
","","","552.9000000003725","","","20","16217","2661","u","elianto","#3366ff99"," "," ","1","+10","[1403.9000000003725]","1","2","","","16217","138","9","1","win","go","0"
"pit-trial","257","1451602","0.0-143.0","battery-v0.2","","""event"",""trial"",""time""
""fullscreenenter"",""1"",""3007""
","
","
","""event"",""trial"",""time""
""fullscreenenter"",""1"",""3007""
","
","","","566","","","20","16217","2661","l","elianto","#3366ff99"," "," ","1","+10","[1417.5999999996275]","1","2","","","16217","139","8","1","win","go","0"
"pit-trial","258","1456457","0.0-144.0","battery-v0.2","","""event"",""trial"",""time""
""fullscreenenter"",""1"",""3007""
","
","
","""event"",""trial"",""time""
""fullscreenenter"",""1"",""3007""
","
","","","-1","","","20","16217","2661","a","elianto","#f73b6a7A","-1","-1","1","0","[]","0","2","","","16217","140","7","4","lose","no-go","0"
"pit-instructions","259","1471975","0.0-145.0","battery-v0.2","","""event"",""trial"",""time""
""fullscreenenter"",""1"",""3007""
","
","
","""event"",""trial"",""time""
""fullscreenenter"",""1"",""3007""
","
","","[{""page_index"":0,""viewing_time"":7012.5999999996275},{""page_index"":1,""viewing_time"":8503.800000000745}]","15516.599999999627","","","","","","","","","","","","","","","","","","","","","","","",""
"pit-trial","260","1475481","0.0-146.0","battery-v0.2","","""event"",""trial"",""time""
""fullscreenenter"",""1"",""3007""
","
","
","""event"",""trial"",""time""
""fullscreenenter"",""1"",""3007""
","
","","","649.5","","","20","16217","2661","f","elianto","#3366ff99"," "," ","1","+10","[1501.4000000003725]","1","3","","","16217","141","1","1","win","go","0"
"pit-trial","261","1479105","0.0-147.0","battery-v0.2","","""event"",""trial"",""time""
""fullscreenenter"",""1"",""3007""
","
","
","""event"",""trial"",""time""
""fullscreenenter"",""1"",""3007""
","
","","","770.8000000007451","","","20","16217","2661","t","elianto","#f73b6a7A","-1"," ","0","0","[1621.300000000745]","1","3","","","16217","142","2","4","lose","no-go","1"
"pit-trial","262","1482665","0.0-148.0","battery-v0.2","","""event"",""trial"",""time""
""fullscreenenter"",""1"",""3007""
","
","
","""event"",""trial"",""time""
""fullscreenenter"",""1"",""3007""
","
","","","706.3000000007451","","","20","16217","2661","b","elianto","#f73b6a7A"," "," ","1","-10","[1557.199999999255]","1","3","","","16217","143","3","3","lose","go","1"
"pit-trial","263","1486310","0.0-149.0","battery-v0.2","","""event"",""trial"",""time""
""fullscreenenter"",""1"",""3007""
","
","
","""event"",""trial"",""time""
""fullscreenenter"",""1"",""3007""
","
","","","790.9000000003725","","","20","16217","2661","n","elianto","#f73b6a7A","-1"," ","0","-10","[1642.5]","1","3","","","16217","144","0","4","lose","no-go","0"
"pit-trial","264","1490009","0.0-150.0","battery-v0.2","","""event"",""trial"",""time""
""fullscreenenter"",""1"",""3007""
","
","
","""event"",""trial"",""time""
""fullscreenenter"",""1"",""3007""
","
