"trial_type","trial_index","time_elapsed","internal_node_id","task_version","subject_id","interactions","blur_events","focus_events","fullscreenenter_events","fullscreenexit_events","success","view_history","rt","responses","num_errors","age","subject","participantId","rune","rune_set","hex","correct","choice","accuracy","outcome","keys","total_keys","block","practice","value","sub","trial","stimulus","robot","valence","action","sham"
"pavlovia","0","14","0.0-0.0","battery-v0.2","","""event"",""trial"",""time""
""focus"",""0"",""1""
""fullscreenenter"",""1"",""2238""
","
","""event"",""trial"",""time""
""focus"",""0"",""1""
","""event"",""trial"",""time""
""fullscreenenter"",""1"",""2238""
","
","","","","","","","","","","","","","","","","","","","","","","","","","","",""
"fullscreen","1","3000","0.0-1.0","battery-v0.2","","""event"",""trial"",""time""
""focus"",""0"",""1""
""fullscreenenter"",""1"",""2238""
","
","""event"",""trial"",""time""
""focus"",""0"",""1""
","""event"",""trial"",""time""
""fullscreenenter"",""1"",""2238""
","
","true","","","","","","","","","","","","","","","","","","","","","","","","","",""
"pit-instructions","2","6461","0.0-2.0-0.0","battery-v0.2","","""event"",""trial"",""time""
""focus"",""0"",""1""
""fullscreenenter"",""1"",""2238""
","
","""event"",""trial"",""time""
""focus"",""0"",""1""
","""event"",""trial"",""time""
""fullscreenenter"",""1"",""2238""
","
","","[{""page_index"":0,""viewing_time"":3454}]","3454","","","","","","","","","","","","","","","","","","","","","","","",""
"pit-comprehension","3","9230","0.0-2.0-1.0-0.0","battery-v0.2","","""event"",""trial"",""time""
""focus"",""0"",""1""
""fullscreenenter"",""1"",""2238""
","
","""event"",""trial"",""time""
""focus"",""0"",""1""
","""event"",""trial"",""time""
""fullscreenenter"",""1"",""2238""
","
","","","2766","[""shark""]","0","16","3985","150","","","","","","","","","","","","","","","","","","",""
"pit-instructions","4","10209","0.0-2.0-1.0-1.0","battery-v0.2","","""event"",""trial"",""time""
""focus"",""0"",""1""
""fullscreenenter"",""1"",""2238""
","
","""event"",""trial"",""time""
""focus"",""0"",""1""
","""event"",""trial"",""time""
""fullscreenenter"",""1"",""2238""
","
","","[{""page_index"":0,""viewing_time"":973}]","973","","","","","","","","","","","","","","","","","","","","","","","",""
"pit-comprehension","5","12688","0.0-2.0-2.0-0.0","battery-v0.2","","""event"",""trial"",""time""
""focus"",""0"",""1""
""fullscreenenter"",""1"",""2238""
","
","""event"",""trial"",""time""
""focus"",""0"",""1""
","""event"",""trial"",""time""
""fullscreenenter"",""1"",""2238""
","
","","","2472","[""tiger""]","0","16","3985","150","","","","","","","","","","","","","","","","","","",""
"pit-instructions","6","13260","0.0-2.0-2.0-1.0","battery-v0.2","","""event"",""trial"",""time""
""focus"",""0"",""1""
""fullscreenenter"",""1"",""2238""
","
","""event"",""trial"",""time""
""focus"",""0"",""1""
","""event"",""trial"",""time""
""fullscreenenter"",""1"",""2238""
","
","","[{""page_index"":0,""viewing_time"":563}]","563","","","","","","","","","","","","","","","","","","","","","","","",""
"pit-instructions","7","103530","0.0-2.0-3.0","battery-v0.2","","""event"",""trial"",""time""
""focus"",""0"",""1""
""fullscreenenter"",""1"",""2238""
","
","""event"",""trial"",""time""
""focus"",""0"",""1""
","""event"",""trial"",""time""
""fullscreenenter"",""1"",""2238""
","
","","[{""page_index"":0,""viewing_time"":8749},{""page_index"":1,""viewing_time"":5280},{""page_index"":2,""viewing_time"":6282},{""page_index"":3,""viewing_time"":5272},{""page_index"":4,""viewing_time"":6514},{""page_index"":5,""viewing_time"":7406},{""page_index"":6,""viewing_time"":6729},{""page_index"":7,""viewing_time"":6129},{""page_index"":8,""viewing_time"":6048},{""page_index"":9,""viewing_time"":6098},{""page_index"":10,""viewing_time"":8148},{""page_index"":11,""viewing_time"":6458},{""page_index"":12,""viewing_time"":6114},{""page_index"":13,""viewing_time"":5037}]","90264","","","","","","","","","","","","","","","","","","","","","","","",""
"pit-trial","8","107011","0.0-2.0-4.0-0.0","battery-v0.2","","""event"",""trial"",""time""
""focus"",""0"",""1""
""fullscreenenter"",""1"",""2238""
","
","""event"",""trial"",""time""
""focus"",""0"",""1""
","""event"",""trial"",""time""
""fullscreenenter"",""1"",""2238""
","
","","","606","","","16","3985","150","&#9784;","elianto","#FFFFF080"," "," ","1","&#10004","[1472]","1","0","0","","","","","","","",""
"pit-trial","9","110432","0.0-2.0-4.1-0.1","battery-v0.2","","""event"",""trial"",""time""
""focus"",""0"",""1""
""fullscreenenter"",""1"",""2238""
","
","""event"",""trial"",""time""
""focus"",""0"",""1""
","""event"",""trial"",""time""
""fullscreenenter"",""1"",""2238""
","
","","","547","","","16","3985","150","&#9784;","elianto","#FFFFF080"," "," ","1","&#10004","[1405]","1","0","0","","","","","","","",""
"pit-trial","10","113903","0.0-2.0-4.2-0.2","battery-v0.2","","""event"",""trial"",""time""
""focus"",""0"",""1""
""fullscreenenter"",""1"",""2238""
","
","""event"",""trial"",""time""
""focus"",""0"",""1""
","""event"",""trial"",""time""
""fullscreenenter"",""1"",""2238""
","
","","","601","","","16","3985","150","&#9784;","elianto","#FFFFF080"," "," ","1","&#10004","[1459]","1","0","0","","","","","","","",""
"pit-trial","11","117531","0.0-2.0-4.3-0.3","battery-v0.2","","""event"",""trial"",""time""
""focus"",""0"",""1""
""fullscreenenter"",""1"",""2238""
","
","""event"",""trial"",""time""
""focus"",""0"",""1""
","""event"",""trial"",""time""
""fullscreenenter"",""1"",""2238""
","
","","","753","","","16","3985","150","&#9784;","elianto","#FFFFF080"," "," ","1","&#10004","[1616]","1","0","0","","","","","","","",""
"pit-trial","12","120893","0.0-2.0-4.4-0.4","battery-v0.2","","""event"",""trial"",""time""
""focus"",""0"",""1""
""fullscreenenter"",""1"",""2238""
","
","""event"",""trial"",""time""
""focus"",""0"",""1""
","""event"",""trial"",""time""
""fullscreenenter"",""1"",""2238""
","
","","","494","","","16","3985","150","&#9784;","elianto","#FFFFF080"," "," ","1","&#10004","[1352]","1","0","0","","","","","","","",""
"pit-instructions","13","141164","0.0-2.0-5.0","battery-v0.2","","""event"",""trial"",""time""
""focus"",""0"",""1""
""fullscreenenter"",""1"",""2238""
","
","""event"",""trial"",""time""
""focus"",""0"",""1""
","""event"",""trial"",""time""
""fullscreenenter"",""1"",""2238""
","
","","[{""page_index"":0,""viewing_time"":5438},{""page_index"":1,""viewing_time"":5572},{""page_index"":2,""viewing_time"":4233},{""page_index"":3,""viewing_time"":5019}]","20262","","","","","","","","","","","","","","","","","","","","","","","",""
"pit-trial","14","146052","0.0-2.0-6.0-0.0","battery-v0.2","","""event"",""trial"",""time""
""focus"",""0"",""1""
""fullscreenenter"",""1"",""2238""
","
","""event"",""trial"",""time""
""focus"",""0"",""1""
","""event"",""trial"",""time""
""fullscreenenter"",""1"",""2238""
","
","","","-1","","","16","3985","150","&#9854;","elianto","#FFFFF080","-1","-1","1","&#10004","[]","0","0","1","","","","","","","",""
"pit-trial","15","150923","0.0-2.0-6.1-0.1","battery-v0.2","","""event"",""trial"",""time""
""focus"",""0"",""1""
""fullscreenenter"",""1"",""2238""
","
","""event"",""trial"",""time""
""focus"",""0"",""1""
","""event"",""trial"",""time""
""fullscreenenter"",""1"",""2238""
","
","","","-1","","","16","3985","150","&#9854;","elianto","#FFFFF080","-1","-1","1","&#10004","[]","0","0","1","","","","","","","",""
"pit-trial","16","155793","0.0-2.0-6.2-0.2","battery-v0.2","","""event"",""trial"",""time""
""focus"",""0"",""1""
""fullscreenenter"",""1"",""2238""
","
","""event"",""trial"",""time""
""focus"",""0"",""1""
","""event"",""trial"",""time""
""fullscreenenter"",""1"",""2238""
","
","","","-1","","","16","3985","150","&#9854;","elianto","#FFFFF080","-1","-1","1","&#10004","[]","0","0","1","","","","","","","",""
"pit-trial","17","160654","0.0-2.0-6.3-0.3","battery-v0.2","","""event"",""trial"",""time""
""focus"",""0"",""1""
""fullscreenenter"",""1"",""2238""
","
","""event"",""trial"",""time""
""focus"",""0"",""1""
","""event"",""trial"",""time""
""fullscreenenter"",""1"",""2238""
","
","","","-1","","","16","3985","150","&#9854;","elianto","#FFFFF080","-1","-1","1","&#10004","[]","0","0","1","","","","","","","",""
"pit-trial","18","165531","0.0-2.0-6.4-0.4","battery-v0.2","","""event"",""trial"",""time""
""focus"",""0"",""1""
""fullscreenenter"",""1"",""2238""
","
","""event"",""trial"",""time""
""focus"",""0"",""1""
","""event"",""trial"",""time""
""fullscreenenter"",""1"",""2238""
","
","","","-1","","","16","3985","150","&#9854;","elianto","#FFFFF080","-1","-1","1","&#10004","[]","0","0","1","","","","","","","",""
"pit-instructions","19","286927","0.0-2.0-7.0","battery-v0.2","","""event"",""trial"",""time""
""focus"",""0"",""1""
""fullscreenenter"",""1"",""2238""
","
","""event"",""trial"",""time""
""focus"",""0"",""1""
","""event"",""trial"",""time""
""fullscreenenter"",""1"",""2238""
","
","","[{""page_index"":0,""viewing_time"":7484},{""page_index"":1,""viewing_time"":6937},{""page_index"":2,""viewing_time"":5928},{""page_index"":3,""viewing_time"":6359},{""page_index"":4,""viewing_time"":5603},{""page_index"":5,""viewing_time"":5418},{""page_index"":6,""viewing_time"":4739},{""page_index"":7,""viewing_time"":8053},{""page_index"":8,""viewing_time"":6926},{""page_index"":9,""viewing_time"":6628},{""page_index"":10,""viewing_time"":6480},{""page_index"":11,""viewing_time"":4424},{""page_index"":12,""viewing_time"":7160},{""page_index"":13,""viewing_time"":8781},{""page_index"":14,""viewing_time"":7946},{""page_index"":15,""viewing_time"":7985},{""page_index"":16,""viewing_time"":7379},{""page_index"":17,""viewing_time"":7161}]","121392","","","","","","","","","","","","","","","","","","","","","","","",""
"pit-trial","20","290242","0.0-2.0-8.0-0.0","battery-v0.2","","""event"",""trial"",""time""
""focus"",""0"",""1""
""fullscreenenter"",""1"",""2238""
","
","""event"",""trial"",""time""
""focus"",""0"",""1""
","""event"",""trial"",""time""
""fullscreenenter"",""1"",""2238""
","
","","","438","","","16","3985","150","&#9776;","elianto","#3366ff99"," "," ","1","+10","[1298]","1","0","1","","","","","","","",""
"pit-trial","21","293483","0.0-2.0-8.0-1.0","battery-v0.2","","""event"",""trial"",""time""
""focus"",""0"",""1""
""fullscreenenter"",""1"",""2238""
","
","""event"",""trial"",""time""
""focus"",""0"",""1""
","""event"",""trial"",""time""
""fullscreenenter"",""1"",""2238""
","
","","","352","","","16","3985","150","&#9776;","elianto","#3366ff99"," "," ","1","+10","[1218]","1","0","1","","","","","","","",""
"pit-trial","22","296732","0.0-2.0-8.0-2.0","battery-v0.2","","""event"",""trial"",""time""
""focus"",""0"",""1""
""fullscreenenter"",""1"",""2238""
","
","""event"",""trial"",""time""
""focus"",""0"",""1""
","""event"",""trial"",""time""
""fullscreenenter"",""1"",""2238""
","
","","","387","","","16","3985","150","&#9776;","elianto","#3366ff99"," "," ","1","+10","[1238]","1","0","1","","","","","","","",""
"pit-trial","23","299943","0.0-2.0-8.0-3.0","battery-v0.2","","""event"",""trial"",""time""
""focus"",""0"",""1""
""fullscreenenter"",""1"",""2238""
","
","""event"",""trial"",""time""
""focus"",""0"",""1""
","""event"",""trial"",""time""
""fullscreenenter"",""1"",""2238""
","
","","","331","","","16","3985","150","&#9776;","elianto","#3366ff99"," "," ","1","0","[1186]","1","0","1","","","","","","","",""
"pit-trial","24","303092","0.0-2.0-8.0-4.0","battery-v0.2","","""event"",""trial"",""time""
""focus"",""0"",""1""
""fullscreenenter"",""1"",""2238""
","
","""event"",""trial"",""time""
""focus"",""0"",""1""
","""event"",""trial"",""time""
""fullscreenenter"",""1"",""2238""
","
","","","286","","","16","3985","150","&#9776;","elianto","#3366ff99"," "," ","1","+10","[1139]","1","0","1","","","","","","","",""
"pit-trial","25","306312","0.0-2.0-8.1-0.1","battery-v0.2","","""event"",""trial"",""time""
""focus"",""0"",""1""
""fullscreenenter"",""1"",""2238""
","
","""event"",""trial"",""time""
""focus"",""0"",""1""
","""event"",""trial"",""time""
""fullscreenenter"",""1"",""2238""
","
","","","354","","","16","3985","150","&#9776;","elianto","#3366ff99"," "," ","1","+10","[1210]","1","0","1","","","","","","","",""
"pit-trial","26","309533","0.0-2.0-8.1-1.1","battery-v0.2","","""event"",""trial"",""time""
""focus"",""0"",""1""
""fullscreenenter"",""1"",""2238""
","
","""event"",""trial"",""time""
""focus"",""0"",""1""
","""event"",""trial"",""time""
""fullscreenenter"",""1"",""2238""
","
","","","355","","","16","3985","150","&#9776;","elianto","#3366ff99"," "," ","1","+10","[1209,2561]","2","0","1","","","","","","","",""
"pit-trial","27","312912","0.0-2.0-8.1-2.1","battery-v0.2","","""event"",""trial"",""time""
""focus"",""0"",""1""
""fullscreenenter"",""1"",""2238""
","
","""event"",""trial"",""time""
""focus"",""0"",""1""
","""event"",""trial"",""time""
""fullscreenenter"",""1"",""2238""
","
","","","520","","","16","3985","150","&#9776;","elianto","#3366ff99"," "," ","1","+10","[1376]","1","0","1","","","","","","","",""
"pit-trial","28","316151","0.0-2.0-8.1-3.1","battery-v0.2","","""event"",""trial"",""time""
""focus"",""0"",""1""
""fullscreenenter"",""1"",""2238""
","
","""event"",""trial"",""time""
""focus"",""0"",""1""
","""event"",""trial"",""time""
""fullscreenenter"",""1"",""2238""
","
","","","362","","","16","3985","150","&#9776;","elianto","#3366ff99"," "," ","1","0","[633,1228]","2","0","1","","","","","","","",""
"pit-trial","29","319242","0.0-2.0-8.1-4.1","battery-v0.2","","""event"",""trial"",""time""
""focus"",""0"",""1""
""fullscreenenter"",""1"",""2238""
","
","""event"",""trial"",""time""
""focus"",""0"",""1""
","""event"",""trial"",""time""
""fullscreenenter"",""1"",""2238""
","
","","","217","","","16","3985","150","&#9776;","elianto","#3366ff99"," "," ","1","+10","[367,603,821,1074,1332,1642]","6","0","1","","","","","","","",""
"pit-trial","30","322342","0.0-2.0-8.2-0.2","battery-v0.2","","""event"",""trial"",""time""
""focus"",""0"",""1""
""fullscreenenter"",""1"",""2238""
","
","""event"",""trial"",""time""
""focus"",""0"",""1""
","""event"",""trial"",""time""
""fullscreenenter"",""1"",""2238""
","
","","","225","","","16","3985","150","&#9776;","elianto","#3366ff99"," "," ","1","+10","[1079]","1","0","1","","","","","","","",""
"pit-trial","31","325633","0.0-2.0-8.2-1.2","battery-v0.2","","""event"",""trial"",""time""
""focus"",""0"",""1""
""fullscreenenter"",""1"",""2238""
","
","""event"",""trial"",""time""
""focus"",""0"",""1""
","""event"",""trial"",""time""
""fullscreenenter"",""1"",""2238""
","
","","","417","","","16","3985","150","&#9776;","elianto","#3366ff99"," "," ","1","+10","[1282]","1","0","1","","","","","","","",""
"pit-trial","32","328881","0.0-2.0-8.2-2.2","battery-v0.2","","""event"",""trial"",""time""
""focus"",""0"",""1""
""fullscreenenter"",""1"",""2238""
","
","""event"",""trial"",""time""
""focus"",""0"",""1""
","""event"",""trial"",""time""
""fullscreenenter"",""1"",""2238""
","
","","","377","","","16","3985","150","&#9776;","elianto","#3366ff99"," "," ","1","+10","[1243]","1","0","1","","","","","","","",""
"pit-trial","33","332102","0.0-2.0-8.2-3.2","battery-v0.2","","""event"",""trial"",""time""
""focus"",""0"",""1""
""fullscreenenter"",""1"",""2238""
","
","""event"",""trial"",""time""
""focus"",""0"",""1""
","""event"",""trial"",""time""
""fullscreenenter"",""1"",""2238""
","
","","","350","","","16","3985","150","&#9776;","elianto","#3366ff99"," "," ","1","0","[1208]","1","0","1","","","","","","","",""
"pit-trial","34","335272","0.0-2.0-8.2-4.2","battery-v0.2","","""event"",""trial"",""time""
""focus"",""0"",""1""
""fullscreenenter"",""1"",""2238""
","
","""event"",""trial"",""time""
""focus"",""0"",""1""
","""event"",""trial"",""time""
""fullscreenenter"",""1"",""2238""
","
","","","308","","","16","3985","150","&#9776;","elianto","#3366ff99"," "," ","1","+10","[1164]","1","0","1","","","","","","","",""
"call-function","35","335276","0.0-2.0-9.0","battery-v0.2","","""event"",""trial"",""time""
""focus"",""0"",""1""
""fullscreenenter"",""1"",""2238""
","
","""event"",""trial"",""time""
""focus"",""0"",""1""
","""event"",""trial"",""time""
""fullscreenenter"",""1"",""2238""
","
","","","","","","","","","","","","","","","","","","","","","","","","","","",""
"pit-instructions","36","375442","0.0-2.0-10.0","battery-v0.2","","""event"",""trial"",""time""
""focus"",""0"",""1""
""fullscreenenter"",""1"",""2238""
","
","""event"",""trial"",""time""
""focus"",""0"",""1""
","""event"",""trial"",""time""
""fullscreenenter"",""1"",""2238""
","
","","[{""page_index"":0,""viewing_time"":5483},{""page_index"":1,""viewing_time"":7632},{""page_index"":2,""viewing_time"":9654},{""page_index"":3,""viewing_time"":9901},{""page_index"":4,""viewing_time"":7494}]","40164","","","","","","","","","","","","","","","","","","","","","","","",""
"pit-trial","37","380322","0.0-2.0-11.0-0.0","battery-v0.2","","""event"",""trial"",""time""
""focus"",""0"",""1""
""fullscreenenter"",""1"",""2238""
","
","""event"",""trial"",""time""
""focus"",""0"",""1""
","""event"",""trial"",""time""
""fullscreenenter"",""1"",""2238""
","
","","","-1","","","16","3985","150","&#9761;","elianto","#3366ff99","-1","-1","1","+10","[]","0","0","2","","","","","","","",""
"pit-trial","38","385212","0.0-2.0-11.0-1.0","battery-v0.2","","""event"",""trial"",""time""
""focus"",""0"",""1""
""fullscreenenter"",""1"",""2238""
","
","""event"",""trial"",""time""
""focus"",""0"",""1""
","""event"",""trial"",""time""
""fullscreenenter"",""1"",""2238""
","
","","","-1","","","16","3985","150","&#9761;","elianto","#3366ff99","-1","-1","1","+10","[]","0","0","2","","","","","","","",""
"pit-trial","39","390085","0.0-2.0-11.0-2.0","battery-v0.2","","""event"",""trial"",""time""
""focus"",""0"",""1""
""fullscreenenter"",""1"",""2238""
","
","""event"",""trial"",""time""
""focus"",""0"",""1""
","""event"",""trial"",""time""
""fullscreenenter"",""1"",""2238""
","
","","","-1","","","16","3985","150","&#9761;","elianto","#3366ff99","-1","-1","1","+10","[]","0","0","2","","","","","","","",""
"pit-trial","40","394972","0.0-2.0-11.0-3.0","battery-v0.2","","""event"",""trial"",""time""
""focus"",""0"",""1""
""fullscreenenter"",""1"",""2238""
","
","""event"",""trial"",""time""
""focus"",""0"",""1""
","""event"",""trial"",""time""
""fullscreenenter"",""1"",""2238""
","
","","","-1","","","16","3985","150","&#9761;","elianto","#3366ff99","-1","-1","1","0","[]","0","0","2","","","","","","","",""
"pit-trial","41","399843","0.0-2.0-11.0-4.0","battery-v0.2","","""event"",""trial"",""time""
""focus"",""0"",""1""
""fullscreenenter"",""1"",""2238""
","
","""event"",""trial"",""time""
""focus"",""0"",""1""
","""event"",""trial"",""time""
""fullscreenenter"",""1"",""2238""
","
","","","-1","","","16","3985","150","&#9761;","elianto","#3366ff99","-1","-1","1","+10","[]","0","0","2","","","","","","","",""
"pit-trial","42","404712","0.0-2.0-11.1-0.1","battery-v0.2","","""event"",""trial"",""time""
""focus"",""0"",""1""
""fullscreenenter"",""1"",""2238""
","
","""event"",""trial"",""time""
""focus"",""0"",""1""
","""event"",""trial"",""time""
""fullscreenenter"",""1"",""2238""
","
","","","-1","","","16","3985","150","&#9761;","elianto","#3366ff99","-1","-1","1","+10","[]","0","0","2","","","","","","","",""
"pit-trial","43","409582","0.0-2.0-11.1-1.1","battery-v0.2","","""event"",""trial"",""time""
""focus"",""0"",""1""
""fullscreenenter"",""1"",""2238""
","
","""event"",""trial"",""time""
""focus"",""0"",""1""
","""event"",""trial"",""time""
""fullscreenenter"",""1"",""2238""
","
","","","-1","","","16","3985","150","&#9761;","elianto","#3366ff99","-1","-1","1","+10","[]","0","0","2","","","","","","","",""
"pit-trial","44","414451","0.0-2.0-11.1-2.1","battery-v0.2","","""event"",""trial"",""time""
""focus"",""0"",""1""
""fullscreenenter"",""1"",""2238""
","
","""event"",""trial"",""time""
""focus"",""0"",""1""
","""event"",""trial"",""time""
""fullscreenenter"",""1"",""2238""
","
","","","-1","","","16","3985","150","&#9761;","elianto","#3366ff99","-1","-1","1","+10","[]","0","0","2","","","","","","","",""
"pit-trial","45","419334","0.0-2.0-11.1-3.1","battery-v0.2","","""event"",""trial"",""time""
""focus"",""0"",""1""
""fullscreenenter"",""1"",""2238""
","
","""event"",""trial"",""time""
""focus"",""0"",""1""
","""event"",""trial"",""time""
""fullscreenenter"",""1"",""2238""
","
","","","-1","","","16","3985","150","&#9761;","elianto","#3366ff99","-1","-1","1","0","[]","0","0","2","","","","","","","",""
"pit-trial","46","424192","0.0-2.0-11.1-4.1","battery-v0.2","","""event"",""trial"",""time""
""focus"",""0"",""1""
""fullscreenenter"",""1"",""2238""
","
","""event"",""trial"",""time""
""focus"",""0"",""1""
","""event"",""trial"",""time""
""fullscreenenter"",""1"",""2238""
","
","","","-1","","","16","3985","150","&#9761;","elianto","#3366ff99","-1","-1","1","+10","[]","0","0","2","","","","","","","",""
"pit-trial","47","429073","0.0-2.0-11.2-0.2","battery-v0.2","","""event"",""trial"",""time""
""focus"",""0"",""1""
""fullscreenenter"",""1"",""2238""
","
","""event"",""trial"",""time""
""focus"",""0"",""1""
","""event"",""trial"",""time""
""fullscreenenter"",""1"",""2238""
","
","","","-1","","","16","3985","150","&#9761;","elianto","#3366ff99","-1","-1","1","+10","[]","0","0","2","","","","","","","",""
"pit-trial","48","433952","0.0-2.0-11.2-1.2","battery-v0.2","","""event"",""trial"",""time""
""focus"",""0"",""1""
""fullscreenenter"",""1"",""2238""
","
","""event"",""trial"",""time""
""focus"",""0"",""1""
","""event"",""trial"",""time""
""fullscreenenter"",""1"",""2238""
","
","","","-1","","","16","3985","150","&#9761;","elianto","#3366ff99","-1","-1","1","+10","[]","0","0","2","","","","","","","",""
"pit-trial","49","438832","0.0-2.0-11.2-2.2","battery-v0.2","","""event"",""trial"",""time""
""focus"",""0"",""1""
""fullscreenenter"",""1"",""2238""
","
","""event"",""trial"",""time""
""focus"",""0"",""1""
","""event"",""trial"",""time""
""fullscreenenter"",""1"",""2238""
","
","","","-1","","","16","3985","150","&#9761;","elianto","#3366ff99","-1","-1","1","+10","[]","0","0","2","","","","","","","",""
"pit-trial","50","443702","0.0-2.0-11.2-3.2","battery-v0.2","","""event"",""trial"",""time""
""focus"",""0"",""1""
""fullscreenenter"",""1"",""2238""
","
","""event"",""trial"",""time""
""focus"",""0"",""1""
","""event"",""trial"",""time""
""fullscreenenter"",""1"",""2238""
","
","","","-1","","","16","3985","150","&#9761;","elianto","#3366ff99","-1","-1","1","0","[]","0","0","2","","","","","","","",""
"pit-trial","51","448572","0.0-2.0-11.2-4.2","battery-v0.2","","""event"",""trial"",""time""
""focus"",""0"",""1""
""fullscreenenter"",""1"",""2238""
","
","""event"",""trial"",""time""
""focus"",""0"",""1""
","""event"",""trial"",""time""
""fullscreenenter"",""1"",""2238""
","
","","","-1","","","16","3985","150","&#9761;","elianto","#3366ff99","-1","-1","1","+10","[]","0","0","2","","","","","","","",""
"pit-trial","52","453462","0.0-2.0-11.3-0.3","battery-v0.2","","""event"",""trial"",""time""
""focus"",""0"",""1""
""fullscreenenter"",""1"",""2238""
","
","""event"",""trial"",""time""
""focus"",""0"",""1""
","""event"",""trial"",""time""
""fullscreenenter"",""1"",""2238""
","
","","","-1","","","16","3985","150","&#9761;","elianto","#3366ff99","-1","-1","1","+10","[]","0","0","2","","","","","","","",""
"pit-trial","53","458352","0.0-2.0-11.3-1.3","battery-v0.2","","""event"",""trial"",""time""
""focus"",""0"",""1""
""fullscreenenter"",""1"",""2238""
","
","""event"",""trial"",""time""
""focus"",""0"",""1""
","""event"",""trial"",""time""
""fullscreenenter"",""1"",""2238""
","
","","","-1","","","16","3985","150","&#9761;","elianto","#3366ff99","-1","-1","1","+10","[]","0","0","2","","","","","","","",""
"pit-trial","54","463242","0.0-2.0-11.3-2.3","battery-v0.2","","""event"",""trial"",""time""
""focus"",""0"",""1""
""fullscreenenter"",""1"",""2238""
","
","""event"",""trial"",""time""
""focus"",""0"",""1""
","""event"",""trial"",""time""
""fullscreenenter"",""1"",""2238""
","
","","","-1","","","16","3985","150","&#9761;","elianto","#3366ff99","-1","-1","1","+10","[]","0","0","2","","","","","","","",""
"pit-trial","55","468132","0.0-2.0-11.3-3.3","battery-v0.2","","""event"",""trial"",""time""
""focus"",""0"",""1""
""fullscreenenter"",""1"",""2238""
","
","""event"",""trial"",""time""
""focus"",""0"",""1""
","""event"",""trial"",""time""
""fullscreenenter"",""1"",""2238""
","
","","","-1","","","16","3985","150","&#9761;","elianto","#3366ff99","-1","-1","1","0","[]","0","0","2","","","","","","","",""
"pit-trial","56","473021","0.0-2.0-11.3-4.3","battery-v0.2","","""event"",""trial"",""time""
""focus"",""0"",""1""
""fullscreenenter"",""1"",""2238""
","
","""event"",""trial"",""time""
""focus"",""0"",""1""
","""event"",""trial"",""time""
""fullscreenenter"",""1"",""2238""
","
","","","-1","","","16","3985","150","&#9761;","elianto","#3366ff99","-1","-1","1","+10","[]","0","0","2","","","","","","","",""
"call-function","57","473025","0.0-2.0-12.0","battery-v0.2","","""event"",""trial"",""time""
""focus"",""0"",""1""
""fullscreenenter"",""1"",""2238""
","
","""event"",""trial"",""time""
""focus"",""0"",""1""
","""event"",""trial"",""time""
""fullscreenenter"",""1"",""2238""
","
","","","","","","","","","","","","","","","","","","","","","","","","","","",""
"pit-instructions","58","506462","0.0-2.0-13.0","battery-v0.2","","""event"",""trial"",""time""
""focus"",""0"",""1""
""fullscreenenter"",""1"",""2238""
","
","""event"",""trial"",""time""
""focus"",""0"",""1""
","""event"",""trial"",""time""
""fullscreenenter"",""1"",""2238""
","
","","[{""page_index"":0,""viewing_time"":6387},{""page_index"":1,""viewing_time"":8118},{""page_index"":2,""viewing_time"":3614},{""page_index"":3,""viewing_time"":10450},{""page_index"":4,""viewing_time"":4867}]","33436","","","","","","","","","","","","","","","","","","","","","","","",""
"pit-trial","59","509892","0.0-2.0-14.0-0.0","battery-v0.2","","""event"",""trial"",""time""
""focus"",""0"",""1""
""fullscreenenter"",""1"",""2238""
","
","""event"",""trial"",""time""
""focus"",""0"",""1""
","""event"",""trial"",""time""
""fullscreenenter"",""1"",""2238""
","
","","","559","","","16","3985","150","&#9826;","elianto","#f73b6a7A","-1"," ","0","-10","[1412]","1","0","3","","","","","","","",""
"pit-trial","60","514773","0.0-2.0-14.0-1.0","battery-v0.2","","""event"",""trial"",""time""
""focus"",""0"",""1""
""fullscreenenter"",""1"",""2238""
","
","""event"",""trial"",""time""
""focus"",""0"",""1""
","""event"",""trial"",""time""
""fullscreenenter"",""1"",""2238""
","
","","","-1","","","16","3985","150","&#9826;","elianto","#f73b6a7A","-1","-1","1","0","[]","0","0","3","","","","","","","",""
"pit-trial","61","519652","0.0-2.0-14.0-2.0","battery-v0.2","","""event"",""trial"",""time""
""focus"",""0"",""1""
""fullscreenenter"",""1"",""2238""
","
","""event"",""trial"",""time""
""focus"",""0"",""1""
","""event"",""trial"",""time""
""fullscreenenter"",""1"",""2238""
","
","","","-1","","","16","3985","150","&#9826;","elianto","#f73b6a7A","-1","-1","1","0","[]","0","0","3","","","","","","","",""
"pit-trial","62","524542","0.0-2.0-14.0-3.0","battery-v0.2","","""event"",""trial"",""time""
""focus"",""0"",""1""
""fullscreenenter"",""1"",""2238""
","
","""event"",""trial"",""time""
""focus"",""0"",""1""
","""event"",""trial"",""time""
""fullscreenenter"",""1"",""2238""
","
","","","-1","","","16","3985","150","&#9826;","elianto","#f73b6a7A","-1","-1","1","-10","[]","0","0","3","","","","","","","",""
"pit-trial","63","529422","0.0-2.0-14.0-4.0","battery-v0.2","","""event"",""trial"",""time""
""focus"",""0"",""1""
""fullscreenenter"",""1"",""2238""
","
","""event"",""trial"",""time""
""focus"",""0"",""1""
","""event"",""trial"",""time""
""fullscreenenter"",""1"",""2238""
","
","","","-1","","","16","3985","150","&#9826;","elianto","#f73b6a7A","-1","-1","1","0","[]","0","0","3","","","","","","","",""
"pit-trial","64","534313","0.0-2.0-14.1-0.1","battery-v0.2","","""event"",""trial"",""time""
""focus"",""0"",""1""
""fullscreenenter"",""1"",""2238""
","
","""event"",""trial"",""time""
""focus"",""0"",""1""
","""event"",""trial"",""time""
""fullscreenenter"",""1"",""2238""
","
","","","-1","","","16","3985","150","&#9826;","elianto","#f73b6a7A","-1","-1","1","0","[]","0","0","3","","","","","","","",""
"pit-trial","65","539192","0.0-2.0-14.1-1.1","battery-v0.2","","""event"",""trial"",""time""
""focus"",""0"",""1""
""fullscreenenter"",""1"",""2238""
","
","""event"",""trial"",""time""
""focus"",""0"",""1""
","""event"",""trial"",""time""
""fullscreenenter"",""1"",""2238""
","
","","","-1","","","16","3985","150","&#9826;","elianto","#f73b6a7A","-1","-1","1","0","[]","0","0","3","","","","","","","",""
"pit-trial","66","544062","0.0-2.0-14.1-2.1","battery-v0.2","","""event"",""trial"",""time""
""focus"",""0"",""1""
""fullscreenenter"",""1"",""2238""
","
","""event"",""trial"",""time""
""focus"",""0"",""1""
","""event"",""trial"",""time""
""fullscreenenter"",""1"",""2238""
","
","","","-1","","","16","3985","150","&#9826;","elianto","#f73b6a7A","-1","-1","1","0","[]","0","0","3","","","","","","","",""
"pit-trial","67","548932","0.0-2.0-14.1-3.1","battery-v0.2","","""event"",""trial"",""time""
""focus"",""0"",""1""
""fullscreenenter"",""1"",""2238""
","
","""event"",""trial"",""time""
""focus"",""0"",""1""
","""event"",""trial"",""time""
""fullscreenenter"",""1"",""2238""
","
","","","-1","","","16","3985","150","&#9826;","elianto","#f73b6a7A","-1","-1","1","-10","[]","0","0","3","","","","","","","",""
"pit-trial","68","553802","0.0-2.0-14.1-4.1","battery-v0.2","","""event"",""trial"",""time""
""focus"",""0"",""1""
""fullscreenenter"",""1"",""2238""
","
","""event"",""trial"",""time""
""focus"",""0"",""1""
","""event"",""trial"",""time""
""fullscreenenter"",""1"",""2238""
","
","","","-1","","","16","3985","150","&#9826;","elianto","#f73b6a7A","-1","-1","1","0","[]","0","0","3","","","","","","","",""
"pit-trial","69","558692","0.0-2.0-14.2-0.2","battery-v0.2","","""event"",""trial"",""time""
""focus"",""0"",""1""
""fullscreenenter"",""1"",""2238""
","
","""event"",""trial"",""time""
""focus"",""0"",""1""
","""event"",""trial"",""time""
""fullscreenenter"",""1"",""2238""
","
","","","-1","","","16","3985","150","&#9826;","elianto","#f73b6a7A","-1","-1","1","0","[]","0","0","3","","","","","","","",""
"pit-trial","70","563572","0.0-2.0-14.2-1.2","battery-v0.2","","""event"",""trial"",""time""
""focus"",""0"",""1""
""fullscreenenter"",""1"",""2238""
","
","""event"",""trial"",""time""
""focus"",""0"",""1""
","""event"",""trial"",""time""
""fullscreenenter"",""1"",""2238""
","
","","","-1","","","16","3985","150","&#9826;","elianto","#f73b6a7A","-1","-1","1","0","[]","0","0","3","","","","","","","",""
"pit-trial","71","568452","0.0-2.0-14.2-2.2","battery-v0.2","","""event"",""trial"",""time""
""focus"",""0"",""1""
""fullscreenenter"",""1"",""2238""
","
","""event"",""trial"",""time""
""focus"",""0"",""1""
","""event"",""trial"",""time""
""fullscreenenter"",""1"",""2238""
","
","","","-1","","","16","3985","150","&#9826;","elianto","#f73b6a7A","-1","-1","1","0","[]","0","0","3","","","","","","","",""
"pit-trial","72","573333","0.0-2.0-14.2-3.2","battery-v0.2","","""event"",""trial"",""time""
""focus"",""0"",""1""
""fullscreenenter"",""1"",""2238""
","
","""event"",""trial"",""time""
""focus"",""0"",""1""
","""event"",""trial"",""time""
""fullscreenenter"",""1"",""2238""
","
","","","-1","","","16","3985","150","&#9826;","elianto","#f73b6a7A","-1","-1","1","-10","[]","0","0","3","","","","","","","",""
"pit-trial","73","578212","0.0-2.0-14.2-4.2","battery-v0.2","","""event"",""trial"",""time""
""focus"",""0"",""1""
""fullscreenenter"",""1"",""2238""
","
","""event"",""trial"",""time""
""focus"",""0"",""1""
","""event"",""trial"",""time""
""fullscreenenter"",""1"",""2238""
","
","","","-1","","","16","3985","150","&#9826;","elianto","#f73b6a7A","-1","-1","1","0","[]","0","0","3","","","","","","","",""
"pit-trial","74","583092","0.0-2.0-14.3-0.3","battery-v0.2","","""event"",""trial"",""time""
""focus"",""0"",""1""
""fullscreenenter"",""1"",""2238""
","
","""event"",""trial"",""time""
""focus"",""0"",""1""
","""event"",""trial"",""time""
""fullscreenenter"",""1"",""2238""
","
","","","-1","","","16","3985","150","&#9826;","elianto","#f73b6a7A","-1","-1","1","0","[]","0","0","3","","","","","","","",""
"pit-trial","75","587962","0.0-2.0-14.3-1.3","battery-v0.2","","""event"",""trial"",""time""
""focus"",""0"",""1""
""fullscreenenter"",""1"",""2238""
","
","""event"",""trial"",""time""
""focus"",""0"",""1""
","""event"",""trial"",""time""
""fullscreenenter"",""1"",""2238""
","
","","","-1","","","16","3985","150","&#9826;","elianto","#f73b6a7A","-1","-1","1","0","[]","0","0","3","","","","","","","",""
"pit-trial","76","592834","0.0-2.0-14.3-2.3","battery-v0.2","","""event"",""trial"",""time""
""focus"",""0"",""1""
""fullscreenenter"",""1"",""2238""
","
","""event"",""trial"",""time""
""focus"",""0"",""1""
","""event"",""trial"",""time""
""fullscreenenter"",""1"",""2238""
","
","","","-1","","","16","3985","150","&#9826;","elianto","#f73b6a7A","-1","-1","1","0","[]","0","0","3","","","","","","","",""
"pit-trial","77","597701","0.0-2.0-14.3-3.3","battery-v0.2","","""event"",""trial"",""time""
""focus"",""0"",""1""
""fullscreenenter"",""1"",""2238""
","
","""event"",""trial"",""time""
""focus"",""0"",""1""
","""event"",""trial"",""time""
""fullscreenenter"",""1"",""2238""
","
","","","-1","","","16","3985","150","&#9826;","elianto","#f73b6a7A","-1","-1","1","-10","[]","0","0","3","","","","","","","",""
"pit-trial","78","602562","0.0-2.0-14.3-4.3","battery-v0.2","","""event"",""trial"",""time""
""focus"",""0"",""1""
""fullscreenenter"",""1"",""2238""
","
","""event"",""trial"",""time""
""focus"",""0"",""1""
","""event"",""trial"",""time""
""fullscreenenter"",""1"",""2238""
","
","","","-1","","","16","3985","150","&#9826;","elianto","#f73b6a7A","-1","-1","1","0","[]","0","0","3","","","","","","","",""
"call-function","79","602564","0.0-2.0-15.0","battery-v0.2","","""event"",""trial"",""time""
""focus"",""0"",""1""
""fullscreenenter"",""1"",""2238""
","
","""event"",""trial"",""time""
""focus"",""0"",""1""
","""event"",""trial"",""time""
""fullscreenenter"",""1"",""2238""
","
","","","","","","","","","","","","","","","","","","","","","","","","","","",""
"pit-instructions","80","629650","0.0-2.0-16.0","battery-v0.2","","""event"",""trial"",""time""
""focus"",""0"",""1""
""fullscreenenter"",""1"",""2238""
","
","""event"",""trial"",""time""
""focus"",""0"",""1""
","""event"",""trial"",""time""
""fullscreenenter"",""1"",""2238""
","
","","[{""page_index"":0,""viewing_time"":8237},{""page_index"":1,""viewing_time"":9310},{""page_index"":2,""viewing_time"":4390},{""page_index"":3,""viewing_time"":5148}]","27085","","","","","","","","","","","","","","","","","","","","","","","",""
"pit-trial","81","633001","0.0-2.0-17.0-0.0","battery-v0.2","","""event"",""trial"",""time""
""focus"",""0"",""1""
""fullscreenenter"",""1"",""2238""
","
","""event"",""trial"",""time""
""focus"",""0"",""1""
","""event"",""trial"",""time""
""fullscreenenter"",""1"",""2238""
","
","","","464","","","16","3985","150","&#9789;","elianto","#f73b6a7A"," "," ","1","0","[1329]","1","0","4","","","","","","","",""
"pit-trial","82","636332","0.0-2.0-17.0-1.0","battery-v0.2","","""event"",""trial"",""time""
""focus"",""0"",""1""
""fullscreenenter"",""1"",""2238""
","
","""event"",""trial"",""time""
""focus"",""0"",""1""
","""event"",""trial"",""time""
""fullscreenenter"",""1"",""2238""
","
","","","447","","","16","3985","150","&#9789;","elianto","#f73b6a7A"," "," ","1","0","[1314]","1","0","4","","","","","","","",""
"pit-trial","83","639553","0.0-2.0-17.0-2.0","battery-v0.2","","""event"",""trial"",""time""
""focus"",""0"",""1""
""fullscreenenter"",""1"",""2238""
","
","""event"",""trial"",""time""
""focus"",""0"",""1""
","""event"",""trial"",""time""
""fullscreenenter"",""1"",""2238""
","
","","","352","","","16","3985","150","&#9789;","elianto","#f73b6a7A"," "," ","1","0","[1206]","1","0","4","","","","","","","",""
"pit-trial","84","642971","0.0-2.0-17.0-3.0","battery-v0.2","","""event"",""trial"",""time""
""focus"",""0"",""1""
""fullscreenenter"",""1"",""2238""
","
","""event"",""trial"",""time""
""focus"",""0"",""1""
","""event"",""trial"",""time""
""fullscreenenter"",""1"",""2238""
","
","","","553","","","16","3985","150","&#9789;","elianto","#f73b6a7A"," "," ","1","-10","[1409]","1","0","4","","","","","","","",""
"pit-trial","85","646392","0.0-2.0-17.0-4.0","battery-v0.2","","""event"",""trial"",""time""
""focus"",""0"",""1""
""fullscreenenter"",""1"",""2238""
","
","""event"",""trial"",""time""
""focus"",""0"",""1""
","""event"",""trial"",""time""
""fullscreenenter"",""1"",""2238""
","
","","","556","","","16","3985","150","&#9789;","elianto","#f73b6a7A"," "," ","1","0","[1414]","1","0","4","","","","","","","",""
"pit-trial","86","649892","0.0-2.0-17.1-0.1","battery-v0.2","","""event"",""trial"",""time""
""focus"",""0"",""1""
""fullscreenenter"",""1"",""2238""
","
","""event"",""trial"",""time""
""focus"",""0"",""1""
","""event"",""trial"",""time""
""fullscreenenter"",""1"",""2238""
","
","","","623","","","16","3985","150","&#9789;","elianto","#f73b6a7A"," "," ","1","0","[1478]","1","0","4","","","","","","","",""
"pit-trial","87","653221","0.0-2.0-17.1-1.1","battery-v0.2","","""event"",""trial"",""time""
""focus"",""0"",""1""
""fullscreenenter"",""1"",""2238""
","
","""event"",""trial"",""time""
""focus"",""0"",""1""
","""event"",""trial"",""time""
""fullscreenenter"",""1"",""2238""
","
","","","457","","","16","3985","150","&#9789;","elianto","#f73b6a7A"," "," ","1","0","[1323]","1","0","4","","","","","","","",""
"pit-trial","88","656632","0.0-2.0-17.1-2.1","battery-v0.2","","""event"",""trial"",""time""
""focus"",""0"",""1""
""fullscreenenter"",""1"",""2238""
","
","""event"",""trial"",""time""
""focus"",""0"",""1""
","""event"",""trial"",""time""
""fullscreenenter"",""1"",""2238""
","
","","","533","","","16","3985","150","&#9789;","elianto","#f73b6a7A"," "," ","1","0","[1391]","1","0","4","","","","","","","",""
"pit-trial","89","659942","0.0-2.0-17.1-3.1","battery-v0.2","","""event"",""trial"",""time""
""focus"",""0"",""1""
""fullscreenenter"",""1"",""2238""
","
","""event"",""trial"",""time""
""focus"",""0"",""1""
","""event"",""trial"",""time""
""fullscreenenter"",""1"",""2238""
","
","","","443","","","16","3985","150","&#9789;","elianto","#f73b6a7A"," "," ","1","-10","[1300]","1","0","4","","","","","","","",""
"pit-trial","90","663232","0.0-2.0-17.1-4.1","battery-v0.2","","""event"",""trial"",""time""
""focus"",""0"",""1""
""fullscreenenter"",""1"",""2238""
","
","""event"",""trial"",""time""
""focus"",""0"",""1""
","""event"",""trial"",""time""
""fullscreenenter"",""1"",""2238""
","
","","","424","","","16","3985","150","&#9789;","elianto","#f73b6a7A"," "," ","1","0","[1275]","1","0","4","","","","","","","",""
"pit-trial","91","666372","0.0-2.0-17.2-0.2","battery-v0.2","","""event"",""trial"",""time""
""focus"",""0"",""1""
""fullscreenenter"",""1"",""2238""
","
","""event"",""trial"",""time""
""focus"",""0"",""1""
","""event"",""trial"",""time""
""fullscreenenter"",""1"",""2238""
","
","","","275","","","16","3985","150","&#9789;","elianto","#f73b6a7A"," "," ","1","0","[1130]","1","0","4","","","","","","","",""
"pit-trial","92","669403","0.0-2.0-17.2-1.2","battery-v0.2","","""event"",""trial"",""time""
""focus"",""0"",""1""
""fullscreenenter"",""1"",""2238""
","
","""event"",""trial"",""time""
""focus"",""0"",""1""
","""event"",""trial"",""time""
""fullscreenenter"",""1"",""2238""
","
","","","168","","","16","3985","150","&#9789;","elianto","#f73b6a7A"," "," ","1","0","[1022]","1","0","4","","","","","","","",""
"pit-trial","93","672692","0.0-2.0-17.2-2.2","battery-v0.2","","""event"",""trial"",""time""
""focus"",""0"",""1""
""fullscreenenter"",""1"",""2238""
","
","""event"",""trial"",""time""
""focus"",""0"",""1""
","""event"",""trial"",""time""
""fullscreenenter"",""1"",""2238""
","
","","","421","","","16","3985","150","&#9789;","elianto","#f73b6a7A"," "," ","1","0","[1277]","1","0","4","","","","","","","",""
"pit-trial","94","676142","0.0-2.0-17.2-3.2","battery-v0.2","","""event"",""trial"",""time""
""focus"",""0"",""1""
""fullscreenenter"",""1"",""2238""
","
","""event"",""trial"",""time""
""focus"",""0"",""1""
","""event"",""trial"",""time""
""fullscreenenter"",""1"",""2238""
","
","","","586","","","16","3985","150","&#9789;","elianto","#f73b6a7A"," "," ","1","-10","[1441]","1","0","4","","","","","","","",""
"pit-trial","95","679422","0.0-2.0-17.2-4.2","battery-v0.2","","""event"",""trial"",""time""
""focus"",""0"",""1""
""fullscreenenter"",""1"",""2238""
","
","""event"",""trial"",""time""
""focus"",""0"",""1""
","""event"",""trial"",""time""
""fullscreenenter"",""1"",""2238""
","
","","","413","","","16","3985","150","&#9789;","elianto","#f73b6a7A"," "," ","1","0","[1270]","1","0","4","","","","","","","",""
"pit-trial","96","682552","0.0-2.0-17.3-0.3","battery-v0.2","","""event"",""trial"",""time""
""focus"",""0"",""1""
""fullscreenenter"",""1"",""2238""
","
","""event"",""trial"",""time""
""focus"",""0"",""1""
","""event"",""trial"",""time""
""fullscreenenter"",""1"",""2238""
","
","","","264","","","16","3985","150","&#9789;","elianto","#f73b6a7A"," "," ","1","0","[1118]","1","0","4","","","","","","","",""
"pit-trial","97","686142","0.0-2.0-17.3-1.3","battery-v0.2","","""event"",""trial"",""time""
""focus"",""0"",""1""
""fullscreenenter"",""1"",""2238""
","
","""event"",""trial"",""time""
""focus"",""0"",""1""
","""event"",""trial"",""time""
""fullscreenenter"",""1"",""2238""
","
","","","719","","","16","3985","150","&#9789;","elianto","#f73b6a7A"," "," ","1","0","[1576]","1","0","4","","","","","","","",""
"pit-trial","98","689797","0.0-2.0-17.3-2.3","battery-v0.2","","""event"",""trial"",""time""
""focus"",""0"",""1""
""fullscreenenter"",""1"",""2238""
","
","""event"",""trial"",""time""
""focus"",""0"",""1""
","""event"",""trial"",""time""
""fullscreenenter"",""1"",""2238""
","
","","","785","","","16","3985","150","&#9789;","elianto","#f73b6a7A"," "," ","1","0","[1642]","1","0","4","","","","","","","",""
"pit-trial","99","693527","0.0-2.0-17.3-3.3","battery-v0.2","","""event"",""trial"",""time""
""focus"",""0"",""1""
""fullscreenenter"",""1"",""2238""
","
","""event"",""trial"",""time""
""focus"",""0"",""1""
","""event"",""trial"",""time""
""fullscreenenter"",""1"",""2238""
","
","","","865","","","16","3985","150","&#9789;","elianto","#f73b6a7A"," "," ","1","-10","[1716]","1","0","4","","","","","","","",""
"pit-trial","100","697092","0.0-2.0-17.3-4.3","battery-v0.2","","""event"",""trial"",""time""
""focus"",""0"",""1""
""fullscreenenter"",""1"",""2238""
","
","""event"",""trial"",""time""
""focus"",""0"",""1""
","""event"",""trial"",""time""
""fullscreenenter"",""1"",""2238""
","
","","","708","","","16","3985","150","&#9789;","elianto","#f73b6a7A"," "," ","1","0","[1561]","1","0","4","","","","","","","",""
"call-function","101","697095","0.0-2.0-18.0","battery-v0.2","","""event"",""trial"",""time""
""focus"",""0"",""1""
""fullscreenenter"",""1"",""2238""
","
","""event"",""trial"",""time""
""focus"",""0"",""1""
","""event"",""trial"",""time""
""fullscreenenter"",""1"",""2238""
","
","","","","","","","","","","","","","","","","","","","","","","","","","","",""
"pit-instructions","102","758896","0.0-2.0-19.0","battery-v0.2","","""event"",""trial"",""time""
""focus"",""0"",""1""
""fullscreenenter"",""1"",""2238""
","
","""event"",""trial"",""time""
""focus"",""0"",""1""
","""event"",""trial"",""time""
""fullscreenenter"",""1"",""2238""
","
","","[{""page_index"":0,""viewing_time"":6354},{""page_index"":1,""viewing_time"":5480},{""page_index"":2,""viewing_time"":8123},{""page_index"":3,""viewing_time"":7771},{""page_index"":4,""viewing_time"":6226},{""page_index"":5,""viewing_time"":8526},{""page_index"":6,""viewing_time"":8470},{""page_index"":7,""viewing_time"":7267},{""page_index"":8,""viewing_time"":3581}]","61799","","","","","","","","","","","","","","","","","","","","","","","",""
"pit-comprehension","103","764386","0.0-2.0-20.0-0.0","battery-v0.2","","""event"",""trial"",""time""
""focus"",""0"",""1""
""fullscreenenter"",""1"",""2238""
","
","""event"",""trial"",""time""
""focus"",""0"",""1""
","""event"",""trial"",""time""
""fullscreenenter"",""1"",""2238""
","
","","","5486","[""SPACE""]","0","16","3985","150","","","","","","","","","","","","","","","","","","",""
"pit-instructions","104","766795","0.0-2.0-20.0-1.0","battery-v0.2","","""event"",""trial"",""time""
""focus"",""0"",""1""
""fullscreenenter"",""1"",""2238""
","
","""event"",""trial"",""time""
""focus"",""0"",""1""
","""event"",""trial"",""time""
""fullscreenenter"",""1"",""2238""
","
","","[{""page_index"":0,""viewing_time"":2364}]","2364","","","","","","","","","","","","","","","","","","","","","","","",""
"pit-comprehension","105","771975","0.0-2.0-21.0-0.0","battery-v0.2","","""event"",""trial"",""time""
""focus"",""0"",""1""
""fullscreenenter"",""1"",""2238""
","
","""event"",""trial"",""time""
""focus"",""0"",""1""
","""event"",""trial"",""time""
""fullscreenenter"",""1"",""2238""
","
","","","5175","[""10""]","0","16","3985","150","","","","","","","","","","","","","","","","","","",""
"pit-instructions","106","773372","0.0-2.0-21.0-1.0","battery-v0.2","","""event"",""trial"",""time""
""focus"",""0"",""1""
""fullscreenenter"",""1"",""2238""
","
","""event"",""trial"",""time""
""focus"",""0"",""1""
","""event"",""trial"",""time""
""fullscreenenter"",""1"",""2238""
","
","","[{""page_index"":0,""viewing_time"":1354}]","1354","","","","","","","","","","","","","","","","","","","","","","","",""
"pit-comprehension","107","784472","0.0-2.0-22.0-0.0","battery-v0.2","","""event"",""trial"",""time""
""focus"",""0"",""1""
""fullscreenenter"",""1"",""2238""
","
","""event"",""trial"",""time""
""focus"",""0"",""1""
","""event"",""trial"",""time""
""fullscreenenter"",""1"",""2238""
","
","","","11093","[""0""]","0","16","3985","150","","","","","","","","","","","","","","","","","","",""
"pit-instructions","108","785969","0.0-2.0-22.0-1.0","battery-v0.2","","""event"",""trial"",""time""
""focus"",""0"",""1""
""fullscreenenter"",""1"",""2238""
","
","""event"",""trial"",""time""
""focus"",""0"",""1""
","""event"",""trial"",""time""
""fullscreenenter"",""1"",""2238""
","
","","[{""page_index"":0,""viewing_time"":1457}]","1457","","","","","","","","","","","","","","","","","","","","","","","",""
"pit-comprehension","109","794406","0.0-2.0-23.0-0.0","battery-v0.2","","""event"",""trial"",""time""
""focus"",""0"",""1""
""fullscreenenter"",""1"",""2238""
","
","""event"",""trial"",""time""
""focus"",""0"",""1""
","""event"",""trial"",""time""
""fullscreenenter"",""1"",""2238""
","
","","","8433","[""True""]","0","16","3985","150","","","","","","","","","","","","","","","","","","",""
"pit-instructions","110","796559","0.0-2.0-23.0-1.0","battery-v0.2","","""event"",""trial"",""time""
""focus"",""0"",""1""
""fullscreenenter"",""1"",""2238""
","
","""event"",""trial"",""time""
""focus"",""0"",""1""
","""event"",""trial"",""time""
""fullscreenenter"",""1"",""2238""
","
","","[{""page_index"":0,""viewing_time"":2113}]","2113","","","","","","","","","","","","","","","","","","","","","","","",""
"pit-comprehension","111","803820","0.0-2.0-24.0-0.0","battery-v0.2","","""event"",""trial"",""time""
""focus"",""0"",""1""
""fullscreenenter"",""1"",""2238""
","
","""event"",""trial"",""time""
""focus"",""0"",""1""
","""event"",""trial"",""time""
""fullscreenenter"",""1"",""2238""
","
","","","7258","[""True""]","0","16","3985","150","","","","","","","","","","","","","","","","","","",""
"pit-instructions","112","805300","0.0-2.0-24.0-1.0","battery-v0.2","","""event"",""trial"",""time""
""focus"",""0"",""1""
""fullscreenenter"",""1"",""2238""
","
","""event"",""trial"",""time""
""focus"",""0"",""1""
","""event"",""trial"",""time""
""fullscreenenter"",""1"",""2238""
","
","","[{""page_index"":0,""viewing_time"":1438}]","1439","","","","","","","","","","","","","","","","","","","","","","","",""
"pit-comprehension","113","811632","0.0-2.0-25.0-0.0","battery-v0.2","","""event"",""trial"",""time""
""focus"",""0"",""1""
""fullscreenenter"",""1"",""2238""
","
","""event"",""trial"",""time""
""focus"",""0"",""1""
","""event"",""trial"",""time""
""fullscreenenter"",""1"",""2238""
","
","","","6328","[""True""]","0","16","3985","150","","","","","","","","","","","","","","","","","","",""
"pit-instructions","114","813040","0.0-2.0-25.0-1.0","battery-v0.2","","""event"",""trial"",""time""
""focus"",""0"",""1""
""fullscreenenter"",""1"",""2238""
","
","""event"",""trial"",""time""
""focus"",""0"",""1""
","""event"",""trial"",""time""
""fullscreenenter"",""1"",""2238""
","
","","[{""page_index"":0,""viewing_time"":1367}]","1367","","","","","","","","","","","","","","","","","","","","","","","",""
"pit-comprehension","115","818591","0.0-2.0-26.0-0.0","battery-v0.2","","""event"",""trial"",""time""
""focus"",""0"",""1""
""fullscreenenter"",""1"",""2238""
","
","""event"",""trial"",""time""
""focus"",""0"",""1""
","""event"",""trial"",""time""
""fullscreenenter"",""1"",""2238""
","
","","","5547","[""False""]","0","16","3985","150","","","","","","","","","","","","","","","","","","",""
"pit-instructions","116","820064","0.0-2.0-26.0-1.0","battery-v0.2","","""event"",""trial"",""time""
""focus"",""0"",""1""
""fullscreenenter"",""1"",""2238""
","
","""event"",""trial"",""time""
""focus"",""0"",""1""
","""event"",""trial"",""time""
""fullscreenenter"",""1"",""2238""
","
","","[{""page_index"":0,""viewing_time"":1427}]","1427","","","","","","","","","","","","","","","","","","","","","","","",""
"pit-instructions","117","839748","0.0-3.0","battery-v0.2","","""event"",""trial"",""time""
""focus"",""0"",""1""
""fullscreenenter"",""1"",""2238""
","
","""event"",""trial"",""time""
""focus"",""0"",""1""
","""event"",""trial"",""time""
""fullscreenenter"",""1"",""2238""
","
","","[{""page_index"":0,""viewing_time"":5352},{""page_index"":1,""viewing_time"":7149},{""page_index"":2,""viewing_time"":7180}]","19682","","","","","","","","","","","","","","","","","","","","","","","",""
"pit-trial","118","843552","0.0-4.0","battery-v0.2","","""event"",""trial"",""time""
""focus"",""0"",""1""
""fullscreenenter"",""1"",""2238""
","
","""event"",""trial"",""time""
""focus"",""0"",""1""
","""event"",""trial"",""time""
""fullscreenenter"",""1"",""2238""
","
","","","922","","","16","3985","150","&#9728;","elianto","#f73b6a7A","-1"," ","0","-10","[1789]","1","1","","","3985","1","0","4","lose","no-go","0"
"pit-trial","119","847543","0.0-5.0","battery-v0.2","","""event"",""trial"",""time""
""focus"",""0"",""1""
""fullscreenenter"",""1"",""2238""
","
","""event"",""trial"",""time""
""focus"",""0"",""1""
","""event"",""trial"",""time""
""fullscreenenter"",""1"",""2238""
","
","","","1127","","","16","3985","150","&#9752;","elianto","#f73b6a7A"," "," ","1","0","[1983]","1","1","","","3985","2","3","3","lose","go","0"
"pit-trial","120","851733","0.0-6.0","battery-v0.2","","""event"",""trial"",""time""
""focus"",""0"",""1""
""fullscreenenter"",""1"",""2238""
","
","""event"",""trial"",""time""
""focus"",""0"",""1""
","""event"",""trial"",""time""
""fullscreenenter"",""1"",""2238""
","
","","","1320","","","16","3985","150","&#9730;","elianto","#3366ff99"," "," ","1","+10","[2174]","1","1","","","3985","3","1","1","win","go","0"
"pit-trial","121","856603","0.0-7.0","battery-v0.2","","""event"",""trial"",""time""
""focus"",""0"",""1""
""fullscreenenter"",""1"",""2238""
","
","""event"",""trial"",""time""
""focus"",""0"",""1""
","""event"",""trial"",""time""
""fullscreenenter"",""1"",""2238""
","
","","","-1","","","16","3985","150","&#9733;","elianto","#3366ff99","-1","-1","1","+10","[]","0","1","","","3985","4","2","2","win","no-go","0"
"pit-trial","122","860693","0.0-8.0","battery-v0.2","","""event"",""trial"",""time""
""focus"",""0"",""1""
""fullscreenenter"",""1"",""2238""
","
","""event"",""trial"",""time""
""focus"",""0"",""1""
","""event"",""trial"",""time""
""fullscreenenter"",""1"",""2238""
","
","","","1218","","","16","3985","150","&#9752;","elianto","#f73b6a7A"," "," ","1","0","[2073,2092]","2","1","","","3985","5","3","3","lose","go","0"
"pit-trial","123","864923","0.0-9.0","battery-v0.2","","""event"",""trial"",""time""
""focus"",""0"",""1""
""fullscreenenter"",""1"",""2238""
","
","""event"",""trial"",""time""
""focus"",""0"",""1""
","""event"",""trial"",""time""
""fullscreenenter"",""1"",""2238""
","
","","","1360","","","16","3985","150","&#9730;","elianto","#3366ff99"," "," ","1","+10","[2216]","1","1","","","3985","6","1","1","win","go","0"
"pit-trial","124","869792","0.0-10.0","battery-v0.2","","""event"",""trial"",""time""
""focus"",""0"",""1""
""fullscreenenter"",""1"",""2238""
","
","""event"",""trial"",""time""
""focus"",""0"",""1""
","""event"",""trial"",""time""
""fullscreenenter"",""1"",""2238""
","
","","","-1","","","16","3985","150","&#9728;","elianto","#f73b6a7A","-1","-1","1","0","[]","0","1","","","3985","7","0","4","lose","no-go","0"
"pit-trial","125","874661","0.0-11.0","battery-v0.2","","""event"",""trial"",""time""
""focus"",""0"",""1""
""fullscreenenter"",""1"",""2238""
","
","""event"",""trial"",""time""
""focus"",""0"",""1""
","""event"",""trial"",""time""
""fullscreenenter"",""1"",""2238""
","
","","","-1","","","16","3985","150","&#9733;","elianto","#3366ff99","-1","-1","1","+10","[]","0","1","","","3985","8","2","2","win","no-go","0"
"pit-trial","126","878267","0.0-12.0","battery-v0.2","","""event"",""trial"",""time""
""focus"",""0"",""1""
""fullscreenenter"",""1"",""2238""
","
","""event"",""trial"",""time""
""focus"",""0"",""1""
","""event"",""trial"",""time""
""fullscreenenter"",""1"",""2238""
","
","","","731","","","16","3985","150","&#9730;","elianto","#3366ff99"," "," ","1","+10","[1589]","1","1","","","3985","9","1","1","win","go","0"
"pit-trial","127","881862","0.0-13.0","battery-v0.2","","""event"",""trial"",""time""
""focus"",""0"",""1""
""fullscreenenter"",""1"",""2238""
","
","""event"",""trial"",""time""
""focus"",""0"",""1""
","""event"",""trial"",""time""
""fullscreenenter"",""1"",""2238""
","
","","","722","","","16","3985","150","&#9752;","elianto","#f73b6a7A"," "," ","1","-10","[1584]","1","1","","","3985","10","3","3","lose","go","1"
"pit-trial","128","886733","0.0-14.0","battery-v0.2","","""event"",""trial"",""time""
""focus"",""0"",""1""
""fullscreenenter"",""1"",""2238""
","
","""event"",""trial"",""time""
""focus"",""0"",""1""
","""event"",""trial"",""time""
""fullscreenenter"",""1"",""2238""
","
","","","-1","","","16","3985","150","&#9728;","elianto","#f73b6a7A","-1","-1","1","-10","[]","0","1","","","3985","11","0","4","lose","no-go","1"
"pit-trial","129","891608","0.0-15.0","battery-v0.2","","""event"",""trial"",""time""
""focus"",""0"",""1""
""fullscreenenter"",""1"",""2238""
","
","""event"",""trial"",""time""
""focus"",""0"",""1""
","""event"",""trial"",""time""
""fullscreenenter"",""1"",""2238""
","
","","","-1","","","16","3985","150","&#9733;","elianto","#3366ff99","-1","-1","1","+10","[]","0","1","","","3985","12","2","2","win","no-go","0"
"pit-trial","130","895343","0.0-16.0","battery-v0.2","","""event"",""trial"",""time""
""focus"",""0"",""1""
""fullscreenenter"",""1"",""2238""
","
","""event"",""trial"",""time""
""focus"",""0"",""1""
","""event"",""trial"",""time""
""fullscreenenter"",""1"",""2238""
","
","","","853","","","16","3985","150","&#9730;","elianto","#3366ff99"," "," ","1","+10","[1713,1736]","2","1","","","3985","13","1","1","win","go","0"
"pit-trial","131","900232","0.0-17.0","battery-v0.2","","""event"",""trial"",""time""
""focus"",""0"",""1""
""fullscreenenter"",""1"",""2238""
","
","""event"",""trial"",""time""
""focus"",""0"",""1""
","""event"",""trial"",""time""
""fullscreenenter"",""1"",""2238""
","
","","","-1","","","16","3985","150","&#9728;","elianto","#f73b6a7A","-1","-1","1","0","[]","0","1","","","3985","14","0","4","lose","no-go","0"
"pit-trial","132","905102","0.0-18.0","battery-v0.2","","""event"",""trial"",""time""
""focus"",""0"",""1""
""fullscreenenter"",""1"",""2238""
","
","""event"",""trial"",""time""
""focus"",""0"",""1""
","""event"",""trial"",""time""
""fullscreenenter"",""1"",""2238""
","
","","","-1","","","16","3985","150","&#9733;","elianto","#3366ff99","-1","-1","1","+10","[]","0","1","","","3985","15","2","2","win","no-go","0"
"pit-trial","133","908733","0.0-19.0","battery-v0.2","","""event"",""trial"",""time""
""focus"",""0"",""1""
""fullscreenenter"",""1"",""2238""
","
","""event"",""trial"",""time""
""focus"",""0"",""1""
","""event"",""trial"",""time""
""fullscreenenter"",""1"",""2238""
","
","","","760","","","16","3985","150","&#9752;","elianto","#f73b6a7A"," "," ","1","0","[1624]","1","1","","","3985","16","3","3","lose","go","0"
"pit-trial","134","913602","0.0-20.0","battery-v0.2","","""event"",""trial"",""time""
""focus"",""0"",""1""
""fullscreenenter"",""1"",""2238""
","
","""event"",""trial"",""time""
""focus"",""0"",""1""
","""event"",""trial"",""time""
""fullscreenenter"",""1"",""2238""
","
","","","-1","","","16","3985","150","&#9728;","elianto","#f73b6a7A","-1","-1","1","0","[]","0","1","","","3985","17","0","4","lose","no-go","0"
"pit-trial","135","917233","0.0-21.0","battery-v0.2","","""event"",""trial"",""time""
""focus"",""0"",""1""
""fullscreenenter"",""1"",""2238""
","
","""event"",""trial"",""time""
""focus"",""0"",""1""
","""event"",""trial"",""time""
""fullscreenenter"",""1"",""2238""
","
","","","749","","","16","3985","150","&#9730;","elianto","#3366ff99"," "," ","1","+10","[1615]","1","1","","","3985","18","1","1","win","go","0"
"pit-trial","136","921342","0.0-22.0","battery-v0.2","","""event"",""trial"",""time""
""focus"",""0"",""1""
""fullscreenenter"",""1"",""2238""
","
","""event"",""trial"",""time""
""focus"",""0"",""1""
","""event"",""trial"",""time""
""fullscreenenter"",""1"",""2238""
","
","","","1230","","","16","3985","150","&#9752;","elianto","#f73b6a7A"," "," ","1","0","[2096]","1","1","","","3985","19","3","3","lose","go","0"
"pit-trial","137","926233","0.0-23.0","battery-v0.2","","""event"",""trial"",""time""
""focus"",""0"",""1""
""fullscreenenter"",""1"",""2238""
","
","""event"",""trial"",""time""
""focus"",""0"",""1""
","""event"",""trial"",""time""
""fullscreenenter"",""1"",""2238""
","
","","","-1","","","16","3985","150","&#9733;","elianto","#3366ff99","-1","-1","1","+10","[]","0","1","","","3985","20","2","2","win","no-go","0"
"pit-instructions","138","939216","0.0-24.0","battery-v0.2","","""event"",""trial"",""time""
""focus"",""0"",""1""
""fullscreenenter"",""1"",""2238""
","
","""event"",""trial"",""time""
""focus"",""0"",""1""
","""event"",""trial"",""time""
""fullscreenenter"",""1"",""2238""
","
","","[{""page_index"":0,""viewing_time"":6069},{""page_index"":1,""viewing_time"":6910}]","12980","","","","","","","","","","","","","","","","","","","","","","","",""
"pit-trial","139","943142","0.0-25.0","battery-v0.2","","""event"",""trial"",""time""
""focus"",""0"",""1""
""fullscreenenter"",""1"",""2238""
","
","""event"",""trial"",""time""
""focus"",""0"",""1""
","""event"",""trial"",""time""
""fullscreenenter"",""1"",""2238""
","
","","","1053","","","16","3985","150","f","elianto","#3366ff99","-1"," ","0","0","[1914]","1","2","","","3985","21","1","2","win","no-go","0"
"pit-trial","140","946892","0.0-26.0","battery-v0.2","","""event"",""trial"",""time""
""focus"",""0"",""1""
""fullscreenenter"",""1"",""2238""
","
","""event"",""trial"",""time""
""focus"",""0"",""1""
","""event"",""trial"",""time""
""fullscreenenter"",""1"",""2238""
","
","","","880","","","16","3985","150","t","elianto","#f73b6a7A"," "," ","1","0","[1747]","1","2","","","3985","22","2","3","lose","go","0"
"pit-trial","141","950623","0.0-27.0","battery-v0.2","","""event"",""trial"",""time""
""focus"",""0"",""1""
""fullscreenenter"",""1"",""2238""
","
","""event"",""trial"",""time""
""focus"",""0"",""1""
","""event"",""trial"",""time""
""fullscreenenter"",""1"",""2238""
","
","","","856","","","16","3985","150","b","elianto","#f73b6a7A","-1"," ","0","-10","[1712]","1","2","","","3985","23","3","4","lose","no-go","0"
"pit-trial","142","954332","0.0-28.0","battery-v0.2","","""event"",""trial"",""time""
""focus"",""0"",""1""
""fullscreenenter"",""1"",""2238""
","
","""event"",""trial"",""time""
""focus"",""0"",""1""
","""event"",""trial"",""time""
""fullscreenenter"",""1"",""2238""
","
","","","845","","","16","3985","150","n","elianto","#f73b6a7A"," "," ","1","0","[1700]","1","2","","","3985","24","0","3","lose","go","0"
"pit-trial","143","959202","0.0-29.0","battery-v0.2","","""event"",""trial"",""time""
""focus"",""0"",""1""
""fullscreenenter"",""1"",""2238""
","
","""event"",""trial"",""time""
""focus"",""0"",""1""
","""event"",""trial"",""time""
""fullscreenenter"",""1"",""2238""
","
","","","-1","","","16","3985","150","n","elianto","#f73b6a7A"," ","-1","0","-10","[2949]","1","2","","","3985","25","0","3","lose","go","0"
"pit-trial","144","964092","0.0-30.0","battery-v0.2","","""event"",""trial"",""time""
""focus"",""0"",""1""
""fullscreenenter"",""1"",""2238""
","
","""event"",""trial"",""time""
""focus"",""0"",""1""
","""event"",""trial"",""time""
""fullscreenenter"",""1"",""2238""
","
","","","-1","","","16","3985","150","b","elianto","#f73b6a7A","-1","-1","1","0","[]","0","2","","","3985","26","3","4","lose","no-go","0"
"pit-trial","145","968004","0.0-31.0","battery-v0.2","","""event"",""trial"",""time""
""focus"",""0"",""1""
""fullscreenenter"",""1"",""2238""
","
","""event"",""trial"",""time""
""focus"",""0"",""1""
","""event"",""trial"",""time""
""fullscreenenter"",""1"",""2238""
","
","","","1053","","","16","3985","150","f","elianto","#3366ff99","-1"," ","0","0","[1909]","1","2","","","3985","27","1","2","win","no-go","0"
"pit-trial","146","972313","0.0-32.0","battery-v0.2","","""event"",""trial"",""time""
""focus"",""0"",""1""
""fullscreenenter"",""1"",""2238""
","
","""event"",""trial"",""time""
""focus"",""0"",""1""
","""event"",""trial"",""time""
""fullscreenenter"",""1"",""2238""
","
","","","1443","","","16","3985","150","t","elianto","#f73b6a7A"," "," ","1","0","[2297]","1","2","","","3985","28","2","3","lose","go","0"
"pit-trial","147","977172","0.0-33.0","battery-v0.2","","""event"",""trial"",""time""
""focus"",""0"",""1""
""fullscreenenter"",""1"",""2238""
","
","""event"",""trial"",""time""
""focus"",""0"",""1""
","""event"",""trial"",""time""
""fullscreenenter"",""1"",""2238""
","
","","","-1","","","16","3985","150","f","elianto","#3366ff99","-1","-1","1","+10","[]","0","2","","","3985","29","1","2","win","no-go","0"
"pit-trial","148","980992","0.0-34.0","battery-v0.2","","""event"",""trial"",""time""
""focus"",""0"",""1""
""fullscreenenter"",""1"",""2238""
","
","""event"",""trial"",""time""
""focus"",""0"",""1""
","""event"",""trial"",""time""
""fullscreenenter"",""1"",""2238""
","
","","","946","","","16","3985","150","n","elianto","#f73b6a7A"," "," ","1","0","[1812]","1","2","","","3985","30","0","3","lose","go","0"
"pit-trial","149","985872","0.0-35.0","battery-v0.2","","""event"",""trial"",""time""
""focus"",""0"",""1""
""fullscreenenter"",""1"",""2238""
","
","""event"",""trial"",""time""
""focus"",""0"",""1""
","""event"",""trial"",""time""
""fullscreenenter"",""1"",""2238""
","
","","","-1","","","16","3985","150","b","elianto","#f73b6a7A","-1","-1","1","0","[]","0","2","","","3985","31","3","4","lose","no-go","0"
"pit-trial","150","989372","0.0-36.0","battery-v0.2","","""event"",""trial"",""time""
""focus"",""0"",""1""
""fullscreenenter"",""1"",""2238""
","
","""event"",""trial"",""time""
""focus"",""0"",""1""
","""event"",""trial"",""time""
""fullscreenenter"",""1"",""2238""
","
","","","615","","","16","3985","150","t","elianto","#f73b6a7A"," "," ","1","-10","[1480]","1","2","","","3985","32","2","3","lose","go","1"
"pit-trial","151","992992","0.0-37.0","battery-v0.2","","""event"",""trial"",""time""
""focus"",""0"",""1""
""fullscreenenter"",""1"",""2238""
","
","""event"",""trial"",""time""
""focus"",""0"",""1""
","""event"",""trial"",""time""
""fullscreenenter"",""1"",""2238""
","
","","","759","","","16","3985","150","f","elianto","#3366ff99","-1"," ","0","0","[1614]","1","2","","","3985","33","1","2","win","no-go","0"
"pit-trial","152","997042","0.0-38.0","battery-v0.2","","""event"",""trial"",""time""
""focus"",""0"",""1""
""fullscreenenter"",""1"",""2238""
","
","""event"",""trial"",""time""
""focus"",""0"",""1""
","""event"",""trial"",""time""
""fullscreenenter"",""1"",""2238""
","
","","","1181","","","16","3985","150","n","elianto","#f73b6a7A"," "," ","1","0","[2036]","1","2","","","3985","34","0","3","lose","go","0"
"pit-trial","153","1000471","0.0-39.0","battery-v0.2","","""event"",""trial"",""time""
""focus"",""0"",""1""
""fullscreenenter"",""1"",""2238""
","
","""event"",""trial"",""time""
""focus"",""0"",""1""
","""event"",""trial"",""time""
""fullscreenenter"",""1"",""2238""
","
","","","556","","","16","3985","150","t","elianto","#f73b6a7A"," "," ","1","0","[1413]","1","2","","","3985","35","2","3","lose","go","0"
"pit-trial","154","1005352","0.0-40.0","battery-v0.2","","""event"",""trial"",""time""
""focus"",""0"",""1""
""fullscreenenter"",""1"",""2238""
","
","""event"",""trial"",""time""
""focus"",""0"",""1""
","""event"",""trial"",""time""
""fullscreenenter"",""1"",""2238""
","
","","","-1","","","16","3985","150","b","elianto","#f73b6a7A","-1","-1","1","-10","[]","0","2","","","3985","36","3","4","lose","no-go","1"
"pit-trial","155","1010242","0.0-41.0","battery-v0.2","","""event"",""trial"",""time""
""focus"",""0"",""1""
""fullscreenenter"",""1"",""2238""
","
","""event"",""trial"",""time""
""focus"",""0"",""1""
","""event"",""trial"",""time""
""fullscreenenter"",""1"",""2238""
","
","","","-1","","","16","3985","150","f","elianto","#3366ff99","-1","-1","1","+10","[]","0","2","","","3985","37","1","2","win","no-go","0"
"pit-trial","156","1013653","0.0-42.0","battery-v0.2","","""event"",""trial"",""time""
""focus"",""0"",""1""
""fullscreenenter"",""1"",""2238""
","
","""event"",""trial"",""time""
""focus"",""0"",""1""
","""event"",""trial"",""time""
""fullscreenenter"",""1"",""2238""
","
","","","540","","","16","3985","150","t","elianto","#f73b6a7A"," "," ","1","0","[1404]","1","2","","","3985","38","2","3","lose","go","0"
"pit-trial","157","1018543","0.0-43.0","battery-v0.2","","""event"",""trial"",""time""
""focus"",""0"",""1""
""fullscreenenter"",""1"",""2238""
","
","""event"",""trial"",""time""
""focus"",""0"",""1""
","""event"",""trial"",""time""
""fullscreenenter"",""1"",""2238""
","
","","","-1","","","16","3985","150","b","elianto","#f73b6a7A","-1","-1","1","0","[]","0","2","","","3985","39","3","4","lose","no-go","0"
"pit-trial","158","1022152","0.0-44.0","battery-v0.2","","""event"",""trial"",""time""
""focus"",""0"",""1""
""fullscreenenter"",""1"",""2238""
","
","""event"",""trial"",""time""
""focus"",""0"",""1""
","""event"",""trial"",""time""
""fullscreenenter"",""1"",""2238""
","
","","","735","","","16","3985","150","n","elianto","#f73b6a7A"," "," ","1","0","[1591]","1","2","","","3985","40","0","3","lose","go","0"
"pit-trial","159","1026182","0.0-45.0","battery-v0.2","","""event"",""trial"",""time""
""focus"",""0"",""1""
""fullscreenenter"",""1"",""2238""
","
","""event"",""trial"",""time""
""focus"",""0"",""1""
","""event"",""trial"",""time""
""fullscreenenter"",""1"",""2238""
","
","","","1154","","","16","3985","150","t","elianto","#f73b6a7A"," "," ","1","0","[2014]","1","2","","","3985","41","2","3","lose","go","0"
"pit-trial","160","1031053","0.0-46.0","battery-v0.2","","""event"",""trial"",""time""
""focus"",""0"",""1""
""fullscreenenter"",""1"",""2238""
","
","""event"",""trial"",""time""
""focus"",""0"",""1""
","""event"",""trial"",""time""
""fullscreenenter"",""1"",""2238""
","
","","","-1","","","16","3985","150","b","elianto","#f73b6a7A","-1","-1","1","0","[]","0","2","","","3985","42","3","4","lose","no-go","0"
"pit-trial","161","1034523","0.0-47.0","battery-v0.2","","""event"",""trial"",""time""
""focus"",""0"",""1""
""fullscreenenter"",""1"",""2238""
","
","""event"",""trial"",""time""
""focus"",""0"",""1""
","""event"",""trial"",""time""
""fullscreenenter"",""1"",""2238""
","
","","","599","","","16","3985","150","n","elianto","#f73b6a7A"," "," ","1","0","[1453]","1","2","","","3985","43","0","3","lose","go","0"
"pit-trial","162","1039392","0.0-48.0","battery-v0.2","","""event"",""trial"",""time""
""focus"",""0"",""1""
""fullscreenenter"",""1"",""2238""
","
","""event"",""trial"",""time""
""focus"",""0"",""1""
","""event"",""trial"",""time""
""fullscreenenter"",""1"",""2238""
","
","","","-1","","","16","3985","150","f","elianto","#3366ff99","-1","-1","1","+10","[]","0","2","","","3985","44","1","2","win","no-go","0"
"pit-trial","163","1043182","0.0-49.0","battery-v0.2","","""event"",""trial"",""time""
""focus"",""0"",""1""
""fullscreenenter"",""1"",""2238""
","
","""event"",""trial"",""time""
""focus"",""0"",""1""
","""event"",""trial"",""time""
""fullscreenenter"",""1"",""2238""
","
","","","920","","","16","3985","150","n","elianto","#f73b6a7A"," "," ","1","-10","[1776]","1","2","","","3985","45","0","3","lose","go","1"
"pit-trial","164","1048058","0.0-50.0","battery-v0.2","","""event"",""trial"",""time""
""focus"",""0"",""1""
""fullscreenenter"",""1"",""2238""
","
","""event"",""trial"",""time""
""focus"",""0"",""1""
","""event"",""trial"",""time""
""fullscreenenter"",""1"",""2238""
","
","","","-1","","","16","3985","150","f","elianto","#3366ff99","-1","-1","1","+10","[]","0","2","","","3985","46","1","2","win","no-go","0"
"pit-trial","165","1052942","0.0-51.0","battery-v0.2","","""event"",""trial"",""time""
""focus"",""0"",""1""
""fullscreenenter"",""1"",""2238""
","
","""event"",""trial"",""time""
""focus"",""0"",""1""
","""event"",""trial"",""time""
""fullscreenenter"",""1"",""2238""
","
","","","-1","","","16","3985","150","b","elianto","#f73b6a7A","-1","-1","1","0","[]","0","2","","","3985","47","3","4","lose","no-go","0"
"pit-trial","166","1056583","0.0-52.0","battery-v0.2","","""event"",""trial"",""time""
""focus"",""0"",""1""
""fullscreenenter"",""1"",""2238""
","
","""event"",""trial"",""time""
""focus"",""0"",""1""
","""event"",""trial"",""time""
""fullscreenenter"",""1"",""2238""
","
","","","772","","","16","3985","150","t","elianto","#f73b6a7A"," "," ","1","0","[1628]","1","2","","","3985","48","2","3","lose","go","0"
"pit-trial","167","1061474","0.0-53.0","battery-v0.2","","""event"",""trial"",""time""
""focus"",""0"",""1""
""fullscreenenter"",""1"",""2238""
","
","""event"",""trial"",""time""
""focus"",""0"",""1""
","""event"",""trial"",""time""
""fullscreenenter"",""1"",""2238""
","
","","","-1","","","16","3985","150","b","elianto","#f73b6a7A","-1","-1","1","0","[]","0","2","","","3985","49","3","4","lose","no-go","0"
"pit-trial","168","1065202","0.0-54.0","battery-v0.2","","""event"",""trial"",""time""
""focus"",""0"",""1""
""fullscreenenter"",""1"",""2238""
","
","""event"",""trial"",""time""
""focus"",""0"",""1""
","""event"",""trial"",""time""
""fullscreenenter"",""1"",""2238""
","
","","","858","","","16","3985","150","n","elianto","#f73b6a7A"," "," ","1","-10","[1718]","1","2","","","3985","50","0","3","lose","go","1"
"pit-trial","169","1070083","0.0-55.0","battery-v0.2","","""event"",""trial"",""time""
""focus"",""0"",""1""
""fullscreenenter"",""1"",""2238""
","
","""event"",""trial"",""time""
""focus"",""0"",""1""
","""event"",""trial"",""time""
""fullscreenenter"",""1"",""2238""
","
","","","-1","","","16","3985","150","f","elianto","#3366ff99","-1","-1","1","+10","[]","0","2","","","3985","51","1","2","win","no-go","0"
"pit-trial","170","1073659","0.0-56.0","battery-v0.2","","""event"",""trial"",""time""
""focus"",""0"",""1""
""fullscreenenter"",""1"",""2238""
","
","""event"",""trial"",""time""
""focus"",""0"",""1""
","""event"",""trial"",""time""
""fullscreenenter"",""1"",""2238""
","
","","","696","","","16","3985","150","t","elianto","#f73b6a7A"," "," ","1","0","[1560]","1","2","","","3985","52","2","3","lose","go","0"
"pit-trial","171","1077272","0.0-57.0","battery-v0.2","","""event"",""trial"",""time""
""focus"",""0"",""1""
""fullscreenenter"",""1"",""2238""
","
","""event"",""trial"",""time""
""focus"",""0"",""1""
","""event"",""trial"",""time""
""fullscreenenter"",""1"",""2238""
","
","","","733","","","16","3985","150","t","elianto","#f73b6a7A"," "," ","1","-10","[1603]","1","2","","","3985","53","2","3","lose","go","1"
"pit-trial","172","1080682","0.0-58.0","battery-v0.2","","""event"",""trial"",""time""
""focus"",""0"",""1""
""fullscreenenter"",""1"",""2238""
","
","""event"",""trial"",""time""
""focus"",""0"",""1""
","""event"",""trial"",""time""
""fullscreenenter"",""1"",""2238""
","
","","","536","","","16","3985","150","n","elianto","#f73b6a7A"," "," ","1","0","[1390]","1","2","","","3985","54","0","3","lose","go","0"
"pit-trial","173","1085552","0.0-59.0","battery-v0.2","","""event"",""trial"",""time""
""focus"",""0"",""1""
""fullscreenenter"",""1"",""2238""
","
","""event"",""trial"",""time""
""focus"",""0"",""1""
","""event"",""trial"",""time""
""fullscreenenter"",""1"",""2238""
","
","","","-1","","","16","3985","150","f","elianto","#3366ff99","-1","-1","1","+10","[]","0","2","","","3985","55","1","2","win","no-go","0"
"pit-trial","174","1090442","0.0-60.0","battery-v0.2","","""event"",""trial"",""time""
""focus"",""0"",""1""
""fullscreenenter"",""1"",""2238""
","
","""event"",""trial"",""time""
""focus"",""0"",""1""
","""event"",""trial"",""time""
""fullscreenenter"",""1"",""2238""
","
","","","-1","","","16","3985","150","b","elianto","#f73b6a7A","-1","-1","1","-10","[]","0","2","","","3985","56","3","4","lose","no-go","1"
"pit-trial","175","1095332","0.0-61.0","battery-v0.2","","""event"",""trial"",""time""
""focus"",""0"",""1""
""fullscreenenter"",""1"",""2238""
","
","""event"",""trial"",""time""
""focus"",""0"",""1""
","""event"",""trial"",""time""
""fullscreenenter"",""1"",""2238""
","
","","","-1","","","16","3985","150","b","elianto","#f73b6a7A","-1","-1","1","-10","[]","0","2","","","3985","57","3","4","lose","no-go","1"
"pit-trial","176","1099283","0.0-62.0","battery-v0.2","","""event"",""trial"",""time""
""focus"",""0"",""1""
""fullscreenenter"",""1"",""2238""
","
","""event"",""trial"",""time""
""focus"",""0"",""1""
","""event"",""trial"",""time""
""fullscreenenter"",""1"",""2238""
","
","","","1084","","","16","3985","150","t","elianto","#f73b6a7A"," "," ","1","-10","[1938]","1","2","","","3985","58","2","3","lose","go","1"
"pit-trial","177","1102912","0.0-63.0","battery-v0.2","","""event"",""trial"",""time""
""focus"",""0"",""1""
""fullscreenenter"",""1"",""2238""
","
","""event"",""trial"",""time""
""focus"",""0"",""1""
","""event"",""trial"",""time""
""fullscreenenter"",""1"",""2238""
","
","","","762","","","16","3985","150","n","elianto","#f73b6a7A"," "," ","1","0","[1617]","1","2","","","3985","59","0","3","lose","go","0"
"pit-trial","178","1107192","0.0-64.0","battery-v0.2","","""event"",""trial"",""time""
""focus"",""0"",""1""
""fullscreenenter"",""1"",""2238""
","
","""event"",""trial"",""time""
""focus"",""0"",""1""
","""event"",""trial"",""time""
""fullscreenenter"",""1"",""2238""
","
","","","1403","","","16","3985","150","c","elianto","#3366ff99"," "," ","1","+10","[2260,2675]","2","2","","","3985","60","4","1","win","go","0"
"pit-trial","179","1112082","0.0-65.0","battery-v0.2","","""event"",""trial"",""time""
""focus"",""0"",""1""
""fullscreenenter"",""1"",""2238""
","
","""event"",""trial"",""time""
""focus"",""0"",""1""
","""event"",""trial"",""time""
""fullscreenenter"",""1"",""2238""
","
","","","-1","","","16","3985","150","b","elianto","#f73b6a7A","-1","-1","1","-10","[]","0","2","","","3985","61","3","4","lose","no-go","1"
"pit-trial","180","1115831","0.0-66.0","battery-v0.2","","""event"",""trial"",""time""
""focus"",""0"",""1""
""fullscreenenter"",""1"",""2238""
","
","""event"",""trial"",""time""
""focus"",""0"",""1""
","""event"",""trial"",""time""
""fullscreenenter"",""1"",""2238""
","
","","","868","","","16","3985","150","t","elianto","#f73b6a7A"," "," ","1","0","[1735]","1","2","","","3985","62","2","3","lose","go","0"
"pit-trial","181","1120712","0.0-67.0","battery-v0.2","","""event"",""trial"",""time""
""focus"",""0"",""1""
""fullscreenenter"",""1"",""2238""
","
","""event"",""trial"",""time""
""focus"",""0"",""1""
","""event"",""trial"",""time""
""fullscreenenter"",""1"",""2238""
","
","","","-1","","","16","3985","150","f","elianto","#3366ff99","-1","-1","1","+10","[]","0","2","","","3985","63","1","2","win","no-go","0"
"pit-trial","182","1124312","0.0-68.0","battery-v0.2","","""event"",""trial"",""time""
""focus"",""0"",""1""
""fullscreenenter"",""1"",""2238""
","
","""event"",""trial"",""time""
""focus"",""0"",""1""
","""event"",""trial"",""time""
""fullscreenenter"",""1"",""2238""
","
","","","722","","","16","3985","150","c","elianto","#3366ff99"," "," ","1","+10","[1578]","1","2","","","3985","64","4","1","win","go","0"
"pit-trial","183","1129202","0.0-69.0","battery-v0.2","","""event"",""trial"",""time""
""focus"",""0"",""1""
""fullscreenenter"",""1"",""2238""
","
","""event"",""trial"",""time""
""focus"",""0"",""1""
","""event"",""trial"",""time""
""fullscreenenter"",""1"",""2238""
","
","","","-1","","","16","3985","150","f","elianto","#3366ff99","-1","-1","1","+10","[]","0","2","","","3985","65","1","2","win","no-go","0"
"pit-trial","184","1132651","0.0-70.0","battery-v0.2","","""event"",""trial"",""time""
""focus"",""0"",""1""
""fullscreenenter"",""1"",""2238""
","
","""event"",""trial"",""time""
""focus"",""0"",""1""
","""event"",""trial"",""time""
""fullscreenenter"",""1"",""2238""
","
","","","578","","","16","3985","150","c","elianto","#3366ff99"," "," ","1","+10","[1445]","1","2","","","3985","66","4","1","win","go","0"
"pit-trial","185","1137541","0.0-71.0","battery-v0.2","","""event"",""trial"",""time""
""focus"",""0"",""1""
""fullscreenenter"",""1"",""2238""
","
","""event"",""trial"",""time""
""focus"",""0"",""1""
","""event"",""trial"",""time""
""fullscreenenter"",""1"",""2238""
","
","","","-1","","","16","3985","150","b","elianto","#f73b6a7A","-1","-1","1","-10","[]","0","2","","","3985","67","3","4","lose","no-go","1"
"pit-trial","186","1141592","0.0-72.0","battery-v0.2","","""event"",""trial"",""time""
""focus"",""0"",""1""
""fullscreenenter"",""1"",""2238""
","
","""event"",""trial"",""time""
""focus"",""0"",""1""
","""event"",""trial"",""time""
""fullscreenenter"",""1"",""2238""
","
","","","1175","","","16","3985","150","z","elianto","#3366ff99","-1"," ","0","+10","[2033]","1","2","","","3985","68","5","2","win","no-go","1"
"pit-trial","187","1144948","0.0-73.0","battery-v0.2","","""event"",""trial"",""time""
""focus"",""0"",""1""
""fullscreenenter"",""1"",""2238""
","
","""event"",""trial"",""time""
""focus"",""0"",""1""
","""event"",""trial"",""time""
""fullscreenenter"",""1"",""2238""
","
","","","494","","","16","3985","150","c","elianto","#3366ff99"," "," ","1","0","[1349]","1","2","","","3985","69","4","1","win","go","1"
"pit-trial","188","1148283","0.0-74.0","battery-v0.2","","""event"",""trial"",""time""
""focus"",""0"",""1""
""fullscreenenter"",""1"",""2238""
","
","""event"",""trial"",""time""
""focus"",""0"",""1""
","""event"",""trial"",""time""
""fullscreenenter"",""1"",""2238""
","
","","","464","","","16","3985","150","z","elianto","#3366ff99","-1"," ","0","+10","[1315]","1","2","","","3985","70","5","2","win","no-go","1"
"pit-trial","189","1153172","0.0-75.0","battery-v0.2","","""event"",""trial"",""time""
""focus"",""0"",""1""
""fullscreenenter"",""1"",""2238""
","
","""event"",""trial"",""time""
""focus"",""0"",""1""
","""event"",""trial"",""time""
""fullscreenenter"",""1"",""2238""
","
","","","-1","","","16","3985","150","f","elianto","#3366ff99","-1","-1","1","+10","[]","0","2","","","3985","71","1","2","win","no-go","0"
"pit-trial","190","1156852","0.0-76.0","battery-v0.2","","""event"",""trial"",""time""
""focus"",""0"",""1""
""fullscreenenter"",""1"",""2238""
","
","""event"",""trial"",""time""
""focus"",""0"",""1""
","""event"",""trial"",""time""
""fullscreenenter"",""1"",""2238""
","
","","","807","","","16","3985","150","t","elianto","#f73b6a7A"," "," ","1","0","[1673]","1","2","","","3985","72","2","3","lose","go","0"
"pit-trial","191","1160602","0.0-77.0","battery-v0.2","","""event"",""trial"",""time""
""focus"",""0"",""1""
""fullscreenenter"",""1"",""2238""
","
","""event"",""trial"",""time""
""focus"",""0"",""1""
","""event"",""trial"",""time""
""fullscreenenter"",""1"",""2238""
","
","","","869","","","16","3985","150","z","elianto","#3366ff99","-1"," ","0","0","[1727,1747]","2","2","","","3985","73","5","2","win","no-go","0"
"pit-trial","192","1164083","0.0-78.0","battery-v0.2","","""event"",""trial"",""time""
""focus"",""0"",""1""
""fullscreenenter"",""1"",""2238""
","
","""event"",""trial"",""time""
""focus"",""0"",""1""
","""event"",""trial"",""time""
""fullscreenenter"",""1"",""2238""
","
","","","610","","","16","3985","150","c","elianto","#3366ff99"," "," ","1","0","[1467]","1","2","","","3985","74","4","1","win","go","1"
"pit-trial","193","1168972","0.0-79.0","battery-v0.2","","""event"",""trial"",""time""
""focus"",""0"",""1""
""fullscreenenter"",""1"",""2238""
","
","""event"",""trial"",""time""
""focus"",""0"",""1""
","""event"",""trial"",""time""
""fullscreenenter"",""1"",""2238""
","
","","","-1","","","16","3985","150","b","elianto","#f73b6a7A","-1","-1","1","0","[]","0","2","","","3985","75","3","4","lose","no-go","0"
"pit-trial","194","1173862","0.0-80.0","battery-v0.2","","""event"",""trial"",""time""
""focus"",""0"",""1""
""fullscreenenter"",""1"",""2238""
","
","""event"",""trial"",""time""
""focus"",""0"",""1""
","""event"",""trial"",""time""
""fullscreenenter"",""1"",""2238""
","
","","","-1","","","16","3985","150","f","elianto","#3366ff99","-1","-1","1","+10","[]","0","2","","","3985","76","1","2","win","no-go","0"
"pit-trial","195","1177272","0.0-81.0","battery-v0.2","","""event"",""trial"",""time""
""focus"",""0"",""1""
""fullscreenenter"",""1"",""2238""
","
","""event"",""trial"",""time""
""focus"",""0"",""1""
","""event"",""trial"",""time""
""fullscreenenter"",""1"",""2238""
","
","","","528","","","16","3985","150","c","elianto","#3366ff99"," "," ","1","+10","[1394]","1","2","","","3985","77","4","1","win","go","0"
"pit-trial","196","1180782","0.0-82.0","battery-v0.2","","""event"",""trial"",""time""
""focus"",""0"",""1""
""fullscreenenter"",""1"",""2238""
","
","""event"",""trial"",""time""
""focus"",""0"",""1""
","""event"",""trial"",""time""
""fullscreenenter"",""1"",""2238""
","
","","","643","","","16","3985","150","z","elianto","#3366ff99","-1"," ","0","0","[1498]","1","2","","","3985","78","5","2","win","no-go","0"
"pit-trial","197","1185652","0.0-83.0","battery-v0.2","","""event"",""trial"",""time""
""focus"",""0"",""1""
""fullscreenenter"",""1"",""2238""
","
","""event"",""trial"",""time""
""focus"",""0"",""1""
","""event"",""trial"",""time""
""fullscreenenter"",""1"",""2238""
","
","","","-1","","","16","3985","150","b","elianto","#f73b6a7A","-1","-1","1","0","[]","0","2","","","3985","79","3","4","lose","no-go","0"
"pit-trial","198","1190222","0.0-84.0","battery-v0.2","","""event"",""trial"",""time""
""focus"",""0"",""1""
""fullscreenenter"",""1"",""2238""
","
","""event"",""trial"",""time""
""focus"",""0"",""1""
","""event"",""trial"",""time""
""fullscreenenter"",""1"",""2238""
","
","","","1692","","","16","3985","150","c","elianto","#3366ff99"," "," ","1","+10","[2549]","1","2","","","3985","80","4","1","win","go","0"
"pit-trial","199","1193662","0.0-85.0","battery-v0.2","","""event"",""trial"",""time""
""focus"",""0"",""1""
""fullscreenenter"",""1"",""2238""
","
","""event"",""trial"",""time""
""focus"",""0"",""1""
","""event"",""trial"",""time""
""fullscreenenter"",""1"",""2238""
","
","","","566","","","16","3985","150","c","elianto","#3366ff99"," "," ","1","+10","[1422]","1","2","","","3985","81","4","1","win","go","0"
"pit-trial","200","1198542","0.0-86.0","battery-v0.2","","""event"",""trial"",""time""
""focus"",""0"",""1""
""fullscreenenter"",""1"",""2238""
","
","""event"",""trial"",""time""
""focus"",""0"",""1""
","""event"",""trial"",""time""
""fullscreenenter"",""1"",""2238""
","
","","","-1","","","16","3985","150","y","elianto","#f73b6a7A","-1","-1","1","0","[]","0","2","","","3985","82","7","4","lose","no-go","0"
"pit-trial","201","1203422","0.0-87.0","battery-v0.2","","""event"",""trial"",""time""
""focus"",""0"",""1""
""fullscreenenter"",""1"",""2238""
","
","""event"",""trial"",""time""
""focus"",""0"",""1""
","""event"",""trial"",""time""
""fullscreenenter"",""1"",""2238""
","
","","","-1","","","16","3985","150","b","elianto","#f73b6a7A","-1","-1","1","0","[]","0","2","","","3985","83","3","4","lose","no-go","0"
"pit-trial","202","1206991","0.0-88.0","battery-v0.2","","""event"",""trial"",""time""
""focus"",""0"",""1""
""fullscreenenter"",""1"",""2238""
","
","""event"",""trial"",""time""
""focus"",""0"",""1""
","""event"",""trial"",""time""
""fullscreenenter"",""1"",""2238""
","
","","","680","","","16","3985","150","z","elianto","#3366ff99","-1"," ","0","0","[1547,3149]","2","2","","","3985","84","5","2","win","no-go","0"
"pit-trial","203","1211141","0.0-89.0","battery-v0.2","","""event"",""trial"",""time""
""focus"",""0"",""1""
""fullscreenenter"",""1"",""2238""
","
","""event"",""trial"",""time""
""focus"",""0"",""1""
","""event"",""trial"",""time""
""fullscreenenter"",""1"",""2238""
","
","","","1283","","","16","3985","150","c","elianto","#3366ff99"," "," ","1","+10","[2139]","1","2","","","3985","85","4","1","win","go","0"
"pit-trial","204","1214592","0.0-90.0","battery-v0.2","","""event"",""trial"",""time""
""focus"",""0"",""1""
""fullscreenenter"",""1"",""2238""
","
","""event"",""trial"",""time""
""focus"",""0"",""1""
","""event"",""trial"",""time""
""fullscreenenter"",""1"",""2238""
","
","","","588","","","16","3985","150","z","elianto","#3366ff99","-1"," ","0","+10","[1444]","1","2","","","3985","86","5","2","win","no-go","1"
"pit-trial","205","1219462","0.0-91.0","battery-v0.2","","""event"",""trial"",""time""
""focus"",""0"",""1""
""fullscreenenter"",""1"",""2238""
","
","""event"",""trial"",""time""
""focus"",""0"",""1""
","""event"",""trial"",""time""
""fullscreenenter"",""1"",""2238""
","
","","","-1","","","16","3985","150","y","elianto","#f73b6a7A","-1","-1","1","0","[]","0","2","","","3985","87","7","4","lose","no-go","0"
"pit-trial","206","1224332","0.0-92.0","battery-v0.2","","""event"",""trial"",""time""
""focus"",""0"",""1""
""fullscreenenter"",""1"",""2238""
","
","""event"",""trial"",""time""
""focus"",""0"",""1""
","""event"",""trial"",""time""
""fullscreenenter"",""1"",""2238""
","
","","","-1","","","16","3985","150","h","elianto","#f73b6a7A"," ","-1","0","-10","[]","0","2","","","3985","88","6","3","lose","go","0"
"pit-trial","207","1227872","0.0-93.0","battery-v0.2","","""event"",""trial"",""time""
""focus"",""0"",""1""
""fullscreenenter"",""1"",""2238""
","
","""event"",""trial"",""time""
""focus"",""0"",""1""
","""event"",""trial"",""time""
""fullscreenenter"",""1"",""2238""
","
","","","664","","","16","3985","150","c","elianto","#3366ff99"," "," ","1","+10","[1521]","1","2","","","3985","89","4","1","win","go","0"
"pit-trial","208","1231402","0.0-94.0","battery-v0.2","","""event"",""trial"",""time""
""focus"",""0"",""1""
""fullscreenenter"",""1"",""2238""
","
","""event"",""trial"",""time""
""focus"",""0"",""1""
","""event"",""trial"",""time""
""fullscreenenter"",""1"",""2238""
","
","","","646","","","16","3985","150","z","elianto","#3366ff99","-1"," ","0","0","[1513]","1","2","","","3985","90","5","2","win","no-go","0"
"pit-trial","209","1235212","0.0-95.0","battery-v0.2","","""event"",""trial"",""time""
""focus"",""0"",""1""
""fullscreenenter"",""1"",""2238""
","
","""event"",""trial"",""time""
""focus"",""0"",""1""
","""event"",""trial"",""time""
""fullscreenenter"",""1"",""2238""
","
","","","928","","","16","3985","150","h","elianto","#f73b6a7A"," "," ","1","0","[1794]","1","2","","","3985","91","6","3","lose","go","0"
"pit-trial","210","1240102","0.0-96.0","battery-v0.2","","""event"",""trial"",""time""
""focus"",""0"",""1""
""fullscreenenter"",""1"",""2238""
","
","""event"",""trial"",""time""
""focus"",""0"",""1""
","""event"",""trial"",""time""
""fullscreenenter"",""1"",""2238""
","
","","","-1","","","16","3985","150","y","elianto","#f73b6a7A","-1","-1","1","0","[]","0","2","","","3985","92","7","4","lose","no-go","0"
"pit-trial","211","1243852","0.0-97.0","battery-v0.2","","""event"",""trial"",""time""
""focus"",""0"",""1""
""fullscreenenter"",""1"",""2238""
","
","""event"",""trial"",""time""
""focus"",""0"",""1""
","""event"",""trial"",""time""
""fullscreenenter"",""1"",""2238""
","
","","","884","","","16","3985","150","h","elianto","#f73b6a7A"," "," ","1","0","[1742]","1","2","","","3985","93","6","3","lose","go","0"
"pit-trial","212","1248721","0.0-98.0","battery-v0.2","","""event"",""trial"",""time""
""focus"",""0"",""1""
""fullscreenenter"",""1"",""2238""
","
","""event"",""trial"",""time""
""focus"",""0"",""1""
","""event"",""trial"",""time""
""fullscreenenter"",""1"",""2238""
","
","","","-1","","","16","3985","150","y","elianto","#f73b6a7A","-1","-1","1","0","[]","0","2","","","3985","94","7","4","lose","no-go","0"
"pit-trial","213","1253592","0.0-99.0","battery-v0.2","","""event"",""trial"",""time""
""focus"",""0"",""1""
""fullscreenenter"",""1"",""2238""
","
","""event"",""trial"",""time""
""focus"",""0"",""1""
","""event"",""trial"",""time""
""fullscreenenter"",""1"",""2238""
","
","","","-1","","","16","3985","150","r","elianto","#3366ff99"," ","-1","0","0","[]","0","2","","","3985","95","8","1","win","go","0"
"pit-trial","214","1258482","0.0-100.0","battery-v0.2","","""event"",""trial"",""time""
""focus"",""0"",""1""
""fullscreenenter"",""1"",""2238""
","
","""event"",""trial"",""time""
""focus"",""0"",""1""
","""event"",""trial"",""time""
""fullscreenenter"",""1"",""2238""
","
","","","-1","","","16","3985","150","z","elianto","#3366ff99","-1","-1","1","+10","[]","0","2","","","3985","96","5","2","win","no-go","0"
"pit-trial","215","1263352","0.0-101.0","battery-v0.2","","""event"",""trial"",""time""
""focus"",""0"",""1""
""fullscreenenter"",""1"",""2238""
","
","""event"",""trial"",""time""
""focus"",""0"",""1""
","""event"",""trial"",""time""
""fullscreenenter"",""1"",""2238""
","
","","","-1","","","16","3985","150","z","elianto","#3366ff99","-1","-1","1","+10","[]","0","2","","","3985","97","5","2","win","no-go","0"
"pit-trial","216","1268222","0.0-102.0","battery-v0.2","","""event"",""trial"",""time""
""focus"",""0"",""1""
""fullscreenenter"",""1"",""2238""
","
","""event"",""trial"",""time""
""focus"",""0"",""1""
","""event"",""trial"",""time""
""fullscreenenter"",""1"",""2238""
","
","","","-1","","","16","3985","150","y","elianto","#f73b6a7A","-1","-1","1","-10","[]","0","2","","","3985","98","7","4","lose","no-go","1"
"pit-trial","217","1271892","0.0-103.0","battery-v0.2","","""event"",""trial"",""time""
""focus"",""0"",""1""
""fullscreenenter"",""1"",""2238""
","
","""event"",""trial"",""time""
""focus"",""0"",""1""
","""event"",""trial"",""time""
""fullscreenenter"",""1"",""2238""
","
","","","802","","","16","3985","150","h","elianto","#f73b6a7A"," "," ","1","0","[1659]","1","2","","","3985","99","6","3","lose","go","0"
"pit-trial","218","1275412","0.0-104.0","battery-v0.2","","""event"",""trial"",""time""
""focus"",""0"",""1""
""fullscreenenter"",""1"",""2238""
","
","""event"",""trial"",""time""
""focus"",""0"",""1""
","""event"",""trial"",""time""
""fullscreenenter"",""1"",""2238""
","
","","","663","","","16","3985","150","r","elianto","#3366ff99"," "," ","1","+10","[1518]","1","2","","","3985","100","8","1","win","go","0"
"pit-trial","219","1280302","0.0-105.0","battery-v0.2","","""event"",""trial"",""time""
""focus"",""0"",""1""
""fullscreenenter"",""1"",""2238""
","
","""event"",""trial"",""time""
""focus"",""0"",""1""
","""event"",""trial"",""time""
""fullscreenenter"",""1"",""2238""
","
","","","-1","","","16","3985","150","z","elianto","#3366ff99","-1","-1","1","+10","[]","0","2","","","3985","101","5","2","win","no-go","0"
"pit-trial","220","1284172","0.0-106.0","battery-v0.2","","""event"",""trial"",""time""
""focus"",""0"",""1""
""fullscreenenter"",""1"",""2238""
","
","""event"",""trial"",""time""
""focus"",""0"",""1""
","""event"",""trial"",""time""
""fullscreenenter"",""1"",""2238""
","
","","","990","","","16","3985","150","m","elianto","#3366ff99"," "," ","1","+10","[1847]","1","2","","","3985","102","9","1","win","go","0"
"pit-trial","221","1287941","0.0-107.0","battery-v0.2","","""event"",""trial"",""time""
""focus"",""0"",""1""
""fullscreenenter"",""1"",""2238""
","
","""event"",""trial"",""time""
""focus"",""0"",""1""
","""event"",""trial"",""time""
""fullscreenenter"",""1"",""2238""
","
","","","884","","","16","3985","150","r","elianto","#3366ff99"," "," ","1","+10","[1750]","1","2","","","3985","103","8","1","win","go","0"
"pit-trial","222","1292822","0.0-108.0","battery-v0.2","","""event"",""trial"",""time""
""focus"",""0"",""1""
""fullscreenenter"",""1"",""2238""
","
","""event"",""trial"",""time""
""focus"",""0"",""1""
","""event"",""trial"",""time""
""fullscreenenter"",""1"",""2238""
","
","","","-1","","","16","3985","150","y","elianto","#f73b6a7A","-1","-1","1","-10","[]","0","2","","","3985","104","7","4","lose","no-go","1"
"pit-trial","223","1296691","0.0-109.0","battery-v0.2","","""event"",""trial"",""time""
""focus"",""0"",""1""
""fullscreenenter"",""1"",""2238""
","
","""event"",""trial"",""time""
""focus"",""0"",""1""
","""event"",""trial"",""time""
""fullscreenenter"",""1"",""2238""
","
","","","987","","","16","3985","150","r","elianto","#3366ff99"," "," ","1","+10","[1854]","1","2","","","3985","105","8","1","win","go","0"
"pit-trial","224","1300241","0.0-110.0","battery-v0.2","","""event"",""trial"",""time""
""focus"",""0"",""1""
""fullscreenenter"",""1"",""2238""
","
","""event"",""trial"",""time""
""focus"",""0"",""1""
","""event"",""trial"",""time""
""fullscreenenter"",""1"",""2238""
","
","","","677","","","16","3985","150","m","elianto","#3366ff99"," "," ","1","+10","[1543]","1","2","","","3985","106","9","1","win","go","0"
"pit-trial","225","1303771","0.0-111.0","battery-v0.2","","""event"",""trial"",""time""
""focus"",""0"",""1""
""fullscreenenter"",""1"",""2238""
","
","""event"",""trial"",""time""
""focus"",""0"",""1""
","""event"",""trial"",""time""
""fullscreenenter"",""1"",""2238""
","
","","","656","","","16","3985","150","c","elianto","#3366ff99"," "," ","1","+10","[1515]","1","2","","","3985","107","4","1","win","go","0"
"pit-trial","226","1307362","0.0-112.0","battery-v0.2","","""event"",""trial"",""time""
""focus"",""0"",""1""
""fullscreenenter"",""1"",""2238""
","
","""event"",""trial"",""time""
""focus"",""0"",""1""
","""event"",""trial"",""time""
""fullscreenenter"",""1"",""2238""
","
","","","717","","","16","3985","150","h","elianto","#f73b6a7A"," "," ","1","0","[1574]","1","2","","","3985","108","6","3","lose","go","0"
"pit-trial","227","1312232","0.0-113.0","battery-v0.2","","""event"",""trial"",""time""
""focus"",""0"",""1""
""fullscreenenter"",""1"",""2238""
","
","""event"",""trial"",""time""
""focus"",""0"",""1""
","""event"",""trial"",""time""
""fullscreenenter"",""1"",""2238""
","
","","","-1","","","16","3985","150","z","elianto","#3366ff99","-1","-1","1","+10","[]","0","2","","","3985","109","5","2","win","no-go","0"
"pit-trial","228","1316028","0.0-114.0","battery-v0.2","","""event"",""trial"",""time""
""focus"",""0"",""1""
""fullscreenenter"",""1"",""2238""
","
","""event"",""trial"",""time""
""focus"",""0"",""1""
","""event"",""trial"",""time""
""fullscreenenter"",""1"",""2238""
","
","","","924","","","16","3985","150","h","elianto","#f73b6a7A"," "," ","1","-10","[1781]","1","2","","","3985","110","6","3","lose","go","1"
"pit-trial","229","1319662","0.0-115.0","battery-v0.2","","""event"",""trial"",""time""
""focus"",""0"",""1""
""fullscreenenter"",""1"",""2238""
","
","""event"",""trial"",""time""
""focus"",""0"",""1""
","""event"",""trial"",""time""
""fullscreenenter"",""1"",""2238""
","
","","","761","","","16","3985","150","r","elianto","#3366ff99"," "," ","1","0","[1613]","1","2","","","3985","111","8","1","win","go","1"
"pit-trial","230","1323472","0.0-116.0","battery-v0.2","","""event"",""trial"",""time""
""focus"",""0"",""1""
""fullscreenenter"",""1"",""2238""
","
","""event"",""trial"",""time""
""focus"",""0"",""1""
","""event"",""trial"",""time""
""fullscreenenter"",""1"",""2238""
","
","","","945","","","16","3985","150","m","elianto","#3366ff99"," "," ","1","+10","[1801]","1","2","","","3985","112","9","1","win","go","0"
"pit-trial","231","1327047","0.0-117.0","battery-v0.2","","""event"",""trial"",""time""
""focus"",""0"",""1""
""fullscreenenter"",""1"",""2238""
","
","""event"",""trial"",""time""
