"trial_type","trial_index","time_elapsed","internal_node_id","task_version","subject_id","interactions","blur_events","focus_events","fullscreenenter_events","fullscreenexit_events","success","view_history","rt","responses","num_errors","age","subject","participantId","rune","rune_set","hex","correct","choice","accuracy","outcome","keys","total_keys","block","practice","value","sub","trial","stimulus","robot","valence","action","sham"
"pavlovia","0","7","0.0-0.0","battery-v0.2","","""event"",""trial"",""time""
""blur"",""1"",""3789""
""focus"",""1"",""3803""
""fullscreenenter"",""1"",""3813""
","""event"",""trial"",""time""
""blur"",""1"",""3789""
","""event"",""trial"",""time""
""focus"",""1"",""3803""
","""event"",""trial"",""time""
""fullscreenenter"",""1"",""3813""
","
","","","","","","","","","","","","","","","","","","","","","","","","","","",""
"fullscreen","1","4605","0.0-1.0","battery-v0.2","","""event"",""trial"",""time""
""blur"",""1"",""3789""
""focus"",""1"",""3803""
""fullscreenenter"",""1"",""3813""
","""event"",""trial"",""time""
""blur"",""1"",""3789""
","""event"",""trial"",""time""
""focus"",""1"",""3803""
","""event"",""trial"",""time""
""fullscreenenter"",""1"",""3813""
","
","true","","","","","","","","","","","","","","","","","","","","","","","","","",""
"pit-instructions","2","8113","0.0-2.0-0.0","battery-v0.2","","""event"",""trial"",""time""
""blur"",""1"",""3789""
""focus"",""1"",""3803""
""fullscreenenter"",""1"",""3813""
","""event"",""trial"",""time""
""blur"",""1"",""3789""
","""event"",""trial"",""time""
""focus"",""1"",""3803""
","""event"",""trial"",""time""
""fullscreenenter"",""1"",""3813""
","
","","[{""page_index"":0,""viewing_time"":3506}]","3506","","","","","","","","","","","","","","","","","","","","","","","",""
"pit-comprehension","3","12307","0.0-2.0-1.0-0.0","battery-v0.2","","""event"",""trial"",""time""
""blur"",""1"",""3789""
""focus"",""1"",""3803""
""fullscreenenter"",""1"",""3813""
","""event"",""trial"",""time""
""blur"",""1"",""3789""
","""event"",""trial"",""time""
""focus"",""1"",""3803""
","""event"",""trial"",""time""
""fullscreenenter"",""1"",""3813""
","
","","","4189","[""shark""]","0","24","10117","4742","","","","","","","","","","","","","","","","","","",""
"pit-instructions","4","13929","0.0-2.0-1.0-1.0","battery-v0.2","","""event"",""trial"",""time""
""blur"",""1"",""3789""
""focus"",""1"",""3803""
""fullscreenenter"",""1"",""3813""
","""event"",""trial"",""time""
""blur"",""1"",""3789""
","""event"",""trial"",""time""
""focus"",""1"",""3803""
","""event"",""trial"",""time""
""fullscreenenter"",""1"",""3813""
","
","","[{""page_index"":0,""viewing_time"":1617}]","1617","","","","","","","","","","","","","","","","","","","","","","","",""
"pit-comprehension","5","16860","0.0-2.0-2.0-0.0","battery-v0.2","","""event"",""trial"",""time""
""blur"",""1"",""3789""
""focus"",""1"",""3803""
""fullscreenenter"",""1"",""3813""
","""event"",""trial"",""time""
""blur"",""1"",""3789""
","""event"",""trial"",""time""
""focus"",""1"",""3803""
","""event"",""trial"",""time""
""fullscreenenter"",""1"",""3813""
","
","","","2929","[""tiger""]","0","24","10117","4742","","","","","","","","","","","","","","","","","","",""
"pit-instructions","6","18041","0.0-2.0-2.0-1.0","battery-v0.2","","""event"",""trial"",""time""
""blur"",""1"",""3789""
""focus"",""1"",""3803""
""fullscreenenter"",""1"",""3813""
""blur"",""7"",""33133""
""focus"",""7"",""33275""
","""event"",""trial"",""time""
""blur"",""1"",""3789""
""blur"",""7"",""33133""
","""event"",""trial"",""time""
""focus"",""1"",""3803""
""focus"",""7"",""33275""
","""event"",""trial"",""time""
""fullscreenenter"",""1"",""3813""
","
","","[{""page_index"":0,""viewing_time"":1178}]","1178","","","","","","","","","","","","","","","","","","","","","","","",""
"pit-instructions","7","143488","0.0-2.0-3.0","battery-v0.2","","""event"",""trial"",""time""
""blur"",""1"",""3789""
""focus"",""1"",""3803""
""fullscreenenter"",""1"",""3813""
""blur"",""7"",""33133""
""focus"",""7"",""33275""
","""event"",""trial"",""time""
""blur"",""1"",""3789""
""blur"",""7"",""33133""
","""event"",""trial"",""time""
""focus"",""1"",""3803""
""focus"",""7"",""33275""
","""event"",""trial"",""time""
""fullscreenenter"",""1"",""3813""
","
","","[{""page_index"":0,""viewing_time"":8589},{""page_index"":1,""viewing_time"":8376},{""page_index"":2,""viewing_time"":9616},{""page_index"":3,""viewing_time"":6344},{""page_index"":4,""viewing_time"":9152},{""page_index"":5,""viewing_time"":8735},{""page_index"":6,""viewing_time"":8593},{""page_index"":7,""viewing_time"":7009},{""page_index"":8,""viewing_time"":6551},{""page_index"":9,""viewing_time"":8543},{""page_index"":10,""viewing_time"":25443},{""page_index"":11,""viewing_time"":7492},{""page_index"":12,""viewing_time"":6066},{""page_index"":13,""viewing_time"":4933}]","125443","","","","","","","","","","","","","","","","","","","","","","","",""
"pit-trial","8","146943","0.0-2.0-4.0-0.0","battery-v0.2","","""event"",""trial"",""time""
""blur"",""1"",""3789""
""focus"",""1"",""3803""
""fullscreenenter"",""1"",""3813""
""blur"",""7"",""33133""
""focus"",""7"",""33275""
","""event"",""trial"",""time""
""blur"",""1"",""3789""
""blur"",""7"",""33133""
","""event"",""trial"",""time""
""focus"",""1"",""3803""
""focus"",""7"",""33275""
","""event"",""trial"",""time""
""fullscreenenter"",""1"",""3813""
","
","","","599","","","24","10117","4742","&#9784;","elianto","#FFFFF080"," "," ","1","&#10004","[1451]","1","0","0","","","","","","","",""
"pit-trial","9","150548","0.0-2.0-4.1-0.1","battery-v0.2","","""event"",""trial"",""time""
""blur"",""1"",""3789""
""focus"",""1"",""3803""
""fullscreenenter"",""1"",""3813""
""blur"",""7"",""33133""
""focus"",""7"",""33275""
","""event"",""trial"",""time""
""blur"",""1"",""3789""
""blur"",""7"",""33133""
","""event"",""trial"",""time""
""focus"",""1"",""3803""
""focus"",""7"",""33275""
","""event"",""trial"",""time""
""fullscreenenter"",""1"",""3813""
","
","","","747","","","24","10117","4742","&#9784;","elianto","#FFFFF080"," "," ","1","&#10004","[1601]","1","0","0","","","","","","","",""
"pit-trial","10","154031","0.0-2.0-4.2-0.2","battery-v0.2","","""event"",""trial"",""time""
""blur"",""1"",""3789""
""focus"",""1"",""3803""
""fullscreenenter"",""1"",""3813""
""blur"",""7"",""33133""
""focus"",""7"",""33275""
","""event"",""trial"",""time""
""blur"",""1"",""3789""
""blur"",""7"",""33133""
","""event"",""trial"",""time""
""focus"",""1"",""3803""
""focus"",""7"",""33275""
","""event"",""trial"",""time""
""fullscreenenter"",""1"",""3813""
","
","","","628","","","24","10117","4742","&#9784;","elianto","#FFFFF080"," "," ","1","&#10004","[1479]","1","0","0","","","","","","","",""
"pit-trial","11","157827","0.0-2.0-4.3-0.3","battery-v0.2","","""event"",""trial"",""time""
""blur"",""1"",""3789""
""focus"",""1"",""3803""
""fullscreenenter"",""1"",""3813""
""blur"",""7"",""33133""
""focus"",""7"",""33275""
","""event"",""trial"",""time""
""blur"",""1"",""3789""
""blur"",""7"",""33133""
","""event"",""trial"",""time""
""focus"",""1"",""3803""
""focus"",""7"",""33275""
","""event"",""trial"",""time""
""fullscreenenter"",""1"",""3813""
","
","","","935","","","24","10117","4742","&#9784;","elianto","#FFFFF080"," "," ","1","&#10004","[1788]","1","0","0","","","","","","","",""
"pit-trial","12","161395","0.0-2.0-4.4-0.4","battery-v0.2","","""event"",""trial"",""time""
""blur"",""1"",""3789""
""focus"",""1"",""3803""
""fullscreenenter"",""1"",""3813""
""blur"",""7"",""33133""
""focus"",""7"",""33275""
","""event"",""trial"",""time""
""blur"",""1"",""3789""
""blur"",""7"",""33133""
","""event"",""trial"",""time""
""focus"",""1"",""3803""
""focus"",""7"",""33275""
","""event"",""trial"",""time""
""fullscreenenter"",""1"",""3813""
","
","","","713","","","24","10117","4742","&#9784;","elianto","#FFFFF080"," "," ","1","&#10004","[1563]","1","0","0","","","","","","","",""
"pit-instructions","13","182888","0.0-2.0-5.0","battery-v0.2","","""event"",""trial"",""time""
""blur"",""1"",""3789""
""focus"",""1"",""3803""
""fullscreenenter"",""1"",""3813""
""blur"",""7"",""33133""
""focus"",""7"",""33275""
","""event"",""trial"",""time""
""blur"",""1"",""3789""
""blur"",""7"",""33133""
","""event"",""trial"",""time""
""focus"",""1"",""3803""
""focus"",""7"",""33275""
","""event"",""trial"",""time""
""fullscreenenter"",""1"",""3813""
","
","","[{""page_index"":0,""viewing_time"":4091},{""page_index"":1,""viewing_time"":6800},{""page_index"":2,""viewing_time"":5334},{""page_index"":3,""viewing_time"":5266}]","21491","","","","","","","","","","","","","","","","","","","","","","","",""
"pit-trial","14","187744","0.0-2.0-6.0-0.0","battery-v0.2","","""event"",""trial"",""time""
""blur"",""1"",""3789""
""focus"",""1"",""3803""
""fullscreenenter"",""1"",""3813""
""blur"",""7"",""33133""
""focus"",""7"",""33275""
","""event"",""trial"",""time""
""blur"",""1"",""3789""
""blur"",""7"",""33133""
","""event"",""trial"",""time""
""focus"",""1"",""3803""
""focus"",""7"",""33275""
","""event"",""trial"",""time""
""fullscreenenter"",""1"",""3813""
","
","","","-1","","","24","10117","4742","&#9854;","elianto","#FFFFF080","-1","-1","1","&#10004","[]","0","0","1","","","","","","","",""
"pit-trial","15","192602","0.0-2.0-6.1-0.1","battery-v0.2","","""event"",""trial"",""time""
""blur"",""1"",""3789""
""focus"",""1"",""3803""
""fullscreenenter"",""1"",""3813""
""blur"",""7"",""33133""
""focus"",""7"",""33275""
","""event"",""trial"",""time""
""blur"",""1"",""3789""
""blur"",""7"",""33133""
","""event"",""trial"",""time""
""focus"",""1"",""3803""
""focus"",""7"",""33275""
","""event"",""trial"",""time""
""fullscreenenter"",""1"",""3813""
","
","","","-1","","","24","10117","4742","&#9854;","elianto","#FFFFF080","-1","-1","1","&#10004","[]","0","0","1","","","","","","","",""
"pit-trial","16","197463","0.0-2.0-6.2-0.2","battery-v0.2","","""event"",""trial"",""time""
""blur"",""1"",""3789""
""focus"",""1"",""3803""
""fullscreenenter"",""1"",""3813""
""blur"",""7"",""33133""
""focus"",""7"",""33275""
","""event"",""trial"",""time""
""blur"",""1"",""3789""
""blur"",""7"",""33133""
","""event"",""trial"",""time""
""focus"",""1"",""3803""
""focus"",""7"",""33275""
","""event"",""trial"",""time""
""fullscreenenter"",""1"",""3813""
","
","","","-1","","","24","10117","4742","&#9854;","elianto","#FFFFF080","-1","-1","1","&#10004","[]","0","0","1","","","","","","","",""
"pit-trial","17","202325","0.0-2.0-6.3-0.3","battery-v0.2","","""event"",""trial"",""time""
""blur"",""1"",""3789""
""focus"",""1"",""3803""
""fullscreenenter"",""1"",""3813""
""blur"",""7"",""33133""
""focus"",""7"",""33275""
","""event"",""trial"",""time""
""blur"",""1"",""3789""
""blur"",""7"",""33133""
","""event"",""trial"",""time""
""focus"",""1"",""3803""
""focus"",""7"",""33275""
","""event"",""trial"",""time""
""fullscreenenter"",""1"",""3813""
","
","","","-1","","","24","10117","4742","&#9854;","elianto","#FFFFF080","-1","-1","1","&#10004","[]","0","0","1","","","","","","","",""
"pit-trial","18","207178","0.0-2.0-6.4-0.4","battery-v0.2","","""event"",""trial"",""time""
""blur"",""1"",""3789""
""focus"",""1"",""3803""
""fullscreenenter"",""1"",""3813""
""blur"",""7"",""33133""
""focus"",""7"",""33275""
","""event"",""trial"",""time""
""blur"",""1"",""3789""
""blur"",""7"",""33133""
","""event"",""trial"",""time""
""focus"",""1"",""3803""
""focus"",""7"",""33275""
","""event"",""trial"",""time""
""fullscreenenter"",""1"",""3813""
","
","","","-1","","","24","10117","4742","&#9854;","elianto","#FFFFF080","-1","-1","1","&#10004","[]","0","0","1","","","","","","","",""
"pit-instructions","19","323294","0.0-2.0-7.0","battery-v0.2","","""event"",""trial"",""time""
""blur"",""1"",""3789""
""focus"",""1"",""3803""
""fullscreenenter"",""1"",""3813""
""blur"",""7"",""33133""
""focus"",""7"",""33275""
","""event"",""trial"",""time""
""blur"",""1"",""3789""
""blur"",""7"",""33133""
","""event"",""trial"",""time""
""focus"",""1"",""3803""
""focus"",""7"",""33275""
","""event"",""trial"",""time""
""fullscreenenter"",""1"",""3813""
","
","","[{""page_index"":0,""viewing_time"":5476},{""page_index"":1,""viewing_time"":6367},{""page_index"":2,""viewing_time"":6533},{""page_index"":3,""viewing_time"":6067},{""page_index"":4,""viewing_time"":5166},{""page_index"":5,""viewing_time"":5501},{""page_index"":6,""viewing_time"":4999},{""page_index"":7,""viewing_time"":8169},{""page_index"":8,""viewing_time"":6533},{""page_index"":9,""viewing_time"":5899},{""page_index"":10,""viewing_time"":6435},{""page_index"":11,""viewing_time"":5066},{""page_index"":12,""viewing_time"":6967},{""page_index"":13,""viewing_time"":6734},{""page_index"":14,""viewing_time"":7066},{""page_index"":15,""viewing_time"":6801},{""page_index"":16,""viewing_time"":8067},{""page_index"":17,""viewing_time"":8266}]","116112","","","","","","","","","","","","","","","","","","","","","","","",""
"pit-trial","20","328151","0.0-2.0-8.0-0.0","battery-v0.2","","""event"",""trial"",""time""
""blur"",""1"",""3789""
""focus"",""1"",""3803""
""fullscreenenter"",""1"",""3813""
""blur"",""7"",""33133""
""focus"",""7"",""33275""
","""event"",""trial"",""time""
""blur"",""1"",""3789""
""blur"",""7"",""33133""
","""event"",""trial"",""time""
""focus"",""1"",""3803""
""focus"",""7"",""33275""
","""event"",""trial"",""time""
""fullscreenenter"",""1"",""3813""
","
","","","-1","","","24","10117","4742","&#9776;","elianto","#3366ff99"," ","-1","0","0","[]","0","0","1","","","","","","","",""
"pit-trial","21","333012","0.0-2.0-8.0-1.0","battery-v0.2","","""event"",""trial"",""time""
""blur"",""1"",""3789""
""focus"",""1"",""3803""
""fullscreenenter"",""1"",""3813""
""blur"",""7"",""33133""
""focus"",""7"",""33275""
","""event"",""trial"",""time""
""blur"",""1"",""3789""
""blur"",""7"",""33133""
","""event"",""trial"",""time""
""focus"",""1"",""3803""
""focus"",""7"",""33275""
","""event"",""trial"",""time""
""fullscreenenter"",""1"",""3813""
","
","","","-1","","","24","10117","4742","&#9776;","elianto","#3366ff99"," ","-1","0","0","[]","0","0","1","","","","","","","",""
"pit-trial","22","336944","0.0-2.0-8.0-2.0","battery-v0.2","","""event"",""trial"",""time""
""blur"",""1"",""3789""
""focus"",""1"",""3803""
""fullscreenenter"",""1"",""3813""
""blur"",""7"",""33133""
""focus"",""7"",""33275""
","""event"",""trial"",""time""
""blur"",""1"",""3789""
""blur"",""7"",""33133""
","""event"",""trial"",""time""
""focus"",""1"",""3803""
""focus"",""7"",""33275""
","""event"",""trial"",""time""
""fullscreenenter"",""1"",""3813""
","
","","","1074","","","24","10117","4742","&#9776;","elianto","#3366ff99"," "," ","1","+10","[1927]","1","0","1","","","","","","","",""
"pit-trial","23","340580","0.0-2.0-8.0-3.0","battery-v0.2","","""event"",""trial"",""time""
""blur"",""1"",""3789""
""focus"",""1"",""3803""
""fullscreenenter"",""1"",""3813""
""blur"",""7"",""33133""
""focus"",""7"",""33275""
","""event"",""trial"",""time""
""blur"",""1"",""3789""
""blur"",""7"",""33133""
","""event"",""trial"",""time""
""focus"",""1"",""3803""
""focus"",""7"",""33275""
","""event"",""trial"",""time""
""fullscreenenter"",""1"",""3813""
","
","","","779","","","24","10117","4742","&#9776;","elianto","#3366ff99"," "," ","1","0","[1634]","1","0","1","","","","","","","",""
"pit-trial","24","344007","0.0-2.0-8.0-4.0","battery-v0.2","","""event"",""trial"",""time""
""blur"",""1"",""3789""
""focus"",""1"",""3803""
""fullscreenenter"",""1"",""3813""
""blur"",""7"",""33133""
""focus"",""7"",""33275""
","""event"",""trial"",""time""
""blur"",""1"",""3789""
""blur"",""7"",""33133""
","""event"",""trial"",""time""
""focus"",""1"",""3803""
""focus"",""7"",""33275""
","""event"",""trial"",""time""
""fullscreenenter"",""1"",""3813""
","
","","","571","","","24","10117","4742","&#9776;","elianto","#3366ff99"," "," ","1","+10","[1424]","1","0","1","","","","","","","",""
"pit-trial","25","347478","0.0-2.0-8.1-0.1","battery-v0.2","","""event"",""trial"",""time""
""blur"",""1"",""3789""
""focus"",""1"",""3803""
""fullscreenenter"",""1"",""3813""
""blur"",""7"",""33133""
""focus"",""7"",""33275""
","""event"",""trial"",""time""
""blur"",""1"",""3789""
""blur"",""7"",""33133""
","""event"",""trial"",""time""
""focus"",""1"",""3803""
""focus"",""7"",""33275""
","""event"",""trial"",""time""
""fullscreenenter"",""1"",""3813""
","
","","","615","","","24","10117","4742","&#9776;","elianto","#3366ff99"," "," ","1","+10","[1466]","1","0","1","","","","","","","",""
"pit-trial","26","351016","0.0-2.0-8.1-1.1","battery-v0.2","","""event"",""trial"",""time""
""blur"",""1"",""3789""
""focus"",""1"",""3803""
""fullscreenenter"",""1"",""3813""
""blur"",""7"",""33133""
""focus"",""7"",""33275""
","""event"",""trial"",""time""
""blur"",""1"",""3789""
""blur"",""7"",""33133""
","""event"",""trial"",""time""
""focus"",""1"",""3803""
""focus"",""7"",""33275""
","""event"",""trial"",""time""
""fullscreenenter"",""1"",""3813""
","
","","","678","","","24","10117","4742","&#9776;","elianto","#3366ff99"," "," ","1","+10","[1532]","1","0","1","","","","","","","",""
"pit-trial","27","354445","0.0-2.0-8.1-2.1","battery-v0.2","","""event"",""trial"",""time""
""blur"",""1"",""3789""
""focus"",""1"",""3803""
""fullscreenenter"",""1"",""3813""
""blur"",""7"",""33133""
""focus"",""7"",""33275""
","""event"",""trial"",""time""
""blur"",""1"",""3789""
""blur"",""7"",""33133""
","""event"",""trial"",""time""
""focus"",""1"",""3803""
""focus"",""7"",""33275""
","""event"",""trial"",""time""
""fullscreenenter"",""1"",""3813""
","
","","","574","","","24","10117","4742","&#9776;","elianto","#3366ff99"," "," ","1","+10","[1424]","1","0","1","","","","","","","",""
"pit-trial","28","357878","0.0-2.0-8.1-3.1","battery-v0.2","","""event"",""trial"",""time""
""blur"",""1"",""3789""
""focus"",""1"",""3803""
""fullscreenenter"",""1"",""3813""
""blur"",""7"",""33133""
""focus"",""7"",""33275""
","""event"",""trial"",""time""
""blur"",""1"",""3789""
""blur"",""7"",""33133""
","""event"",""trial"",""time""
""focus"",""1"",""3803""
""focus"",""7"",""33275""
","""event"",""trial"",""time""
""fullscreenenter"",""1"",""3813""
","
","","","573","","","24","10117","4742","&#9776;","elianto","#3366ff99"," "," ","1","0","[1426]","1","0","1","","","","","","","",""
"pit-trial","29","361154","0.0-2.0-8.1-4.1","battery-v0.2","","""event"",""trial"",""time""
""blur"",""1"",""3789""
""focus"",""1"",""3803""
""fullscreenenter"",""1"",""3813""
""blur"",""7"",""33133""
""focus"",""7"",""33275""
","""event"",""trial"",""time""
""blur"",""1"",""3789""
""blur"",""7"",""33133""
","""event"",""trial"",""time""
""focus"",""1"",""3803""
""focus"",""7"",""33275""
","""event"",""trial"",""time""
""fullscreenenter"",""1"",""3813""
","
","","","420","","","24","10117","4742","&#9776;","elianto","#3366ff99"," "," ","1","+10","[1275]","1","0","1","","","","","","","",""
"pit-trial","30","364522","0.0-2.0-8.2-0.2","battery-v0.2","","""event"",""trial"",""time""
""blur"",""1"",""3789""
""focus"",""1"",""3803""
""fullscreenenter"",""1"",""3813""
""blur"",""7"",""33133""
""focus"",""7"",""33275""
","""event"",""trial"",""time""
""blur"",""1"",""3789""
""blur"",""7"",""33133""
","""event"",""trial"",""time""
""focus"",""1"",""3803""
""focus"",""7"",""33275""
","""event"",""trial"",""time""
""fullscreenenter"",""1"",""3813""
","
","","","511","","","24","10117","4742","&#9776;","elianto","#3366ff99"," "," ","1","+10","[1366]","1","0","1","","","","","","","",""
"pit-trial","31","367960","0.0-2.0-8.2-1.2","battery-v0.2","","""event"",""trial"",""time""
""blur"",""1"",""3789""
""focus"",""1"",""3803""
""fullscreenenter"",""1"",""3813""
""blur"",""7"",""33133""
""focus"",""7"",""33275""
","""event"",""trial"",""time""
""blur"",""1"",""3789""
""blur"",""7"",""33133""
","""event"",""trial"",""time""
""focus"",""1"",""3803""
""focus"",""7"",""33275""
","""event"",""trial"",""time""
""fullscreenenter"",""1"",""3813""
","
","","","578","","","24","10117","4742","&#9776;","elianto","#3366ff99"," "," ","1","+10","[1433]","1","0","1","","","","","","","",""
"pit-trial","32","371243","0.0-2.0-8.2-2.2","battery-v0.2","","""event"",""trial"",""time""
""blur"",""1"",""3789""
""focus"",""1"",""3803""
""fullscreenenter"",""1"",""3813""
""blur"",""7"",""33133""
""focus"",""7"",""33275""
","""event"",""trial"",""time""
""blur"",""1"",""3789""
""blur"",""7"",""33133""
","""event"",""trial"",""time""
""focus"",""1"",""3803""
""focus"",""7"",""33275""
","""event"",""trial"",""time""
""fullscreenenter"",""1"",""3813""
","
","","","421","","","24","10117","4742","&#9776;","elianto","#3366ff99"," "," ","1","+10","[1277]","1","0","1","","","","","","","",""
"pit-trial","33","374345","0.0-2.0-8.2-3.2","battery-v0.2","","""event"",""trial"",""time""
""blur"",""1"",""3789""
""focus"",""1"",""3803""
""fullscreenenter"",""1"",""3813""
""blur"",""7"",""33133""
""focus"",""7"",""33275""
","""event"",""trial"",""time""
""blur"",""1"",""3789""
""blur"",""7"",""33133""
","""event"",""trial"",""time""
""focus"",""1"",""3803""
""focus"",""7"",""33275""
","""event"",""trial"",""time""
""fullscreenenter"",""1"",""3813""
","
","","","245","","","24","10117","4742","&#9776;","elianto","#3366ff99"," "," ","1","0","[1098]","1","0","1","","","","","","","",""
"pit-trial","34","377719","0.0-2.0-8.2-4.2","battery-v0.2","","""event"",""trial"",""time""
""blur"",""1"",""3789""
""focus"",""1"",""3803""
""fullscreenenter"",""1"",""3813""
""blur"",""7"",""33133""
""focus"",""7"",""33275""
","""event"",""trial"",""time""
""blur"",""1"",""3789""
""blur"",""7"",""33133""
","""event"",""trial"",""time""
""focus"",""1"",""3803""
""focus"",""7"",""33275""
","""event"",""trial"",""time""
""fullscreenenter"",""1"",""3813""
","
","","","515","","","24","10117","4742","&#9776;","elianto","#3366ff99"," "," ","1","+10","[1370]","1","0","1","","","","","","","",""
"call-function","35","377721","0.0-2.0-9.0","battery-v0.2","","""event"",""trial"",""time""
""blur"",""1"",""3789""
""focus"",""1"",""3803""
""fullscreenenter"",""1"",""3813""
""blur"",""7"",""33133""
""focus"",""7"",""33275""
","""event"",""trial"",""time""
""blur"",""1"",""3789""
""blur"",""7"",""33133""
","""event"",""trial"",""time""
""focus"",""1"",""3803""
""focus"",""7"",""33275""
","""event"",""trial"",""time""
""fullscreenenter"",""1"",""3813""
","
","","","","","","","","","","","","","","","","","","","","","","","","","","",""
"pit-instructions","36","416796","0.0-2.0-10.0","battery-v0.2","","""event"",""trial"",""time""
""blur"",""1"",""3789""
""focus"",""1"",""3803""
""fullscreenenter"",""1"",""3813""
""blur"",""7"",""33133""
""focus"",""7"",""33275""
","""event"",""trial"",""time""
""blur"",""1"",""3789""
""blur"",""7"",""33133""
","""event"",""trial"",""time""
""focus"",""1"",""3803""
""focus"",""7"",""33275""
","""event"",""trial"",""time""
""fullscreenenter"",""1"",""3813""
","
","","[{""page_index"":0,""viewing_time"":5941},{""page_index"":1,""viewing_time"":6800},{""page_index"":2,""viewing_time"":10300},{""page_index"":3,""viewing_time"":8467},{""page_index"":4,""viewing_time"":7566}]","39075","","","","","","","","","","","","","","","","","","","","","","","",""
"pit-trial","37","421657","0.0-2.0-11.0-0.0","battery-v0.2","","""event"",""trial"",""time""
""blur"",""1"",""3789""
""focus"",""1"",""3803""
""fullscreenenter"",""1"",""3813""
""blur"",""7"",""33133""
""focus"",""7"",""33275""
","""event"",""trial"",""time""
""blur"",""1"",""3789""
""blur"",""7"",""33133""
","""event"",""trial"",""time""
""focus"",""1"",""3803""
""focus"",""7"",""33275""
","""event"",""trial"",""time""
""fullscreenenter"",""1"",""3813""
","
","","","-1","","","24","10117","4742","&#9761;","elianto","#3366ff99","-1","-1","1","+10","[]","0","0","2","","","","","","","",""
"pit-trial","38","426517","0.0-2.0-11.0-1.0","battery-v0.2","","""event"",""trial"",""time""
""blur"",""1"",""3789""
""focus"",""1"",""3803""
""fullscreenenter"",""1"",""3813""
""blur"",""7"",""33133""
""focus"",""7"",""33275""
","""event"",""trial"",""time""
""blur"",""1"",""3789""
""blur"",""7"",""33133""
","""event"",""trial"",""time""
""focus"",""1"",""3803""
""focus"",""7"",""33275""
","""event"",""trial"",""time""
""fullscreenenter"",""1"",""3813""
","
","","","-1","","","24","10117","4742","&#9761;","elianto","#3366ff99","-1","-1","1","+10","[]","0","0","2","","","","","","","",""
"pit-trial","39","431428","0.0-2.0-11.0-2.0","battery-v0.2","","""event"",""trial"",""time""
""blur"",""1"",""3789""
""focus"",""1"",""3803""
""fullscreenenter"",""1"",""3813""
""blur"",""7"",""33133""
""focus"",""7"",""33275""
","""event"",""trial"",""time""
""blur"",""1"",""3789""
""blur"",""7"",""33133""
","""event"",""trial"",""time""
""focus"",""1"",""3803""
""focus"",""7"",""33275""
","""event"",""trial"",""time""
""fullscreenenter"",""1"",""3813""
","
","","","-1","","","24","10117","4742","&#9761;","elianto","#3366ff99","-1","-1","1","+10","[]","0","0","2","","","","","","","",""
"pit-trial","40","436286","0.0-2.0-11.0-3.0","battery-v0.2","","""event"",""trial"",""time""
""blur"",""1"",""3789""
""focus"",""1"",""3803""
""fullscreenenter"",""1"",""3813""
""blur"",""7"",""33133""
""focus"",""7"",""33275""
","""event"",""trial"",""time""
""blur"",""1"",""3789""
""blur"",""7"",""33133""
","""event"",""trial"",""time""
""focus"",""1"",""3803""
""focus"",""7"",""33275""
","""event"",""trial"",""time""
""fullscreenenter"",""1"",""3813""
","
","","","-1","","","24","10117","4742","&#9761;","elianto","#3366ff99","-1","-1","1","0","[]","0","0","2","","","","","","","",""
"pit-trial","41","441145","0.0-2.0-11.0-4.0","battery-v0.2","","""event"",""trial"",""time""
""blur"",""1"",""3789""
""focus"",""1"",""3803""
""fullscreenenter"",""1"",""3813""
""blur"",""7"",""33133""
""focus"",""7"",""33275""
","""event"",""trial"",""time""
""blur"",""1"",""3789""
""blur"",""7"",""33133""
","""event"",""trial"",""time""
""focus"",""1"",""3803""
""focus"",""7"",""33275""
","""event"",""trial"",""time""
""fullscreenenter"",""1"",""3813""
","
","","","-1","","","24","10117","4742","&#9761;","elianto","#3366ff99","-1","-1","1","+10","[]","0","0","2","","","","","","","",""
"pit-trial","42","446003","0.0-2.0-11.1-0.1","battery-v0.2","","""event"",""trial"",""time""
""blur"",""1"",""3789""
""focus"",""1"",""3803""
""fullscreenenter"",""1"",""3813""
""blur"",""7"",""33133""
""focus"",""7"",""33275""
","""event"",""trial"",""time""
""blur"",""1"",""3789""
""blur"",""7"",""33133""
","""event"",""trial"",""time""
""focus"",""1"",""3803""
""focus"",""7"",""33275""
","""event"",""trial"",""time""
""fullscreenenter"",""1"",""3813""
","
","","","-1","","","24","10117","4742","&#9761;","elianto","#3366ff99","-1","-1","1","+10","[]","0","0","2","","","","","","","",""
"pit-trial","43","450862","0.0-2.0-11.1-1.1","battery-v0.2","","""event"",""trial"",""time""
""blur"",""1"",""3789""
""focus"",""1"",""3803""
""fullscreenenter"",""1"",""3813""
""blur"",""7"",""33133""
""focus"",""7"",""33275""
","""event"",""trial"",""time""
""blur"",""1"",""3789""
""blur"",""7"",""33133""
","""event"",""trial"",""time""
""focus"",""1"",""3803""
""focus"",""7"",""33275""
","""event"",""trial"",""time""
""fullscreenenter"",""1"",""3813""
","
","","","-1","","","24","10117","4742","&#9761;","elianto","#3366ff99","-1","-1","1","+10","[]","0","0","2","","","","","","","",""
"pit-trial","44","455720","0.0-2.0-11.1-2.1","battery-v0.2","","""event"",""trial"",""time""
""blur"",""1"",""3789""
""focus"",""1"",""3803""
""fullscreenenter"",""1"",""3813""
""blur"",""7"",""33133""
""focus"",""7"",""33275""
","""event"",""trial"",""time""
""blur"",""1"",""3789""
""blur"",""7"",""33133""
","""event"",""trial"",""time""
""focus"",""1"",""3803""
""focus"",""7"",""33275""
","""event"",""trial"",""time""
""fullscreenenter"",""1"",""3813""
","
","","","-1","","","24","10117","4742","&#9761;","elianto","#3366ff99","-1","-1","1","+10","[]","0","0","2","","","","","","","",""
"pit-trial","45","460575","0.0-2.0-11.1-3.1","battery-v0.2","","""event"",""trial"",""time""
""blur"",""1"",""3789""
""focus"",""1"",""3803""
""fullscreenenter"",""1"",""3813""
""blur"",""7"",""33133""
""focus"",""7"",""33275""
","""event"",""trial"",""time""
""blur"",""1"",""3789""
""blur"",""7"",""33133""
","""event"",""trial"",""time""
""focus"",""1"",""3803""
""focus"",""7"",""33275""
","""event"",""trial"",""time""
""fullscreenenter"",""1"",""3813""
","
","","","-1","","","24","10117","4742","&#9761;","elianto","#3366ff99","-1","-1","1","0","[]","0","0","2","","","","","","","",""
"pit-trial","46","465433","0.0-2.0-11.1-4.1","battery-v0.2","","""event"",""trial"",""time""
""blur"",""1"",""3789""
""focus"",""1"",""3803""
""fullscreenenter"",""1"",""3813""
""blur"",""7"",""33133""
""focus"",""7"",""33275""
","""event"",""trial"",""time""
""blur"",""1"",""3789""
""blur"",""7"",""33133""
","""event"",""trial"",""time""
""focus"",""1"",""3803""
""focus"",""7"",""33275""
","""event"",""trial"",""time""
""fullscreenenter"",""1"",""3813""
","
","","","-1","","","24","10117","4742","&#9761;","elianto","#3366ff99","-1","-1","1","+10","[]","0","0","2","","","","","","","",""
"pit-trial","47","470287","0.0-2.0-11.2-0.2","battery-v0.2","","""event"",""trial"",""time""
""blur"",""1"",""3789""
""focus"",""1"",""3803""
""fullscreenenter"",""1"",""3813""
""blur"",""7"",""33133""
""focus"",""7"",""33275""
","""event"",""trial"",""time""
""blur"",""1"",""3789""
""blur"",""7"",""33133""
","""event"",""trial"",""time""
""focus"",""1"",""3803""
""focus"",""7"",""33275""
","""event"",""trial"",""time""
""fullscreenenter"",""1"",""3813""
","
","","","-1","","","24","10117","4742","&#9761;","elianto","#3366ff99","-1","-1","1","+10","[]","0","0","2","","","","","","","",""
"pit-trial","48","475145","0.0-2.0-11.2-1.2","battery-v0.2","","""event"",""trial"",""time""
""blur"",""1"",""3789""
""focus"",""1"",""3803""
""fullscreenenter"",""1"",""3813""
""blur"",""7"",""33133""
""focus"",""7"",""33275""
","""event"",""trial"",""time""
""blur"",""1"",""3789""
""blur"",""7"",""33133""
","""event"",""trial"",""time""
""focus"",""1"",""3803""
""focus"",""7"",""33275""
","""event"",""trial"",""time""
""fullscreenenter"",""1"",""3813""
","
","","","-1","","","24","10117","4742","&#9761;","elianto","#3366ff99","-1","-1","1","+10","[]","0","0","2","","","","","","","",""
"pit-trial","49","480004","0.0-2.0-11.2-2.2","battery-v0.2","","""event"",""trial"",""time""
""blur"",""1"",""3789""
""focus"",""1"",""3803""
""fullscreenenter"",""1"",""3813""
""blur"",""7"",""33133""
""focus"",""7"",""33275""
","""event"",""trial"",""time""
""blur"",""1"",""3789""
""blur"",""7"",""33133""
","""event"",""trial"",""time""
""focus"",""1"",""3803""
""focus"",""7"",""33275""
","""event"",""trial"",""time""
""fullscreenenter"",""1"",""3813""
","
","","","-1","","","24","10117","4742","&#9761;","elianto","#3366ff99","-1","-1","1","+10","[]","0","0","2","","","","","","","",""
"pit-trial","50","484862","0.0-2.0-11.2-3.2","battery-v0.2","","""event"",""trial"",""time""
""blur"",""1"",""3789""
""focus"",""1"",""3803""
""fullscreenenter"",""1"",""3813""
""blur"",""7"",""33133""
""focus"",""7"",""33275""
","""event"",""trial"",""time""
""blur"",""1"",""3789""
""blur"",""7"",""33133""
","""event"",""trial"",""time""
""focus"",""1"",""3803""
""focus"",""7"",""33275""
","""event"",""trial"",""time""
""fullscreenenter"",""1"",""3813""
","
","","","-1","","","24","10117","4742","&#9761;","elianto","#3366ff99","-1","-1","1","0","[]","0","0","2","","","","","","","",""
"pit-trial","51","489721","0.0-2.0-11.2-4.2","battery-v0.2","","""event"",""trial"",""time""
""blur"",""1"",""3789""
""focus"",""1"",""3803""
""fullscreenenter"",""1"",""3813""
""blur"",""7"",""33133""
""focus"",""7"",""33275""
","""event"",""trial"",""time""
""blur"",""1"",""3789""
""blur"",""7"",""33133""
","""event"",""trial"",""time""
""focus"",""1"",""3803""
""focus"",""7"",""33275""
","""event"",""trial"",""time""
""fullscreenenter"",""1"",""3813""
","
","","","-1","","","24","10117","4742","&#9761;","elianto","#3366ff99","-1","-1","1","+10","[]","0","0","2","","","","","","","",""
"pit-trial","52","494579","0.0-2.0-11.3-0.3","battery-v0.2","","""event"",""trial"",""time""
""blur"",""1"",""3789""
""focus"",""1"",""3803""
""fullscreenenter"",""1"",""3813""
""blur"",""7"",""33133""
""focus"",""7"",""33275""
","""event"",""trial"",""time""
""blur"",""1"",""3789""
""blur"",""7"",""33133""
","""event"",""trial"",""time""
""focus"",""1"",""3803""
""focus"",""7"",""33275""
","""event"",""trial"",""time""
""fullscreenenter"",""1"",""3813""
","
","","","-1","","","24","10117","4742","&#9761;","elianto","#3366ff99","-1","-1","1","+10","[]","0","0","2","","","","","","","",""
"pit-trial","53","499438","0.0-2.0-11.3-1.3","battery-v0.2","","""event"",""trial"",""time""
""blur"",""1"",""3789""
""focus"",""1"",""3803""
""fullscreenenter"",""1"",""3813""
""blur"",""7"",""33133""
""focus"",""7"",""33275""
","""event"",""trial"",""time""
""blur"",""1"",""3789""
""blur"",""7"",""33133""
","""event"",""trial"",""time""
""focus"",""1"",""3803""
""focus"",""7"",""33275""
","""event"",""trial"",""time""
""fullscreenenter"",""1"",""3813""
","
","","","-1","","","24","10117","4742","&#9761;","elianto","#3366ff99","-1","-1","1","+10","[]","0","0","2","","","","","","","",""
"pit-trial","54","504295","0.0-2.0-11.3-2.3","battery-v0.2","","""event"",""trial"",""time""
""blur"",""1"",""3789""
""focus"",""1"",""3803""
""fullscreenenter"",""1"",""3813""
""blur"",""7"",""33133""
""focus"",""7"",""33275""
","""event"",""trial"",""time""
""blur"",""1"",""3789""
""blur"",""7"",""33133""
","""event"",""trial"",""time""
""focus"",""1"",""3803""
""focus"",""7"",""33275""
","""event"",""trial"",""time""
""fullscreenenter"",""1"",""3813""
","
","","","-1","","","24","10117","4742","&#9761;","elianto","#3366ff99","-1","-1","1","+10","[]","0","0","2","","","","","","","",""
"pit-trial","55","509156","0.0-2.0-11.3-3.3","battery-v0.2","","""event"",""trial"",""time""
""blur"",""1"",""3789""
""focus"",""1"",""3803""
""fullscreenenter"",""1"",""3813""
""blur"",""7"",""33133""
""focus"",""7"",""33275""
","""event"",""trial"",""time""
""blur"",""1"",""3789""
""blur"",""7"",""33133""
","""event"",""trial"",""time""
""focus"",""1"",""3803""
""focus"",""7"",""33275""
","""event"",""trial"",""time""
""fullscreenenter"",""1"",""3813""
","
","","","-1","","","24","10117","4742","&#9761;","elianto","#3366ff99","-1","-1","1","0","[]","0","0","2","","","","","","","",""
"pit-trial","56","514016","0.0-2.0-11.3-4.3","battery-v0.2","","""event"",""trial"",""time""
""blur"",""1"",""3789""
""focus"",""1"",""3803""
""fullscreenenter"",""1"",""3813""
""blur"",""7"",""33133""
""focus"",""7"",""33275""
","""event"",""trial"",""time""
""blur"",""1"",""3789""
""blur"",""7"",""33133""
","""event"",""trial"",""time""
""focus"",""1"",""3803""
""focus"",""7"",""33275""
","""event"",""trial"",""time""
""fullscreenenter"",""1"",""3813""
","
","","","-1","","","24","10117","4742","&#9761;","elianto","#3366ff99","-1","-1","1","+10","[]","0","0","2","","","","","","","",""
"call-function","57","514017","0.0-2.0-12.0","battery-v0.2","","""event"",""trial"",""time""
""blur"",""1"",""3789""
""focus"",""1"",""3803""
""fullscreenenter"",""1"",""3813""
""blur"",""7"",""33133""
""focus"",""7"",""33275""
","""event"",""trial"",""time""
""blur"",""1"",""3789""
""blur"",""7"",""33133""
","""event"",""trial"",""time""
""focus"",""1"",""3803""
""focus"",""7"",""33275""
","""event"",""trial"",""time""
""fullscreenenter"",""1"",""3813""
","
","","","","","","","","","","","","","","","","","","","","","","","","","","",""
"pit-instructions","58","671982","0.0-2.0-13.0","battery-v0.2","","""event"",""trial"",""time""
""blur"",""1"",""3789""
""focus"",""1"",""3803""
""fullscreenenter"",""1"",""3813""
""blur"",""7"",""33133""
""focus"",""7"",""33275""
","""event"",""trial"",""time""
""blur"",""1"",""3789""
""blur"",""7"",""33133""
","""event"",""trial"",""time""
""focus"",""1"",""3803""
""focus"",""7"",""33275""
","""event"",""trial"",""time""
""fullscreenenter"",""1"",""3813""
","
","","[{""page_index"":0,""viewing_time"":128986},{""page_index"":1,""viewing_time"":6905},{""page_index"":2,""viewing_time"":4791},{""page_index"":3,""viewing_time"":10482},{""page_index"":4,""viewing_time"":6800}]","157964","","","","","","","","","","","","","","","","","","","","","","","",""
"pit-trial","59","676845","0.0-2.0-14.0-0.0","battery-v0.2","","""event"",""trial"",""time""
""blur"",""1"",""3789""
""focus"",""1"",""3803""
""fullscreenenter"",""1"",""3813""
""blur"",""7"",""33133""
""focus"",""7"",""33275""
","""event"",""trial"",""time""
""blur"",""1"",""3789""
""blur"",""7"",""33133""
","""event"",""trial"",""time""
""focus"",""1"",""3803""
""focus"",""7"",""33275""
","""event"",""trial"",""time""
""fullscreenenter"",""1"",""3813""
","
","","","-1","","","24","10117","4742","&#9826;","elianto","#f73b6a7A","-1","-1","1","0","[]","0","0","3","","","","","","","",""
"pit-trial","60","681701","0.0-2.0-14.0-1.0","battery-v0.2","","""event"",""trial"",""time""
""blur"",""1"",""3789""
""focus"",""1"",""3803""
""fullscreenenter"",""1"",""3813""
""blur"",""7"",""33133""
""focus"",""7"",""33275""
","""event"",""trial"",""time""
""blur"",""1"",""3789""
""blur"",""7"",""33133""
","""event"",""trial"",""time""
""focus"",""1"",""3803""
""focus"",""7"",""33275""
","""event"",""trial"",""time""
""fullscreenenter"",""1"",""3813""
","
","","","-1","","","24","10117","4742","&#9826;","elianto","#f73b6a7A","-1","-1","1","0","[]","0","0","3","","","","","","","",""
"pit-trial","61","686562","0.0-2.0-14.0-2.0","battery-v0.2","","""event"",""trial"",""time""
""blur"",""1"",""3789""
""focus"",""1"",""3803""
""fullscreenenter"",""1"",""3813""
""blur"",""7"",""33133""
""focus"",""7"",""33275""
","""event"",""trial"",""time""
""blur"",""1"",""3789""
""blur"",""7"",""33133""
","""event"",""trial"",""time""
""focus"",""1"",""3803""
""focus"",""7"",""33275""
","""event"",""trial"",""time""
""fullscreenenter"",""1"",""3813""
","
","","","-1","","","24","10117","4742","&#9826;","elianto","#f73b6a7A","-1","-1","1","0","[]","0","0","3","","","","","","","",""
"pit-trial","62","691420","0.0-2.0-14.0-3.0","battery-v0.2","","""event"",""trial"",""time""
""blur"",""1"",""3789""
""focus"",""1"",""3803""
""fullscreenenter"",""1"",""3813""
""blur"",""7"",""33133""
""focus"",""7"",""33275""
","""event"",""trial"",""time""
""blur"",""1"",""3789""
""blur"",""7"",""33133""
","""event"",""trial"",""time""
""focus"",""1"",""3803""
""focus"",""7"",""33275""
","""event"",""trial"",""time""
""fullscreenenter"",""1"",""3813""
","
","","","-1","","","24","10117","4742","&#9826;","elianto","#f73b6a7A","-1","-1","1","-10","[]","0","0","3","","","","","","","",""
"pit-trial","63","696281","0.0-2.0-14.0-4.0","battery-v0.2","","""event"",""trial"",""time""
""blur"",""1"",""3789""
""focus"",""1"",""3803""
""fullscreenenter"",""1"",""3813""
""blur"",""7"",""33133""
""focus"",""7"",""33275""
","""event"",""trial"",""time""
""blur"",""1"",""3789""
""blur"",""7"",""33133""
","""event"",""trial"",""time""
""focus"",""1"",""3803""
""focus"",""7"",""33275""
","""event"",""trial"",""time""
""fullscreenenter"",""1"",""3813""
","
","","","-1","","","24","10117","4742","&#9826;","elianto","#f73b6a7A","-1","-1","1","0","[]","0","0","3","","","","","","","",""
"pit-trial","64","701138","0.0-2.0-14.1-0.1","battery-v0.2","","""event"",""trial"",""time""
""blur"",""1"",""3789""
""focus"",""1"",""3803""
""fullscreenenter"",""1"",""3813""
""blur"",""7"",""33133""
""focus"",""7"",""33275""
","""event"",""trial"",""time""
""blur"",""1"",""3789""
""blur"",""7"",""33133""
","""event"",""trial"",""time""
""focus"",""1"",""3803""
""focus"",""7"",""33275""
","""event"",""trial"",""time""
""fullscreenenter"",""1"",""3813""
","
","","","-1","","","24","10117","4742","&#9826;","elianto","#f73b6a7A","-1","-1","1","0","[]","0","0","3","","","","","","","",""
"pit-trial","65","705989","0.0-2.0-14.1-1.1","battery-v0.2","","""event"",""trial"",""time""
""blur"",""1"",""3789""
""focus"",""1"",""3803""
""fullscreenenter"",""1"",""3813""
""blur"",""7"",""33133""
""focus"",""7"",""33275""
","""event"",""trial"",""time""
""blur"",""1"",""3789""
""blur"",""7"",""33133""
","""event"",""trial"",""time""
""focus"",""1"",""3803""
""focus"",""7"",""33275""
","""event"",""trial"",""time""
""fullscreenenter"",""1"",""3813""
","
","","","-1","","","24","10117","4742","&#9826;","elianto","#f73b6a7A","-1","-1","1","0","[]","0","0","3","","","","","","","",""
"pit-trial","66","710847","0.0-2.0-14.1-2.1","battery-v0.2","","""event"",""trial"",""time""
""blur"",""1"",""3789""
""focus"",""1"",""3803""
""fullscreenenter"",""1"",""3813""
""blur"",""7"",""33133""
""focus"",""7"",""33275""
","""event"",""trial"",""time""
""blur"",""1"",""3789""
""blur"",""7"",""33133""
","""event"",""trial"",""time""
""focus"",""1"",""3803""
""focus"",""7"",""33275""
","""event"",""trial"",""time""
""fullscreenenter"",""1"",""3813""
","
","","","-1","","","24","10117","4742","&#9826;","elianto","#f73b6a7A","-1","-1","1","0","[]","0","0","3","","","","","","","",""
"pit-trial","67","715704","0.0-2.0-14.1-3.1","battery-v0.2","","""event"",""trial"",""time""
""blur"",""1"",""3789""
""focus"",""1"",""3803""
""fullscreenenter"",""1"",""3813""
""blur"",""7"",""33133""
""focus"",""7"",""33275""
","""event"",""trial"",""time""
""blur"",""1"",""3789""
""blur"",""7"",""33133""
","""event"",""trial"",""time""
""focus"",""1"",""3803""
""focus"",""7"",""33275""
","""event"",""trial"",""time""
""fullscreenenter"",""1"",""3813""
","
","","","-1","","","24","10117","4742","&#9826;","elianto","#f73b6a7A","-1","-1","1","-10","[]","0","0","3","","","","","","","",""
"pit-trial","68","720560","0.0-2.0-14.1-4.1","battery-v0.2","","""event"",""trial"",""time""
""blur"",""1"",""3789""
""focus"",""1"",""3803""
""fullscreenenter"",""1"",""3813""
""blur"",""7"",""33133""
""focus"",""7"",""33275""
","""event"",""trial"",""time""
""blur"",""1"",""3789""
""blur"",""7"",""33133""
","""event"",""trial"",""time""
""focus"",""1"",""3803""
""focus"",""7"",""33275""
","""event"",""trial"",""time""
""fullscreenenter"",""1"",""3813""
","
","","","-1","","","24","10117","4742","&#9826;","elianto","#f73b6a7A","-1","-1","1","0","[]","0","0","3","","","","","","","",""
"pit-trial","69","725422","0.0-2.0-14.2-0.2","battery-v0.2","","""event"",""trial"",""time""
""blur"",""1"",""3789""
""focus"",""1"",""3803""
""fullscreenenter"",""1"",""3813""
""blur"",""7"",""33133""
""focus"",""7"",""33275""
","""event"",""trial"",""time""
""blur"",""1"",""3789""
""blur"",""7"",""33133""
","""event"",""trial"",""time""
""focus"",""1"",""3803""
""focus"",""7"",""33275""
","""event"",""trial"",""time""
""fullscreenenter"",""1"",""3813""
","
","","","-1","","","24","10117","4742","&#9826;","elianto","#f73b6a7A","-1","-1","1","0","[]","0","0","3","","","","","","","",""
"pit-trial","70","730281","0.0-2.0-14.2-1.2","battery-v0.2","","""event"",""trial"",""time""
""blur"",""1"",""3789""
""focus"",""1"",""3803""
""fullscreenenter"",""1"",""3813""
""blur"",""7"",""33133""
""focus"",""7"",""33275""
","""event"",""trial"",""time""
""blur"",""1"",""3789""
""blur"",""7"",""33133""
","""event"",""trial"",""time""
""focus"",""1"",""3803""
""focus"",""7"",""33275""
","""event"",""trial"",""time""
""fullscreenenter"",""1"",""3813""
","
","","","-1","","","24","10117","4742","&#9826;","elianto","#f73b6a7A","-1","-1","1","0","[]","0","0","3","","","","","","","",""
"pit-trial","71","735137","0.0-2.0-14.2-2.2","battery-v0.2","","""event"",""trial"",""time""
""blur"",""1"",""3789""
""focus"",""1"",""3803""
""fullscreenenter"",""1"",""3813""
""blur"",""7"",""33133""
""focus"",""7"",""33275""
","""event"",""trial"",""time""
""blur"",""1"",""3789""
""blur"",""7"",""33133""
","""event"",""trial"",""time""
""focus"",""1"",""3803""
""focus"",""7"",""33275""
","""event"",""trial"",""time""
""fullscreenenter"",""1"",""3813""
","
","","","-1","","","24","10117","4742","&#9826;","elianto","#f73b6a7A","-1","-1","1","0","[]","0","0","3","","","","","","","",""
"pit-trial","72","739998","0.0-2.0-14.2-3.2","battery-v0.2","","""event"",""trial"",""time""
""blur"",""1"",""3789""
""focus"",""1"",""3803""
""fullscreenenter"",""1"",""3813""
""blur"",""7"",""33133""
""focus"",""7"",""33275""
","""event"",""trial"",""time""
""blur"",""1"",""3789""
""blur"",""7"",""33133""
","""event"",""trial"",""time""
""focus"",""1"",""3803""
""focus"",""7"",""33275""
","""event"",""trial"",""time""
""fullscreenenter"",""1"",""3813""
","
","","","-1","","","24","10117","4742","&#9826;","elianto","#f73b6a7A","-1","-1","1","-10","[]","0","0","3","","","","","","","",""
"pit-trial","73","744859","0.0-2.0-14.2-4.2","battery-v0.2","","""event"",""trial"",""time""
""blur"",""1"",""3789""
""focus"",""1"",""3803""
""fullscreenenter"",""1"",""3813""
""blur"",""7"",""33133""
""focus"",""7"",""33275""
","""event"",""trial"",""time""
""blur"",""1"",""3789""
""blur"",""7"",""33133""
","""event"",""trial"",""time""
""focus"",""1"",""3803""
""focus"",""7"",""33275""
","""event"",""trial"",""time""
""fullscreenenter"",""1"",""3813""
","
","","","-1","","","24","10117","4742","&#9826;","elianto","#f73b6a7A","-1","-1","1","0","[]","0","0","3","","","","","","","",""
"pit-trial","74","749718","0.0-2.0-14.3-0.3","battery-v0.2","","""event"",""trial"",""time""
""blur"",""1"",""3789""
""focus"",""1"",""3803""
""fullscreenenter"",""1"",""3813""
""blur"",""7"",""33133""
""focus"",""7"",""33275""
","""event"",""trial"",""time""
""blur"",""1"",""3789""
""blur"",""7"",""33133""
","""event"",""trial"",""time""
""focus"",""1"",""3803""
""focus"",""7"",""33275""
","""event"",""trial"",""time""
""fullscreenenter"",""1"",""3813""
","
","","","-1","","","24","10117","4742","&#9826;","elianto","#f73b6a7A","-1","-1","1","0","[]","0","0","3","","","","","","","",""
"pit-trial","75","754577","0.0-2.0-14.3-1.3","battery-v0.2","","""event"",""trial"",""time""
""blur"",""1"",""3789""
""focus"",""1"",""3803""
""fullscreenenter"",""1"",""3813""
""blur"",""7"",""33133""
""focus"",""7"",""33275""
","""event"",""trial"",""time""
""blur"",""1"",""3789""
""blur"",""7"",""33133""
","""event"",""trial"",""time""
""focus"",""1"",""3803""
""focus"",""7"",""33275""
","""event"",""trial"",""time""
""fullscreenenter"",""1"",""3813""
","
","","","-1","","","24","10117","4742","&#9826;","elianto","#f73b6a7A","-1","-1","1","0","[]","0","0","3","","","","","","","",""
"pit-trial","76","759438","0.0-2.0-14.3-2.3","battery-v0.2","","""event"",""trial"",""time""
""blur"",""1"",""3789""
""focus"",""1"",""3803""
""fullscreenenter"",""1"",""3813""
""blur"",""7"",""33133""
""focus"",""7"",""33275""
","""event"",""trial"",""time""
""blur"",""1"",""3789""
""blur"",""7"",""33133""
","""event"",""trial"",""time""
""focus"",""1"",""3803""
""focus"",""7"",""33275""
","""event"",""trial"",""time""
""fullscreenenter"",""1"",""3813""
","
","","","-1","","","24","10117","4742","&#9826;","elianto","#f73b6a7A","-1","-1","1","0","[]","0","0","3","","","","","","","",""
"pit-trial","77","764297","0.0-2.0-14.3-3.3","battery-v0.2","","""event"",""trial"",""time""
""blur"",""1"",""3789""
""focus"",""1"",""3803""
""fullscreenenter"",""1"",""3813""
""blur"",""7"",""33133""
""focus"",""7"",""33275""
","""event"",""trial"",""time""
""blur"",""1"",""3789""
""blur"",""7"",""33133""
","""event"",""trial"",""time""
""focus"",""1"",""3803""
""focus"",""7"",""33275""
","""event"",""trial"",""time""
""fullscreenenter"",""1"",""3813""
","
","","","-1","","","24","10117","4742","&#9826;","elianto","#f73b6a7A","-1","-1","1","-10","[]","0","0","3","","","","","","","",""
"pit-trial","78","769156","0.0-2.0-14.3-4.3","battery-v0.2","","""event"",""trial"",""time""
""blur"",""1"",""3789""
""focus"",""1"",""3803""
""fullscreenenter"",""1"",""3813""
""blur"",""7"",""33133""
""focus"",""7"",""33275""
","""event"",""trial"",""time""
""blur"",""1"",""3789""
""blur"",""7"",""33133""
","""event"",""trial"",""time""
""focus"",""1"",""3803""
""focus"",""7"",""33275""
","""event"",""trial"",""time""
""fullscreenenter"",""1"",""3813""
","
","","","-1","","","24","10117","4742","&#9826;","elianto","#f73b6a7A","-1","-1","1","0","[]","0","0","3","","","","","","","",""
"call-function","79","769157","0.0-2.0-15.0","battery-v0.2","","""event"",""trial"",""time""
""blur"",""1"",""3789""
""focus"",""1"",""3803""
""fullscreenenter"",""1"",""3813""
""blur"",""7"",""33133""
""focus"",""7"",""33275""
","""event"",""trial"",""time""
""blur"",""1"",""3789""
""blur"",""7"",""33133""
","""event"",""trial"",""time""
""focus"",""1"",""3803""
""focus"",""7"",""33275""
","""event"",""trial"",""time""
""fullscreenenter"",""1"",""3813""
","
","","","","","","","","","","","","","","","","","","","","","","","","","","",""
"pit-instructions","80","798454","0.0-2.0-16.0","battery-v0.2","","""event"",""trial"",""time""
""blur"",""1"",""3789""
""focus"",""1"",""3803""
""fullscreenenter"",""1"",""3813""
""blur"",""7"",""33133""
""focus"",""7"",""33275""
","""event"",""trial"",""time""
""blur"",""1"",""3789""
""blur"",""7"",""33133""
","""event"",""trial"",""time""
""focus"",""1"",""3803""
""focus"",""7"",""33275""
","""event"",""trial"",""time""
""fullscreenenter"",""1"",""3813""
","
","","[{""page_index"":0,""viewing_time"":6504},{""page_index"":1,""viewing_time"":12343},{""page_index"":2,""viewing_time"":4969},{""page_index"":3,""viewing_time"":5480}]","29296","","","","","","","","","","","","","","","","","","","","","","","",""
"pit-trial","81","803307","0.0-2.0-17.0-0.0","battery-v0.2","","""event"",""trial"",""time""
""blur"",""1"",""3789""
""focus"",""1"",""3803""
""fullscreenenter"",""1"",""3813""
""blur"",""7"",""33133""
""focus"",""7"",""33275""
","""event"",""trial"",""time""
""blur"",""1"",""3789""
""blur"",""7"",""33133""
","""event"",""trial"",""time""
""focus"",""1"",""3803""
""focus"",""7"",""33275""
","""event"",""trial"",""time""
""fullscreenenter"",""1"",""3813""
","
","","","-1","","","24","10117","4742","&#9789;","elianto","#f73b6a7A"," ","-1","0","-10","[]","0","0","4","","","","","","","",""
"pit-trial","82","808053","0.0-2.0-17.0-1.0","battery-v0.2","","""event"",""trial"",""time""
""blur"",""1"",""3789""
""focus"",""1"",""3803""
""fullscreenenter"",""1"",""3813""
""blur"",""7"",""33133""
""focus"",""7"",""33275""
","""event"",""trial"",""time""
""blur"",""1"",""3789""
""blur"",""7"",""33133""
","""event"",""trial"",""time""
""focus"",""1"",""3803""
""focus"",""7"",""33275""
","""event"",""trial"",""time""
""fullscreenenter"",""1"",""3813""
","
","","","1892","","","24","10117","4742","&#9789;","elianto","#f73b6a7A"," "," ","1","0","[2742]","1","0","4","","","","","","","",""
"pit-trial","83","811475","0.0-2.0-17.0-2.0","battery-v0.2","","""event"",""trial"",""time""
""blur"",""1"",""3789""
""focus"",""1"",""3803""
""fullscreenenter"",""1"",""3813""
""blur"",""7"",""33133""
""focus"",""7"",""33275""
","""event"",""trial"",""time""
""blur"",""1"",""3789""
""blur"",""7"",""33133""
","""event"",""trial"",""time""
""focus"",""1"",""3803""
""focus"",""7"",""33275""
","""event"",""trial"",""time""
""fullscreenenter"",""1"",""3813""
","
","","","565","","","24","10117","4742","&#9789;","elianto","#f73b6a7A"," "," ","1","0","[1418]","1","0","4","","","","","","","",""
"pit-trial","84","815830","0.0-2.0-17.0-3.0","battery-v0.2","","""event"",""trial"",""time""
""blur"",""1"",""3789""
""focus"",""1"",""3803""
""fullscreenenter"",""1"",""3813""
""blur"",""7"",""33133""
""focus"",""7"",""33275""
","""event"",""trial"",""time""
""blur"",""1"",""3789""
""blur"",""7"",""33133""
","""event"",""trial"",""time""
""focus"",""1"",""3803""
""focus"",""7"",""33275""
","""event"",""trial"",""time""
""fullscreenenter"",""1"",""3813""
","
","","","1499","","","24","10117","4742","&#9789;","elianto","#f73b6a7A"," "," ","1","-10","[2349]","1","0","4","","","","","","","",""
"pit-trial","85","819382","0.0-2.0-17.0-4.0","battery-v0.2","","""event"",""trial"",""time""
""blur"",""1"",""3789""
""focus"",""1"",""3803""
""fullscreenenter"",""1"",""3813""
""blur"",""7"",""33133""
""focus"",""7"",""33275""
","""event"",""trial"",""time""
""blur"",""1"",""3789""
""blur"",""7"",""33133""
","""event"",""trial"",""time""
""focus"",""1"",""3803""
""focus"",""7"",""33275""
","""event"",""trial"",""time""
""fullscreenenter"",""1"",""3813""
","
","","","696","","","24","10117","4742","&#9789;","elianto","#f73b6a7A"," "," ","1","0","[1547]","1","0","4","","","","","","","",""
"pit-trial","86","822929","0.0-2.0-17.1-0.1","battery-v0.2","","""event"",""trial"",""time""
""blur"",""1"",""3789""
""focus"",""1"",""3803""
""fullscreenenter"",""1"",""3813""
""blur"",""7"",""33133""
""focus"",""7"",""33275""
","""event"",""trial"",""time""
""blur"",""1"",""3789""
""blur"",""7"",""33133""
","""event"",""trial"",""time""
""focus"",""1"",""3803""
""focus"",""7"",""33275""
","""event"",""trial"",""time""
""fullscreenenter"",""1"",""3813""
","
","","","692","","","24","10117","4742","&#9789;","elianto","#f73b6a7A"," "," ","1","0","[1542]","1","0","4","","","","","","","",""
"pit-trial","87","826659","0.0-2.0-17.1-1.1","battery-v0.2","","""event"",""trial"",""time""
""blur"",""1"",""3789""
""focus"",""1"",""3803""
""fullscreenenter"",""1"",""3813""
""blur"",""7"",""33133""
""focus"",""7"",""33275""
","""event"",""trial"",""time""
""blur"",""1"",""3789""
""blur"",""7"",""33133""
","""event"",""trial"",""time""
""focus"",""1"",""3803""
""focus"",""7"",""33275""
","""event"",""trial"",""time""
""fullscreenenter"",""1"",""3813""
","
","","","871","","","24","10117","4742","&#9789;","elianto","#f73b6a7A"," "," ","1","0","[1723]","1","0","4","","","","","","","",""
"pit-trial","88","830495","0.0-2.0-17.1-2.1","battery-v0.2","","""event"",""trial"",""time""
""blur"",""1"",""3789""
""focus"",""1"",""3803""
""fullscreenenter"",""1"",""3813""
""blur"",""7"",""33133""
""focus"",""7"",""33275""
","""event"",""trial"",""time""
""blur"",""1"",""3789""
""blur"",""7"",""33133""
","""event"",""trial"",""time""
""focus"",""1"",""3803""
""focus"",""7"",""33275""
","""event"",""trial"",""time""
""fullscreenenter"",""1"",""3813""
","
","","","978","","","24","10117","4742","&#9789;","elianto","#f73b6a7A"," "," ","1","0","[1832]","1","0","4","","","","","","","",""
"pit-trial","89","834157","0.0-2.0-17.1-3.1","battery-v0.2","","""event"",""trial"",""time""
""blur"",""1"",""3789""
""focus"",""1"",""3803""
""fullscreenenter"",""1"",""3813""
""blur"",""7"",""33133""
""focus"",""7"",""33275""
","""event"",""trial"",""time""
""blur"",""1"",""3789""
""blur"",""7"",""33133""
","""event"",""trial"",""time""
""focus"",""1"",""3803""
""focus"",""7"",""33275""
","""event"",""trial"",""time""
""fullscreenenter"",""1"",""3813""
","
","","","802","","","24","10117","4742","&#9789;","elianto","#f73b6a7A"," "," ","1","-10","[1655]","1","0","4","","","","","","","",""
"pit-trial","90","839014","0.0-2.0-17.1-4.1","battery-v0.2","","""event"",""trial"",""time""
""blur"",""1"",""3789""
""focus"",""1"",""3803""
""fullscreenenter"",""1"",""3813""
""blur"",""7"",""33133""
""focus"",""7"",""33275""
","""event"",""trial"",""time""
""blur"",""1"",""3789""
""blur"",""7"",""33133""
","""event"",""trial"",""time""
""focus"",""1"",""3803""
""focus"",""7"",""33275""
","""event"",""trial"",""time""
""fullscreenenter"",""1"",""3813""
","
","","","-1","","","24","10117","4742","&#9789;","elianto","#f73b6a7A"," ","-1","0","-10","[4799]","1","0","4","","","","","","","",""
"pit-trial","91","842525","0.0-2.0-17.2-0.2","battery-v0.2","","""event"",""trial"",""time""
""blur"",""1"",""3789""
""focus"",""1"",""3803""
""fullscreenenter"",""1"",""3813""
""blur"",""7"",""33133""
""focus"",""7"",""33275""
","""event"",""trial"",""time""
""blur"",""1"",""3789""
""blur"",""7"",""33133""
","""event"",""trial"",""time""
""focus"",""1"",""3803""
""focus"",""7"",""33275""
","""event"",""trial"",""time""
""fullscreenenter"",""1"",""3813""
","
","","","656","","","24","10117","4742","&#9789;","elianto","#f73b6a7A"," "," ","1","0","[1507]","1","0","4","","","","","","","",""
"pit-trial","92","845789","0.0-2.0-17.2-1.2","battery-v0.2","","""event"",""trial"",""time""
""blur"",""1"",""3789""
""focus"",""1"",""3803""
""fullscreenenter"",""1"",""3813""
""blur"",""7"",""33133""
""focus"",""7"",""33275""
","""event"",""trial"",""time""
""blur"",""1"",""3789""
""blur"",""7"",""33133""
","""event"",""trial"",""time""
""focus"",""1"",""3803""
""focus"",""7"",""33275""
","""event"",""trial"",""time""
""fullscreenenter"",""1"",""3813""
","
","","","407","","","24","10117","4742","&#9789;","elianto","#f73b6a7A"," "," ","1","0","[1262]","1","0","4","","","","","","","",""
"pit-trial","93","849124","0.0-2.0-17.2-2.2","battery-v0.2","","""event"",""trial"",""time""
""blur"",""1"",""3789""
""focus"",""1"",""3803""
""fullscreenenter"",""1"",""3813""
""blur"",""7"",""33133""
""focus"",""7"",""33275""
","""event"",""trial"",""time""
""blur"",""1"",""3789""
""blur"",""7"",""33133""
","""event"",""trial"",""time""
""focus"",""1"",""3803""
""focus"",""7"",""33275""
","""event"",""trial"",""time""
""fullscreenenter"",""1"",""3813""
","
","","","483","","","24","10117","4742","&#9789;","elianto","#f73b6a7A"," "," ","1","0","[1332]","1","0","4","","","","","","","",""
"pit-trial","94","852807","0.0-2.0-17.2-3.2","battery-v0.2","","""event"",""trial"",""time""
""blur"",""1"",""3789""
""focus"",""1"",""3803""
""fullscreenenter"",""1"",""3813""
""blur"",""7"",""33133""
""focus"",""7"",""33275""
","""event"",""trial"",""time""
""blur"",""1"",""3789""
""blur"",""7"",""33133""
","""event"",""trial"",""time""
""focus"",""1"",""3803""
""focus"",""7"",""33275""
","""event"",""trial"",""time""
""fullscreenenter"",""1"",""3813""
","
","","","822","","","24","10117","4742","&#9789;","elianto","#f73b6a7A"," "," ","1","-10","[1675]","1","0","4","","","","","","","",""
"pit-trial","95","856165","0.0-2.0-17.2-4.2","battery-v0.2","","""event"",""trial"",""time""
""blur"",""1"",""3789""
""focus"",""1"",""3803""
""fullscreenenter"",""1"",""3813""
""blur"",""7"",""33133""
""focus"",""7"",""33275""
","""event"",""trial"",""time""
""blur"",""1"",""3789""
""blur"",""7"",""33133""
","""event"",""trial"",""time""
""focus"",""1"",""3803""
""focus"",""7"",""33275""
","""event"",""trial"",""time""
""fullscreenenter"",""1"",""3813""
","
","","","499","","","24","10117","4742","&#9789;","elianto","#f73b6a7A"," "," ","1","0","[1352]","1","0","4","","","","","","","",""
"pit-trial","96","859576","0.0-2.0-17.3-0.3","battery-v0.2","","""event"",""trial"",""time""
""blur"",""1"",""3789""
""focus"",""1"",""3803""
""fullscreenenter"",""1"",""3813""
""blur"",""7"",""33133""
""focus"",""7"",""33275""
","""event"",""trial"",""time""
""blur"",""1"",""3789""
""blur"",""7"",""33133""
","""event"",""trial"",""time""
""focus"",""1"",""3803""
""focus"",""7"",""33275""
","""event"",""trial"",""time""
""fullscreenenter"",""1"",""3813""
","
","","","559","","","24","10117","4742","&#9789;","elianto","#f73b6a7A"," "," ","1","0","[1410]","1","0","4","","","","","","","",""
"pit-trial","97","863007","0.0-2.0-17.3-1.3","battery-v0.2","","""event"",""trial"",""time""
""blur"",""1"",""3789""
""focus"",""1"",""3803""
""fullscreenenter"",""1"",""3813""
""blur"",""7"",""33133""
""focus"",""7"",""33275""
","""event"",""trial"",""time""
""blur"",""1"",""3789""
""blur"",""7"",""33133""
","""event"",""trial"",""time""
""focus"",""1"",""3803""
""focus"",""7"",""33275""
","""event"",""trial"",""time""
""fullscreenenter"",""1"",""3813""
","
","","","573","","","24","10117","4742","&#9789;","elianto","#f73b6a7A"," "," ","1","0","[1428]","1","0","4","","","","","","","",""
"pit-trial","98","866525","0.0-2.0-17.3-2.3","battery-v0.2","","""event"",""trial"",""time""
""blur"",""1"",""3789""
""focus"",""1"",""3803""
""fullscreenenter"",""1"",""3813""
""blur"",""7"",""33133""
""focus"",""7"",""33275""
","""event"",""trial"",""time""
""blur"",""1"",""3789""
""blur"",""7"",""33133""
","""event"",""trial"",""time""
""focus"",""1"",""3803""
""focus"",""7"",""33275""
","""event"",""trial"",""time""
""fullscreenenter"",""1"",""3813""
","
","","","660","","","24","10117","4742","&#9789;","elianto","#f73b6a7A"," "," ","1","0","[1511]","1","0","4","","","","","","","",""
"pit-trial","99","870532","0.0-2.0-17.3-3.3","battery-v0.2","","""event"",""trial"",""time""
""blur"",""1"",""3789""
""focus"",""1"",""3803""
""fullscreenenter"",""1"",""3813""
""blur"",""7"",""33133""
""focus"",""7"",""33275""
","""event"",""trial"",""time""
""blur"",""1"",""3789""
""blur"",""7"",""33133""
","""event"",""trial"",""time""
""focus"",""1"",""3803""
""focus"",""7"",""33275""
","""event"",""trial"",""time""
""fullscreenenter"",""1"",""3813""
","
","","","1151","","","24","10117","4742","&#9789;","elianto","#f73b6a7A"," "," ","1","-10","[2001]","1","0","4","","","","","","","",""
"pit-trial","100","873877","0.0-2.0-17.3-4.3","battery-v0.2","","""event"",""trial"",""time""
""blur"",""1"",""3789""
""focus"",""1"",""3803""
""fullscreenenter"",""1"",""3813""
""blur"",""7"",""33133""
""focus"",""7"",""33275""
","""event"",""trial"",""time""
""blur"",""1"",""3789""
""blur"",""7"",""33133""
","""event"",""trial"",""time""
""focus"",""1"",""3803""
""focus"",""7"",""33275""
","""event"",""trial"",""time""
""fullscreenenter"",""1"",""3813""
","
","","","487","","","24","10117","4742","&#9789;","elianto","#f73b6a7A"," "," ","1","0","[1338]","1","0","4","","","","","","","",""
"call-function","101","873878","0.0-2.0-18.0","battery-v0.2","","""event"",""trial"",""time""
""blur"",""1"",""3789""
""focus"",""1"",""3803""
""fullscreenenter"",""1"",""3813""
""blur"",""7"",""33133""
""focus"",""7"",""33275""
","""event"",""trial"",""time""
""blur"",""1"",""3789""
""blur"",""7"",""33133""
","""event"",""trial"",""time""
""focus"",""1"",""3803""
""focus"",""7"",""33275""
","""event"",""trial"",""time""
""fullscreenenter"",""1"",""3813""
","
","","","","","","","","","","","","","","","","","","","","","","","","","","",""
"pit-instructions","102","959516","0.0-2.0-19.0","battery-v0.2","","""event"",""trial"",""time""
""blur"",""1"",""3789""
""focus"",""1"",""3803""
""fullscreenenter"",""1"",""3813""
""blur"",""7"",""33133""
""focus"",""7"",""33275""
","""event"",""trial"",""time""
""blur"",""1"",""3789""
""blur"",""7"",""33133""
","""event"",""trial"",""time""
""focus"",""1"",""3803""
""focus"",""7"",""33275""
","""event"",""trial"",""time""
""fullscreenenter"",""1"",""3813""
","
","","[{""page_index"":0,""viewing_time"":13168},{""page_index"":1,""viewing_time"":6667},{""page_index"":2,""viewing_time"":16134},{""page_index"":3,""viewing_time"":8967},{""page_index"":4,""viewing_time"":9000},{""page_index"":5,""viewing_time"":8034},{""page_index"":6,""viewing_time"":9466},{""page_index"":7,""viewing_time"":8000},{""page_index"":8,""viewing_time"":6201}]","85637","","","","","","","","","","","","","","","","","","","","","","","",""
"pit-comprehension","103","972349","0.0-2.0-20.0-0.0","battery-v0.2","","""event"",""trial"",""time""
""blur"",""1"",""3789""
""focus"",""1"",""3803""
""fullscreenenter"",""1"",""3813""
""blur"",""7"",""33133""
""focus"",""7"",""33275""
","""event"",""trial"",""time""
""blur"",""1"",""3789""
""blur"",""7"",""33133""
","""event"",""trial"",""time""
""focus"",""1"",""3803""
""focus"",""7"",""33275""
","""event"",""trial"",""time""
""fullscreenenter"",""1"",""3813""
","
","","","12831","[""SPACE""]","0","24","10117","4742","","","","","","","","","","","","","","","","","","",""
"pit-instructions","104","980704","0.0-2.0-20.0-1.0","battery-v0.2","","""event"",""trial"",""time""
""blur"",""1"",""3789""
""focus"",""1"",""3803""
""fullscreenenter"",""1"",""3813""
""blur"",""7"",""33133""
""focus"",""7"",""33275""
","""event"",""trial"",""time""
""blur"",""1"",""3789""
""blur"",""7"",""33133""
","""event"",""trial"",""time""
""focus"",""1"",""3803""
""focus"",""7"",""33275""
","""event"",""trial"",""time""
""fullscreenenter"",""1"",""3813""
","
","","[{""page_index"":0,""viewing_time"":8323}]","8323","","","","","","","","","","","","","","","","","","","","","","","",""
"pit-comprehension","105","999633","0.0-2.0-21.0-0.0","battery-v0.2","","""event"",""trial"",""time""
""blur"",""1"",""3789""
""focus"",""1"",""3803""
""fullscreenenter"",""1"",""3813""
""blur"",""7"",""33133""
""focus"",""7"",""33275""
","""event"",""trial"",""time""
""blur"",""1"",""3789""
""blur"",""7"",""33133""
","""event"",""trial"",""time""
""focus"",""1"",""3803""
""focus"",""7"",""33275""
","""event"",""trial"",""time""
""fullscreenenter"",""1"",""3813""
","
","","","18928","[""10""]","0","24","10117","4742","","","","","","","","","","","","","","","","","","",""
"pit-instructions","106","1006864","0.0-2.0-21.0-1.0","battery-v0.2","","""event"",""trial"",""time""
""blur"",""1"",""3789""
""focus"",""1"",""3803""
""fullscreenenter"",""1"",""3813""
""blur"",""7"",""33133""
""focus"",""7"",""33275""
","""event"",""trial"",""time""
""blur"",""1"",""3789""
""blur"",""7"",""33133""
","""event"",""trial"",""time""
""focus"",""1"",""3803""
""focus"",""7"",""33275""
","""event"",""trial"",""time""
""fullscreenenter"",""1"",""3813""
","
","","[{""page_index"":0,""viewing_time"":7199}]","7199","","","","","","","","","","","","","","","","","","","","","","","",""
"pit-comprehension","107","1015218","0.0-2.0-22.0-0.0","battery-v0.2","","""event"",""trial"",""time""
""blur"",""1"",""3789""
""focus"",""1"",""3803""
""fullscreenenter"",""1"",""3813""
""blur"",""7"",""33133""
""focus"",""7"",""33275""
","""event"",""trial"",""time""
""blur"",""1"",""3789""
""blur"",""7"",""33133""
","""event"",""trial"",""time""
""focus"",""1"",""3803""
""focus"",""7"",""33275""
","""event"",""trial"",""time""
""fullscreenenter"",""1"",""3813""
","
","","","8351","[""0""]","0","24","10117","4742","","","","","","","","","","","","","","","","","","",""
"pit-instructions","108","1019665","0.0-2.0-22.0-1.0","battery-v0.2","","""event"",""trial"",""time""
""blur"",""1"",""3789""
""focus"",""1"",""3803""
""fullscreenenter"",""1"",""3813""
""blur"",""7"",""33133""
""focus"",""7"",""33275""
","""event"",""trial"",""time""
""blur"",""1"",""3789""
""blur"",""7"",""33133""
","""event"",""trial"",""time""
""focus"",""1"",""3803""
""focus"",""7"",""33275""
","""event"",""trial"",""time""
""fullscreenenter"",""1"",""3813""
","
","","[{""page_index"":0,""viewing_time"":4419}]","4419","","","","","","","","","","","","","","","","","","","","","","","",""
"pit-comprehension","109","1029480","0.0-2.0-23.0-0.0","battery-v0.2","","""event"",""trial"",""time""
""blur"",""1"",""3789""
""focus"",""1"",""3803""
""fullscreenenter"",""1"",""3813""
""blur"",""7"",""33133""
""focus"",""7"",""33275""
","""event"",""trial"",""time""
""blur"",""1"",""3789""
""blur"",""7"",""33133""
","""event"",""trial"",""time""
""focus"",""1"",""3803""
""focus"",""7"",""33275""
","""event"",""trial"",""time""
""fullscreenenter"",""1"",""3813""
","
","","","9813","[""True""]","0","24","10117","4742","","","","","","","","","","","","","","","","","","",""
"pit-instructions","110","1035464","0.0-2.0-23.0-1.0","battery-v0.2","","""event"",""trial"",""time""
""blur"",""1"",""3789""
""focus"",""1"",""3803""
""fullscreenenter"",""1"",""3813""
""blur"",""7"",""33133""
""focus"",""7"",""33275""
","""event"",""trial"",""time""
""blur"",""1"",""3789""
""blur"",""7"",""33133""
","""event"",""trial"",""time""
""focus"",""1"",""3803""
""focus"",""7"",""33275""
","""event"",""trial"",""time""
""fullscreenenter"",""1"",""3813""
","
","","[{""page_index"":0,""viewing_time"":5955}]","5956","","","","","","","","","","","","","","","","","","","","","","","",""
"pit-comprehension","111","1042913","0.0-2.0-24.0-0.0","battery-v0.2","","""event"",""trial"",""time""
""blur"",""1"",""3789""
""focus"",""1"",""3803""
""fullscreenenter"",""1"",""3813""
""blur"",""7"",""33133""
""focus"",""7"",""33275""
","""event"",""trial"",""time""
""blur"",""1"",""3789""
""blur"",""7"",""33133""
","""event"",""trial"",""time""
""focus"",""1"",""3803""
""focus"",""7"",""33275""
","""event"",""trial"",""time""
""fullscreenenter"",""1"",""3813""
","
","","","7445","[""True""]","0","24","10117","4742","","","","","","","","","","","","","","","","","","",""
"pit-instructions","112","1049441","0.0-2.0-24.0-1.0","battery-v0.2","","""event"",""trial"",""time""
""blur"",""1"",""3789""
""focus"",""1"",""3803""
""fullscreenenter"",""1"",""3813""
""blur"",""7"",""33133""
""focus"",""7"",""33275""
","""event"",""trial"",""time""
""blur"",""1"",""3789""
""blur"",""7"",""33133""
","""event"",""trial"",""time""
""focus"",""1"",""3803""
""focus"",""7"",""33275""
","""event"",""trial"",""time""
""fullscreenenter"",""1"",""3813""
","
","","[{""page_index"":0,""viewing_time"":6495}]","6496","","","","","","","","","","","","","","","","","","","","","","","",""
"pit-comprehension","113","1056169","0.0-2.0-25.0-0.0","battery-v0.2","","""event"",""trial"",""time""
""blur"",""1"",""3789""
""focus"",""1"",""3803""
""fullscreenenter"",""1"",""3813""
""blur"",""7"",""33133""
""focus"",""7"",""33275""
","""event"",""trial"",""time""
""blur"",""1"",""3789""
""blur"",""7"",""33133""
","""event"",""trial"",""time""
""focus"",""1"",""3803""
""focus"",""7"",""33275""
","""event"",""trial"",""time""
""fullscreenenter"",""1"",""3813""
","
","","","6726","[""True""]","0","24","10117","4742","","","","","","","","","","","","","","","","","","",""
"pit-instructions","114","1057840","0.0-2.0-25.0-1.0","battery-v0.2","","""event"",""trial"",""time""
""blur"",""1"",""3789""
""focus"",""1"",""3803""
""fullscreenenter"",""1"",""3813""
""blur"",""7"",""33133""
""focus"",""7"",""33275""
","""event"",""trial"",""time""
""blur"",""1"",""3789""
""blur"",""7"",""33133""
","""event"",""trial"",""time""
""focus"",""1"",""3803""
""focus"",""7"",""33275""
","""event"",""trial"",""time""
""fullscreenenter"",""1"",""3813""
","
","","[{""page_index"":0,""viewing_time"":1637}]","1637","","","","","","","","","","","","","","","","","","","","","","","",""
"pit-comprehension","115","1063706","0.0-2.0-26.0-0.0","battery-v0.2","","""event"",""trial"",""time""
""blur"",""1"",""3789""
""focus"",""1"",""3803""
""fullscreenenter"",""1"",""3813""
""blur"",""7"",""33133""
""focus"",""7"",""33275""
","""event"",""trial"",""time""
""blur"",""1"",""3789""
""blur"",""7"",""33133""
","""event"",""trial"",""time""
""focus"",""1"",""3803""
""focus"",""7"",""33275""
","""event"",""trial"",""time""
""fullscreenenter"",""1"",""3813""
","
","","","5862","[""False""]","0","24","10117","4742","","","","","","","","","","","","","","","","","","",""
"pit-instructions","116","1067673","0.0-2.0-26.0-1.0","battery-v0.2","","""event"",""trial"",""time""
""blur"",""1"",""3789""
""focus"",""1"",""3803""
""fullscreenenter"",""1"",""3813""
""blur"",""7"",""33133""
""focus"",""7"",""33275""
","""event"",""trial"",""time""
""blur"",""1"",""3789""
""blur"",""7"",""33133""
","""event"",""trial"",""time""
""focus"",""1"",""3803""
""focus"",""7"",""33275""
","""event"",""trial"",""time""
""fullscreenenter"",""1"",""3813""
","
","","[{""page_index"":0,""viewing_time"":3935}]","3936","","","","","","","","","","","","","","","","","","","","","","","",""
"pit-instructions","117","1088585","0.0-3.0","battery-v0.2","","""event"",""trial"",""time""
""blur"",""1"",""3789""
""focus"",""1"",""3803""
""fullscreenenter"",""1"",""3813""
""blur"",""7"",""33133""
""focus"",""7"",""33275""
","""event"",""trial"",""time""
""blur"",""1"",""3789""
""blur"",""7"",""33133""
","""event"",""trial"",""time""
""focus"",""1"",""3803""
""focus"",""7"",""33275""
","""event"",""trial"",""time""
""fullscreenenter"",""1"",""3813""
","
","","[{""page_index"":0,""viewing_time"":7302},{""page_index"":1,""viewing_time"":6896},{""page_index"":2,""viewing_time"":6712}]","20910","","","","","","","","","","","","","","","","","","","","","","","",""
"pit-trial","118","1092478","0.0-4.0","battery-v0.2","","""event"",""trial"",""time""
""blur"",""1"",""3789""
""focus"",""1"",""3803""
""fullscreenenter"",""1"",""3813""
""blur"",""7"",""33133""
""focus"",""7"",""33275""
","""event"",""trial"",""time""
""blur"",""1"",""3789""
""blur"",""7"",""33133""
","""event"",""trial"",""time""
""focus"",""1"",""3803""
""focus"",""7"",""33275""
","""event"",""trial"",""time""
""fullscreenenter"",""1"",""3813""
","
","","","1037","","","24","10117","4742","&#9728;","elianto","#f73b6a7A","-1"," ","0","-10","[1887]","1","1","","","10117","1","0","4","lose","no-go","0"
"pit-trial","119","1096568","0.0-5.0","battery-v0.2","","""event"",""trial"",""time""
""blur"",""1"",""3789""
""focus"",""1"",""3803""
""fullscreenenter"",""1"",""3813""
""blur"",""7"",""33133""
""focus"",""7"",""33275""
","""event"",""trial"",""time""
""blur"",""1"",""3789""
""blur"",""7"",""33133""
","""event"",""trial"",""time""
""focus"",""1"",""3803""
""focus"",""7"",""33275""
","""event"",""trial"",""time""
""fullscreenenter"",""1"",""3813""
","
","","","1233","","","24","10117","4742","&#9733;","elianto","#3366ff99","-1"," ","0","0","[2087]","1","1","","","10117","2","2","2","win","no-go","0"
"pit-trial","120","1100817","0.0-6.0","battery-v0.2","","""event"",""trial"",""time""
""blur"",""1"",""3789""
""focus"",""1"",""3803""
""fullscreenenter"",""1"",""3813""
""blur"",""7"",""33133""
""focus"",""7"",""33275""
","""event"",""trial"",""time""
""blur"",""1"",""3789""
""blur"",""7"",""33133""
","""event"",""trial"",""time""
""focus"",""1"",""3803""
""focus"",""7"",""33275""
","""event"",""trial"",""time""
""fullscreenenter"",""1"",""3813""
","
","","","1352","","","24","10117","4742","&#9752;","elianto","#f73b6a7A"," "," ","1","0","[2203]","1","1","","","10117","3","3","3","lose","go","0"
"pit-trial","121","1104600","0.0-7.0","battery-v0.2","","""event"",""trial"",""time""
""blur"",""1"",""3789""
""focus"",""1"",""3803""
""fullscreenenter"",""1"",""3813""
""blur"",""7"",""33133""
""focus"",""7"",""33275""
","""event"",""trial"",""time""
""blur"",""1"",""3789""
""blur"",""7"",""33133""
","""event"",""trial"",""time""
""focus"",""1"",""3803""
""focus"",""7"",""33275""
","""event"",""trial"",""time""
""fullscreenenter"",""1"",""3813""
","
","","","922","","","24","10117","4742","&#9730;","elianto","#3366ff99"," "," ","1","+10","[1777]","1","1","","","10117","4","1","1","win","go","0"
"pit-trial","122","1108224","0.0-8.0","battery-v0.2","","""event"",""trial"",""time""
""blur"",""1"",""3789""
""focus"",""1"",""3803""
""fullscreenenter"",""1"",""3813""
""blur"",""7"",""33133""
""focus"",""7"",""33275""
","""event"",""trial"",""time""
""blur"",""1"",""3789""
""blur"",""7"",""33133""
","""event"",""trial"",""time""
""focus"",""1"",""3803""
""focus"",""7"",""33275""
","""event"",""trial"",""time""
""fullscreenenter"",""1"",""3813""
","
","","","766","","","24","10117","4742","&#9730;","elianto","#3366ff99"," "," ","1","0","[1620]","1","1","","","10117","5","1","1","win","go","1"
"pit-trial","123","1113077","0.0-9.0","battery-v0.2","","""event"",""trial"",""time""
""blur"",""1"",""3789""
""focus"",""1"",""3803""
""fullscreenenter"",""1"",""3813""
""blur"",""7"",""33133""
""focus"",""7"",""33275""
","""event"",""trial"",""time""
""blur"",""1"",""3789""
""blur"",""7"",""33133""
","""event"",""trial"",""time""
""focus"",""1"",""3803""
""focus"",""7"",""33275""
","""event"",""trial"",""time""
""fullscreenenter"",""1"",""3813""
","
","","","-1","","","24","10117","4742","&#9733;","elianto","#3366ff99","-1","-1","1","+10","[]","0","1","","","10117","6","2","2","win","no-go","0"
"pit-trial","124","1117659","0.0-10.0","battery-v0.2","","""event"",""trial"",""time""
""blur"",""1"",""3789""
""focus"",""1"",""3803""
""fullscreenenter"",""1"",""3813""
""blur"",""7"",""33133""
""focus"",""7"",""33275""
","""event"",""trial"",""time""
""blur"",""1"",""3789""
""blur"",""7"",""33133""
","""event"",""trial"",""time""
""focus"",""1"",""3803""
""focus"",""7"",""33275""
","""event"",""trial"",""time""
""fullscreenenter"",""1"",""3813""
","
","","","1721","","","24","10117","4742","&#9728;","elianto","#f73b6a7A","-1"," ","0","-10","[2576]","1","1","","","10117","7","0","4","lose","no-go","0"
"pit-trial","125","1121540","0.0-11.0","battery-v0.2","","""event"",""trial"",""time""
""blur"",""1"",""3789""
""focus"",""1"",""3803""
""fullscreenenter"",""1"",""3813""
""blur"",""7"",""33133""
""focus"",""7"",""33275""
","""event"",""trial"",""time""
""blur"",""1"",""3789""
""blur"",""7"",""33133""
","""event"",""trial"",""time""
""focus"",""1"",""3803""
""focus"",""7"",""33275""
","""event"",""trial"",""time""
""fullscreenenter"",""1"",""3813""
","
","","","1029","","","24","10117","4742","&#9752;","elianto","#f73b6a7A"," "," ","1","0","[1879]","1","1","","","10117","8","3","3","lose","go","0"
"pit-trial","126","1126394","0.0-12.0","battery-v0.2","","""event"",""trial"",""time""
""blur"",""1"",""3789""
""focus"",""1"",""3803""
""fullscreenenter"",""1"",""3813""
""blur"",""7"",""33133""
""focus"",""7"",""33275""
","""event"",""trial"",""time""
""blur"",""1"",""3789""
""blur"",""7"",""33133""
","""event"",""trial"",""time""
""focus"",""1"",""3803""
""focus"",""7"",""33275""
","""event"",""trial"",""time""
""fullscreenenter"",""1"",""3813""
","
","","","-1","","","24","10117","4742","&#9733;","elianto","#3366ff99","-1","-1","1","+10","[]","0","1","","","10117","9","2","2","win","no-go","0"
"pit-trial","127","1131256","0.0-13.0","battery-v0.2","","""event"",""trial"",""time""
""blur"",""1"",""3789""
""focus"",""1"",""3803""
""fullscreenenter"",""1"",""3813""
""blur"",""7"",""33133""
""focus"",""7"",""33275""
","""event"",""trial"",""time""
""blur"",""1"",""3789""
""blur"",""7"",""33133""
","""event"",""trial"",""time""
""focus"",""1"",""3803""
""focus"",""7"",""33275""
","""event"",""trial"",""time""
""fullscreenenter"",""1"",""3813""
","
","","","-1","","","24","10117","4742","&#9728;","elianto","#f73b6a7A","-1","-1","1","0","[]","0","1","","","10117","10","0","4","lose","no-go","0"
"pit-trial","128","1135321","0.0-14.0","battery-v0.2","","""event"",""trial"",""time""
""blur"",""1"",""3789""
""focus"",""1"",""3803""
""fullscreenenter"",""1"",""3813""
""blur"",""7"",""33133""
""focus"",""7"",""33275""
","""event"",""trial"",""time""
""blur"",""1"",""3789""
""blur"",""7"",""33133""
","""event"",""trial"",""time""
""focus"",""1"",""3803""
""focus"",""7"",""33275""
","""event"",""trial"",""time""
""fullscreenenter"",""1"",""3813""
","
","","","1211","","","24","10117","4742","&#9752;","elianto","#f73b6a7A"," "," ","1","-10","[2062]","1","1","","","10117","11","3","3","lose","go","1"
"pit-trial","129","1139060","0.0-15.0","battery-v0.2","","""event"",""trial"",""time""
""blur"",""1"",""3789""
""focus"",""1"",""3803""
""fullscreenenter"",""1"",""3813""
""blur"",""7"",""33133""
""focus"",""7"",""33275""
","""event"",""trial"",""time""
""blur"",""1"",""3789""
""blur"",""7"",""33133""
","""event"",""trial"",""time""
""focus"",""1"",""3803""
""focus"",""7"",""33275""
","""event"",""trial"",""time""
""fullscreenenter"",""1"",""3813""
","
","","","819","","","24","10117","4742","&#9730;","elianto","#3366ff99"," "," ","1","0","[1673]","1","1","","","10117","12","1","1","win","go","1"
"pit-trial","130","1143917","0.0-16.0","battery-v0.2","","""event"",""trial"",""time""
""blur"",""1"",""3789""
""focus"",""1"",""3803""
""fullscreenenter"",""1"",""3813""
""blur"",""7"",""33133""
""focus"",""7"",""33275""
","""event"",""trial"",""time""
""blur"",""1"",""3789""
""blur"",""7"",""33133""
","""event"",""trial"",""time""
""focus"",""1"",""3803""
""focus"",""7"",""33275""
","""event"",""trial"",""time""
""fullscreenenter"",""1"",""3813""
","
","","","-1","","","24","10117","4742","&#9733;","elianto","#3366ff99","-1","-1","1","0","[]","0","1","","","10117","13","2","2","win","no-go","1"
"pit-trial","131","1148017","0.0-17.0","battery-v0.2","","""event"",""trial"",""time""
""blur"",""1"",""3789""
""focus"",""1"",""3803""
""fullscreenenter"",""1"",""3813""
""blur"",""7"",""33133""
""focus"",""7"",""33275""
","""event"",""trial"",""time""
""blur"",""1"",""3789""
""blur"",""7"",""33133""
","""event"",""trial"",""time""
""focus"",""1"",""3803""
""focus"",""7"",""33275""
","""event"",""trial"",""time""
""fullscreenenter"",""1"",""3813""
","
","","","1243","","","24","10117","4742","&#9730;","elianto","#3366ff99"," "," ","1","0","[2097]","1","1","","","10117","14","1","1","win","go","1"
"pit-trial","132","1151950","0.0-18.0","battery-v0.2","","""event"",""trial"",""time""
""blur"",""1"",""3789""
""focus"",""1"",""3803""
""fullscreenenter"",""1"",""3813""
""blur"",""7"",""33133""
""focus"",""7"",""33275""
","""event"",""trial"",""time""
""blur"",""1"",""3789""
""blur"",""7"",""33133""
","""event"",""trial"",""time""
""focus"",""1"",""3803""
""focus"",""7"",""33275""
","""event"",""trial"",""time""
""fullscreenenter"",""1"",""3813""
","
","","","1075","","","24","10117","4742","&#9752;","elianto","#f73b6a7A"," "," ","1","0","[1928]","1","1","","","10117","15","3","3","lose","go","0"
"pit-trial","133","1156804","0.0-19.0","battery-v0.2","","""event"",""trial"",""time""
""blur"",""1"",""3789""
""focus"",""1"",""3803""
""fullscreenenter"",""1"",""3813""
""blur"",""7"",""33133""
""focus"",""7"",""33275""
","""event"",""trial"",""time""
""blur"",""1"",""3789""
""blur"",""7"",""33133""
","""event"",""trial"",""time""
""focus"",""1"",""3803""
""focus"",""7"",""33275""
","""event"",""trial"",""time""
""fullscreenenter"",""1"",""3813""
","
","","","-1","","","24","10117","4742","&#9728;","elianto","#f73b6a7A","-1","-1","1","0","[]","0","1","","","10117","16","0","4","lose","no-go","0"
"pit-trial","134","1161664","0.0-20.0","battery-v0.2","","""event"",""trial"",""time""
""blur"",""1"",""3789""
""focus"",""1"",""3803""
""fullscreenenter"",""1"",""3813""
""blur"",""7"",""33133""
""focus"",""7"",""33275""
","""event"",""trial"",""time""
""blur"",""1"",""3789""
""blur"",""7"",""33133""
","""event"",""trial"",""time""
""focus"",""1"",""3803""
""focus"",""7"",""33275""
","""event"",""trial"",""time""
""fullscreenenter"",""1"",""3813""
","
","","","-1","","","24","10117","4742","&#9728;","elianto","#f73b6a7A","-1","-1","1","0","[]","0","1","","","10117","17","0","4","lose","no-go","0"
"pit-trial","135","1166519","0.0-21.0","battery-v0.2","","""event"",""trial"",""time""
""blur"",""1"",""3789""
""focus"",""1"",""3803""
""fullscreenenter"",""1"",""3813""
""blur"",""7"",""33133""
""focus"",""7"",""33275""
","""event"",""trial"",""time""
""blur"",""1"",""3789""
""blur"",""7"",""33133""
","""event"",""trial"",""time""
""focus"",""1"",""3803""
""focus"",""7"",""33275""
","""event"",""trial"",""time""
""fullscreenenter"",""1"",""3813""
","
","","","-1","","","24","10117","4742","&#9733;","elianto","#3366ff99","-1","-1","1","+10","[]","0","1","","","10117","18","2","2","win","no-go","0"
"pit-trial","136","1170311","0.0-22.0","battery-v0.2","","""event"",""trial"",""time""
""blur"",""1"",""3789""
""focus"",""1"",""3803""
""fullscreenenter"",""1"",""3813""
""blur"",""7"",""33133""
""focus"",""7"",""33275""
","""event"",""trial"",""time""
""blur"",""1"",""3789""
""blur"",""7"",""33133""
","""event"",""trial"",""time""
""focus"",""1"",""3803""
""focus"",""7"",""33275""
","""event"",""trial"",""time""
""fullscreenenter"",""1"",""3813""
","
","","","935","","","24","10117","4742","&#9752;","elianto","#f73b6a7A"," "," ","1","0","[1790]","1","1","","","10117","19","3","3","lose","go","0"
"pit-trial","137","1174108","0.0-23.0","battery-v0.2","","""event"",""trial"",""time""
""blur"",""1"",""3789""
""focus"",""1"",""3803""
""fullscreenenter"",""1"",""3813""
""blur"",""7"",""33133""
""focus"",""7"",""33275""
","""event"",""trial"",""time""
""blur"",""1"",""3789""
""blur"",""7"",""33133""
","""event"",""trial"",""time""
""focus"",""1"",""3803""
""focus"",""7"",""33275""
","""event"",""trial"",""time""
""fullscreenenter"",""1"",""3813""
","
","","","938","","","24","10117","4742","&#9730;","elianto","#3366ff99"," "," ","1","+10","[1792]","1","1","","","10117","20","1","1","win","go","0"
"pit-instructions","138","1186857","0.0-24.0","battery-v0.2","","""event"",""trial"",""time""
""blur"",""1"",""3789""
""focus"",""1"",""3803""
""fullscreenenter"",""1"",""3813""
""blur"",""7"",""33133""
""focus"",""7"",""33275""
","""event"",""trial"",""time""
""blur"",""1"",""3789""
""blur"",""7"",""33133""
","""event"",""trial"",""time""
""focus"",""1"",""3803""
""focus"",""7"",""33275""
","""event"",""trial"",""time""
""fullscreenenter"",""1"",""3813""
","
","","[{""page_index"":0,""viewing_time"":5780},{""page_index"":1,""viewing_time"":6968}]","12748","","","","","","","","","","","","","","","","","","","","","","","",""
"pit-trial","139","1191037","0.0-25.0","battery-v0.2","","""event"",""trial"",""time""
""blur"",""1"",""3789""
""focus"",""1"",""3803""
""fullscreenenter"",""1"",""3813""
""blur"",""7"",""33133""
""focus"",""7"",""33275""
","""event"",""trial"",""time""
""blur"",""1"",""3789""
""blur"",""7"",""33133""
","""event"",""trial"",""time""
""focus"",""1"",""3803""
""focus"",""7"",""33275""
","""event"",""trial"",""time""
""fullscreenenter"",""1"",""3813""
","
","","","1325","","","24","10117","4742","l","elianto","#3366ff99"," "," ","1","+10","[2177]","1","2","","","10117","21","1","1","win","go","0"
"pit-trial","140","1195047","0.0-26.0","battery-v0.2","","""event"",""trial"",""time""
""blur"",""1"",""3789""
""focus"",""1"",""3803""
""fullscreenenter"",""1"",""3813""
""blur"",""7"",""33133""
""focus"",""7"",""33275""
","""event"",""trial"",""time""
""blur"",""1"",""3789""
""blur"",""7"",""33133""
","""event"",""trial"",""time""
""focus"",""1"",""3803""
""focus"",""7"",""33275""
","""event"",""trial"",""time""
""fullscreenenter"",""1"",""3813""
","
","","","1138","","","24","10117","4742","a","elianto","#f73b6a7A","-1"," ","0","0","[1993]","1","2","","","10117","22","2","4","lose","no-go","1"
"pit-trial","141","1199070","0.0-27.0","battery-v0.2","","""event"",""trial"",""time""
""blur"",""1"",""3789""
""focus"",""1"",""3803""
""fullscreenenter"",""1"",""3813""
""blur"",""7"",""33133""
""focus"",""7"",""33275""
","""event"",""trial"",""time""
""blur"",""1"",""3789""
""blur"",""7"",""33133""
","""event"",""trial"",""time""
""focus"",""1"",""3803""
""focus"",""7"",""33275""
","""event"",""trial"",""time""
""fullscreenenter"",""1"",""3813""
","
","","","1107","","","24","10117","4742","g","elianto","#f73b6a7A"," "," ","1","-10","[1958]","1","2","","","10117","23","3","3","lose","go","1"
"pit-trial","142","1203117","0.0-28.0","battery-v0.2","","""event"",""trial"",""time""
""blur"",""1"",""3789""
""focus"",""1"",""3803""
""fullscreenenter"",""1"",""3813""
""blur"",""7"",""33133""
""focus"",""7"",""33275""
","""event"",""trial"",""time""
""blur"",""1"",""3789""
""blur"",""7"",""33133""
","""event"",""trial"",""time""
""focus"",""1"",""3803""
""focus"",""7"",""33275""
","""event"",""trial"",""time""
""fullscreenenter"",""1"",""3813""
","
","","","1191","","","24","10117","4742","u","elianto","#f73b6a7A","-1"," ","0","0","[2043]","1","2","","","10117","24","0","4","lose","no-go","1"
"pit-trial","143","1206829","0.0-29.0","battery-v0.2","","""event"",""trial"",""time""
""blur"",""1"",""3789""
""focus"",""1"",""3803""
""fullscreenenter"",""1"",""3813""
""blur"",""7"",""33133""
""focus"",""7"",""33275""
","""event"",""trial"",""time""
""blur"",""1"",""3789""
""blur"",""7"",""33133""
","""event"",""trial"",""time""
""focus"",""1"",""3803""
""focus"",""7"",""33275""
","""event"",""trial"",""time""
""fullscreenenter"",""1"",""3813""
","
","","","859","","","24","10117","4742","u","elianto","#f73b6a7A","-1"," ","0","-10","[1710]","1","2","","","10117","25","0","4","lose","no-go","0"
"pit-trial","144","1210634","0.0-30.0","battery-v0.2","","""event"",""trial"",""time""
""blur"",""1"",""3789""
""focus"",""1"",""3803""
""fullscreenenter"",""1"",""3813""
""blur"",""7"",""33133""
""focus"",""7"",""33275""
","""event"",""trial"",""time""
""blur"",""1"",""3789""
""blur"",""7"",""33133""
","""event"",""trial"",""time""
""focus"",""1"",""3803""
""focus"",""7"",""33275""
","""event"",""trial"",""time""
""fullscreenenter"",""1"",""3813""
","
","","","950","","","24","10117","4742","l","elianto","#3366ff99"," "," ","1","0","[1804]","1","2","","","10117","26","1","1","win","go","1"
"pit-trial","145","1215494","0.0-31.0","battery-v0.2","","""event"",""trial"",""time""
""blur"",""1"",""3789""
""focus"",""1"",""3803""
""fullscreenenter"",""1"",""3813""
""blur"",""7"",""33133""
""focus"",""7"",""33275""
","""event"",""trial"",""time""
""blur"",""1"",""3789""
""blur"",""7"",""33133""
","""event"",""trial"",""time""
""focus"",""1"",""3803""
""focus"",""7"",""33275""
","""event"",""trial"",""time""
""fullscreenenter"",""1"",""3813""
","
","","","-1","","","24","10117","4742","g","elianto","#f73b6a7A"," ","-1","0","-10","[]","0","2","","","10117","27","3","3","lose","go","0"
"pit-trial","146","1220026","0.0-32.0","battery-v0.2","","""event"",""trial"",""time""
""blur"",""1"",""3789""
""focus"",""1"",""3803""
""fullscreenenter"",""1"",""3813""
""blur"",""7"",""33133""
""focus"",""7"",""33275""
","""event"",""trial"",""time""
""blur"",""1"",""3789""
""blur"",""7"",""33133""
","""event"",""trial"",""time""
""focus"",""1"",""3803""
""focus"",""7"",""33275""
","""event"",""trial"",""time""
""fullscreenenter"",""1"",""3813""
","
","","","1678","","","24","10117","4742","a","elianto","#f73b6a7A","-1"," ","0","0","[2529]","1","2","","","10117","28","2","4","lose","no-go","1"
"pit-trial","147","1223676","0.0-33.0","battery-v0.2","","""event"",""trial"",""time""
""blur"",""1"",""3789""
""focus"",""1"",""3803""
""fullscreenenter"",""1"",""3813""
""blur"",""7"",""33133""
""focus"",""7"",""33275""
","""event"",""trial"",""time""
""blur"",""1"",""3789""
""blur"",""7"",""33133""
","""event"",""trial"",""time""
""focus"",""1"",""3803""
""focus"",""7"",""33275""
","""event"",""trial"",""time""
""fullscreenenter"",""1"",""3813""
","
","","","792","","","24","10117","4742","l","elianto","#3366ff99"," "," ","1","+10","[1646]","1","2","","","10117","29","1","1","win","go","0"
"pit-trial","148","1227345","0.0-34.0","battery-v0.2","","""event"",""trial"",""time""
""blur"",""1"",""3789""
""focus"",""1"",""3803""
""fullscreenenter"",""1"",""3813""
""blur"",""7"",""33133""
""focus"",""7"",""33275""
","""event"",""trial"",""time""
""blur"",""1"",""3789""
""blur"",""7"",""33133""
","""event"",""trial"",""time""
""focus"",""1"",""3803""
""focus"",""7"",""33275""
","""event"",""trial"",""time""
""fullscreenenter"",""1"",""3813""
","
","","","809","","","24","10117","4742","u","elianto","#f73b6a7A","-1"," ","0","-10","[1663]","1","2","","","10117","30","0","4","lose","no-go","0"
"pit-trial","149","1231833","0.0-35.0","battery-v0.2","","""event"",""trial"",""time""
""blur"",""1"",""3789""
""focus"",""1"",""3803""
""fullscreenenter"",""1"",""3813""
""blur"",""7"",""33133""
""focus"",""7"",""33275""
","""event"",""trial"",""time""
""blur"",""1"",""3789""
""blur"",""7"",""33133""
","""event"",""trial"",""time""
""focus"",""1"",""3803""
""focus"",""7"",""33275""
","""event"",""trial"",""time""
""fullscreenenter"",""1"",""3813""
","
","","","1628","","","24","10117","4742","g","elianto","#f73b6a7A"," "," ","1","-10","[2482]","1","2","","","10117","31","3","3","lose","go","1"
"pit-trial","150","1235754","0.0-36.0","battery-v0.2","","""event"",""trial"",""time""
""blur"",""1"",""3789""
""focus"",""1"",""3803""
""fullscreenenter"",""1"",""3813""
""blur"",""7"",""33133""
""focus"",""7"",""33275""
","""event"",""trial"",""time""
""blur"",""1"",""3789""
""blur"",""7"",""33133""
","""event"",""trial"",""time""
""focus"",""1"",""3803""
""focus"",""7"",""33275""
","""event"",""trial"",""time""
""fullscreenenter"",""1"",""3813""
","
","","","1063","","","24","10117","4742","a","elianto","#f73b6a7A","-1"," ","0","-10","[1917]","1","2","","","10117","32","2","4","lose","no-go","0"
"pit-trial","151","1239834","0.0-37.0","battery-v0.2","","""event"",""trial"",""time""
""blur"",""1"",""3789""
""focus"",""1"",""3803""
""fullscreenenter"",""1"",""3813""
""blur"",""7"",""33133""
""focus"",""7"",""33275""
","""event"",""trial"",""time""
""blur"",""1"",""3789""
""blur"",""7"",""33133""
","""event"",""trial"",""time""
""focus"",""1"",""3803""
""focus"",""7"",""33275""
","""event"",""trial"",""time""
""fullscreenenter"",""1"",""3813""
","
","","","1225","","","24","10117","4742","a","elianto","#f73b6a7A","-1"," ","0","0","[2075]","1","2","","","10117","33","2","4","lose","no-go","1"
"pit-trial","152","1244694","0.0-38.0","battery-v0.2","","""event"",""trial"",""time""
""blur"",""1"",""3789""
""focus"",""1"",""3803""
""fullscreenenter"",""1"",""3813""
""blur"",""7"",""33133""
""focus"",""7"",""33275""
","""event"",""trial"",""time""
""blur"",""1"",""3789""
""blur"",""7"",""33133""
","""event"",""trial"",""time""
""focus"",""1"",""3803""
""focus"",""7"",""33275""
","""event"",""trial"",""time""
""fullscreenenter"",""1"",""3813""
","
","","","-1","","","24","10117","4742","u","elianto","#f73b6a7A","-1","-1","1","0","[]","0","2","","","10117","34","0","4","lose","no-go","0"
"pit-trial","153","1248359","0.0-39.0","battery-v0.2","","""event"",""trial"",""time""
""blur"",""1"",""3789""
""focus"",""1"",""3803""
""fullscreenenter"",""1"",""3813""
""blur"",""7"",""33133""
""focus"",""7"",""33275""
","""event"",""trial"",""time""
""blur"",""1"",""3789""
""blur"",""7"",""33133""
","""event"",""trial"",""time""
""focus"",""1"",""3803""
""focus"",""7"",""33275""
","""event"",""trial"",""time""
""fullscreenenter"",""1"",""3813""
","
","","","805","","","24","10117","4742","l","elianto","#3366ff99"," "," ","1","0","[1659]","1","2","","","10117","35","1","1","win","go","1"
"pit-trial","154","1253212","0.0-40.0","battery-v0.2","","""event"",""trial"",""time""
""blur"",""1"",""3789""
""focus"",""1"",""3803""
""fullscreenenter"",""1"",""3813""
""blur"",""7"",""33133""
""focus"",""7"",""33275""
","""event"",""trial"",""time""
""blur"",""1"",""3789""
""blur"",""7"",""33133""
","""event"",""trial"",""time""
""focus"",""1"",""3803""
""focus"",""7"",""33275""
","""event"",""trial"",""time""
""fullscreenenter"",""1"",""3813""
","
","","","-1","","","24","10117","4742","g","elianto","#f73b6a7A"," ","-1","0","0","[]","0","2","","","10117","36","3","3","lose","go","1"
"pit-trial","155","1258048","0.0-41.0","battery-v0.2","","""event"",""trial"",""time""
""blur"",""1"",""3789""
""focus"",""1"",""3803""
""fullscreenenter"",""1"",""3813""
""blur"",""7"",""33133""
""focus"",""7"",""33275""
","""event"",""trial"",""time""
""blur"",""1"",""3789""
""blur"",""7"",""33133""
","""event"",""trial"",""time""
""focus"",""1"",""3803""
""focus"",""7"",""33275""
","""event"",""trial"",""time""
""fullscreenenter"",""1"",""3813""
","
","","","1978","","","24","10117","4742","a","elianto","#f73b6a7A","-1"," ","0","-10","[2831]","1","2","","","10117","37","2","4","lose","no-go","0"
"pit-trial","156","1262903","0.0-42.0","battery-v0.2","","""event"",""trial"",""time""
""blur"",""1"",""3789""
""focus"",""1"",""3803""
""fullscreenenter"",""1"",""3813""
""blur"",""7"",""33133""
""focus"",""7"",""33275""
","""event"",""trial"",""time""
""blur"",""1"",""3789""
""blur"",""7"",""33133""
","""event"",""trial"",""time""
""focus"",""1"",""3803""
""focus"",""7"",""33275""
","""event"",""trial"",""time""
""fullscreenenter"",""1"",""3813""
","
","","","-1","","","24","10117","4742","u","elianto","#f73b6a7A","-1","-1","1","0","[]","0","2","","","10117","38","0","4","lose","no-go","0"
"pit-trial","157","1266408","0.0-43.0","battery-v0.2","","""event"",""trial"",""time""
""blur"",""1"",""3789""
""focus"",""1"",""3803""
""fullscreenenter"",""1"",""3813""
""blur"",""7"",""33133""
""focus"",""7"",""33275""
","""event"",""trial"",""time""
""blur"",""1"",""3789""
""blur"",""7"",""33133""
","""event"",""trial"",""time""
""focus"",""1"",""3803""
""focus"",""7"",""33275""
","""event"",""trial"",""time""
""fullscreenenter"",""1"",""3813""
","
","","","646","","","24","10117","4742","l","elianto","#3366ff99"," "," ","1","+10","[1502]","1","2","","","10117","39","1","1","win","go","0"
"pit-trial","158","1271267","0.0-44.0","battery-v0.2","","""event"",""trial"",""time""
""blur"",""1"",""3789""
""focus"",""1"",""3803""
""fullscreenenter"",""1"",""3813""
""blur"",""7"",""33133""
""focus"",""7"",""33275""
","""event"",""trial"",""time""
""blur"",""1"",""3789""
""blur"",""7"",""33133""
","""event"",""trial"",""time""
""focus"",""1"",""3803""
""focus"",""7"",""33275""
","""event"",""trial"",""time""
""fullscreenenter"",""1"",""3813""
","
","","","-1","","","24","10117","4742","g","elianto","#f73b6a7A"," ","-1","0","0","[]","0","2","","","10117","40","3","3","lose","go","1"
"pit-trial","159","1276126","0.0-45.0","battery-v0.2","","""event"",""trial"",""time""
""blur"",""1"",""3789""
""focus"",""1"",""3803""
""fullscreenenter"",""1"",""3813""
""blur"",""7"",""33133""
""focus"",""7"",""33275""
","""event"",""trial"",""time""
""blur"",""1"",""3789""
""blur"",""7"",""33133""
","""event"",""trial"",""time""
""focus"",""1"",""3803""
""focus"",""7"",""33275""
","""event"",""trial"",""time""
""fullscreenenter"",""1"",""3813""
","
","","","-1","","","24","10117","4742","g","elianto","#f73b6a7A"," ","-1","0","0","[]","0","2","","","10117","41","3","3","lose","go","1"
"pit-trial","160","1279940","0.0-46.0","battery-v0.2","","""event"",""trial"",""time""
""blur"",""1"",""3789""
""focus"",""1"",""3803""
""fullscreenenter"",""1"",""3813""
