"trial_type","trial_index","time_elapsed","internal_node_id","task_version","subject_id","interactions","blur_events","focus_events","fullscreenenter_events","fullscreenexit_events","success","view_history","rt","responses","num_errors","age","subject","participantId","rune","rune_set","hex","correct","choice","accuracy","outcome","keys","total_keys","block","practice","value","sub","trial","stimulus","robot","valence","action","sham"
"pavlovia","0","12","0.0-0.0","battery-v0.2","","""event"",""trial"",""time""
""fullscreenenter"",""1"",""5025""
","
","
","""event"",""trial"",""time""
""fullscreenenter"",""1"",""5025""
","
","","","","","","","","","","","","","","","","","","","","","","","","","","",""
"fullscreen","1","6017","0.0-1.0","battery-v0.2","","""event"",""trial"",""time""
""fullscreenenter"",""1"",""5025""
","
","
","""event"",""trial"",""time""
""fullscreenenter"",""1"",""5025""
","
","true","","","","","","","","","","","","","","","","","","","","","","","","","",""
"pit-instructions","2","54293","0.0-2.0-0.0","battery-v0.2","","""event"",""trial"",""time""
""fullscreenenter"",""1"",""5025""
","
","
","""event"",""trial"",""time""
""fullscreenenter"",""1"",""5025""
","
","","[{""page_index"":0,""viewing_time"":48272.5}]","48272.89999985695","","","","","","","","","","","","","","","","","","","","","","","",""
"pit-comprehension","3","58240","0.0-2.0-1.0-0.0","battery-v0.2","","""event"",""trial"",""time""
""fullscreenenter"",""1"",""5025""
","
","
","""event"",""trial"",""time""
""fullscreenenter"",""1"",""5025""
","
","","","3944","[""shark""]","0","10","9815","300","","","","","","","","","","","","","","","","","","",""
"pit-instructions","4","60203","0.0-2.0-1.0-1.0","battery-v0.2","","""event"",""trial"",""time""
""fullscreenenter"",""1"",""5025""
","
","
","""event"",""trial"",""time""
""fullscreenenter"",""1"",""5025""
","
","","[{""page_index"":0,""viewing_time"":1953.5999999046326}]","1953.7999999523163","","","","","","","","","","","","","","","","","","","","","","","",""
"pit-comprehension","5","64220","0.0-2.0-2.0-0.0","battery-v0.2","","""event"",""trial"",""time""
""fullscreenenter"",""1"",""5025""
","
","
","""event"",""trial"",""time""
""fullscreenenter"",""1"",""5025""
","
","","","4013.5999999046326","[""tiger""]","0","10","9815","300","","","","","","","","","","","","","","","","","","",""
"pit-instructions","6","67551","0.0-2.0-2.0-1.0","battery-v0.2","","""event"",""trial"",""time""
""fullscreenenter"",""1"",""5025""
","
","
","""event"",""trial"",""time""
""fullscreenenter"",""1"",""5025""
","
","","[{""page_index"":0,""viewing_time"":3328.7000000476837}]","3328.9000000953674","","","","","","","","","","","","","","","","","","","","","","","",""
"pit-instructions","7","170926","0.0-2.0-3.0","battery-v0.2","","""event"",""trial"",""time""
""fullscreenenter"",""1"",""5025""
","
","
","""event"",""trial"",""time""
""fullscreenenter"",""1"",""5025""
","
","","[{""page_index"":0,""viewing_time"":9313.600000143051},{""page_index"":1,""viewing_time"":10154.399999856949},{""page_index"":2,""viewing_time"":6098.900000095367},{""page_index"":3,""viewing_time"":6592.799999952316},{""page_index"":4,""viewing_time"":7091},{""page_index"":5,""viewing_time"":5760.900000095367},{""page_index"":6,""viewing_time"":6948.099999904633},{""page_index"":7,""viewing_time"":7452.799999952316},{""page_index"":8,""viewing_time"":6048.5},{""page_index"":9,""viewing_time"":9164},{""page_index"":10,""viewing_time"":7117.300000190735},{""page_index"":11,""viewing_time"":7620.5},{""page_index"":12,""viewing_time"":7465.799999952316},{""page_index"":13,""viewing_time"":6543.399999856949}]","103372.40000009537","","","","","","","","","","","","","","","","","","","","","","","",""
"pit-trial","8","174414","0.0-2.0-4.0-0.0","battery-v0.2","","""event"",""trial"",""time""
""fullscreenenter"",""1"",""5025""
","
","
","""event"",""trial"",""time""
""fullscreenenter"",""1"",""5025""
","
","","","626.2000000476837","","","10","9815","300","&#9784;","elianto","#FFFFF080"," "," ","1","&#10004","[1476.7999999523163]","1","0","0","","","","","","","",""
"pit-trial","9","177869","0.0-2.0-4.1-0.1","battery-v0.2","","""event"",""trial"",""time""
""fullscreenenter"",""1"",""5025""
","
","
","""event"",""trial"",""time""
""fullscreenenter"",""1"",""5025""
","
","","","592.9000000953674","","","10","9815","300","&#9784;","elianto","#FFFFF080"," "," ","1","&#10004","[1445.7000000476837]","1","0","0","","","","","","","",""
"pit-trial","10","181320","0.0-2.0-4.2-0.2","battery-v0.2","","""event"",""trial"",""time""
""fullscreenenter"",""1"",""5025""
","
","
","""event"",""trial"",""time""
""fullscreenenter"",""1"",""5025""
","
","","","595.7999999523163","","","10","9815","300","&#9784;","elianto","#FFFFF080"," "," ","1","&#10004","[1445.9000000953674]","1","0","0","","","","","","","",""
"pit-trial","11","184708","0.0-2.0-4.3-0.3","battery-v0.2","","""event"",""trial"",""time""
""fullscreenenter"",""1"",""5025""
","
","
","""event"",""trial"",""time""
""fullscreenenter"",""1"",""5025""
","
","","","525.1999998092651","","","10","9815","300","&#9784;","elianto","#FFFFF080"," "," ","1","&#10004","[1380.5]","1","0","0","","","","","","","",""
"pit-trial","12","188118","0.0-2.0-4.4-0.4","battery-v0.2","","""event"",""trial"",""time""
""fullscreenenter"",""1"",""5025""
","
","
","""event"",""trial"",""time""
""fullscreenenter"",""1"",""5025""
","
","","","548.5","","","10","9815","300","&#9784;","elianto","#FFFFF080"," "," ","1","&#10004","[1403.9000000953674]","1","0","0","","","","","","","",""
"pit-instructions","13","212162","0.0-2.0-5.0","battery-v0.2","","""event"",""trial"",""time""
""fullscreenenter"",""1"",""5025""
","
","
","""event"",""trial"",""time""
""fullscreenenter"",""1"",""5025""
","
","","[{""page_index"":0,""viewing_time"":7984.100000143051},{""page_index"":1,""viewing_time"":5494.5},{""page_index"":2,""viewing_time"":5266.899999856949},{""page_index"":3,""viewing_time"":5296.100000143051}]","24041.900000095367","","","","","","","","","","","","","","","","","","","","","","","",""
"pit-trial","14","217034","0.0-2.0-6.0-0.0","battery-v0.2","","""event"",""trial"",""time""
""fullscreenenter"",""1"",""5025""
","
","
","""event"",""trial"",""time""
""fullscreenenter"",""1"",""5025""
","
","","","-1","","","10","9815","300","&#9854;","elianto","#FFFFF080","-1","-1","1","&#10004","[]","0","0","1","","","","","","","",""
"pit-trial","15","221900","0.0-2.0-6.1-0.1","battery-v0.2","","""event"",""trial"",""time""
""fullscreenenter"",""1"",""5025""
","
","
","""event"",""trial"",""time""
""fullscreenenter"",""1"",""5025""
","
","","","-1","","","10","9815","300","&#9854;","elianto","#FFFFF080","-1","-1","1","&#10004","[]","0","0","1","","","","","","","",""
"pit-trial","16","226773","0.0-2.0-6.2-0.2","battery-v0.2","","""event"",""trial"",""time""
""fullscreenenter"",""1"",""5025""
","
","
","""event"",""trial"",""time""
""fullscreenenter"",""1"",""5025""
","
","","","-1","","","10","9815","300","&#9854;","elianto","#FFFFF080","-1","-1","1","&#10004","[]","0","0","1","","","","","","","",""
"pit-trial","17","231644","0.0-2.0-6.3-0.3","battery-v0.2","","""event"",""trial"",""time""
""fullscreenenter"",""1"",""5025""
","
","
","""event"",""trial"",""time""
""fullscreenenter"",""1"",""5025""
","
","","","-1","","","10","9815","300","&#9854;","elianto","#FFFFF080","-1","-1","1","&#10004","[]","0","0","1","","","","","","","",""
"pit-trial","18","236522","0.0-2.0-6.4-0.4","battery-v0.2","","""event"",""trial"",""time""
""fullscreenenter"",""1"",""5025""
","
","
","""event"",""trial"",""time""
""fullscreenenter"",""1"",""5025""
","
","","","-1","","","10","9815","300","&#9854;","elianto","#FFFFF080","-1","-1","1","&#10004","[]","0","0","1","","","","","","","",""
"pit-instructions","19","372265","0.0-2.0-7.0","battery-v0.2","","""event"",""trial"",""time""
""fullscreenenter"",""1"",""5025""
","
","
","""event"",""trial"",""time""
""fullscreenenter"",""1"",""5025""
","
","","[{""page_index"":0,""viewing_time"":5730.600000143051},{""page_index"":1,""viewing_time"":8304.199999809265},{""page_index"":2,""viewing_time"":9085.100000143051},{""page_index"":3,""viewing_time"":12449.099999904633},{""page_index"":4,""viewing_time"":7875.799999952316},{""page_index"":5,""viewing_time"":9798.700000047684},{""page_index"":6,""viewing_time"":5482},{""page_index"":7,""viewing_time"":8884.200000047684},{""page_index"":8,""viewing_time"":6507.599999904633},{""page_index"":9,""viewing_time"":6812.200000047684},{""page_index"":10,""viewing_time"":6878.900000095367},{""page_index"":11,""viewing_time"":4248.299999952316},{""page_index"":12,""viewing_time"":6977},{""page_index"":13,""viewing_time"":8668.599999904633},{""page_index"":14,""viewing_time"":7712},{""page_index"":15,""viewing_time"":6739.800000190735},{""page_index"":16,""viewing_time"":6420.599999904633},{""page_index"":17,""viewing_time"":7166.299999952316}]","135741.20000004768","","","","","","","","","","","","","","","","","","","","","","","",""
"pit-trial","20","375832","0.0-2.0-8.0-0.0","battery-v0.2","","""event"",""trial"",""time""
""fullscreenenter"",""1"",""5025""
","
","
","""event"",""trial"",""time""
""fullscreenenter"",""1"",""5025""
","
","","","697.3999998569489","","","10","9815","300","&#9776;","elianto","#3366ff99"," "," ","1","+10","[1553.2000000476837]","1","0","1","","","","","","","",""
"pit-trial","21","379483","0.0-2.0-8.0-1.0","battery-v0.2","","""event"",""trial"",""time""
""fullscreenenter"",""1"",""5025""
","
","
","""event"",""trial"",""time""
""fullscreenenter"",""1"",""5025""
","
","","","785.7000000476837","","","10","9815","300","&#9776;","elianto","#3366ff99"," "," ","1","+10","[1638.7999999523163]","1","0","1","","","","","","","",""
"pit-trial","22","383041","0.0-2.0-8.0-2.0","battery-v0.2","","""event"",""trial"",""time""
""fullscreenenter"",""1"",""5025""
","
","
","""event"",""trial"",""time""
""fullscreenenter"",""1"",""5025""
","
","","","684","","","10","9815","300","&#9776;","elianto","#3366ff99"," "," ","1","+10","[1540.7999999523163]","1","0","1","","","","","","","",""
"pit-trial","23","386550","0.0-2.0-8.0-3.0","battery-v0.2","","""event"",""trial"",""time""
""fullscreenenter"",""1"",""5025""
","
","
","""event"",""trial"",""time""
""fullscreenenter"",""1"",""5025""
","
","","","635.7000000476837","","","10","9815","300","&#9776;","elianto","#3366ff99"," "," ","1","0","[1493.7000000476837]","1","0","1","","","","","","","",""
"pit-trial","24","389994","0.0-2.0-8.0-4.0","battery-v0.2","","""event"",""trial"",""time""
""fullscreenenter"",""1"",""5025""
","
","
","""event"",""trial"",""time""
""fullscreenenter"",""1"",""5025""
","
","","","575.5","","","10","9815","300","&#9776;","elianto","#3366ff99"," "," ","1","+10","[1430.3999998569489]","1","0","1","","","","","","","",""
"pit-trial","25","393510","0.0-2.0-8.1-0.1","battery-v0.2","","""event"",""trial"",""time""
""fullscreenenter"",""1"",""5025""
","
","
","""event"",""trial"",""time""
""fullscreenenter"",""1"",""5025""
","
","","","651.2000000476837","","","10","9815","300","&#9776;","elianto","#3366ff99"," "," ","1","+10","[1504.5]","1","0","1","","","","","","","",""
"pit-trial","26","396965","0.0-2.0-8.1-1.1","battery-v0.2","","""event"",""trial"",""time""
""fullscreenenter"",""1"",""5025""
","
","
","""event"",""trial"",""time""
""fullscreenenter"",""1"",""5025""
","
","","","584.3999998569489","","","10","9815","300","&#9776;","elianto","#3366ff99"," "," ","1","+10","[1439.1999998092651]","1","0","1","","","","","","","",""
"pit-trial","27","400341","0.0-2.0-8.1-2.1","battery-v0.2","","""event"",""trial"",""time""
""fullscreenenter"",""1"",""5025""
","
","
","""event"",""trial"",""time""
""fullscreenenter"",""1"",""5025""
","
","","","507.5","","","10","9815","300","&#9776;","elianto","#3366ff99"," "," ","1","+10","[1359.9000000953674]","1","0","1","","","","","","","",""
"pit-trial","28","403824","0.0-2.0-8.1-3.1","battery-v0.2","","""event"",""trial"",""time""
""fullscreenenter"",""1"",""5025""
","
","
","""event"",""trial"",""time""
""fullscreenenter"",""1"",""5025""
","
","","","624.6000001430511","","","10","9815","300","&#9776;","elianto","#3366ff99"," "," ","1","0","[1480.7999999523163]","1","0","1","","","","","","","",""
"pit-trial","29","407155","0.0-2.0-8.1-4.1","battery-v0.2","","""event"",""trial"",""time""
""fullscreenenter"",""1"",""5025""
","
","
","""event"",""trial"",""time""
""fullscreenenter"",""1"",""5025""
","
","","","478.5","","","10","9815","300","&#9776;","elianto","#3366ff99"," "," ","1","+10","[1329.2000000476837]","1","0","1","","","","","","","",""
"pit-trial","30","410508","0.0-2.0-8.2-0.2","battery-v0.2","","""event"",""trial"",""time""
""fullscreenenter"",""1"",""5025""
","
","
","""event"",""trial"",""time""
""fullscreenenter"",""1"",""5025""
","
","","","499.90000009536743","","","10","9815","300","&#9776;","elianto","#3366ff99"," "," ","1","+10","[1350.7999999523163]","1","0","1","","","","","","","",""
"pit-trial","31","413829","0.0-2.0-8.2-1.2","battery-v0.2","","""event"",""trial"",""time""
""fullscreenenter"",""1"",""5025""
","
","
","""event"",""trial"",""time""
""fullscreenenter"",""1"",""5025""
","
","","","468.60000014305115","","","10","9815","300","&#9776;","elianto","#3366ff99"," "," ","1","+10","[1318.7999999523163]","1","0","1","","","","","","","",""
"pit-trial","32","417183","0.0-2.0-8.2-2.2","battery-v0.2","","""event"",""trial"",""time""
""fullscreenenter"",""1"",""5025""
","
","
","""event"",""trial"",""time""
""fullscreenenter"",""1"",""5025""
","
","","","501.2999999523163","","","10","9815","300","&#9776;","elianto","#3366ff99"," "," ","1","+10","[1352.5]","1","0","1","","","","","","","",""
"pit-trial","33","420640","0.0-2.0-8.2-3.2","battery-v0.2","","""event"",""trial"",""time""
""fullscreenenter"",""1"",""5025""
","
","
","""event"",""trial"",""time""
""fullscreenenter"",""1"",""5025""
","
","","","604.2000000476837","","","10","9815","300","&#9776;","elianto","#3366ff99"," "," ","1","0","[1454.6999998092651]","1","0","1","","","","","","","",""
"pit-trial","34","423988","0.0-2.0-8.2-4.2","battery-v0.2","","""event"",""trial"",""time""
""fullscreenenter"",""1"",""5025""
","
","
","""event"",""trial"",""time""
""fullscreenenter"",""1"",""5025""
","
","","","494.90000009536743","","","10","9815","300","&#9776;","elianto","#3366ff99"," "," ","1","+10","[1346]","1","0","1","","","","","","","",""
"call-function","35","423990","0.0-2.0-9.0","battery-v0.2","","""event"",""trial"",""time""
""fullscreenenter"",""1"",""5025""
","
","
","""event"",""trial"",""time""
""fullscreenenter"",""1"",""5025""
","
","","","","","","","","","","","","","","","","","","","","","","","","","","",""
"pit-instructions","36","471032","0.0-2.0-10.0","battery-v0.2","","""event"",""trial"",""time""
""fullscreenenter"",""1"",""5025""
","
","
","""event"",""trial"",""time""
""fullscreenenter"",""1"",""5025""
","
","","[{""page_index"":0,""viewing_time"":9684.900000095367},{""page_index"":1,""viewing_time"":7725.799999952316},{""page_index"":2,""viewing_time"":9442.799999952316},{""page_index"":3,""viewing_time"":12191.900000095367},{""page_index"":4,""viewing_time"":7996.5}]","47042.200000047684","","","","","","","","","","","","","","","","","","","","","","","",""
"pit-trial","37","475833","0.0-2.0-11.0-0.0","battery-v0.2","","""event"",""trial"",""time""
""fullscreenenter"",""1"",""5025""
","
","
","""event"",""trial"",""time""
""fullscreenenter"",""1"",""5025""
","
","","","1922.7000000476837","","","10","9815","300","&#9761;","elianto","#3366ff99","-1"," ","0","0","[2784.2000000476837]","1","0","2","","","","","","","",""
"pit-trial","38","479256","0.0-2.0-11.0-1.0","battery-v0.2","","""event"",""trial"",""time""
""fullscreenenter"",""1"",""5025""
","
","
","""event"",""trial"",""time""
""fullscreenenter"",""1"",""5025""
","
","","","557.8999998569489","","","10","9815","300","&#9761;","elianto","#3366ff99","-1"," ","0","0","[1411.7999999523163]","1","0","2","","","","","","","",""
"pit-trial","39","484122","0.0-2.0-11.0-2.0","battery-v0.2","","""event"",""trial"",""time""
""fullscreenenter"",""1"",""5025""
","
","
","""event"",""trial"",""time""
""fullscreenenter"",""1"",""5025""
","
","","","-1","","","10","9815","300","&#9761;","elianto","#3366ff99","-1","-1","1","+10","[]","0","0","2","","","","","","","",""
"pit-trial","40","488993","0.0-2.0-11.0-3.0","battery-v0.2","","""event"",""trial"",""time""
""fullscreenenter"",""1"",""5025""
","
","
","""event"",""trial"",""time""
""fullscreenenter"",""1"",""5025""
","
","","","-1","","","10","9815","300","&#9761;","elianto","#3366ff99","-1","-1","1","0","[]","0","0","2","","","","","","","",""
"pit-trial","41","493862","0.0-2.0-11.0-4.0","battery-v0.2","","""event"",""trial"",""time""
""fullscreenenter"",""1"",""5025""
","
","
","""event"",""trial"",""time""
""fullscreenenter"",""1"",""5025""
","
","","","-1","","","10","9815","300","&#9761;","elianto","#3366ff99","-1","-1","1","+10","[]","0","0","2","","","","","","","",""
"pit-trial","42","498736","0.0-2.0-11.1-0.1","battery-v0.2","","""event"",""trial"",""time""
""fullscreenenter"",""1"",""5025""
","
","
","""event"",""trial"",""time""
""fullscreenenter"",""1"",""5025""
","
","","","-1","","","10","9815","300","&#9761;","elianto","#3366ff99","-1","-1","1","+10","[]","0","0","2","","","","","","","",""
"pit-trial","43","503588","0.0-2.0-11.1-1.1","battery-v0.2","","""event"",""trial"",""time""
""fullscreenenter"",""1"",""5025""
","
","
","""event"",""trial"",""time""
""fullscreenenter"",""1"",""5025""
","
","","","-1","","","10","9815","300","&#9761;","elianto","#3366ff99","-1","-1","1","+10","[]","0","0","2","","","","","","","",""
"pit-trial","44","508441","0.0-2.0-11.1-2.1","battery-v0.2","","""event"",""trial"",""time""
""fullscreenenter"",""1"",""5025""
","
","
","""event"",""trial"",""time""
""fullscreenenter"",""1"",""5025""
","
","","","-1","","","10","9815","300","&#9761;","elianto","#3366ff99","-1","-1","1","+10","[]","0","0","2","","","","","","","",""
"pit-trial","45","513294","0.0-2.0-11.1-3.1","battery-v0.2","","""event"",""trial"",""time""
""fullscreenenter"",""1"",""5025""
","
","
","""event"",""trial"",""time""
""fullscreenenter"",""1"",""5025""
","
","","","-1","","","10","9815","300","&#9761;","elianto","#3366ff99","-1","-1","1","0","[]","0","0","2","","","","","","","",""
"pit-trial","46","518147","0.0-2.0-11.1-4.1","battery-v0.2","","""event"",""trial"",""time""
""fullscreenenter"",""1"",""5025""
","
","
","""event"",""trial"",""time""
""fullscreenenter"",""1"",""5025""
","
","","","-1","","","10","9815","300","&#9761;","elianto","#3366ff99","-1","-1","1","+10","[]","0","0","2","","","","","","","",""
"pit-trial","47","523003","0.0-2.0-11.2-0.2","battery-v0.2","","""event"",""trial"",""time""
""fullscreenenter"",""1"",""5025""
","
","
","""event"",""trial"",""time""
""fullscreenenter"",""1"",""5025""
","
","","","-1","","","10","9815","300","&#9761;","elianto","#3366ff99","-1","-1","1","+10","[]","0","0","2","","","","","","","",""
"pit-trial","48","527855","0.0-2.0-11.2-1.2","battery-v0.2","","""event"",""trial"",""time""
""fullscreenenter"",""1"",""5025""
","
","
","""event"",""trial"",""time""
""fullscreenenter"",""1"",""5025""
","
","","","-1","","","10","9815","300","&#9761;","elianto","#3366ff99","-1","-1","1","+10","[]","0","0","2","","","","","","","",""
"pit-trial","49","532708","0.0-2.0-11.2-2.2","battery-v0.2","","""event"",""trial"",""time""
""fullscreenenter"",""1"",""5025""
","
","
","""event"",""trial"",""time""
""fullscreenenter"",""1"",""5025""
","
","","","-1","","","10","9815","300","&#9761;","elianto","#3366ff99","-1","-1","1","+10","[]","0","0","2","","","","","","","",""
"pit-trial","50","537561","0.0-2.0-11.2-3.2","battery-v0.2","","""event"",""trial"",""time""
""fullscreenenter"",""1"",""5025""
","
","
","""event"",""trial"",""time""
""fullscreenenter"",""1"",""5025""
","
","","","-1","","","10","9815","300","&#9761;","elianto","#3366ff99","-1","-1","1","0","[]","0","0","2","","","","","","","",""
"pit-trial","51","542414","0.0-2.0-11.2-4.2","battery-v0.2","","""event"",""trial"",""time""
""fullscreenenter"",""1"",""5025""
","
","
","""event"",""trial"",""time""
""fullscreenenter"",""1"",""5025""
","
","","","-1","","","10","9815","300","&#9761;","elianto","#3366ff99","-1","-1","1","+10","[]","0","0","2","","","","","","","",""
"pit-trial","52","547268","0.0-2.0-11.3-0.3","battery-v0.2","","""event"",""trial"",""time""
""fullscreenenter"",""1"",""5025""
","
","
","""event"",""trial"",""time""
""fullscreenenter"",""1"",""5025""
","
","","","-1","","","10","9815","300","&#9761;","elianto","#3366ff99","-1","-1","1","+10","[]","0","0","2","","","","","","","",""
"pit-trial","53","552120","0.0-2.0-11.3-1.3","battery-v0.2","","""event"",""trial"",""time""
""fullscreenenter"",""1"",""5025""
","
","
","""event"",""trial"",""time""
""fullscreenenter"",""1"",""5025""
","
","","","-1","","","10","9815","300","&#9761;","elianto","#3366ff99","-1","-1","1","+10","[]","0","0","2","","","","","","","",""
"pit-trial","54","556974","0.0-2.0-11.3-2.3","battery-v0.2","","""event"",""trial"",""time""
""fullscreenenter"",""1"",""5025""
","
","
","""event"",""trial"",""time""
""fullscreenenter"",""1"",""5025""
","
","","","-1","","","10","9815","300","&#9761;","elianto","#3366ff99","-1","-1","1","+10","[]","0","0","2","","","","","","","",""
"pit-trial","55","561828","0.0-2.0-11.3-3.3","battery-v0.2","","""event"",""trial"",""time""
""fullscreenenter"",""1"",""5025""
","
","
","""event"",""trial"",""time""
""fullscreenenter"",""1"",""5025""
","
","","","-1","","","10","9815","300","&#9761;","elianto","#3366ff99","-1","-1","1","0","[]","0","0","2","","","","","","","",""
"pit-trial","56","566680","0.0-2.0-11.3-4.3","battery-v0.2","","""event"",""trial"",""time""
""fullscreenenter"",""1"",""5025""
","
","
","""event"",""trial"",""time""
""fullscreenenter"",""1"",""5025""
","
","","","-1","","","10","9815","300","&#9761;","elianto","#3366ff99","-1","-1","1","+10","[]","0","0","2","","","","","","","",""
"call-function","57","566681","0.0-2.0-12.0","battery-v0.2","","""event"",""trial"",""time""
""fullscreenenter"",""1"",""5025""
","
","
","""event"",""trial"",""time""
""fullscreenenter"",""1"",""5025""
","
","","","","","","","","","","","","","","","","","","","","","","","","","","",""
"pit-instructions","58","614491","0.0-2.0-13.0","battery-v0.2","","""event"",""trial"",""time""
""fullscreenenter"",""1"",""5025""
","
","
","""event"",""trial"",""time""
""fullscreenenter"",""1"",""5025""
","
","","[{""page_index"":0,""viewing_time"":10980.799999952316},{""page_index"":1,""viewing_time"":8695.700000047684},{""page_index"":2,""viewing_time"":5380.400000095367},{""page_index"":3,""viewing_time"":16101.200000047684},{""page_index"":4,""viewing_time"":6651.599999904633}]","47810","","","","","","","","","","","","","","","","","","","","","","","",""
"pit-trial","59","619357","0.0-2.0-14.0-0.0","battery-v0.2","","""event"",""trial"",""time""
""fullscreenenter"",""1"",""5025""
","
","
","""event"",""trial"",""time""
""fullscreenenter"",""1"",""5025""
","
","","","-1","","","10","9815","300","&#9826;","elianto","#f73b6a7A","-1","-1","1","0","[3162.7000000476837]","1","0","3","","","","","","","",""
"pit-trial","60","624226","0.0-2.0-14.0-1.0","battery-v0.2","","""event"",""trial"",""time""
""fullscreenenter"",""1"",""5025""
","
","
","""event"",""trial"",""time""
""fullscreenenter"",""1"",""5025""
","
","","","-1","","","10","9815","300","&#9826;","elianto","#f73b6a7A","-1","-1","1","0","[]","0","0","3","","","","","","","",""
"pit-trial","61","627635","0.0-2.0-14.0-2.0","battery-v0.2","","""event"",""trial"",""time""
""fullscreenenter"",""1"",""5025""
","
","
","""event"",""trial"",""time""
""fullscreenenter"",""1"",""5025""
","
","","","546.6000001430511","","","10","9815","300","&#9826;","elianto","#f73b6a7A","-1"," ","0","-10","[1399.7000000476837]","1","0","3","","","","","","","",""
"pit-trial","62","632501","0.0-2.0-14.0-3.0","battery-v0.2","","""event"",""trial"",""time""
""fullscreenenter"",""1"",""5025""
","
","
","""event"",""trial"",""time""
""fullscreenenter"",""1"",""5025""
","
","","","-1","","","10","9815","300","&#9826;","elianto","#f73b6a7A","-1","-1","1","-10","[]","0","0","3","","","","","","","",""
"pit-trial","63","635989","0.0-2.0-14.0-4.0","battery-v0.2","","""event"",""trial"",""time""
""fullscreenenter"",""1"",""5025""
","
","
","""event"",""trial"",""time""
""fullscreenenter"",""1"",""5025""
","
","","","633.1000001430511","","","10","9815","300","&#9826;","elianto","#f73b6a7A","-1"," ","0","-10","[1484.2000000476837]","1","0","3","","","","","","","",""
"pit-trial","64","640848","0.0-2.0-14.1-0.1","battery-v0.2","","""event"",""trial"",""time""
""fullscreenenter"",""1"",""5025""
","
","
","""event"",""trial"",""time""
""fullscreenenter"",""1"",""5025""
","
","","","-1","","","10","9815","300","&#9826;","elianto","#f73b6a7A","-1","-1","1","0","[]","0","0","3","","","","","","","",""
"pit-trial","65","645701","0.0-2.0-14.1-1.1","battery-v0.2","","""event"",""trial"",""time""
""fullscreenenter"",""1"",""5025""
","
","
","""event"",""trial"",""time""
""fullscreenenter"",""1"",""5025""
","
","","","-1","","","10","9815","300","&#9826;","elianto","#f73b6a7A","-1","-1","1","0","[]","0","0","3","","","","","","","",""
"pit-trial","66","650554","0.0-2.0-14.1-2.1","battery-v0.2","","""event"",""trial"",""time""
""fullscreenenter"",""1"",""5025""
","
","
","""event"",""trial"",""time""
""fullscreenenter"",""1"",""5025""
","
","","","-1","","","10","9815","300","&#9826;","elianto","#f73b6a7A","-1","-1","1","0","[]","0","0","3","","","","","","","",""
"pit-trial","67","655407","0.0-2.0-14.1-3.1","battery-v0.2","","""event"",""trial"",""time""
""fullscreenenter"",""1"",""5025""
","
","
","""event"",""trial"",""time""
""fullscreenenter"",""1"",""5025""
","
","","","-1","","","10","9815","300","&#9826;","elianto","#f73b6a7A","-1","-1","1","-10","[]","0","0","3","","","","","","","",""
"pit-trial","68","660259","0.0-2.0-14.1-4.1","battery-v0.2","","""event"",""trial"",""time""
""fullscreenenter"",""1"",""5025""
","
","
","""event"",""trial"",""time""
""fullscreenenter"",""1"",""5025""
","
","","","-1","","","10","9815","300","&#9826;","elianto","#f73b6a7A","-1","-1","1","0","[]","0","0","3","","","","","","","",""
"pit-trial","69","665112","0.0-2.0-14.2-0.2","battery-v0.2","","""event"",""trial"",""time""
""fullscreenenter"",""1"",""5025""
","
","
","""event"",""trial"",""time""
""fullscreenenter"",""1"",""5025""
","
","","","-1","","","10","9815","300","&#9826;","elianto","#f73b6a7A","-1","-1","1","0","[]","0","0","3","","","","","","","",""
"pit-trial","70","669964","0.0-2.0-14.2-1.2","battery-v0.2","","""event"",""trial"",""time""
""fullscreenenter"",""1"",""5025""
","
","
","""event"",""trial"",""time""
""fullscreenenter"",""1"",""5025""
","
","","","-1","","","10","9815","300","&#9826;","elianto","#f73b6a7A","-1","-1","1","0","[]","0","0","3","","","","","","","",""
"pit-trial","71","674818","0.0-2.0-14.2-2.2","battery-v0.2","","""event"",""trial"",""time""
""fullscreenenter"",""1"",""5025""
","
","
","""event"",""trial"",""time""
""fullscreenenter"",""1"",""5025""
","
","","","-1","","","10","9815","300","&#9826;","elianto","#f73b6a7A","-1","-1","1","0","[]","0","0","3","","","","","","","",""
"pit-trial","72","679671","0.0-2.0-14.2-3.2","battery-v0.2","","""event"",""trial"",""time""
""fullscreenenter"",""1"",""5025""
","
","
","""event"",""trial"",""time""
""fullscreenenter"",""1"",""5025""
","
","","","-1","","","10","9815","300","&#9826;","elianto","#f73b6a7A","-1","-1","1","-10","[]","0","0","3","","","","","","","",""
"pit-trial","73","684524","0.0-2.0-14.2-4.2","battery-v0.2","","""event"",""trial"",""time""
""fullscreenenter"",""1"",""5025""
","
","
","""event"",""trial"",""time""
""fullscreenenter"",""1"",""5025""
","
","","","-1","","","10","9815","300","&#9826;","elianto","#f73b6a7A","-1","-1","1","0","[]","0","0","3","","","","","","","",""
"pit-trial","74","689376","0.0-2.0-14.3-0.3","battery-v0.2","","""event"",""trial"",""time""
""fullscreenenter"",""1"",""5025""
","
","
","""event"",""trial"",""time""
""fullscreenenter"",""1"",""5025""
","
","","","-1","","","10","9815","300","&#9826;","elianto","#f73b6a7A","-1","-1","1","0","[]","0","0","3","","","","","","","",""
"pit-trial","75","694229","0.0-2.0-14.3-1.3","battery-v0.2","","""event"",""trial"",""time""
""fullscreenenter"",""1"",""5025""
","
","
","""event"",""trial"",""time""
""fullscreenenter"",""1"",""5025""
","
","","","-1","","","10","9815","300","&#9826;","elianto","#f73b6a7A","-1","-1","1","0","[]","0","0","3","","","","","","","",""
"pit-trial","76","699082","0.0-2.0-14.3-2.3","battery-v0.2","","""event"",""trial"",""time""
""fullscreenenter"",""1"",""5025""
","
","
","""event"",""trial"",""time""
""fullscreenenter"",""1"",""5025""
","
","","","-1","","","10","9815","300","&#9826;","elianto","#f73b6a7A","-1","-1","1","0","[]","0","0","3","","","","","","","",""
"pit-trial","77","703936","0.0-2.0-14.3-3.3","battery-v0.2","","""event"",""trial"",""time""
""fullscreenenter"",""1"",""5025""
","
","
","""event"",""trial"",""time""
""fullscreenenter"",""1"",""5025""
","
","","","-1","","","10","9815","300","&#9826;","elianto","#f73b6a7A","-1","-1","1","-10","[]","0","0","3","","","","","","","",""
"pit-trial","78","708789","0.0-2.0-14.3-4.3","battery-v0.2","","""event"",""trial"",""time""
""fullscreenenter"",""1"",""5025""
","
","
","""event"",""trial"",""time""
""fullscreenenter"",""1"",""5025""
","
","","","-1","","","10","9815","300","&#9826;","elianto","#f73b6a7A","-1","-1","1","0","[]","0","0","3","","","","","","","",""
"call-function","79","708790","0.0-2.0-15.0","battery-v0.2","","""event"",""trial"",""time""
""fullscreenenter"",""1"",""5025""
","
","
","""event"",""trial"",""time""
""fullscreenenter"",""1"",""5025""
","
","","","","","","","","","","","","","","","","","","","","","","","","","","",""
"pit-instructions","80","736076","0.0-2.0-16.0","battery-v0.2","","""event"",""trial"",""time""
""fullscreenenter"",""1"",""5025""
","
","
","""event"",""trial"",""time""
""fullscreenenter"",""1"",""5025""
","
","","[{""page_index"":0,""viewing_time"":7817.299999952316},{""page_index"":1,""viewing_time"":9910},{""page_index"":2,""viewing_time"":4773.299999952316},{""page_index"":3,""viewing_time"":4784.900000095367}]","27285.699999809265","","","","","","","","","","","","","","","","","","","","","","","",""
"pit-trial","81","740481","0.0-2.0-17.0-0.0","battery-v0.2","","""event"",""trial"",""time""
""fullscreenenter"",""1"",""5025""
","
","
","""event"",""trial"",""time""
""fullscreenenter"",""1"",""5025""
","
","","","1550.5","","","10","9815","300","&#9789;","elianto","#f73b6a7A"," "," ","1","0","[2402]","1","0","4","","","","","","","",""
"pit-trial","82","743925","0.0-2.0-17.0-1.0","battery-v0.2","","""event"",""trial"",""time""
""fullscreenenter"",""1"",""5025""
","
","
","""event"",""trial"",""time""
""fullscreenenter"",""1"",""5025""
","
","","","583.4000000953674","","","10","9815","300","&#9789;","elianto","#f73b6a7A"," "," ","1","0","[1436]","1","0","4","","","","","","","",""
"pit-trial","83","747373","0.0-2.0-17.0-2.0","battery-v0.2","","""event"",""trial"",""time""
""fullscreenenter"",""1"",""5025""
","
","
","""event"",""trial"",""time""
""fullscreenenter"",""1"",""5025""
","
","","","584.9000000953674","","","10","9815","300","&#9789;","elianto","#f73b6a7A"," "," ","1","0","[1438.5]","1","0","4","","","","","","","",""
"pit-trial","84","750673","0.0-2.0-17.0-3.0","battery-v0.2","","""event"",""trial"",""time""
""fullscreenenter"",""1"",""5025""
","
","
","""event"",""trial"",""time""
""fullscreenenter"",""1"",""5025""
","
","","","448.40000009536743","","","10","9815","300","&#9789;","elianto","#f73b6a7A"," "," ","1","-10","[1298.5999999046326]","1","0","4","","","","","","","",""
"pit-trial","85","753851","0.0-2.0-17.0-4.0","battery-v0.2","","""event"",""trial"",""time""
""fullscreenenter"",""1"",""5025""
","
","
","""event"",""trial"",""time""
""fullscreenenter"",""1"",""5025""
","
","","","314.09999990463257","","","10","9815","300","&#9789;","elianto","#f73b6a7A"," "," ","1","0","[1168.0999999046326]","1","0","4","","","","","","","",""
"pit-trial","86","757525","0.0-2.0-17.1-0.1","battery-v0.2","","""event"",""trial"",""time""
""fullscreenenter"",""1"",""5025""
","
","
","""event"",""trial"",""time""
""fullscreenenter"",""1"",""5025""
","
","","","817.7999999523163","","","10","9815","300","&#9789;","elianto","#f73b6a7A"," "," ","1","0","[1670.5]","1","0","4","","","","","","","",""
"pit-trial","87","760883","0.0-2.0-17.1-1.1","battery-v0.2","","""event"",""trial"",""time""
""fullscreenenter"",""1"",""5025""
","
","
","""event"",""trial"",""time""
""fullscreenenter"",""1"",""5025""
","
","","","502.5","","","10","9815","300","&#9789;","elianto","#f73b6a7A"," "," ","1","0","[1356.1000001430511]","1","0","4","","","","","","","",""
"pit-trial","88","764302","0.0-2.0-17.1-2.1","battery-v0.2","","""event"",""trial"",""time""
""fullscreenenter"",""1"",""5025""
","
","
","""event"",""trial"",""time""
""fullscreenenter"",""1"",""5025""
","
","","","552.5","","","10","9815","300","&#9789;","elianto","#f73b6a7A"," "," ","1","0","[1403.3000001907349]","1","0","4","","","","","","","",""
"pit-trial","89","767656","0.0-2.0-17.1-3.1","battery-v0.2","","""event"",""trial"",""time""
""fullscreenenter"",""1"",""5025""
","
","
","""event"",""trial"",""time""
""fullscreenenter"",""1"",""5025""
","
","","","492.7000000476837","","","10","9815","300","&#9789;","elianto","#f73b6a7A"," "," ","1","-10","[1350.5]","1","0","4","","","","","","","",""
"pit-trial","90","770990","0.0-2.0-17.1-4.1","battery-v0.2","","""event"",""trial"",""time""
""fullscreenenter"",""1"",""5025""
","
","
","""event"",""trial"",""time""
""fullscreenenter"",""1"",""5025""
","
","","","480.60000014305115","","","10","9815","300","&#9789;","elianto","#f73b6a7A"," "," ","1","0","[1331.5]","1","0","4","","","","","","","",""
"pit-trial","91","774375","0.0-2.0-17.2-0.2","battery-v0.2","","""event"",""trial"",""time""
""fullscreenenter"",""1"",""5025""
","
","
","""event"",""trial"",""time""
""fullscreenenter"",""1"",""5025""
","
","","","532.6000001430511","","","10","9815","300","&#9789;","elianto","#f73b6a7A"," "," ","1","0","[1383.2000000476837]","1","0","4","","","","","","","",""
"pit-trial","92","777726","0.0-2.0-17.2-1.2","battery-v0.2","","""event"",""trial"",""time""
""fullscreenenter"",""1"",""5025""
","
","
","""event"",""trial"",""time""
""fullscreenenter"",""1"",""5025""
","
","","","498.59999990463257","","","10","9815","300","&#9789;","elianto","#f73b6a7A"," "," ","1","0","[1349.2000000476837]","1","0","4","","","","","","","",""
"pit-trial","93","781119","0.0-2.0-17.2-2.2","battery-v0.2","","""event"",""trial"",""time""
""fullscreenenter"",""1"",""5025""
","
","
","""event"",""trial"",""time""
""fullscreenenter"",""1"",""5025""
","
","","","540.3999998569489","","","10","9815","300","&#9789;","elianto","#f73b6a7A"," "," ","1","0","[1390.5]","1","0","4","","","","","","","",""
"pit-trial","94","784549","0.0-2.0-17.2-3.2","battery-v0.2","","""event"",""trial"",""time""
""fullscreenenter"",""1"",""5025""
","
","
","""event"",""trial"",""time""
""fullscreenenter"",""1"",""5025""
","
","","","576.6000001430511","","","10","9815","300","&#9789;","elianto","#f73b6a7A"," "," ","1","-10","[1427.5]","1","0","4","","","","","","","",""
"pit-trial","95","787804","0.0-2.0-17.2-4.2","battery-v0.2","","""event"",""trial"",""time""
""fullscreenenter"",""1"",""5025""
","
","
","""event"",""trial"",""time""
""fullscreenenter"",""1"",""5025""
","
","","","400.89999985694885","","","10","9815","300","&#9789;","elianto","#f73b6a7A"," "," ","1","0","[1252.7000000476837]","1","0","4","","","","","","","",""
"pit-trial","96","791057","0.0-2.0-17.3-0.3","battery-v0.2","","""event"",""trial"",""time""
""fullscreenenter"",""1"",""5025""
","
","
","""event"",""trial"",""time""
""fullscreenenter"",""1"",""5025""
","
","","","400.2999999523163","","","10","9815","300","&#9789;","elianto","#f73b6a7A"," "," ","1","0","[1250.7000000476837]","1","0","4","","","","","","","",""
"pit-trial","97","794327","0.0-2.0-17.3-1.3","battery-v0.2","","""event"",""trial"",""time""
""fullscreenenter"",""1"",""5025""
","
","
","""event"",""trial"",""time""
""fullscreenenter"",""1"",""5025""
","
","","","416.40000009536743","","","10","9815","300","&#9789;","elianto","#f73b6a7A"," "," ","1","0","[1267.2000000476837]","1","0","4","","","","","","","",""
"pit-trial","98","797576","0.0-2.0-17.3-2.3","battery-v0.2","","""event"",""trial"",""time""
""fullscreenenter"",""1"",""5025""
","
","
","""event"",""trial"",""time""
""fullscreenenter"",""1"",""5025""
","
","","","396.2999999523163","","","10","9815","300","&#9789;","elianto","#f73b6a7A"," "," ","1","0","[1246.8999998569489]","1","0","4","","","","","","","",""
"pit-trial","99","800934","0.0-2.0-17.3-3.3","battery-v0.2","","""event"",""trial"",""time""
""fullscreenenter"",""1"",""5025""
","
","
","""event"",""trial"",""time""
""fullscreenenter"",""1"",""5025""
","
","","","505.89999985694885","","","10","9815","300","&#9789;","elianto","#f73b6a7A"," "," ","1","-10","[1356]","1","0","4","","","","","","","",""
"pit-trial","100","804243","0.0-2.0-17.3-4.3","battery-v0.2","","""event"",""trial"",""time""
""fullscreenenter"",""1"",""5025""
","
","
","""event"",""trial"",""time""
""fullscreenenter"",""1"",""5025""
","
","","","456.90000009536743","","","10","9815","300","&#9789;","elianto","#f73b6a7A"," "," ","1","0","[1307.0999999046326]","1","0","4","","","","","","","",""
"call-function","101","804244","0.0-2.0-18.0","battery-v0.2","","""event"",""trial"",""time""
""fullscreenenter"",""1"",""5025""
","
","
","""event"",""trial"",""time""
""fullscreenenter"",""1"",""5025""
","
","","","","","","","","","","","","","","","","","","","","","","","","","","",""
"pit-instructions","102","879453","0.0-2.0-19.0","battery-v0.2","","""event"",""trial"",""time""
""fullscreenenter"",""1"",""5025""
","
","
","""event"",""trial"",""time""
""fullscreenenter"",""1"",""5025""
","
","","[{""page_index"":0,""viewing_time"":6561.799999952316},{""page_index"":1,""viewing_time"":6598.300000190735},{""page_index"":2,""viewing_time"":18076.39999985695},{""page_index"":3,""viewing_time"":7847.200000047684},{""page_index"":4,""viewing_time"":8344},{""page_index"":5,""viewing_time"":9535},{""page_index"":6,""viewing_time"":8152.700000047684},{""page_index"":7,""viewing_time"":6352.200000047684},{""page_index"":8,""viewing_time"":3740.199999809265}]","75208.10000014305","","","","","","","","","","","","","","","","","","","","","","","",""
"pit-comprehension","103","885108","0.0-2.0-20.0-0.0","battery-v0.2","","""event"",""trial"",""time""
""fullscreenenter"",""1"",""5025""
","
","
","""event"",""trial"",""time""
""fullscreenenter"",""1"",""5025""
","
","","","5653.199999809265","[""SPACE""]","0","10","9815","300","","","","","","","","","","","","","","","","","","",""
"pit-instructions","104","888496","0.0-2.0-20.0-1.0","battery-v0.2","","""event"",""trial"",""time""
""fullscreenenter"",""1"",""5025""
","
","
","""event"",""trial"",""time""
""fullscreenenter"",""1"",""5025""
","
","","[{""page_index"":0,""viewing_time"":3342.7000000476837}]","3342.9000000953674","","","","","","","","","","","","","","","","","","","","","","","",""
"pit-comprehension","105","894484","0.0-2.0-21.0-0.0","battery-v0.2","","""event"",""trial"",""time""
""fullscreenenter"",""1"",""5025""
","
","
","""event"",""trial"",""time""
""fullscreenenter"",""1"",""5025""
","
","","","5985.100000143051","[""10""]","0","10","9815","300","","","","","","","","","","","","","","","","","","",""
"pit-instructions","106","896217","0.0-2.0-21.0-1.0","battery-v0.2","","""event"",""trial"",""time""
""fullscreenenter"",""1"",""5025""
","
","
","""event"",""trial"",""time""
""fullscreenenter"",""1"",""5025""
","
","","[{""page_index"":0,""viewing_time"":1688}]","1688.2000000476837","","","","","","","","","","","","","","","","","","","","","","","",""
"pit-comprehension","107","902922","0.0-2.0-22.0-0.0","battery-v0.2","","""event"",""trial"",""time""
""fullscreenenter"",""1"",""5025""
","
","
","""event"",""trial"",""time""
""fullscreenenter"",""1"",""5025""
","
","","","6702.299999952316","[""-10""]","1","10","9815","300","","","","","","","","","","","","","","","","","","",""
"pit-instructions","108","904932","0.0-2.0-22.0-1.0","battery-v0.2","","""event"",""trial"",""time""
""fullscreenenter"",""1"",""5025""
","
","
","""event"",""trial"",""time""
""fullscreenenter"",""1"",""5025""
","
","","[{""page_index"":0,""viewing_time"":1968.9000000953674}]","1969.1000001430511","","","","","","","","","","","","","","","","","","","","","","","",""
"pit-instructions","109","906202","0.0-2.0-22.0-2.0-0.0","battery-v0.2","","""event"",""trial"",""time""
""fullscreenenter"",""1"",""5025""
","
","
","""event"",""trial"",""time""
""fullscreenenter"",""1"",""5025""
","
","","[{""page_index"":0,""viewing_time"":1268}]","1268.1999998092651","","","","","","","","","","","","","","","","","","","","","","","",""
"pit-comprehension","110","912714","0.0-2.0-22.1-0.1","battery-v0.2","","""event"",""trial"",""time""
""fullscreenenter"",""1"",""5025""
","
","
","""event"",""trial"",""time""
""fullscreenenter"",""1"",""5025""
","
","","","6510","[""0""]","0","10","9815","300","","","","","","","","","","","","","","","","","","",""
"pit-instructions","111","914603","0.0-2.0-22.1-1.1","battery-v0.2","","""event"",""trial"",""time""
""fullscreenenter"",""1"",""5025""
","
","
","""event"",""trial"",""time""
""fullscreenenter"",""1"",""5025""
","
","","[{""page_index"":0,""viewing_time"":1845.2000000476837}]","1845.3999998569489","","","","","","","","","","","","","","","","","","","","","","","",""
"pit-comprehension","112","926974","0.0-2.0-23.0-0.0","battery-v0.2","","""event"",""trial"",""time""
""fullscreenenter"",""1"",""5025""
","
","
","""event"",""trial"",""time""
""fullscreenenter"",""1"",""5025""
","
","","","12368.599999904633","[""True""]","0","10","9815","300","","","","","","","","","","","","","","","","","","",""
"pit-instructions","113","928676","0.0-2.0-23.0-1.0","battery-v0.2","","""event"",""trial"",""time""
""fullscreenenter"",""1"",""5025""
","
","
","""event"",""trial"",""time""
""fullscreenenter"",""1"",""5025""
","
","","[{""page_index"":0,""viewing_time"":1653.7999999523163}]","1654","","","","","","","","","","","","","","","","","","","","","","","",""
"pit-comprehension","114","936702","0.0-2.0-24.0-0.0","battery-v0.2","","""event"",""trial"",""time""
""fullscreenenter"",""1"",""5025""
","
","
","""event"",""trial"",""time""
""fullscreenenter"",""1"",""5025""
","
","","","8023.199999809265","[""True""]","0","10","9815","300","","","","","","","","","","","","","","","","","","",""
"pit-instructions","115","938361","0.0-2.0-24.0-1.0","battery-v0.2","","""event"",""trial"",""time""
""fullscreenenter"",""1"",""5025""
","
","
","""event"",""trial"",""time""
""fullscreenenter"",""1"",""5025""
","
","","[{""page_index"":0,""viewing_time"":1614.9000000953674}]","1615.0999999046326","","","","","","","","","","","","","","","","","","","","","","","",""
"pit-comprehension","116","945504","0.0-2.0-25.0-0.0","battery-v0.2","","""event"",""trial"",""time""
""fullscreenenter"",""1"",""5025""
","
","
","""event"",""trial"",""time""
""fullscreenenter"",""1"",""5025""
","
","","","7139.900000095367","[""True""]","0","10","9815","300","","","","","","","","","","","","","","","","","","",""
"pit-instructions","117","947335","0.0-2.0-25.0-1.0","battery-v0.2","","""event"",""trial"",""time""
""fullscreenenter"",""1"",""5025""
","
","
","""event"",""trial"",""time""
""fullscreenenter"",""1"",""5025""
","
","","[{""page_index"":0,""viewing_time"":1785.5}]","1785.6999998092651","","","","","","","","","","","","","","","","","","","","","","","",""
"pit-comprehension","118","953623","0.0-2.0-26.0-0.0","battery-v0.2","","""event"",""trial"",""time""
""fullscreenenter"",""1"",""5025""
","
","
","""event"",""trial"",""time""
""fullscreenenter"",""1"",""5025""
","
","","","6284.900000095367","[""False""]","0","10","9815","300","","","","","","","","","","","","","","","","","","",""
"pit-instructions","119","955217","0.0-2.0-26.0-1.0","battery-v0.2","","""event"",""trial"",""time""
""fullscreenenter"",""1"",""5025""
","
","
","""event"",""trial"",""time""
""fullscreenenter"",""1"",""5025""
","
","","[{""page_index"":0,""viewing_time"":1545.7000000476837}]","1546","","","","","","","","","","","","","","","","","","","","","","","",""
"pit-instructions","120","972210","0.0-3.0","battery-v0.2","","""event"",""trial"",""time""
""fullscreenenter"",""1"",""5025""
","
","
","""event"",""trial"",""time""
""fullscreenenter"",""1"",""5025""
","
","","[{""page_index"":0,""viewing_time"":4365.5},{""page_index"":1,""viewing_time"":5011.300000190735},{""page_index"":2,""viewing_time"":7615.199999809265}]","16992.200000047684","","","","","","","","","","","","","","","","","","","","","","","",""
"pit-trial","121","976020","0.0-4.0","battery-v0.2","","""event"",""trial"",""time""
""fullscreenenter"",""1"",""5025""
","
","
","""event"",""trial"",""time""
""fullscreenenter"",""1"",""5025""
","
","","","952.2999999523163","","","10","9815","300","&#9728;","elianto","#f73b6a7A","-1"," ","0","-10","[1803.2999999523163]","1","1","","","9815","1","0","4","lose","no-go","0"
"pit-trial","122","979542","0.0-5.0","battery-v0.2","","""event"",""trial"",""time""
""fullscreenenter"",""1"",""5025""
","
","
","""event"",""trial"",""time""
""fullscreenenter"",""1"",""5025""
","
","","","662.7000000476837","","","10","9815","300","&#9752;","elianto","#f73b6a7A"," "," ","1","0","[1517.2999999523163]","1","1","","","9815","2","3","3","lose","go","0"
"pit-trial","123","983280","0.0-6.0","battery-v0.2","","""event"",""trial"",""time""
""fullscreenenter"",""1"",""5025""
","
","
","""event"",""trial"",""time""
""fullscreenenter"",""1"",""5025""
","
","","","870","","","10","9815","300","&#9730;","elianto","#3366ff99"," "," ","1","+10","[1726.8000001907349]","1","1","","","9815","3","1","1","win","go","0"
"pit-trial","124","986940","0.0-7.0","battery-v0.2","","""event"",""trial"",""time""
""fullscreenenter"",""1"",""5025""
","
","
","""event"",""trial"",""time""
""fullscreenenter"",""1"",""5025""
","
","","","788.7000000476837","","","10","9815","300","&#9733;","elianto","#3366ff99","-1"," ","0","0","[1646.5]","1","1","","","9815","4","2","2","win","no-go","0"
"pit-trial","125","990922","0.0-8.0","battery-v0.2","","""event"",""trial"",""time""
""fullscreenenter"",""1"",""5025""
","
","
","""event"",""trial"",""time""
""fullscreenenter"",""1"",""5025""
","
","","","1124.1000001430511","","","10","9815","300","&#9752;","elianto","#f73b6a7A"," "," ","1","0","[1974.3000001907349]","1","1","","","9815","5","3","3","lose","go","0"
"pit-trial","126","994734","0.0-9.0","battery-v0.2","","""event"",""trial"",""time""
""fullscreenenter"",""1"",""5025""
","
","
","""event"",""trial"",""time""
""fullscreenenter"",""1"",""5025""
","
","","","944.5999999046326","","","10","9815","300","&#9730;","elianto","#3366ff99"," "," ","1","+10","[1800.7999999523163]","1","1","","","9815","6","1","1","win","go","0"
"pit-trial","127","998356","0.0-10.0","battery-v0.2","","""event"",""trial"",""time""
""fullscreenenter"",""1"",""5025""
","
","
","""event"",""trial"",""time""
""fullscreenenter"",""1"",""5025""
","
","","","758.8000001907349","","","10","9815","300","&#9733;","elianto","#3366ff99","-1"," ","0","+10","[1614.5]","1","1","","","9815","7","2","2","win","no-go","1"
"pit-trial","128","1002086","0.0-11.0","battery-v0.2","","""event"",""trial"",""time""
""fullscreenenter"",""1"",""5025""
","
","
","""event"",""trial"",""time""
""fullscreenenter"",""1"",""5025""
","
","","","871.6000001430511","","","10","9815","300","&#9728;","elianto","#f73b6a7A","-1"," ","0","-10","[1725.1000001430511]","1","1","","","9815","8","0","4","lose","no-go","0"
"pit-trial","129","1005583","0.0-12.0","battery-v0.2","","""event"",""trial"",""time""
""fullscreenenter"",""1"",""5025""
","
","
","""event"",""trial"",""time""
""fullscreenenter"",""1"",""5025""
","
","","","644.0999999046326","","","10","9815","300","&#9752;","elianto","#f73b6a7A"," "," ","1","0","[1494.7999999523163]","1","1","","","9815","9","3","3","lose","go","0"
"pit-trial","130","1009036","0.0-13.0","battery-v0.2","","""event"",""trial"",""time""
""fullscreenenter"",""1"",""5025""
","
","
","""event"",""trial"",""time""
""fullscreenenter"",""1"",""5025""
","
","","","599.6000001430511","","","10","9815","300","&#9733;","elianto","#3366ff99","-1"," ","0","+10","[1451.9000000953674]","1","1","","","9815","10","2","2","win","no-go","1"
"pit-trial","131","1013889","0.0-14.0","battery-v0.2","","""event"",""trial"",""time""
""fullscreenenter"",""1"",""5025""
","
","
","""event"",""trial"",""time""
""fullscreenenter"",""1"",""5025""
","
","","","-1","","","10","9815","300","&#9728;","elianto","#f73b6a7A","-1","-1","1","0","[]","0","1","","","9815","11","0","4","lose","no-go","0"
"pit-trial","132","1017598","0.0-15.0","battery-v0.2","","""event"",""trial"",""time""
""fullscreenenter"",""1"",""5025""
","
","
","""event"",""trial"",""time""
""fullscreenenter"",""1"",""5025""
","
","","","856.3999998569489","","","10","9815","300","&#9730;","elianto","#3366ff99"," "," ","1","+10","[1706.7999999523163]","1","1","","","9815","12","1","1","win","go","0"
"pit-trial","133","1021204","0.0-16.0","battery-v0.2","","""event"",""trial"",""time""
""fullscreenenter"",""1"",""5025""
","
","
","""event"",""trial"",""time""
""fullscreenenter"",""1"",""5025""
","
","","","753.5999999046326","","","10","9815","300","&#9752;","elianto","#f73b6a7A"," "," ","1","0","[1603.7999999523163]","1","1","","","9815","13","3","3","lose","go","0"
"pit-trial","134","1024732","0.0-17.0","battery-v0.2","","""event"",""trial"",""time""
""fullscreenenter"",""1"",""5025""
","
","
","""event"",""trial"",""time""
""fullscreenenter"",""1"",""5025""
","
","","","674.7999999523163","","","10","9815","300","&#9730;","elianto","#3366ff99"," "," ","1","+10","[1525.5999999046326]","1","1","","","9815","14","1","1","win","go","0"
"pit-trial","135","1028184","0.0-18.0","battery-v0.2","","""event"",""trial"",""time""
""fullscreenenter"",""1"",""5025""
","
","
","""event"",""trial"",""time""
""fullscreenenter"",""1"",""5025""
","
","","","599.0999999046326","","","10","9815","300","&#9733;","elianto","#3366ff99","-1"," ","0","+10","[1449.3999998569489]","1","1","","","9815","15","2","2","win","no-go","1"
"pit-trial","136","1033036","0.0-19.0","battery-v0.2","","""event"",""trial"",""time""
""fullscreenenter"",""1"",""5025""
","
","
","""event"",""trial"",""time""
""fullscreenenter"",""1"",""5025""
","
","","","-1","","","10","9815","300","&#9728;","elianto","#f73b6a7A","-1","-1","1","0","[]","0","1","","","9815","16","0","4","lose","no-go","0"
"pit-trial","137","1037259","0.0-20.0","battery-v0.2","","""event"",""trial"",""time""
""fullscreenenter"",""1"",""5025""
","
","
","""event"",""trial"",""time""
""fullscreenenter"",""1"",""5025""
","
","","","1370.6999998092651","","","10","9815","300","&#9728;","elianto","#f73b6a7A","-1"," ","0","0","[2221.7999999523163]","1","1","","","9815","17","0","4","lose","no-go","1"
"pit-trial","138","1040947","0.0-21.0","battery-v0.2","","""event"",""trial"",""time""
""fullscreenenter"",""1"",""5025""
","
","
","""event"",""trial"",""time""
""fullscreenenter"",""1"",""5025""
","
","","","835.1999998092651","","","10","9815","300","&#9752;","elianto","#f73b6a7A"," "," ","1","0","[1685.5]","1","1","","","9815","18","3","3","lose","go","0"
"pit-trial","139","1044483","0.0-22.0","battery-v0.2","","""event"",""trial"",""time""
""fullscreenenter"",""1"",""5025""
","
","
","""event"",""trial"",""time""
""fullscreenenter"",""1"",""5025""
","
","","","681.5","","","10","9815","300","&#9730;","elianto","#3366ff99"," "," ","1","+10","[1532.9000000953674]","1","1","","","9815","19","1","1","win","go","0"
"pit-trial","140","1047832","0.0-23.0","battery-v0.2","","""event"",""trial"",""time""
""fullscreenenter"",""1"",""5025""
","
","
","""event"",""trial"",""time""
""fullscreenenter"",""1"",""5025""
","
","","","496.5","","","10","9815","300","&#9733;","elianto","#3366ff99","-1"," ","0","0","[1347]","1","1","","","9815","20","2","2","win","no-go","0"
"pit-instructions","141","1075112","0.0-24.0","battery-v0.2","","""event"",""trial"",""time""
""fullscreenenter"",""1"",""5025""
","
","
","""event"",""trial"",""time""
""fullscreenenter"",""1"",""5025""
","
","","[{""page_index"":0,""viewing_time"":6861},{""page_index"":1,""viewing_time"":20418}]","27279.200000047684","","","","","","","","","","","","","","","","","","","","","","","",""
"pit-trial","142","1078918","0.0-25.0","battery-v0.2","","""event"",""trial"",""time""
""fullscreenenter"",""1"",""5025""
","
","
","""event"",""trial"",""time""
""fullscreenenter"",""1"",""5025""
","
","","","950.7000000476837","","","10","9815","300","t","elianto","#f73b6a7A","-1"," ","0","-10","[1801.9000000953674]","1","2","","","9815","21","2","4","lose","no-go","0"
"pit-trial","143","1082547","0.0-26.0","battery-v0.2","","""event"",""trial"",""time""
""fullscreenenter"",""1"",""5025""
","
","
","""event"",""trial"",""time""
""fullscreenenter"",""1"",""5025""
","
","","","763.0999999046326","","","10","9815","300","b","elianto","#f73b6a7A"," "," ","1","0","[1619.0999999046326]","1","2","","","9815","22","3","3","lose","go","0"
"pit-trial","144","1086253","0.0-27.0","battery-v0.2","","""event"",""trial"",""time""
""fullscreenenter"",""1"",""5025""
","
","
","""event"",""trial"",""time""
""fullscreenenter"",""1"",""5025""
","
","","","846.5999999046326","","","10","9815","300","f","elianto","#3366ff99"," "," ","1","+10","[1699.0999999046326]","1","2","","","9815","23","1","1","win","go","0"
"pit-trial","145","1089826","0.0-28.0","battery-v0.2","","""event"",""trial"",""time""
""fullscreenenter"",""1"",""5025""
","
","
","""event"",""trial"",""time""
""fullscreenenter"",""1"",""5025""
","
","","","713.4000000953674","","","10","9815","300","n","elianto","#f73b6a7A","-1"," ","0","-10","[1564.7000000476837]","1","2","","","9815","24","0","4","lose","no-go","0"
"pit-trial","146","1093365","0.0-29.0","battery-v0.2","","""event"",""trial"",""time""
""fullscreenenter"",""1"",""5025""
","
","
","""event"",""trial"",""time""
""fullscreenenter"",""1"",""5025""
","
","","","682.8000001907349","","","10","9815","300","f","elianto","#3366ff99"," "," ","1","+10","[1536.5]","1","2","","","9815","25","1","1","win","go","0"
"pit-trial","147","1098217","0.0-30.0","battery-v0.2","","""event"",""trial"",""time""
""fullscreenenter"",""1"",""5025""
","
","
","""event"",""trial"",""time""
""fullscreenenter"",""1"",""5025""
","
","","","-1","","","10","9815","300","n","elianto","#f73b6a7A","-1","-1","1","0","[]","0","2","","","9815","26","0","4","lose","no-go","0"
"pit-trial","148","1103069","0.0-31.0","battery-v0.2","","""event"",""trial"",""time""
""fullscreenenter"",""1"",""5025""
","
","
","""event"",""trial"",""time""
""fullscreenenter"",""1"",""5025""
","
","","","-1","","","10","9815","300","t","elianto","#f73b6a7A","-1","-1","1","0","[]","0","2","","","9815","27","2","4","lose","no-go","0"
"pit-trial","149","1106551","0.0-32.0","battery-v0.2","","""event"",""trial"",""time""
""fullscreenenter"",""1"",""5025""
","
","
","""event"",""trial"",""time""
""fullscreenenter"",""1"",""5025""
","
","","","629.2999999523163","","","10","9815","300","b","elianto","#f73b6a7A"," "," ","1","0","[1479.6999998092651]","1","2","","","9815","28","3","3","lose","go","0"
"pit-trial","150","1110256","0.0-33.0","battery-v0.2","","""event"",""trial"",""time""
""fullscreenenter"",""1"",""5025""
","
","
","""event"",""trial"",""time""
""fullscreenenter"",""1"",""5025""
","
","","","852.7999999523163","","","10","9815","300","b","elianto","#f73b6a7A"," "," ","1","0","[1703.8999998569489]","1","2","","","9815","29","3","3","lose","go","0"
"pit-trial","151","1113793","0.0-34.0","battery-v0.2","","""event"",""trial"",""time""
""fullscreenenter"",""1"",""5025""
","
","
","""event"",""trial"",""time""
""fullscreenenter"",""1"",""5025""
","
","","","683.8999998569489","","","10","9815","300","f","elianto","#3366ff99"," "," ","1","0","[1534.7000000476837]","1","2","","","9815","30","1","1","win","go","1"
"pit-trial","152","1118645","0.0-35.0","battery-v0.2","","""event"",""trial"",""time""
""fullscreenenter"",""1"",""5025""
","
","
","""event"",""trial"",""time""
""fullscreenenter"",""1"",""5025""
","
","","","-1","","","10","9815","300","n","elianto","#f73b6a7A","-1","-1","1","0","[]","0","2","","","9815","31","0","4","lose","no-go","0"
"pit-trial","153","1123498","0.0-36.0","battery-v0.2","","""event"",""trial"",""time""
""fullscreenenter"",""1"",""5025""
","
","
","""event"",""trial"",""time""
""fullscreenenter"",""1"",""5025""
","
","","","-1","","","10","9815","300","t","elianto","#f73b6a7A","-1","-1","1","0","[]","0","2","","","9815","32","2","4","lose","no-go","0"
"pit-trial","154","1127148","0.0-37.0","battery-v0.2","","""event"",""trial"",""time""
""fullscreenenter"",""1"",""5025""
","
","
","""event"",""trial"",""time""
""fullscreenenter"",""1"",""5025""
","
","","","797.3999998569489","","","10","9815","300","f","elianto","#3366ff99"," "," ","1","0","[1648.5999999046326]","1","2","","","9815","33","1","1","win","go","1"
"pit-trial","155","1132002","0.0-38.0","battery-v0.2","","""event"",""trial"",""time""
""fullscreenenter"",""1"",""5025""
","
","
","""event"",""trial"",""time""
""fullscreenenter"",""1"",""5025""
","
","","","-1","","","10","9815","300","t","elianto","#f73b6a7A","-1","-1","1","0","[]","0","2","","","9815","34","2","4","lose","no-go","0"
"pit-trial","156","1135541","0.0-39.0","battery-v0.2","","""event"",""trial"",""time""
""fullscreenenter"",""1"",""5025""
","
","
","""event"",""trial"",""time""
""fullscreenenter"",""1"",""5025""
","
","","","686.2999999523163","","","10","9815","300","b","elianto","#f73b6a7A"," "," ","1","0","[1536.5]","1","2","","","9815","35","3","3","lose","go","0"
"pit-trial","157","1140394","0.0-40.0","battery-v0.2","","""event"",""trial"",""time""
""fullscreenenter"",""1"",""5025""
","
","
","""event"",""trial"",""time""
""fullscreenenter"",""1"",""5025""
","
","","","-1","","","10","9815","300","n","elianto","#f73b6a7A","-1","-1","1","0","[]","0","2","","","9815","36","0","4","lose","no-go","0"
"pit-trial","158","1145247","0.0-41.0","battery-v0.2","","""event"",""trial"",""time""
""fullscreenenter"",""1"",""5025""
","
","
","""event"",""trial"",""time""
""fullscreenenter"",""1"",""5025""
","
","","","-1","","","10","9815","300","n","elianto","#f73b6a7A","-1","-1","1","0","[]","0","2","","","9815","37","0","4","lose","no-go","0"
"pit-trial","159","1148767","0.0-42.0","battery-v0.2","","""event"",""trial"",""time""
""fullscreenenter"",""1"",""5025""
","
","
","""event"",""trial"",""time""
""fullscreenenter"",""1"",""5025""
","
","","","667.7999999523163","","","10","9815","300","b","elianto","#f73b6a7A"," "," ","1","0","[1518.5]","1","2","","","9815","38","3","3","lose","go","0"
"pit-trial","160","1153619","0.0-43.0","battery-v0.2","","""event"",""trial"",""time""
""fullscreenenter"",""1"",""5025""
","
","
","""event"",""trial"",""time""
""fullscreenenter"",""1"",""5025""
","
","","","-1","","","10","9815","300","t","elianto","#f73b6a7A","-1","-1","1","0","[]","0","2","","","9815","39","2","4","lose","no-go","0"
"pit-trial","161","1157034","0.0-44.0","battery-v0.2","","""event"",""trial"",""time""
""fullscreenenter"",""1"",""5025""
","
","
","""event"",""trial"",""time""
""fullscreenenter"",""1"",""5025""
","
","","","561.2000000476837","","","10","9815","300","f","elianto","#3366ff99"," "," ","1","+10","[1412]","1","2","","","9815","40","1","1","win","go","0"
"pit-trial","162","1161887","0.0-45.0","battery-v0.2","","""event"",""trial"",""time""
""fullscreenenter"",""1"",""5025""
","
","
","""event"",""trial"",""time""
""fullscreenenter"",""1"",""5025""
","
","","","-1","","","10","9815","300","t","elianto","#f73b6a7A","-1","-1","1","0","[]","0","2","","","9815","41","2","4","lose","no-go","0"
"pit-trial","163","1166739","0.0-46.0","battery-v0.2","","""event"",""trial"",""time""
""fullscreenenter"",""1"",""5025""
","
","
","""event"",""trial"",""time""
""fullscreenenter"",""1"",""5025""
","
","","","-1","","","10","9815","300","n","elianto","#f73b6a7A","-1","-1","1","0","[]","0","2","","","9815","42","0","4","lose","no-go","0"
"pit-trial","164","1170215","0.0-47.0","battery-v0.2","","""event"",""trial"",""time""
""fullscreenenter"",""1"",""5025""
","
","
","""event"",""trial"",""time""
""fullscreenenter"",""1"",""5025""
","
","","","622.8999998569489","","","10","9815","300","b","elianto","#f73b6a7A"," "," ","1","0","[1473.2999999523163]","1","2","","","9815","43","3","3","lose","go","0"
"pit-trial","165","1173668","0.0-48.0","battery-v0.2","","""event"",""trial"",""time""
""fullscreenenter"",""1"",""5025""
","
","
","""event"",""trial"",""time""
""fullscreenenter"",""1"",""5025""
","
","","","601.2000000476837","","","10","9815","300","f","elianto","#3366ff99"," "," ","1","+10","[1451.2000000476837]","1","2","","","9815","44","1","1","win","go","0"
"pit-trial","166","1177276","0.0-49.0","battery-v0.2","","""event"",""trial"",""time""
""fullscreenenter"",""1"",""5025""
","
","
","""event"",""trial"",""time""
""fullscreenenter"",""1"",""5025""
","
","","","754.5999999046326","","","10","9815","300","b","elianto","#f73b6a7A"," "," ","1","0","[1605.5999999046326]","1","2","","","9815","45","3","3","lose","go","0"
"pit-trial","167","1182129","0.0-50.0","battery-v0.2","","""event"",""trial"",""time""
""fullscreenenter"",""1"",""5025""
","
","
","""event"",""trial"",""time""
""fullscreenenter"",""1"",""5025""
","
","","","-1","","","10","9815","300","n","elianto","#f73b6a7A","-1","-1","1","0","[]","0","2","","","9815","46","0","4","lose","no-go","0"
"pit-trial","168","1186983","0.0-51.0","battery-v0.2","","""event"",""trial"",""time""
""fullscreenenter"",""1"",""5025""
","
","
","""event"",""trial"",""time""
""fullscreenenter"",""1"",""5025""
","
","","","-1","","","10","9815","300","t","elianto","#f73b6a7A","-1","-1","1","0","[]","0","2","","","9815","47","2","4","lose","no-go","0"
"pit-trial","169","1190414","0.0-52.0","battery-v0.2","","""event"",""trial"",""time""
""fullscreenenter"",""1"",""5025""
","
","
","""event"",""trial"",""time""
""fullscreenenter"",""1"",""5025""
","
","","","578","","","10","9815","300","c","elianto","#3366ff99","-1"," ","0","0","[1428.6000001430511]","1","2","","","9815","48","4","2","win","no-go","0"
"pit-trial","170","1195266","0.0-53.0","battery-v0.2","","""event"",""trial"",""time""
""fullscreenenter"",""1"",""5025""
","
","
","""event"",""trial"",""time""
""fullscreenenter"",""1"",""5025""
","
","","","-1","","","10","9815","300","f","elianto","#3366ff99"," ","-1","0","0","[]","0","2","","","9815","49","1","1","win","go","0"
"pit-trial","171","1198857","0.0-54.0","battery-v0.2","","""event"",""trial"",""time""
""fullscreenenter"",""1"",""5025""
","
","
","""event"",""trial"",""time""
""fullscreenenter"",""1"",""5025""
","
","","","738","","","10","9815","300","c","elianto","#3366ff99","-1"," ","0","0","[1588.0999999046326]","1","2","","","9815","50","4","2","win","no-go","0"
"pit-trial","172","1203709","0.0-55.0","battery-v0.2","","""event"",""trial"",""time""
""fullscreenenter"",""1"",""5025""
","
","
","""event"",""trial"",""time""
""fullscreenenter"",""1"",""5025""
","
","","","-1","","","10","9815","300","n","elianto","#f73b6a7A","-1","-1","1","0","[]","0","2","","","9815","51","0","4","lose","no-go","0"
"pit-trial","173","1207246","0.0-56.0","battery-v0.2","","""event"",""trial"",""time""
""fullscreenenter"",""1"",""5025""
","
","
","""event"",""trial"",""time""
""fullscreenenter"",""1"",""5025""
","
","","","684.0999999046326","","","10","9815","300","b","elianto","#f73b6a7A"," "," ","1","0","[1535.0999999046326]","1","2","","","9815","52","3","3","lose","go","0"
"pit-trial","174","1212099","0.0-57.0","battery-v0.2","","""event"",""trial"",""time""
""fullscreenenter"",""1"",""5025""
","
","
","""event"",""trial"",""time""
""fullscreenenter"",""1"",""5025""
","
","","","-1","","","10","9815","300","t","elianto","#f73b6a7A","-1","-1","1","0","[]","0","2","","","9815","53","2","4","lose","no-go","0"
"pit-trial","175","1215677","0.0-58.0","battery-v0.2","","""event"",""trial"",""time""
""fullscreenenter"",""1"",""5025""
","
","
","""event"",""trial"",""time""
""fullscreenenter"",""1"",""5025""
","
","","","725.2999999523163","","","10","9815","300","f","elianto","#3366ff99"," "," ","1","+10","[1575.7999999523163]","1","2","","","9815","54","1","1","win","go","0"
"pit-trial","176","1220530","0.0-59.0","battery-v0.2","","""event"",""trial"",""time""
""fullscreenenter"",""1"",""5025""
","
","
","""event"",""trial"",""time""
""fullscreenenter"",""1"",""5025""
","
","","","-1","","","10","9815","300","n","elianto","#f73b6a7A","-1","-1","1","0","[]","0","2","","","9815","55","0","4","lose","no-go","0"
"pit-trial","177","1224060","0.0-60.0","battery-v0.2","","""event"",""trial"",""time""
""fullscreenenter"",""1"",""5025""
","
","
","""event"",""trial"",""time""
""fullscreenenter"",""1"",""5025""
","
","","","677.8999998569489","","","10","9815","300","c","elianto","#3366ff99","-1"," ","0","0","[1528.2999999523163]","1","2","","","9815","56","4","2","win","no-go","0"
"pit-trial","178","1227596","0.0-61.0","battery-v0.2","","""event"",""trial"",""time""
""fullscreenenter"",""1"",""5025""
","
","
","""event"",""trial"",""time""
""fullscreenenter"",""1"",""5025""
","
","","","682.8000001907349","","","10","9815","300","b","elianto","#f73b6a7A"," "," ","1","0","[1533.5999999046326]","1","2","","","9815","57","3","3","lose","go","0"
"pit-trial","179","1231128","0.0-62.0","battery-v0.2","","""event"",""trial"",""time""
""fullscreenenter"",""1"",""5025""
","
","
","""event"",""trial"",""time""
""fullscreenenter"",""1"",""5025""
","
","","","679.6000001430511","","","10","9815","300","f","elianto","#3366ff99"," "," ","1","+10","[1530.2000000476837]","1","2","","","9815","58","1","1","win","go","0"
"pit-trial","180","1235980","0.0-63.0","battery-v0.2","","""event"",""trial"",""time""
""fullscreenenter"",""1"",""5025""
","
","
","""event"",""trial"",""time""
""fullscreenenter"",""1"",""5025""
","
","","","-1","","","10","9815","300","n","elianto","#f73b6a7A","-1","-1","1","0","[]","0","2","","","9815","59","0","4","lose","no-go","0"
"pit-trial","181","1240832","0.0-64.0","battery-v0.2","","""event"",""trial"",""time""
""fullscreenenter"",""1"",""5025""
","
","
","""event"",""trial"",""time""
""fullscreenenter"",""1"",""5025""
","
","","","-1","","","10","9815","300","c","elianto","#3366ff99","-1","-1","1","+10","[]","0","2","","","9815","60","4","2","win","no-go","0"
"pit-trial","182","1244497","0.0-65.0","battery-v0.2","","""event"",""trial"",""time""
""fullscreenenter"",""1"",""5025""
","
","
","""event"",""trial"",""time""
""fullscreenenter"",""1"",""5025""
","
","","","812.4000000953674","","","10","9815","300","c","elianto","#3366ff99","-1"," ","0","0","[1662.9000000953674]","1","2","","","9815","61","4","2","win","no-go","0"
"pit-trial","183","1248423","0.0-66.0","battery-v0.2","","""event"",""trial"",""time""
""fullscreenenter"",""1"",""5025""
","
","
","""event"",""trial"",""time""
""fullscreenenter"",""1"",""5025""
","
","","","1073.7000000476837","","","10","9815","300","b","elianto","#f73b6a7A"," "," ","1","0","[1924]","1","2","","","9815","62","3","3","lose","go","0"
"pit-trial","184","1251952","0.0-67.0","battery-v0.2","","""event"",""trial"",""time""
""fullscreenenter"",""1"",""5025""
","
","
","""event"",""trial"",""time""
""fullscreenenter"",""1"",""5025""
","
","","","674.4000000953674","","","10","9815","300","f","elianto","#3366ff99"," "," ","1","+10","[1526.2000000476837]","1","2","","","9815","63","1","1","win","go","0"
"pit-trial","185","1256804","0.0-68.0","battery-v0.2","","""event"",""trial"",""time""
""fullscreenenter"",""1"",""5025""
","
","
","""event"",""trial"",""time""
""fullscreenenter"",""1"",""5025""
","
","","","-1","","","10","9815","300","t","elianto","#f73b6a7A","-1","-1","1","0","[]","0","2","","","9815","64","2","4","lose","no-go","0"
"pit-trial","186","1260378","0.0-69.0","battery-v0.2","","""event"",""trial"",""time""
""fullscreenenter"",""1"",""5025""
","
","
","""event"",""trial"",""time""
""fullscreenenter"",""1"",""5025""
","
","","","719.5999999046326","","","10","9815","300","b","elianto","#f73b6a7A"," "," ","1","0","[1570.8999998569489]","1","2","","","9815","65","3","3","lose","go","0"
"pit-trial","187","1265230","0.0-70.0","battery-v0.2","","""event"",""trial"",""time""
""fullscreenenter"",""1"",""5025""
","
","
","""event"",""trial"",""time""
""fullscreenenter"",""1"",""5025""
","
","","","-1","","","10","9815","300","c","elianto","#3366ff99","-1","-1","1","+10","[]","0","2","","","9815","66","4","2","win","no-go","0"
"pit-trial","188","1268667","0.0-71.0","battery-v0.2","","""event"",""trial"",""time""
""fullscreenenter"",""1"",""5025""
","
","
","""event"",""trial"",""time""
""fullscreenenter"",""1"",""5025""
","
","","","583.8999998569489","","","10","9815","300","f","elianto","#3366ff99"," "," ","1","+10","[1435]","1","2","","","9815","67","1","1","win","go","0"
"pit-trial","189","1273520","0.0-72.0","battery-v0.2","","""event"",""trial"",""time""
""fullscreenenter"",""1"",""5025""
","
","
","""event"",""trial"",""time""
""fullscreenenter"",""1"",""5025""
","
","","","-1","","","10","9815","300","t","elianto","#f73b6a7A","-1","-1","1","-10","[]","0","2","","","9815","68","2","4","lose","no-go","1"
"pit-trial","190","1277163","0.0-73.0","battery-v0.2","","""event"",""trial"",""time""
""fullscreenenter"",""1"",""5025""
","
","
","""event"",""trial"",""time""
""fullscreenenter"",""1"",""5025""
","
","","","790.8000001907349","","","10","9815","300","f","elianto","#3366ff99"," "," ","1","0","[1641.3999998569489]","1","2","","","9815","69","1","1","win","go","1"
"pit-trial","191","1280657","0.0-74.0","battery-v0.2","","""event"",""trial"",""time""
""fullscreenenter"",""1"",""5025""
","
","
","""event"",""trial"",""time""
""fullscreenenter"",""1"",""5025""
","
","","","641","","","10","9815","300","b","elianto","#f73b6a7A"," "," ","1","-10","[1491.8999998569489]","1","2","","","9815","70","3","3","lose","go","1"
"pit-trial","192","1284205","0.0-75.0","battery-v0.2","","""event"",""trial"",""time""
""fullscreenenter"",""1"",""5025""
","
","
","""event"",""trial"",""time""
""fullscreenenter"",""1"",""5025""
","
","","","694.9000000953674","","","10","9815","300","z","elianto","#3366ff99"," "," ","1","+10","[1546]","1","2","","","9815","71","5","1","win","go","0"
"pit-trial","193","1289057","0.0-76.0","battery-v0.2","","""event"",""trial"",""time""
""fullscreenenter"",""1"",""5025""
","
","
","""event"",""trial"",""time""
""fullscreenenter"",""1"",""5025""
","
","","","-1","","","10","9815","300","c","elianto","#3366ff99","-1","-1","1","+10","[]","0","2","","","9815","72","4","2","win","no-go","0"
"pit-trial","194","1292705","0.0-77.0","battery-v0.2","","""event"",""trial"",""time""
""fullscreenenter"",""1"",""5025""
","
","
","""event"",""trial"",""time""
""fullscreenenter"",""1"",""5025""
","
","","","795.3999998569489","","","10","9815","300","z","elianto","#3366ff99"," "," ","1","+10","[1646.0999999046326]","1","2","","","9815","73","5","1","win","go","0"
"pit-trial","195","1297562","0.0-78.0","battery-v0.2","","""event"",""trial"",""time""
""fullscreenenter"",""1"",""5025""
","
","
","""event"",""trial"",""time""
""fullscreenenter"",""1"",""5025""
","
","","","-1","","","10","9815","300","c","elianto","#3366ff99","-1","-1","1","+10","[]","0","2","","","9815","74","4","2","win","no-go","0"
"pit-trial","196","1301356","0.0-79.0","battery-v0.2","","""event"",""trial"",""time""
""fullscreenenter"",""1"",""5025""
","
","
","""event"",""trial"",""time""
""fullscreenenter"",""1"",""5025""
","
","","","942.5999999046326","","","10","9815","300","b","elianto","#f73b6a7A"," "," ","1","0","[1792.7000000476837]","1","2","","","9815","75","3","3","lose","go","0"
"pit-trial","197","1304984","0.0-80.0","battery-v0.2","","""event"",""trial"",""time""
""fullscreenenter"",""1"",""5025""
","
","
","""event"",""trial"",""time""
""fullscreenenter"",""1"",""5025""
","
","","","775.1000001430511","","","10","9815","300","f","elianto","#3366ff99"," "," ","1","+10","[1625.0999999046326]","1","2","","","9815","76","1","1","win","go","0"
"pit-trial","198","1309837","0.0-81.0","battery-v0.2","","""event"",""trial"",""time""
""fullscreenenter"",""1"",""5025""
","
","
","""event"",""trial"",""time""
""fullscreenenter"",""1"",""5025""
","
","","","-1","","","10","9815","300","c","elianto","#3366ff99","-1","-1","1","0","[]","0","2","","","9815","77","4","2","win","no-go","1"
"pit-trial","199","1313565","0.0-82.0","battery-v0.2","","""event"",""trial"",""time""
""fullscreenenter"",""1"",""5025""
","
","
","""event"",""trial"",""time""
""fullscreenenter"",""1"",""5025""
","
","","","875.2999999523163","","","10","9815","300","h","elianto","#f73b6a7A","-1"," ","0","-10","[1725.3999998569489]","1","2","","","9815","78","6","4","lose","no-go","0"
"pit-trial","200","1317094","0.0-83.0","battery-v0.2","","""event"",""trial"",""time""
""fullscreenenter"",""1"",""5025""
","
","
","""event"",""trial"",""time""
""fullscreenenter"",""1"",""5025""
","
","","","675.5","","","10","9815","300","b","elianto","#f73b6a7A"," "," ","1","0","[1527]","1","2","","","9815","79","3","3","lose","go","0"
"pit-trial","201","1320625","0.0-84.0","battery-v0.2","","""event"",""trial"",""time""
""fullscreenenter"",""1"",""5025""
","
","
","""event"",""trial"",""time""
""fullscreenenter"",""1"",""5025""
","
","","","679.2000000476837","","","10","9815","300","z","elianto","#3366ff99"," "," ","1","+10","[1529.5]","1","2","","","9815","80","5","1","win","go","0"
"pit-trial","202","1324327","0.0-85.0","battery-v0.2","","""event"",""trial"",""time""
""fullscreenenter"",""1"",""5025""
","
","
","""event"",""trial"",""time""
""fullscreenenter"",""1"",""5025""
","
","","","848.2000000476837","","","10","9815","300","z","elianto","#3366ff99"," "," ","1","+10","[1700]","1","2","","","9815","81","5","1","win","go","0"
"pit-trial","203","1329179","0.0-86.0","battery-v0.2","","""event"",""trial"",""time""
""fullscreenenter"",""1"",""5025""
","
","
","""event"",""trial"",""time""
""fullscreenenter"",""1"",""5025""
","
","","","-1","","","10","9815","300","h","elianto","#f73b6a7A","-1","-1","1","0","[]","0","2","","","9815","82","6","4","lose","no-go","0"
"pit-trial","204","1333203","0.0-87.0","battery-v0.2","","""event"",""trial"",""time""
""fullscreenenter"",""1"",""5025""
","
","
","""event"",""trial"",""time""
""fullscreenenter"",""1"",""5025""
","
","","","1170.4000000953674","","","10","9815","300","c","elianto","#3366ff99","-1"," ","0","0","[2021.5999999046326]","1","2","","","9815","83","4","2","win","no-go","0"
"pit-trial","205","1336866","0.0-88.0","battery-v0.2","","""event"",""trial"",""time""
""fullscreenenter"",""1"",""5025""
","
","
","""event"",""trial"",""time""
""fullscreenenter"",""1"",""5025""
","
","","","810.2999999523163","","","10","9815","300","y","elianto","#f73b6a7A"," "," ","1","0","[1661.0999999046326]","1","2","","","9815","84","7","3","lose","go","0"
"pit-trial","206","1341719","0.0-89.0","battery-v0.2","","""event"",""trial"",""time""
""fullscreenenter"",""1"",""5025""
","
","
","""event"",""trial"",""time""
""fullscreenenter"",""1"",""5025""
","
","","","-1","","","10","9815","300","c","elianto","#3366ff99","-1","-1","1","0","[]","0","2","","","9815","85","4","2","win","no-go","1"
"pit-trial","207","1346572","0.0-90.0","battery-v0.2","","""event"",""trial"",""time""
""fullscreenenter"",""1"",""5025""
","
","
","""event"",""trial"",""time""
""fullscreenenter"",""1"",""5025""
","
","","","-1","","","10","9815","300","h","elianto","#f73b6a7A","-1","-1","1","0","[]","0","2","","","9815","86","6","4","lose","no-go","0"
"pit-trial","208","1350200","0.0-91.0","battery-v0.2","","""event"",""trial"",""time""
""fullscreenenter"",""1"",""5025""
","
","
","""event"",""trial"",""time""
""fullscreenenter"",""1"",""5025""
","
","","","775.5","","","10","9815","300","z","elianto","#3366ff99"," "," ","1","+10","[1625.7000000476837]","1","2","","","9815","87","5","1","win","go","0"
"pit-trial","209","1353928","0.0-92.0","battery-v0.2","","""event"",""trial"",""time""
""fullscreenenter"",""1"",""5025""
","
","
","""event"",""trial"",""time""
""fullscreenenter"",""1"",""5025""
","
","","","875.1000001430511","","","10","9815","300","y","elianto","#f73b6a7A"," "," ","1","-10","[1725.8999998569489]","1","2","","","9815","88","7","3","lose","go","1"
"pit-trial","210","1358781","0.0-93.0","battery-v0.2","","""event"",""trial"",""time""
""fullscreenenter"",""1"",""5025""
","
","
","""event"",""trial"",""time""
""fullscreenenter"",""1"",""5025""
","
","","","-1","","","10","9815","300","c","elianto","#3366ff99","-1","-1","1","+10","[]","0","2","","","9815","89","4","2","win","no-go","0"
"pit-trial","211","1363634","0.0-94.0","battery-v0.2","","""event"",""trial"",""time""
""fullscreenenter"",""1"",""5025""
","
","
","""event"",""trial"",""time""
""fullscreenenter"",""1"",""5025""
","
","","","-1","","","10","9815","300","h","elianto","#f73b6a7A","-1","-1","1","-10","[]","0","2","","","9815","90","6","4","lose","no-go","1"
"pit-trial","212","1367389","0.0-95.0","battery-v0.2","","""event"",""trial"",""time""
""fullscreenenter"",""1"",""5025""
","
","
","""event"",""trial"",""time""
""fullscreenenter"",""1"",""5025""
","
","","","902.5","","","10","9815","300","z","elianto","#3366ff99"," "," ","1","+10","[1753.0999999046326]","1","2","","","9815","91","5","1","win","go","0"
"pit-trial","213","1372253","0.0-96.0","battery-v0.2","","""event"",""trial"",""time""
""fullscreenenter"",""1"",""5025""
","
","
","""event"",""trial"",""time""
""fullscreenenter"",""1"",""5025""
","
","","","-1","","","10","9815","300","y","elianto","#f73b6a7A"," ","-1","0","0","[]","0","2","","","9815","92","7","3","lose","go","1"
"pit-trial","214","1377105","0.0-97.0","battery-v0.2","","""event"",""trial"",""time""
""fullscreenenter"",""1"",""5025""
","
","
","""event"",""trial"",""time""
""fullscreenenter"",""1"",""5025""
","
","","","-1","","","10","9815","300","h","elianto","#f73b6a7A","-1","-1","1","0","[]","0","2","","","9815","93","6","4","lose","no-go","0"
"pit-trial","215","1380880","0.0-98.0","battery-v0.2","","""event"",""trial"",""time""
""fullscreenenter"",""1"",""5025""
","
","
","""event"",""trial"",""time""
""fullscreenenter"",""1"",""5025""
","
","","","921.8000001907349","","","10","9815","300","z","elianto","#3366ff99"," "," ","1","+10","[1772.8000001907349]","1","2","","","9815","94","5","1","win","go","0"
"pit-trial","216","1384566","0.0-99.0","battery-v0.2","","""event"",""trial"",""time""
""fullscreenenter"",""1"",""5025""
","
","
","""event"",""trial"",""time""
""fullscreenenter"",""1"",""5025""
","
","","","832.5","","","10","9815","300","r","elianto","#3366ff99","-1"," ","0","+10","[1684]","1","2","","","9815","95","8","2","win","no-go","1"
"pit-trial","217","1389419","0.0-100.0","battery-v0.2","","""event"",""trial"",""time""
""fullscreenenter"",""1"",""5025""
","
","
","""event"",""trial"",""time""
""fullscreenenter"",""1"",""5025""
","
","","","-1","","","10","9815","300","y","elianto","#f73b6a7A"," ","-1","0","-10","[]","0","2","","","9815","96","7","3","lose","go","0"
"pit-trial","218","1393054","0.0-101.0","battery-v0.2","","""event"",""trial"",""time""
""fullscreenenter"",""1"",""5025""
","
","
","""event"",""trial"",""time""
""fullscreenenter"",""1"",""5025""
","
","","","779.8999998569489","","","10","9815","300","r","elianto","#3366ff99","-1"," ","0","0","[1631.7000000476837]","1","2","","","9815","97","8","2","win","no-go","0"
"pit-trial","219","1396732","0.0-102.0","battery-v0.2","","""event"",""trial"",""time""
""fullscreenenter"",""1"",""5025""
","
","
","""event"",""trial"",""time""
""fullscreenenter"",""1"",""5025""
","
","","","826.2999999523163","","","10","9815","300","z","elianto","#3366ff99"," "," ","1","+10","[1676.9000000953674]","1","2","","","9815","98","5","1","win","go","0"
"pit-trial","220","1400342","0.0-103.0","battery-v0.2","","""event"",""trial"",""time""
""fullscreenenter"",""1"",""5025""
","
","
","""event"",""trial"",""time""
""fullscreenenter"",""1"",""5025""
","
","","","755.5","","","10","9815","300","y","elianto","#f73b6a7A"," "," ","1","0","[1606.5999999046326]","1","2","","","9815","99","7","3","lose","go","0"
"pit-trial","221","1405194","0.0-104.0","battery-v0.2","","""event"",""trial"",""time""
""fullscreenenter"",""1"",""5025""
","
","
","""event"",""trial"",""time""
""fullscreenenter"",""1"",""5025""
","
","","","-1","","","10","9815","300","h","elianto","#f73b6a7A","-1","-1","1","0","[]","0","2","","","9815","100","6","4","lose","no-go","0"
"pit-trial","222","1408735","0.0-105.0","battery-v0.2","","""event"",""trial"",""time""
""fullscreenenter"",""1"",""5025""
","
","
","""event"",""trial"",""time""
""fullscreenenter"",""1"",""5025""
","
","","","687.7000000476837","","","10","9815","300","z","elianto","#3366ff99"," "," ","1","+10","[1538.4000000953674]","1","2","","","9815","101","5","1","win","go","0"
"pit-trial","223","1412321","0.0-106.0","battery-v0.2","","""event"",""trial"",""time""
""fullscreenenter"",""1"",""5025""
","
","
","""event"",""trial"",""time""
""fullscreenenter"",""1"",""5025""
","
","","","733.7000000476837","","","10","9815","300","m","elianto","#3366ff99","-1"," ","0","0","[1584.4000000953674]","1","2","","","9815","102","9","2","win","no-go","0"
"pit-trial","224","1417174","0.0-107.0","battery-v0.2","","""event"",""trial"",""time""
""fullscreenenter"",""1"",""5025""
","
","
","""event"",""trial"",""time""
""fullscreenenter"",""1"",""5025""
","
","","","-1","","","10","9815","300","h","elianto","#f73b6a7A","-1","-1","1","0","[]","0","2","","","9815","103","6","4","lose","no-go","0"
"pit-trial","225","1421213","0.0-108.0","battery-v0.2","","""event"",""trial"",""time""
""fullscreenenter"",""1"",""5025""
","
","
","""event"",""trial"",""time""
""fullscreenenter"",""1"",""5025""
","
","","","1185.6000001430511","","","10","9815","300","r","elianto","#3366ff99","-1"," ","0","0","[2036.1999998092651]","1","2","","","9815","104","8","2","win","no-go","0"
"pit-trial","226","1426066","0.0-109.0","battery-v0.2","","""event"",""trial"",""time""
""fullscreenenter"",""1"",""5025""
","
","
","""event"",""trial"",""time""
""fullscreenenter"",""1"",""5025""
","
","","","-1","","","10","9815","300","r","elianto","#3366ff99","-1","-1","1","+10","[]","0","2","","","9815","105","8","2","win","no-go","0"
"pit-trial","227","1429756","0.0-110.0","battery-v0.2","","""event"",""trial"",""time""
""fullscreenenter"",""1"",""5025""
","
","
","""event"",""trial"",""time""
""fullscreenenter"",""1"",""5025""
","
","","","836.6999998092651","","","10","9815","300","z","elianto","#3366ff99"," "," ","1","+10","[1687.7999999523163]","1","2","","","9815","106","5","1","win","go","0"
"pit-trial","228","1434609","0.0-111.0","battery-v0.2","","""event"",""trial"",""time""
""fullscreenenter"",""1"",""5025""
","
","
","""event"",""trial"",""time""
""fullscreenenter"",""1"",""5025""
","
","","","-1","","","10","9815","300","m","elianto","#3366ff99","-1","-1","1","+10","[]","0","2","","","9815","107","9","2","win","no-go","0"
"pit-trial","229","1439461","0.0-112.0","battery-v0.2","","""event"",""trial"",""time""
""fullscreenenter"",""1"",""5025""
","
","
","""event"",""trial"",""time""
""fullscreenenter"",""1"",""5025""
","
","","","-1","","","10","9815","300","h","elianto","#f73b6a7A","-1","-1","1","0","[]","0","2","","","9815","108","6","4","lose","no-go","0"
"pit-trial","230","1444314","0.0-113.0","battery-v0.2","","""event"",""trial"",""time""
""fullscreenenter"",""1"",""5025""
","
","
","""event"",""trial"",""time""
""fullscreenenter"",""1"",""5025""
","
","","","-1","","","10","9815","300","m","elianto","#3366ff99","-1","-1","1","+10","[]","0","2","","","9815","109","9","2","win","no-go","0"
"pit-trial","231","1447860","0.0-114.0","battery-v0.2","","""event"",""trial"",""time""
""fullscreenenter"",""1"",""5025""
","
","
","""event"",""trial"",""time""
""fullscreenenter"",""1"",""5025""
","
","","","693.8999998569489","","","10","9815","300","z","elianto","#3366ff99"," "," ","1","+10","[1544.7999999523163]","1","2","","","9815","110","5","1","win","go","0"
"pit-trial","232","1452714","0.0-115.0","battery-v0.2","","""event"",""trial"",""time""
""fullscreenenter"",""1"",""5025""
","
","
","""event"",""trial"",""time""
""fullscreenenter"",""1"",""5025""
","
","","","-1","","","10","9815","300","r","elianto","#3366ff99","-1","-1","1","+10","[]","0","2","","","9815","111","8","2","win","no-go","0"
"pit-trial","233","1457567","0.0-116.0","battery-v0.2","","""event"",""trial"",""time""
""fullscreenenter"",""1"",""5025""
","
","
","""event"",""trial"",""time""
""fullscreenenter"",""1"",""5025""
","
","","","-1","","","10","9815","300","h","elianto","#f73b6a7A","-1","-1","1","0","[]","0","2","","","9815","112","6","4","lose","no-go","0"
"pit-trial","234","1462421","0.0-117.0","battery-v0.2","","""event"",""trial"",""time""
""fullscreenenter"",""1"",""5025""
","
","
","""event"",""trial"",""time""
""fullscreenenter"",""1"",""5025""
","
","","","-1","","","10","9815","300","m","elianto","#3366ff99","-1","-1","1","0","[4017.7000000476837]","1","2","","","9815","113","9","2","win","no-go","1"
"pit-trial","235","1466471","0.0-118.0","battery-v0.2","","""event"",""trial"",""time""
""fullscreenenter"",""1"",""5025""
","
","
","""event"",""trial"",""time""
""fullscreenenter"",""1"",""5025""
","
","","","1198.8000001907349","","","10","9815","300","z","elianto","#3366ff99"," "," ","1","+10","[2048.800000190735]","1","2","","","9815","114","5","1","win","go","0"
"pit-trial","236","1471335","0.0-119.0","battery-v0.2","","""event"",""trial"",""time""
""fullscreenenter"",""1"",""5025""
","
","
","""event"",""trial"",""time""
""fullscreenenter"",""1"",""5025""
","
","","","-1","","","10","9815","300","y","elianto","#f73b6a7A"," ","-1","0","-10","[]","0","2","","","9815","115","7","3","lose","go","0"
"pit-trial","237","1475729","0.0-120.0","battery-v0.2","","""event"",""trial"",""time""
""fullscreenenter"",""1"",""5025""
","
","
","""event"",""trial"",""time""
""fullscreenenter"",""1"",""5025""
","
","","","1540.5999999046326","","","10","9815","300","r","elianto","#3366ff99","-1"," ","0","0","[2391.5999999046326]","1","2","","","9815","116","8","2","win","no-go","0"
"pit-trial","238","1480582","0.0-121.0","battery-v0.2","","""event"",""trial"",""time""
""fullscreenenter"",""1"",""5025""
","
","
","""event"",""trial"",""time""
""fullscreenenter"",""1"",""5025""
","
","","","-1","","","10","9815","300","h","elianto","#f73b6a7A","-1","-1","1","0","[]","0","2","","","9815","117","6","4","lose","no-go","0"
"pit-trial","239","1485435","0.0-122.0","battery-v0.2","","""event"",""trial"",""time""
""fullscreenenter"",""1"",""5025""
","
","
","""event"",""trial"",""time""
""fullscreenenter"",""1"",""5025""
","
","","","-1","","","10","9815","300","m","elianto","#3366ff99","-1","-1","1","+10","[]","0","2","","","9815","118","9","2","win","no-go","0"
"pit-trial","240","1490288","0.0-123.0","battery-v0.2","","""event"",""trial"",""time""
""fullscreenenter"",""1"",""5025""
","
","
","""event"",""trial"",""time""
""fullscreenenter"",""1"",""5025""
","
","","","-1","","","10","9815","300","r","elianto","#3366ff99","-1","-1","1","+10","[]","0","2","","","9815","119","8","2","win","no-go","0"
"pit-trial","241","1493875","0.0-124.0","battery-v0.2","","""event"",""trial"",""time""
""fullscreenenter"",""1"",""5025""
","
","
","""event"",""trial"",""time""
""fullscreenenter"",""1"",""5025""
","
","","","733.8999998569489","","","10","9815","300","z","elianto","#3366ff99"," "," ","1","+10","[1584.9000000953674]","1","2","","","9815","120","5","1","win","go","0"
"pit-trial","242","1498727","0.0-125.0","battery-v0.2","","""event"",""trial"",""time""
""fullscreenenter"",""1"",""5025""
","
","
","""event"",""trial"",""time""
""fullscreenenter"",""1"",""5025""
","
","","","-1","","","10","9815","300","m","elianto","#3366ff99","-1","-1","1","+10","[]","0","2","","","9815","121","9","2","win","no-go","0"
"pit-trial","243","1503579","0.0-126.0","battery-v0.2","","""event"",""trial"",""time""
""fullscreenenter"",""1"",""5025""
","
","
","""event"",""trial"",""time""
""fullscreenenter"",""1"",""5025""
","
","","","-1","","","10","9815","300","r","elianto","#3366ff99","-1","-1","1","+10","[]","0","2","","","9815","122","8","2","win","no-go","0"
"pit-trial","244","1507791","0.0-127.0","battery-v0.2","","""event"",""trial"",""time""
""fullscreenenter"",""1"",""5025""
","
","
","""event"",""trial"",""time""
""fullscreenenter"",""1"",""5025""
","
","","","1359.2999999523163","","","10","9815","300","y","elianto","#f73b6a7A"," "," ","1","-10","[2210.5999999046326]","1","2","","","9815","123","7","3","lose","go","1"
"pit-trial","245","1511405","0.0-128.0","battery-v0.2","","""event"",""trial"",""time""
""fullscreenenter"",""1"",""5025""
","
","
","""event"",""trial"",""time""
""fullscreenenter"",""1"",""5025""
","
","","","760.2000000476837","","","10","9815","300","z","elianto","#3366ff99"," "," ","1","+10","[1611.1000001430511]","1","2","","","9815","124","5","1","win","go","0"
"pit-trial","246","1516258","0.0-129.0","battery-v0.2","","""event"",""trial"",""time""
""fullscreenenter"",""1"",""5025""
","
","
","""event"",""trial"",""time""
""fullscreenenter"",""1"",""5025""
","
","","","-1","","","10","9815","300","r","elianto","#3366ff99","-1","-1","1","+10","[]","0","2","","","9815","125","8","2","win","no-go","0"
"pit-trial","247","1521110","0.0-130.0","battery-v0.2","","""event"",""trial"",""time""
""fullscreenenter"",""1"",""5025""
","
","
","""event"",""trial"",""time""
""fullscreenenter"",""1"",""5025""
","
","","","-1","","","10","9815","300","y","elianto","#f73b6a7A"," ","-1","0","-10","[]","0","2","","","9815","126","7","3","lose","go","0"
"pit-trial","248","1525962","0.0-131.0","battery-v0.2","","""event"",""trial"",""time""
""fullscreenenter"",""1"",""5025""
","
","
","""event"",""trial"",""time""
""fullscreenenter"",""1"",""5025""
","
","","","-1","","","10","9815","300","h","elianto","#f73b6a7A","-1","-1","1","-10","[]","0","2","","","9815","127","6","4","lose","no-go","1"
"pit-trial","249","1530815","0.0-132.0","battery-v0.2","","""event"",""trial"",""time""
""fullscreenenter"",""1"",""5025""
","
","
","""event"",""trial"",""time""
""fullscreenenter"",""1"",""5025""
","
","","","-1","","","10","9815","300","m","elianto","#3366ff99","-1","-1","1","0","[]","0","2","","","9815","128","9","2","win","no-go","1"
"pit-trial","250","1535667","0.0-133.0","battery-v0.2","","""event"",""trial"",""time""
""fullscreenenter"",""1"",""5025""
","
","
","""event"",""trial"",""time""
""fullscreenenter"",""1"",""5025""
","
","","","-1","","","10","9815","300","h","elianto","#f73b6a7A","-1","-1","1","0","[]","0","2","","","9815","129","6","4","lose","no-go","0"
"pit-trial","251","1540518","0.0-134.0","battery-v0.2","","""event"",""trial"",""time""
""fullscreenenter"",""1"",""5025""
","
","
","""event"",""trial"",""time""
""fullscreenenter"",""1"",""5025""
","
","","","-1","","","10","9815","300","m","elianto","#3366ff99","-1","-1","1","0","[]","0","2","","","9815","130","9","2","win","no-go","1"
"pit-trial","252","1545371","0.0-135.0","battery-v0.2","","""event"",""trial"",""time""
""fullscreenenter"",""1"",""5025""
","
","
","""event"",""trial"",""time""
""fullscreenenter"",""1"",""5025""
","
","","","-1","","","10","9815","300","r","elianto","#3366ff99","-1","-1","1","0","[]","0","2","","","9815","131","8","2","win","no-go","1"
"pit-trial","253","1550225","0.0-136.0","battery-v0.2","","""event"",""trial"",""time""
""fullscreenenter"",""1"",""5025""
","
","
","""event"",""trial"",""time""
""fullscreenenter"",""1"",""5025""
","
","","","-1","","","10","9815","300","y","elianto","#f73b6a7A"," ","-1","0","-10","[]","0","2","","","9815","132","7","3","lose","go","0"
"pit-trial","254","1555078","0.0-137.0","battery-v0.2","","""event"",""trial"",""time""
""fullscreenenter"",""1"",""5025""
","
","
","""event"",""trial"",""time""
""fullscreenenter"",""1"",""5025""
","
","","","-1","","","10","9815","300","h","elianto","#f73b6a7A","-1","-1","1","0","[]","0","2","","","9815","133","6","4","lose","no-go","0"
"pit-trial","255","1559533","0.0-138.0","battery-v0.2","","""event"",""trial"",""time""
""fullscreenenter"",""1"",""5025""
","
","
","""event"",""trial"",""time""
""fullscreenenter"",""1"",""5025""
","
","","","1602.1999998092651","","","10","9815","300","y","elianto","#f73b6a7A"," "," ","1","0","[2452.5]","1","2","","","9815","134","7","3","lose","go","0"
"pit-trial","256","1564324","0.0-139.0","battery-v0.2","","""event"",""trial"",""time""
""fullscreenenter"",""1"",""5025""
","
","
","""event"",""trial"",""time""
""fullscreenenter"",""1"",""5025""
","
","","","1939","","","10","9815","300","r","elianto","#3366ff99","-1"," ","0","0","[2789.899999856949]","1","2","","","9815","135","8","2","win","no-go","0"
"pit-trial","257","1569177","0.0-140.0","battery-v0.2","","""event"",""trial"",""time""
""fullscreenenter"",""1"",""5025""
","
","
","""event"",""trial"",""time""
""fullscreenenter"",""1"",""5025""
","
","","","-1","","","10","9815","300","m","elianto","#3366ff99","-1","-1","1","0","[]","0","2","","","9815","136","9","2","win","no-go","1"
"pit-trial","258","1574030","0.0-141.0","battery-v0.2","","""event"",""trial"",""time""
""fullscreenenter"",""1"",""5025""
","
","
","""event"",""trial"",""time""
""fullscreenenter"",""1"",""5025""
","
","","","-1","","","10","9815","300","y","elianto","#f73b6a7A"," ","-1","0","-10","[2902.2000000476837]","1","2","","","9815","137","7","3","lose","go","0"
"pit-trial","259","1578486","0.0-142.0","battery-v0.2","","""event"",""trial"",""time""
""fullscreenenter"",""1"",""5025""
","
","
","""event"",""trial"",""time""
""fullscreenenter"",""1"",""5025""
","
","","","1602.5","","","10","9815","300","r","elianto","#3366ff99","-1"," ","0","0","[2453.399999856949]","1","2","","","9815","138","8","2","win","no-go","0"
"pit-trial","260","1583338","0.0-143.0","battery-v0.2","","""event"",""trial"",""time""
""fullscreenenter"",""1"",""5025""
","
","
","""event"",""trial"",""time""
""fullscreenenter"",""1"",""5025""
","
","","","-1","","","10","9815","300","h","elianto","#f73b6a7A","-1","-1","1","0","[]","0","2","","","9815","139","6","4","lose","no-go","0"
"pit-trial","261","1588192","0.0-144.0","battery-v0.2","","""event"",""trial"",""time""
""fullscreenenter"",""1"",""5025""
","
","
","""event"",""trial"",""time""
""fullscreenenter"",""1"",""5025""
","
","","","-1","","","10","9815","300","m","elianto","#3366ff99","-1","-1","1","+10","[]","0","2","","","9815","140","9","2","win","no-go","0"
"pit-instructions","262","2263797","0.0-145.0","battery-v0.2","","""event"",""trial"",""time""
""fullscreenenter"",""1"",""5025""
","
","
","""event"",""trial"",""time""
""fullscreenenter"",""1"",""5025""
","
","","[{""page_index"":0,""viewing_time"":665068.100000143},{""page_index"":1,""viewing_time"":10535.5}]","675603.7999999523","","","","","","","","","","","","","","","","","","","","","","","",""
"pit-trial","263","2268331","0.0-146.0","battery-v0.2","","""event"",""trial"",""time""
""fullscreenenter"",""1"",""5025""
","
","
","""event"",""trial"",""time""
""fullscreenenter"",""1"",""5025""
","
","","","1667","","","10","9815","300","a","elianto","#f73b6a7A"," "," ","1","-10","[2523.300000190735]","1","3","","","9815","141","2","3","lose","go","1"
"pit-trial","264","2271985","0.0-147.0","battery-v0.2","","""event"",""trial"",""time""
""fullscreenenter"",""1"",""5025""
","
","
","""event"",""trial"",""time""
""fullscreenenter"",""1"",""5025""
","
","","","783","","","10","9815","300","u","elianto","#f73b6a7A"," "," ","1","0","[1637.9000000953674]","1","3","","","9815","142","0","3","lose","go","0"
"pit-trial","265","2275687","0.0-148.0","battery-v0.2","","""event"",""trial"",""time""
""fullscreenenter"",""1"",""5025""
","
","
","""event"",""trial"",""time""
""fullscreenenter"",""1"",""5025""
","
","","","835.4000000953674","","","10","9815","300","g","elianto","#f73b6a7A","-1"," ","0","-10","[1688.6000001430511]","1","3","","","9815","143","3","4","lose","no-go","0"
"pit-trial","266","2279225","0.0-149.0","battery-v0.2","","""event"",""trial"",""time""
""fullscreenenter"",""1"",""5025""
","
","
","""event"",""trial"",""time""
""fullscreenenter"",""1"",""5025""
","
","","","680.5999999046326","","","10","9815","300","l","elianto","#3366ff99","-1"," ","0","0","[1531.1999998092651]","1","3","","","9815","144","1","2","win","no-go","0"
"pit-trial","267","2283141","0.0-150.0","battery-v0.2","","""event"",""trial"",""time""
""fullscreenenter"",""1"",""5025""
","
","
","""event"",""trial"",""time""
""fullscreenenter"",""1"",""5025""
","
","","","1048.2000000476837","","","10","9815","300","u","elianto","#f73b6a7A"," "," ","1","0","[1900.8000001907349]","1","3","","","9815","145","0","3","lose","go","0"
"pit-trial","268","2288007","0.0-151.0","battery-v0.2","","""event"",""trial"",""time""
""fullscreenenter"",""1"",""5025""
","
","
","""event"",""trial"",""time""
""fullscreenenter"",""1"",""5025""
","
