"trial_type","trial_index","time_elapsed","internal_node_id","task_version","subject_id","interactions","blur_events","focus_events","fullscreenenter_events","fullscreenexit_events","success","view_history","rt","responses","num_errors","age","subject","participantId","rune","rune_set","hex","correct","choice","accuracy","outcome","keys","total_keys","block","practice","value","sub","trial","stimulus","robot","valence","action","sham"
"pavlovia","0","14","0.0-0.0","battery-v0.2","","""event"",""trial"",""time""
""fullscreenenter"",""1"",""2256""
","
","
","""event"",""trial"",""time""
""fullscreenenter"",""1"",""2256""
","
","","","","","","","","","","","","","","","","","","","","","","","","","","",""
"fullscreen","1","3231","0.0-1.0","battery-v0.2","","""event"",""trial"",""time""
""fullscreenenter"",""1"",""2256""
","
","
","""event"",""trial"",""time""
""fullscreenenter"",""1"",""2256""
","
","true","","","","","","","","","","","","","","","","","","","","","","","","","",""
"pit-instructions","2","7711","0.0-2.0-0.0","battery-v0.2","","""event"",""trial"",""time""
""fullscreenenter"",""1"",""2256""
","
","
","""event"",""trial"",""time""
""fullscreenenter"",""1"",""2256""
","
","","[{""page_index"":0,""viewing_time"":4476}]","4476.300000011921","","","","","","","","","","","","","","","","","","","","","","","",""
"pit-comprehension","3","11997","0.0-2.0-1.0-0.0","battery-v0.2","","""event"",""trial"",""time""
""fullscreenenter"",""1"",""2256""
","
","
","""event"",""trial"",""time""
""fullscreenenter"",""1"",""2256""
","
","","","4282.699999988079","[""shark""]","0","13","13632","1884","","","","","","","","","","","","","","","","","","",""
"pit-instructions","4","15362","0.0-2.0-1.0-1.0","battery-v0.2","","""event"",""trial"",""time""
""fullscreenenter"",""1"",""2256""
","
","
","""event"",""trial"",""time""
""fullscreenenter"",""1"",""2256""
","
","","[{""page_index"":0,""viewing_time"":3356.5999999940395}]","3357.199999988079","","","","","","","","","","","","","","","","","","","","","","","",""
"pit-comprehension","5","18479","0.0-2.0-2.0-0.0","battery-v0.2","","""event"",""trial"",""time""
""fullscreenenter"",""1"",""2256""
","
","
","""event"",""trial"",""time""
""fullscreenenter"",""1"",""2256""
","
","","","3112.300000011921","[""tiger""]","0","13","13632","1884","","","","","","","","","","","","","","","","","","",""
"pit-instructions","6","19645","0.0-2.0-2.0-1.0","battery-v0.2","","""event"",""trial"",""time""
""fullscreenenter"",""1"",""2256""
","
","
","""event"",""trial"",""time""
""fullscreenenter"",""1"",""2256""
","
","","[{""page_index"":0,""viewing_time"":1162.7000000178814}]","1163.2000000178814","","","","","","","","","","","","","","","","","","","","","","","",""
"pit-instructions","7","125277","0.0-2.0-3.0","battery-v0.2","","""event"",""trial"",""time""
""fullscreenenter"",""1"",""2256""
","
","
","""event"",""trial"",""time""
""fullscreenenter"",""1"",""2256""
","
","","[{""page_index"":0,""viewing_time"":8562.799999982119},{""page_index"":1,""viewing_time"":5866.5},{""page_index"":2,""viewing_time"":6683.700000017881},{""page_index"":3,""viewing_time"":5266.9000000059605},{""page_index"":4,""viewing_time"":5598.5},{""page_index"":5,""viewing_time"":5151.299999982119},{""page_index"":6,""viewing_time"":6650.200000017881},{""page_index"":7,""viewing_time"":6148.5},{""page_index"":8,""viewing_time"":10784.299999982119},{""page_index"":9,""viewing_time"":7749.800000011921},{""page_index"":10,""viewing_time"":7750.299999982119},{""page_index"":11,""viewing_time"":7732},{""page_index"":12,""viewing_time"":12249.90000000596},{""page_index"":13,""viewing_time"":9433.90000000596}]","105629.19999998808","","","","","","","","","","","","","","","","","","","","","","","",""
"pit-trial","8","129333","0.0-2.0-4.0-0.0","battery-v0.2","","""event"",""trial"",""time""
""fullscreenenter"",""1"",""2256""
","
","
","""event"",""trial"",""time""
""fullscreenenter"",""1"",""2256""
","
","","","1199.7000000178814","","","13","13632","1884","&#9784;","elianto","#FFFFF080"," "," ","1","&#10004","[2049.699999988079]","1","0","0","","","","","","","",""
"pit-trial","9","133115","0.0-2.0-4.1-0.1","battery-v0.2","","""event"",""trial"",""time""
""fullscreenenter"",""1"",""2256""
","
","
","""event"",""trial"",""time""
""fullscreenenter"",""1"",""2256""
","
","","","923.8000000119209","","","13","13632","1884","&#9784;","elianto","#FFFFF080"," "," ","1","&#10004","[1775.5]","1","0","0","","","","","","","",""
"pit-trial","10","136700","0.0-2.0-4.2-0.2","battery-v0.2","","""event"",""trial"",""time""
""fullscreenenter"",""1"",""2256""
","
","
","""event"",""trial"",""time""
""fullscreenenter"",""1"",""2256""
","
","","","727.0999999940395","","","13","13632","1884","&#9784;","elianto","#FFFFF080"," "," ","1","&#10004","[1578.6000000238419]","1","0","0","","","","","","","",""
"pit-trial","11","140069","0.0-2.0-4.3-0.3","battery-v0.2","","""event"",""trial"",""time""
""fullscreenenter"",""1"",""2256""
","
","
","""event"",""trial"",""time""
""fullscreenenter"",""1"",""2256""
","
","","","512.0999999940395","","","13","13632","1884","&#9784;","elianto","#FFFFF080"," "," ","1","&#10004","[1363.7000000178814]","1","0","0","","","","","","","",""
"pit-trial","12","143509","0.0-2.0-4.4-0.4","battery-v0.2","","""event"",""trial"",""time""
""fullscreenenter"",""1"",""2256""
","
","
","""event"",""trial"",""time""
""fullscreenenter"",""1"",""2256""
","
","","","583.6999999880791","","","13","13632","1884","&#9784;","elianto","#FFFFF080"," "," ","1","&#10004","[1434.7999999821186]","1","0","0","","","","","","","",""
"pit-instructions","13","164377","0.0-2.0-5.0","battery-v0.2","","""event"",""trial"",""time""
""fullscreenenter"",""1"",""2256""
","
","
","""event"",""trial"",""time""
""fullscreenenter"",""1"",""2256""
","
","","[{""page_index"":0,""viewing_time"":4845.399999976158},{""page_index"":1,""viewing_time"":5216.700000017881},{""page_index"":2,""viewing_time"":5716.9000000059605},{""page_index"":3,""viewing_time"":5083.199999988079}]","20862.69999998808","","","","","","","","","","","","","","","","","","","","","","","",""
"pit-trial","14","169233","0.0-2.0-6.0-0.0","battery-v0.2","","""event"",""trial"",""time""
""fullscreenenter"",""1"",""2256""
","
","
","""event"",""trial"",""time""
""fullscreenenter"",""1"",""2256""
","
","","","-1","","","13","13632","1884","&#9854;","elianto","#FFFFF080","-1","-1","1","&#10004","[]","0","0","1","","","","","","","",""
"pit-trial","15","174090","0.0-2.0-6.1-0.1","battery-v0.2","","""event"",""trial"",""time""
""fullscreenenter"",""1"",""2256""
","
","
","""event"",""trial"",""time""
""fullscreenenter"",""1"",""2256""
","
","","","-1","","","13","13632","1884","&#9854;","elianto","#FFFFF080","-1","-1","1","&#10004","[]","0","0","1","","","","","","","",""
"pit-trial","16","178948","0.0-2.0-6.2-0.2","battery-v0.2","","""event"",""trial"",""time""
""fullscreenenter"",""1"",""2256""
","
","
","""event"",""trial"",""time""
""fullscreenenter"",""1"",""2256""
","
","","","-1","","","13","13632","1884","&#9854;","elianto","#FFFFF080","-1","-1","1","&#10004","[]","0","0","1","","","","","","","",""
"pit-trial","17","183805","0.0-2.0-6.3-0.3","battery-v0.2","","""event"",""trial"",""time""
""fullscreenenter"",""1"",""2256""
","
","
","""event"",""trial"",""time""
""fullscreenenter"",""1"",""2256""
","
","","","-1","","","13","13632","1884","&#9854;","elianto","#FFFFF080","-1","-1","1","&#10004","[]","0","0","1","","","","","","","",""
"pit-trial","18","188662","0.0-2.0-6.4-0.4","battery-v0.2","","""event"",""trial"",""time""
""fullscreenenter"",""1"",""2256""
","
","
","""event"",""trial"",""time""
""fullscreenenter"",""1"",""2256""
","
","","","-1","","","13","13632","1884","&#9854;","elianto","#FFFFF080","-1","-1","1","&#10004","[]","0","0","1","","","","","","","",""
"pit-instructions","19","302108","0.0-2.0-7.0","battery-v0.2","","""event"",""trial"",""time""
""fullscreenenter"",""1"",""2256""
","
","
","""event"",""trial"",""time""
""fullscreenenter"",""1"",""2256""
","
","","[{""page_index"":0,""viewing_time"":5610.700000017881},{""page_index"":1,""viewing_time"":6450.5},{""page_index"":2,""viewing_time"":5633.399999976158},{""page_index"":3,""viewing_time"":7533.300000011921},{""page_index"":4,""viewing_time"":5316.5999999940395},{""page_index"":5,""viewing_time"":5567},{""page_index"":6,""viewing_time"":4449.5},{""page_index"":7,""viewing_time"":7916.5999999940395},{""page_index"":8,""viewing_time"":6816.700000017881},{""page_index"":9,""viewing_time"":6033},{""page_index"":10,""viewing_time"":6450.5},{""page_index"":11,""viewing_time"":4016.199999988079},{""page_index"":12,""viewing_time"":7083.5999999940395},{""page_index"":13,""viewing_time"":6449.5},{""page_index"":14,""viewing_time"":7700.700000017881},{""page_index"":15,""viewing_time"":6582.9000000059605},{""page_index"":16,""viewing_time"":7350},{""page_index"":17,""viewing_time"":6483.299999982119}]","113444.59999999404","","","","","","","","","","","","","","","","","","","","","","","",""
"pit-trial","20","305687","0.0-2.0-8.0-0.0","battery-v0.2","","""event"",""trial"",""time""
""fullscreenenter"",""1"",""2256""
","
","
","""event"",""trial"",""time""
""fullscreenenter"",""1"",""2256""
","
","","","723.1000000238419","","","13","13632","1884","&#9776;","elianto","#3366ff99"," "," ","1","+10","[1574.5]","1","0","1","","","","","","","",""
"pit-trial","21","309056","0.0-2.0-8.0-1.0","battery-v0.2","","""event"",""trial"",""time""
""fullscreenenter"",""1"",""2256""
","
","
","""event"",""trial"",""time""
""fullscreenenter"",""1"",""2256""
","
","","","514.0999999940395","","","13","13632","1884","&#9776;","elianto","#3366ff99"," "," ","1","+10","[1365]","1","0","1","","","","","","","",""
"pit-trial","22","312493","0.0-2.0-8.0-2.0","battery-v0.2","","""event"",""trial"",""time""
""fullscreenenter"",""1"",""2256""
","
","
","""event"",""trial"",""time""
""fullscreenenter"",""1"",""2256""
","
","","","581.4000000059605","","","13","13632","1884","&#9776;","elianto","#3366ff99"," "," ","1","+10","[1432.199999988079]","1","0","1","","","","","","","",""
"pit-trial","23","315850","0.0-2.0-8.0-3.0","battery-v0.2","","""event"",""trial"",""time""
""fullscreenenter"",""1"",""2256""
","
","
","""event"",""trial"",""time""
""fullscreenenter"",""1"",""2256""
","
","","","500.80000001192093","","","13","13632","1884","&#9776;","elianto","#3366ff99"," "," ","1","0","[1352.5]","1","0","1","","","","","","","",""
"pit-trial","24","319189","0.0-2.0-8.0-4.0","battery-v0.2","","""event"",""trial"",""time""
""fullscreenenter"",""1"",""2256""
","
","
","""event"",""trial"",""time""
""fullscreenenter"",""1"",""2256""
","
","","","483.80000001192093","","","13","13632","1884","&#9776;","elianto","#3366ff99"," "," ","1","+10","[1334.7000000178814]","1","0","1","","","","","","","",""
"pit-trial","25","322565","0.0-2.0-8.1-0.1","battery-v0.2","","""event"",""trial"",""time""
""fullscreenenter"",""1"",""2256""
","
","
","""event"",""trial"",""time""
""fullscreenenter"",""1"",""2256""
","
","","","519.1000000238419","","","13","13632","1884","&#9776;","elianto","#3366ff99"," "," ","1","+10","[1370.199999988079]","1","0","1","","","","","","","",""
"pit-trial","26","325734","0.0-2.0-8.1-1.1","battery-v0.2","","""event"",""trial"",""time""
""fullscreenenter"",""1"",""2256""
","
","
","""event"",""trial"",""time""
""fullscreenenter"",""1"",""2256""
","
","","","313.5","","","13","13632","1884","&#9776;","elianto","#3366ff99"," "," ","1","+10","[1164.5999999940395]","1","0","1","","","","","","","",""
"pit-trial","27","329217","0.0-2.0-8.1-2.1","battery-v0.2","","""event"",""trial"",""time""
""fullscreenenter"",""1"",""2256""
","
","
","""event"",""trial"",""time""
""fullscreenenter"",""1"",""2256""
","
","","","628.7999999821186","","","13","13632","1884","&#9776;","elianto","#3366ff99"," "," ","1","+10","[1479]","1","0","1","","","","","","","",""
"pit-trial","28","332495","0.0-2.0-8.1-3.1","battery-v0.2","","""event"",""trial"",""time""
""fullscreenenter"",""1"",""2256""
","
","
","""event"",""trial"",""time""
""fullscreenenter"",""1"",""2256""
","
","","","422.7000000178814","","","13","13632","1884","&#9776;","elianto","#3366ff99"," "," ","1","0","[1273.0999999940395]","1","0","1","","","","","","","",""
"pit-trial","29","335760","0.0-2.0-8.1-4.1","battery-v0.2","","""event"",""trial"",""time""
""fullscreenenter"",""1"",""2256""
","
","
","""event"",""trial"",""time""
""fullscreenenter"",""1"",""2256""
","
","","","409.90000000596046","","","13","13632","1884","&#9776;","elianto","#3366ff99"," "," ","1","+10","[1261.5999999940395]","1","0","1","","","","","","","",""
"pit-trial","30","339078","0.0-2.0-8.2-0.2","battery-v0.2","","""event"",""trial"",""time""
""fullscreenenter"",""1"",""2256""
","
","
","""event"",""trial"",""time""
""fullscreenenter"",""1"",""2256""
","
","","","461.7999999821186","","","13","13632","1884","&#9776;","elianto","#3366ff99"," "," ","1","+10","[1313.2999999821186]","1","0","1","","","","","","","",""
"pit-trial","31","342391","0.0-2.0-8.2-1.2","battery-v0.2","","""event"",""trial"",""time""
""fullscreenenter"",""1"",""2256""
","
","
","""event"",""trial"",""time""
""fullscreenenter"",""1"",""2256""
","
","","","457.19999998807907","","","13","13632","1884","&#9776;","elianto","#3366ff99"," "," ","1","+10","[1308.199999988079]","1","0","1","","","","","","","",""
"pit-trial","32","345838","0.0-2.0-8.2-2.2","battery-v0.2","","""event"",""trial"",""time""
""fullscreenenter"",""1"",""2256""
","
","
","""event"",""trial"",""time""
""fullscreenenter"",""1"",""2256""
","
","","","590.9000000059605","","","13","13632","1884","&#9776;","elianto","#3366ff99"," "," ","1","+10","[1441.8999999761581]","1","0","1","","","","","","","",""
"pit-trial","33","349414","0.0-2.0-8.2-3.2","battery-v0.2","","""event"",""trial"",""time""
""fullscreenenter"",""1"",""2256""
","
","
","""event"",""trial"",""time""
""fullscreenenter"",""1"",""2256""
","
","","","721.3000000119209","","","13","13632","1884","&#9776;","elianto","#3366ff99"," "," ","1","0","[1571.800000011921]","1","0","1","","","","","","","",""
"pit-trial","34","352668","0.0-2.0-8.2-4.2","battery-v0.2","","""event"",""trial"",""time""
""fullscreenenter"",""1"",""2256""
","
","
","""event"",""trial"",""time""
""fullscreenenter"",""1"",""2256""
","
","","","397.80000001192093","","","13","13632","1884","&#9776;","elianto","#3366ff99"," "," ","1","+10","[1248.7999999821186]","1","0","1","","","","","","","",""
"call-function","35","352671","0.0-2.0-9.0","battery-v0.2","","""event"",""trial"",""time""
""fullscreenenter"",""1"",""2256""
","
","
","""event"",""trial"",""time""
""fullscreenenter"",""1"",""2256""
","
","","","","","","","","","","","","","","","","","","","","","","","","","","",""
"pit-instructions","36","391940","0.0-2.0-10.0","battery-v0.2","","""event"",""trial"",""time""
""fullscreenenter"",""1"",""2256""
","
","
","""event"",""trial"",""time""
""fullscreenenter"",""1"",""2256""
","
","","[{""page_index"":0,""viewing_time"":6351.300000011921},{""page_index"":1,""viewing_time"":6532.4000000059605},{""page_index"":2,""viewing_time"":10050.199999988079},{""page_index"":3,""viewing_time"":8899.800000011921},{""page_index"":4,""viewing_time"":7433.399999976158}]","39267.70000001788","","","","","","","","","","","","","","","","","","","","","","","",""
"pit-trial","37","395237","0.0-2.0-11.0-0.0","battery-v0.2","","""event"",""trial"",""time""
""fullscreenenter"",""1"",""2256""
","
","
","""event"",""trial"",""time""
""fullscreenenter"",""1"",""2256""
","
","","","442.40000000596046","","","13","13632","1884","&#9761;","elianto","#3366ff99","-1"," ","0","0","[1293.6000000238419]","1","0","2","","","","","","","",""
"pit-trial","38","398163","0.0-2.0-11.0-1.0","battery-v0.2","","""event"",""trial"",""time""
""fullscreenenter"",""1"",""2256""
","
","
","""event"",""trial"",""time""
""fullscreenenter"",""1"",""2256""
","
","","","69.59999999403954","","","13","13632","1884","&#9761;","elianto","#3366ff99","-1"," ","0","0","[920.9000000059605]","1","0","2","","","","","","","",""
"pit-trial","39","403019","0.0-2.0-11.0-2.0","battery-v0.2","","""event"",""trial"",""time""
""fullscreenenter"",""1"",""2256""
","
","
","""event"",""trial"",""time""
""fullscreenenter"",""1"",""2256""
","
","","","-1","","","13","13632","1884","&#9761;","elianto","#3366ff99","-1","-1","1","+10","[]","0","0","2","","","","","","","",""
"pit-trial","40","407875","0.0-2.0-11.0-3.0","battery-v0.2","","""event"",""trial"",""time""
""fullscreenenter"",""1"",""2256""
","
","
","""event"",""trial"",""time""
""fullscreenenter"",""1"",""2256""
","
","","","-1","","","13","13632","1884","&#9761;","elianto","#3366ff99","-1","-1","1","0","[]","0","0","2","","","","","","","",""
"pit-trial","41","412731","0.0-2.0-11.0-4.0","battery-v0.2","","""event"",""trial"",""time""
""fullscreenenter"",""1"",""2256""
","
","
","""event"",""trial"",""time""
""fullscreenenter"",""1"",""2256""
","
","","","-1","","","13","13632","1884","&#9761;","elianto","#3366ff99","-1","-1","1","+10","[]","0","0","2","","","","","","","",""
"pit-trial","42","417589","0.0-2.0-11.1-0.1","battery-v0.2","","""event"",""trial"",""time""
""fullscreenenter"",""1"",""2256""
","
","
","""event"",""trial"",""time""
""fullscreenenter"",""1"",""2256""
","
","","","-1","","","13","13632","1884","&#9761;","elianto","#3366ff99","-1","-1","1","+10","[]","0","0","2","","","","","","","",""
"pit-trial","43","422445","0.0-2.0-11.1-1.1","battery-v0.2","","""event"",""trial"",""time""
""fullscreenenter"",""1"",""2256""
","
","
","""event"",""trial"",""time""
""fullscreenenter"",""1"",""2256""
","
","","","-1","","","13","13632","1884","&#9761;","elianto","#3366ff99","-1","-1","1","+10","[]","0","0","2","","","","","","","",""
"pit-trial","44","427300","0.0-2.0-11.1-2.1","battery-v0.2","","""event"",""trial"",""time""
""fullscreenenter"",""1"",""2256""
","
","
","""event"",""trial"",""time""
""fullscreenenter"",""1"",""2256""
","
","","","-1","","","13","13632","1884","&#9761;","elianto","#3366ff99","-1","-1","1","+10","[]","0","0","2","","","","","","","",""
"pit-trial","45","432156","0.0-2.0-11.1-3.1","battery-v0.2","","""event"",""trial"",""time""
""fullscreenenter"",""1"",""2256""
","
","
","""event"",""trial"",""time""
""fullscreenenter"",""1"",""2256""
","
","","","-1","","","13","13632","1884","&#9761;","elianto","#3366ff99","-1","-1","1","0","[]","0","0","2","","","","","","","",""
"pit-trial","46","436644","0.0-2.0-11.1-4.1","battery-v0.2","","""event"",""trial"",""time""
""fullscreenenter"",""1"",""2256""
","
","
","""event"",""trial"",""time""
""fullscreenenter"",""1"",""2256""
","
","","","1632.5999999940395","","","13","13632","1884","&#9761;","elianto","#3366ff99","-1"," ","0","0","[2484.2000000178814]","1","0","2","","","","","","","",""
"pit-trial","47","441501","0.0-2.0-11.2-0.2","battery-v0.2","","""event"",""trial"",""time""
""fullscreenenter"",""1"",""2256""
","
","
","""event"",""trial"",""time""
""fullscreenenter"",""1"",""2256""
","
","","","-1","","","13","13632","1884","&#9761;","elianto","#3366ff99","-1","-1","1","+10","[]","0","0","2","","","","","","","",""
"pit-trial","48","446358","0.0-2.0-11.2-1.2","battery-v0.2","","""event"",""trial"",""time""
""fullscreenenter"",""1"",""2256""
","
","
","""event"",""trial"",""time""
""fullscreenenter"",""1"",""2256""
","
","","","-1","","","13","13632","1884","&#9761;","elianto","#3366ff99","-1","-1","1","+10","[]","0","0","2","","","","","","","",""
"pit-trial","49","451214","0.0-2.0-11.2-2.2","battery-v0.2","","""event"",""trial"",""time""
""fullscreenenter"",""1"",""2256""
","
","
","""event"",""trial"",""time""
""fullscreenenter"",""1"",""2256""
","
","","","-1","","","13","13632","1884","&#9761;","elianto","#3366ff99","-1","-1","1","+10","[]","0","0","2","","","","","","","",""
"pit-trial","50","456070","0.0-2.0-11.2-3.2","battery-v0.2","","""event"",""trial"",""time""
""fullscreenenter"",""1"",""2256""
","
","
","""event"",""trial"",""time""
""fullscreenenter"",""1"",""2256""
","
","","","-1","","","13","13632","1884","&#9761;","elianto","#3366ff99","-1","-1","1","0","[]","0","0","2","","","","","","","",""
"pit-trial","51","460927","0.0-2.0-11.2-4.2","battery-v0.2","","""event"",""trial"",""time""
""fullscreenenter"",""1"",""2256""
","
","
","""event"",""trial"",""time""
""fullscreenenter"",""1"",""2256""
","
","","","-1","","","13","13632","1884","&#9761;","elianto","#3366ff99","-1","-1","1","+10","[]","0","0","2","","","","","","","",""
"pit-trial","52","465782","0.0-2.0-11.3-0.3","battery-v0.2","","""event"",""trial"",""time""
""fullscreenenter"",""1"",""2256""
","
","
","""event"",""trial"",""time""
""fullscreenenter"",""1"",""2256""
","
","","","-1","","","13","13632","1884","&#9761;","elianto","#3366ff99","-1","-1","1","+10","[]","0","0","2","","","","","","","",""
"pit-trial","53","470639","0.0-2.0-11.3-1.3","battery-v0.2","","""event"",""trial"",""time""
""fullscreenenter"",""1"",""2256""
","
","
","""event"",""trial"",""time""
""fullscreenenter"",""1"",""2256""
","
","","","-1","","","13","13632","1884","&#9761;","elianto","#3366ff99","-1","-1","1","+10","[]","0","0","2","","","","","","","",""
"pit-trial","54","475496","0.0-2.0-11.3-2.3","battery-v0.2","","""event"",""trial"",""time""
""fullscreenenter"",""1"",""2256""
","
","
","""event"",""trial"",""time""
""fullscreenenter"",""1"",""2256""
","
","","","-1","","","13","13632","1884","&#9761;","elianto","#3366ff99","-1","-1","1","+10","[]","0","0","2","","","","","","","",""
"pit-trial","55","480352","0.0-2.0-11.3-3.3","battery-v0.2","","""event"",""trial"",""time""
""fullscreenenter"",""1"",""2256""
","
","
","""event"",""trial"",""time""
""fullscreenenter"",""1"",""2256""
","
","","","-1","","","13","13632","1884","&#9761;","elianto","#3366ff99","-1","-1","1","0","[]","0","0","2","","","","","","","",""
"pit-trial","56","485208","0.0-2.0-11.3-4.3","battery-v0.2","","""event"",""trial"",""time""
""fullscreenenter"",""1"",""2256""
","
","
","""event"",""trial"",""time""
""fullscreenenter"",""1"",""2256""
","
","","","-1","","","13","13632","1884","&#9761;","elianto","#3366ff99","-1","-1","1","+10","[]","0","0","2","","","","","","","",""
"call-function","57","485211","0.0-2.0-12.0","battery-v0.2","","""event"",""trial"",""time""
""fullscreenenter"",""1"",""2256""
","
","
","""event"",""trial"",""time""
""fullscreenenter"",""1"",""2256""
","
","","","","","","","","","","","","","","","","","","","","","","","","","","",""
"pit-instructions","58","517059","0.0-2.0-13.0","battery-v0.2","","""event"",""trial"",""time""
""fullscreenenter"",""1"",""2256""
","
","
","""event"",""trial"",""time""
""fullscreenenter"",""1"",""2256""
","
","","[{""page_index"":0,""viewing_time"":7857.700000017881},{""page_index"":1,""viewing_time"":6183.5999999940395},{""page_index"":2,""viewing_time"":3517.4000000059605},{""page_index"":3,""viewing_time"":10149.59999999404},{""page_index"":4,""viewing_time"":4133.4000000059605}]","31842.20000001788","","","","","","","","","","","","","","","","","","","","","","","",""
"pit-trial","59","520318","0.0-2.0-14.0-0.0","battery-v0.2","","""event"",""trial"",""time""
""fullscreenenter"",""1"",""2256""
","
","
","""event"",""trial"",""time""
""fullscreenenter"",""1"",""2256""
","
","","","403","","","13","13632","1884","&#9826;","elianto","#f73b6a7A","-1"," ","0","-10","[1254.2999999821186]","1","0","3","","","","","","","",""
"pit-trial","60","525175","0.0-2.0-14.0-1.0","battery-v0.2","","""event"",""trial"",""time""
""fullscreenenter"",""1"",""2256""
","
","
","""event"",""trial"",""time""
""fullscreenenter"",""1"",""2256""
","
","","","-1","","","13","13632","1884","&#9826;","elianto","#f73b6a7A","-1","-1","1","0","[]","0","0","3","","","","","","","",""
"pit-trial","61","530031","0.0-2.0-14.0-2.0","battery-v0.2","","""event"",""trial"",""time""
""fullscreenenter"",""1"",""2256""
","
","
","""event"",""trial"",""time""
""fullscreenenter"",""1"",""2256""
","
","","","-1","","","13","13632","1884","&#9826;","elianto","#f73b6a7A","-1","-1","1","0","[]","0","0","3","","","","","","","",""
"pit-trial","62","534888","0.0-2.0-14.0-3.0","battery-v0.2","","""event"",""trial"",""time""
""fullscreenenter"",""1"",""2256""
","
","
","""event"",""trial"",""time""
""fullscreenenter"",""1"",""2256""
","
","","","-1","","","13","13632","1884","&#9826;","elianto","#f73b6a7A","-1","-1","1","-10","[]","0","0","3","","","","","","","",""
"pit-trial","63","539745","0.0-2.0-14.0-4.0","battery-v0.2","","""event"",""trial"",""time""
""fullscreenenter"",""1"",""2256""
","
","
","""event"",""trial"",""time""
""fullscreenenter"",""1"",""2256""
","
","","","-1","","","13","13632","1884","&#9826;","elianto","#f73b6a7A","-1","-1","1","0","[]","0","0","3","","","","","","","",""
"pit-trial","64","544602","0.0-2.0-14.1-0.1","battery-v0.2","","""event"",""trial"",""time""
""fullscreenenter"",""1"",""2256""
","
","
","""event"",""trial"",""time""
""fullscreenenter"",""1"",""2256""
","
","","","-1","","","13","13632","1884","&#9826;","elianto","#f73b6a7A","-1","-1","1","0","[]","0","0","3","","","","","","","",""
"pit-trial","65","549459","0.0-2.0-14.1-1.1","battery-v0.2","","""event"",""trial"",""time""
""fullscreenenter"",""1"",""2256""
","
","
","""event"",""trial"",""time""
""fullscreenenter"",""1"",""2256""
","
","","","-1","","","13","13632","1884","&#9826;","elianto","#f73b6a7A","-1","-1","1","0","[]","0","0","3","","","","","","","",""
"pit-trial","66","554315","0.0-2.0-14.1-2.1","battery-v0.2","","""event"",""trial"",""time""
""fullscreenenter"",""1"",""2256""
","
","
","""event"",""trial"",""time""
""fullscreenenter"",""1"",""2256""
","
","","","-1","","","13","13632","1884","&#9826;","elianto","#f73b6a7A","-1","-1","1","0","[]","0","0","3","","","","","","","",""
"pit-trial","67","559171","0.0-2.0-14.1-3.1","battery-v0.2","","""event"",""trial"",""time""
""fullscreenenter"",""1"",""2256""
","
","
","""event"",""trial"",""time""
""fullscreenenter"",""1"",""2256""
","
","","","-1","","","13","13632","1884","&#9826;","elianto","#f73b6a7A","-1","-1","1","-10","[]","0","0","3","","","","","","","",""
"pit-trial","68","564026","0.0-2.0-14.1-4.1","battery-v0.2","","""event"",""trial"",""time""
""fullscreenenter"",""1"",""2256""
","
","
","""event"",""trial"",""time""
""fullscreenenter"",""1"",""2256""
","
","","","-1","","","13","13632","1884","&#9826;","elianto","#f73b6a7A","-1","-1","1","0","[]","0","0","3","","","","","","","",""
"pit-trial","69","568885","0.0-2.0-14.2-0.2","battery-v0.2","","""event"",""trial"",""time""
""fullscreenenter"",""1"",""2256""
","
","
","""event"",""trial"",""time""
""fullscreenenter"",""1"",""2256""
","
","","","-1","","","13","13632","1884","&#9826;","elianto","#f73b6a7A","-1","-1","1","0","[]","0","0","3","","","","","","","",""
"pit-trial","70","573741","0.0-2.0-14.2-1.2","battery-v0.2","","""event"",""trial"",""time""
""fullscreenenter"",""1"",""2256""
","
","
","""event"",""trial"",""time""
""fullscreenenter"",""1"",""2256""
","
","","","-1","","","13","13632","1884","&#9826;","elianto","#f73b6a7A","-1","-1","1","0","[]","0","0","3","","","","","","","",""
"pit-trial","71","578597","0.0-2.0-14.2-2.2","battery-v0.2","","""event"",""trial"",""time""
""fullscreenenter"",""1"",""2256""
","
","
","""event"",""trial"",""time""
""fullscreenenter"",""1"",""2256""
","
","","","-1","","","13","13632","1884","&#9826;","elianto","#f73b6a7A","-1","-1","1","0","[]","0","0","3","","","","","","","",""
"pit-trial","72","583453","0.0-2.0-14.2-3.2","battery-v0.2","","""event"",""trial"",""time""
""fullscreenenter"",""1"",""2256""
","
","
","""event"",""trial"",""time""
""fullscreenenter"",""1"",""2256""
","
","","","-1","","","13","13632","1884","&#9826;","elianto","#f73b6a7A","-1","-1","1","-10","[]","0","0","3","","","","","","","",""
"pit-trial","73","588309","0.0-2.0-14.2-4.2","battery-v0.2","","""event"",""trial"",""time""
""fullscreenenter"",""1"",""2256""
","
","
","""event"",""trial"",""time""
""fullscreenenter"",""1"",""2256""
","
","","","-1","","","13","13632","1884","&#9826;","elianto","#f73b6a7A","-1","-1","1","0","[]","0","0","3","","","","","","","",""
"pit-trial","74","593165","0.0-2.0-14.3-0.3","battery-v0.2","","""event"",""trial"",""time""
""fullscreenenter"",""1"",""2256""
","
","
","""event"",""trial"",""time""
""fullscreenenter"",""1"",""2256""
","
","","","-1","","","13","13632","1884","&#9826;","elianto","#f73b6a7A","-1","-1","1","0","[]","0","0","3","","","","","","","",""
"pit-trial","75","598021","0.0-2.0-14.3-1.3","battery-v0.2","","""event"",""trial"",""time""
""fullscreenenter"",""1"",""2256""
","
","
","""event"",""trial"",""time""
""fullscreenenter"",""1"",""2256""
","
","","","-1","","","13","13632","1884","&#9826;","elianto","#f73b6a7A","-1","-1","1","0","[]","0","0","3","","","","","","","",""
"pit-trial","76","602876","0.0-2.0-14.3-2.3","battery-v0.2","","""event"",""trial"",""time""
""fullscreenenter"",""1"",""2256""
","
","
","""event"",""trial"",""time""
""fullscreenenter"",""1"",""2256""
","
","","","-1","","","13","13632","1884","&#9826;","elianto","#f73b6a7A","-1","-1","1","0","[]","0","0","3","","","","","","","",""
"pit-trial","77","607733","0.0-2.0-14.3-3.3","battery-v0.2","","""event"",""trial"",""time""
""fullscreenenter"",""1"",""2256""
","
","
","""event"",""trial"",""time""
""fullscreenenter"",""1"",""2256""
","
","","","-1","","","13","13632","1884","&#9826;","elianto","#f73b6a7A","-1","-1","1","-10","[]","0","0","3","","","","","","","",""
"pit-trial","78","612590","0.0-2.0-14.3-4.3","battery-v0.2","","""event"",""trial"",""time""
""fullscreenenter"",""1"",""2256""
","
","
","""event"",""trial"",""time""
""fullscreenenter"",""1"",""2256""
","
","","","-1","","","13","13632","1884","&#9826;","elianto","#f73b6a7A","-1","-1","1","0","[]","0","0","3","","","","","","","",""
"call-function","79","612592","0.0-2.0-15.0","battery-v0.2","","""event"",""trial"",""time""
""fullscreenenter"",""1"",""2256""
","
","
","""event"",""trial"",""time""
""fullscreenenter"",""1"",""2256""
","
","","","","","","","","","","","","","","","","","","","","","","","","","","",""
"pit-instructions","80","636226","0.0-2.0-16.0","battery-v0.2","","""event"",""trial"",""time""
""fullscreenenter"",""1"",""2256""
","
","
","""event"",""trial"",""time""
""fullscreenenter"",""1"",""2256""
","
","","[{""page_index"":0,""viewing_time"":6564.5},{""page_index"":1,""viewing_time"":8317.699999988079},{""page_index"":2,""viewing_time"":4566.0999999940395},{""page_index"":3,""viewing_time"":4183.800000011921}]","23632.69999998808","","","","","","","","","","","","","","","","","","","","","","","",""
"pit-trial","81","639492","0.0-2.0-17.0-0.0","battery-v0.2","","""event"",""trial"",""time""
""fullscreenenter"",""1"",""2256""
","
","
","""event"",""trial"",""time""
""fullscreenenter"",""1"",""2256""
","
","","","411.09999999403954","","","13","13632","1884","&#9789;","elianto","#f73b6a7A"," "," ","1","0","[1262.300000011921]","1","0","4","","","","","","","",""
"pit-trial","82","642783","0.0-2.0-17.0-1.0","battery-v0.2","","""event"",""trial"",""time""
""fullscreenenter"",""1"",""2256""
","
","
","""event"",""trial"",""time""
""fullscreenenter"",""1"",""2256""
","
","","","435.7999999821186","","","13","13632","1884","&#9789;","elianto","#f73b6a7A"," "," ","1","0","[1287.199999988079]","1","0","4","","","","","","","",""
"pit-trial","83","646040","0.0-2.0-17.0-2.0","battery-v0.2","","""event"",""trial"",""time""
""fullscreenenter"",""1"",""2256""
","
","
","""event"",""trial"",""time""
""fullscreenenter"",""1"",""2256""
","
","","","400.90000000596046","","","13","13632","1884","&#9789;","elianto","#f73b6a7A"," "," ","1","0","[1252.699999988079]","1","0","4","","","","","","","",""
"pit-trial","84","649013","0.0-2.0-17.0-3.0","battery-v0.2","","""event"",""trial"",""time""
""fullscreenenter"",""1"",""2256""
","
","
","""event"",""trial"",""time""
""fullscreenenter"",""1"",""2256""
","
","","","118.2999999821186","","","13","13632","1884","&#9789;","elianto","#f73b6a7A"," "," ","1","-10","[969]","1","0","4","","","","","","","",""
"pit-trial","85","651963","0.0-2.0-17.0-4.0","battery-v0.2","","""event"",""trial"",""time""
""fullscreenenter"",""1"",""2256""
","
","
","""event"",""trial"",""time""
""fullscreenenter"",""1"",""2256""
","
","","","93.80000001192093","","","13","13632","1884","&#9789;","elianto","#f73b6a7A"," "," ","1","0","[945.7000000178814]","1","0","4","","","","","","","",""
"pit-trial","86","655042","0.0-2.0-17.1-0.1","battery-v0.2","","""event"",""trial"",""time""
""fullscreenenter"",""1"",""2256""
","
","
","""event"",""trial"",""time""
""fullscreenenter"",""1"",""2256""
","
","","","221.5","","","13","13632","1884","&#9789;","elianto","#f73b6a7A"," "," ","1","0","[1073.5999999940395]","1","0","4","","","","","","","",""
"pit-trial","87","657978","0.0-2.0-17.1-1.1","battery-v0.2","","""event"",""trial"",""time""
""fullscreenenter"",""1"",""2256""
","
","
","""event"",""trial"",""time""
""fullscreenenter"",""1"",""2256""
","
","","","80.19999998807907","","","13","13632","1884","&#9789;","elianto","#f73b6a7A"," "," ","1","0","[931.1999999880791]","1","0","4","","","","","","","",""
"pit-trial","88","661221","0.0-2.0-17.1-2.1","battery-v0.2","","""event"",""trial"",""time""
""fullscreenenter"",""1"",""2256""
","
","
","""event"",""trial"",""time""
""fullscreenenter"",""1"",""2256""
","
","","","387.30000001192093","","","13","13632","1884","&#9789;","elianto","#f73b6a7A"," "," ","1","0","[1238.2999999821186]","1","0","4","","","","","","","",""
"pit-trial","89","664408","0.0-2.0-17.1-3.1","battery-v0.2","","""event"",""trial"",""time""
""fullscreenenter"",""1"",""2256""
","
","
","""event"",""trial"",""time""
""fullscreenenter"",""1"",""2256""
","
","","","330.7999999821186","","","13","13632","1884","&#9789;","elianto","#f73b6a7A"," "," ","1","-10","[1181.5999999940395]","1","0","4","","","","","","","",""
"pit-trial","90","667518","0.0-2.0-17.1-4.1","battery-v0.2","","""event"",""trial"",""time""
""fullscreenenter"",""1"",""2256""
","
","
","""event"",""trial"",""time""
""fullscreenenter"",""1"",""2256""
","
","","","255.40000000596046","","","13","13632","1884","&#9789;","elianto","#f73b6a7A"," "," ","1","0","[1106.4000000059605]","1","0","4","","","","","","","",""
"pit-trial","91","670450","0.0-2.0-17.2-0.2","battery-v0.2","","""event"",""trial"",""time""
""fullscreenenter"",""1"",""2256""
","
","
","""event"",""trial"",""time""
""fullscreenenter"",""1"",""2256""
","
","","","75.5","","","13","13632","1884","&#9789;","elianto","#f73b6a7A"," "," ","1","0","[926.4000000059605]","1","0","4","","","","","","","",""
"pit-trial","92","673785","0.0-2.0-17.2-1.2","battery-v0.2","","""event"",""trial"",""time""
""fullscreenenter"",""1"",""2256""
","
","
","""event"",""trial"",""time""
""fullscreenenter"",""1"",""2256""
","
","","","480.2000000178814","","","13","13632","1884","&#9789;","elianto","#f73b6a7A"," "," ","1","0","[1331.2000000178814,1699,1950.7000000178814,2200.5999999940395,2472.300000011921,2694.4000000059605,2937.300000011921,3177.5]","8","0","4","","","","","","","",""
"pit-trial","93","676743","0.0-2.0-17.2-2.2","battery-v0.2","","""event"",""trial"",""time""
""fullscreenenter"",""1"",""2256""
","
","
","""event"",""trial"",""time""
""fullscreenenter"",""1"",""2256""
","
","","","103.40000000596046","","","13","13632","1884","&#9789;","elianto","#f73b6a7A"," "," ","1","0","[92.90000000596046,321.40000000596046,539.0999999940395,758.6999999880791,954,1181.0999999940395,1402.0999999940395,1641.199999988079,1863.7999999821186,2104.5999999940395,2352.5999999940395,2611.699999988079,2835.5]","13","0","4","","","","","","","",""
"pit-trial","94","679602","0.0-2.0-17.2-3.2","battery-v0.2","","""event"",""trial"",""time""
""fullscreenenter"",""1"",""2256""
","
","
","""event"",""trial"",""time""
""fullscreenenter"",""1"",""2256""
","
","","","3.5999999940395355","","","13","13632","1884","&#9789;","elianto","#f73b6a7A"," "," ","1","-10","[136.59999999403954,380.69999998807907,630.0999999940395,854.4000000059605,1072.5999999940395,1365,1599.699999988079,1826.699999988079,2103.300000011921,2337,2594.9000000059605,2843]","12","0","4","","","","","","","",""
"pit-trial","95","682610","0.0-2.0-17.2-4.2","battery-v0.2","","""event"",""trial"",""time""
""fullscreenenter"",""1"",""2256""
","
","
","""event"",""trial"",""time""
""fullscreenenter"",""1"",""2256""
","
","","","153.7000000178814","","","13","13632","1884","&#9789;","elianto","#f73b6a7A"," "," ","1","0","[245.59999999403954,471.30000001192093,723.5999999940395,1003.9000000059605,1242.4000000059605,1537.5999999940395,1841.300000011921,2108.9000000059605,2365,2647.5]","10","0","4","","","","","","","",""
"pit-trial","96","685478","0.0-2.0-17.3-0.3","battery-v0.2","","""event"",""trial"",""time""
""fullscreenenter"",""1"",""2256""
","
","
","""event"",""trial"",""time""
""fullscreenenter"",""1"",""2256""
","
","","","12.099999994039536","","","13","13632","1884","&#9789;","elianto","#f73b6a7A"," "," ","1","0","[94.90000000596046,354.19999998807907,579.9000000059605,863.7999999821186,1117.2999999821186,1382.5,1644.2999999821186,1886.5,2132,2419.5,2717.2999999821186]","11","0","4","","","","","","","",""
"pit-trial","97","688455","0.0-2.0-17.3-1.3","battery-v0.2","","""event"",""trial"",""time""
""fullscreenenter"",""1"",""2256""
","
","
","""event"",""trial"",""time""
""fullscreenenter"",""1"",""2256""
","
","","","121.5","","","13","13632","1884","&#9789;","elianto","#f73b6a7A"," "," ","1","0","[50.5,261.80000001192093,500.30000001192093,745.7000000178814,973.5,1174.7000000178814,1312.5999999940395,1502.300000011921,1755.2000000178814,2021.2000000178814,2274.9000000059605,2508.0999999940395,2772.300000011921]","13","0","4","","","","","","","",""
"pit-trial","98","691410","0.0-2.0-17.3-2.3","battery-v0.2","","""event"",""trial"",""time""
""fullscreenenter"",""1"",""2256""
","
","
","""event"",""trial"",""time""
""fullscreenenter"",""1"",""2256""
","
","","","100.19999998807907","","","13","13632","1884","&#9789;","elianto","#f73b6a7A"," "," ","1","0","[24.400000005960464,276.80000001192093,517.1000000238419,734.2000000178814,951.4000000059605,1180.300000011921,1424.300000011921,1735.7000000178814,1953,2222.2000000178814,2460.7000000178814,2713.300000011921]","12","0","4","","","","","","","",""
"pit-trial","99","694445","0.0-2.0-17.3-3.3","battery-v0.2","","""event"",""trial"",""time""
""fullscreenenter"",""1"",""2256""
","
","
","""event"",""trial"",""time""
""fullscreenenter"",""1"",""2256""
","
","","","177.90000000596046","","","13","13632","1884","&#9789;","elianto","#f73b6a7A"," "," ","1","-10","[10.699999988079071,286.5,522.3999999761581,796.7999999821186,1030,1278.7999999821186,1549.5,1838.7999999821186,2099.2999999821186,2335.7999999821186,2618.2999999821186,2863.199999988079]","12","0","4","","","","","","","",""
"pit-trial","100","697311","0.0-2.0-17.3-4.3","battery-v0.2","","""event"",""trial"",""time""
""fullscreenenter"",""1"",""2256""
","
","
","""event"",""trial"",""time""
""fullscreenenter"",""1"",""2256""
","
","","","10.400000005960464","","","13","13632","1884","&#9789;","elianto","#f73b6a7A"," "," ","1","0","[69,353.30000001192093,611.7000000178814,861.4000000059605,1115.300000011921,1379.9000000059605,1594.7000000178814,1849.800000011921,2095.5,2361.5,2663.5]","11","0","4","","","","","","","",""
"call-function","101","697314","0.0-2.0-18.0","battery-v0.2","","""event"",""trial"",""time""
""fullscreenenter"",""1"",""2256""
","
","
","""event"",""trial"",""time""
""fullscreenenter"",""1"",""2256""
","
","","","","","","","","","","","","","","","","","","","","","","","","","","",""
"pit-instructions","102","760707","0.0-2.0-19.0","battery-v0.2","","""event"",""trial"",""time""
""fullscreenenter"",""1"",""2256""
","
","
","""event"",""trial"",""time""
""fullscreenenter"",""1"",""2256""
","
","","[{""page_index"":0,""viewing_time"":7025},{""page_index"":1,""viewing_time"":6817.199999988079},{""page_index"":2,""viewing_time"":8300},{""page_index"":3,""viewing_time"":7583.5},{""page_index"":4,""viewing_time"":6866.199999988079},{""page_index"":5,""viewing_time"":8066.800000011921},{""page_index"":6,""viewing_time"":8366.09999999404},{""page_index"":7,""viewing_time"":6367.5},{""page_index"":8,""viewing_time"":3999.4000000059605}]","63392.29999998212","","","","","","","","","","","","","","","","","","","","","","","",""
"pit-comprehension","103","765175","0.0-2.0-20.0-0.0","battery-v0.2","","""event"",""trial"",""time""
""fullscreenenter"",""1"",""2256""
","
","
","""event"",""trial"",""time""
""fullscreenenter"",""1"",""2256""
","
","","","4462.5","[""SPACE""]","0","13","13632","1884","","","","","","","","","","","","","","","","","","",""
"pit-instructions","104","768357","0.0-2.0-20.0-1.0","battery-v0.2","","""event"",""trial"",""time""
""fullscreenenter"",""1"",""2256""
","
","
","""event"",""trial"",""time""
""fullscreenenter"",""1"",""2256""
","
","","[{""page_index"":0,""viewing_time"":3152.7000000178814}]","3153.2000000178814","","","","","","","","","","","","","","","","","","","","","","","",""
"pit-comprehension","105","774106","0.0-2.0-21.0-0.0","battery-v0.2","","""event"",""trial"",""time""
""fullscreenenter"",""1"",""2256""
","
","
","""event"",""trial"",""time""
""fullscreenenter"",""1"",""2256""
","
","","","5744.299999982119","[""10""]","0","13","13632","1884","","","","","","","","","","","","","","","","","","",""
"pit-instructions","106","775991","0.0-2.0-21.0-1.0","battery-v0.2","","""event"",""trial"",""time""
""fullscreenenter"",""1"",""2256""
","
","
","""event"",""trial"",""time""
""fullscreenenter"",""1"",""2256""
","
","","[{""page_index"":0,""viewing_time"":1854.5999999940395}]","1855.199999988079","","","","","","","","","","","","","","","","","","","","","","","",""
"pit-comprehension","107","782891","0.0-2.0-22.0-0.0","battery-v0.2","","""event"",""trial"",""time""
""fullscreenenter"",""1"",""2256""
","
","
","""event"",""trial"",""time""
""fullscreenenter"",""1"",""2256""
","
","","","6895.699999988079","[""0""]","0","13","13632","1884","","","","","","","","","","","","","","","","","","",""
"pit-instructions","108","787590","0.0-2.0-22.0-1.0","battery-v0.2","","""event"",""trial"",""time""
""fullscreenenter"",""1"",""2256""
","
","
","""event"",""trial"",""time""
""fullscreenenter"",""1"",""2256""
","
","","[{""page_index"":0,""viewing_time"":4668.5}]","4669","","","","","","","","","","","","","","","","","","","","","","","",""
"pit-comprehension","109","798392","0.0-2.0-23.0-0.0","battery-v0.2","","""event"",""trial"",""time""
""fullscreenenter"",""1"",""2256""
","
","
","""event"",""trial"",""time""
""fullscreenenter"",""1"",""2256""
","
","","","10796.300000011921","[""True""]","0","13","13632","1884","","","","","","","","","","","","","","","","","","",""
"pit-instructions","110","802423","0.0-2.0-23.0-1.0","battery-v0.2","","""event"",""trial"",""time""
""fullscreenenter"",""1"",""2256""
","
","
","""event"",""trial"",""time""
""fullscreenenter"",""1"",""2256""
","
","","[{""page_index"":0,""viewing_time"":4004}]","4004.5","","","","","","","","","","","","","","","","","","","","","","","",""
"pit-comprehension","111","811007","0.0-2.0-24.0-0.0","battery-v0.2","","""event"",""trial"",""time""
""fullscreenenter"",""1"",""2256""
","
","
","""event"",""trial"",""time""
""fullscreenenter"",""1"",""2256""
","
","","","8579.09999999404","[""True""]","0","13","13632","1884","","","","","","","","","","","","","","","","","","",""
"pit-instructions","112","813589","0.0-2.0-24.0-1.0","battery-v0.2","","""event"",""trial"",""time""
""fullscreenenter"",""1"",""2256""
","
","
","""event"",""trial"",""time""
""fullscreenenter"",""1"",""2256""
","
","","[{""page_index"":0,""viewing_time"":2551.699999988079}]","2552.0999999940395","","","","","","","","","","","","","","","","","","","","","","","",""
"pit-comprehension","113","819807","0.0-2.0-25.0-0.0","battery-v0.2","","""event"",""trial"",""time""
""fullscreenenter"",""1"",""2256""
","
","
","""event"",""trial"",""time""
""fullscreenenter"",""1"",""2256""
","
","","","6213","[""True""]","0","13","13632","1884","","","","","","","","","","","","","","","","","","",""
"pit-instructions","114","821738","0.0-2.0-25.0-1.0","battery-v0.2","","""event"",""trial"",""time""
""fullscreenenter"",""1"",""2256""
","
","
","""event"",""trial"",""time""
""fullscreenenter"",""1"",""2256""
","
","","[{""page_index"":0,""viewing_time"":1902.2000000178814}]","1902.7000000178814","","","","","","","","","","","","","","","","","","","","","","","",""
"pit-comprehension","115","826990","0.0-2.0-26.0-0.0","battery-v0.2","","""event"",""trial"",""time""
""fullscreenenter"",""1"",""2256""
","
","
","""event"",""trial"",""time""
""fullscreenenter"",""1"",""2256""
","
","","","5247.4000000059605","[""False""]","0","13","13632","1884","","","","","","","","","","","","","","","","","","",""
"pit-instructions","116","828872","0.0-2.0-26.0-1.0","battery-v0.2","","""event"",""trial"",""time""
""fullscreenenter"",""1"",""2256""
","
","
","""event"",""trial"",""time""
""fullscreenenter"",""1"",""2256""
","
","","[{""page_index"":0,""viewing_time"":1850.7000000178814}]","1851.1000000238419","","","","","","","","","","","","","","","","","","","","","","","",""
"pit-instructions","117","843622","0.0-3.0","battery-v0.2","","""event"",""trial"",""time""
""fullscreenenter"",""1"",""2256""
","
","
","""event"",""trial"",""time""
""fullscreenenter"",""1"",""2256""
","
","","[{""page_index"":0,""viewing_time"":3514.0999999940395},{""page_index"":1,""viewing_time"":5216.200000017881},{""page_index"":2,""viewing_time"":6016.699999988079}]","14747.40000000596","","","","","","","","","","","","","","","","","","","","","","","",""
"pit-trial","118","847043","0.0-4.0","battery-v0.2","","""event"",""trial"",""time""
""fullscreenenter"",""1"",""2256""
","
","
","""event"",""trial"",""time""
""fullscreenenter"",""1"",""2256""
","
","","","560.0999999940395","","","13","13632","1884","&#9730;","elianto","#3366ff99"," "," ","1","+10","[1412.0999999940395]","1","1","","","13632","1","1","1","win","go","0"
"pit-trial","119","851174","0.0-5.0","battery-v0.2","","""event"",""trial"",""time""
""fullscreenenter"",""1"",""2256""
","
","
","""event"",""trial"",""time""
""fullscreenenter"",""1"",""2256""
","
","","","1274","","","13","13632","1884","&#9733;","elianto","#3366ff99","-1"," ","0","0","[2125.7000000178814]","1","1","","","13632","2","2","2","win","no-go","0"
"pit-trial","120","855265","0.0-6.0","battery-v0.2","","""event"",""trial"",""time""
""fullscreenenter"",""1"",""2256""
","
","
","""event"",""trial"",""time""
""fullscreenenter"",""1"",""2256""
","
","","","1234.800000011921","","","13","13632","1884","&#9728;","elianto","#f73b6a7A","-1"," ","0","-10","[2086.4000000059605]","1","1","","","13632","3","0","4","lose","no-go","0"
"pit-trial","121","860121","0.0-7.0","battery-v0.2","","""event"",""trial"",""time""
""fullscreenenter"",""1"",""2256""
","
","
","""event"",""trial"",""time""
""fullscreenenter"",""1"",""2256""
","
","","","-1","","","13","13632","1884","&#9752;","elianto","#f73b6a7A"," ","-1","0","-10","[]","0","1","","","13632","4","3","3","lose","go","0"
"pit-trial","122","864977","0.0-8.0","battery-v0.2","","""event"",""trial"",""time""
""fullscreenenter"",""1"",""2256""
","
","
","""event"",""trial"",""time""
""fullscreenenter"",""1"",""2256""
","
","","","-1","","","13","13632","1884","&#9728;","elianto","#f73b6a7A","-1","-1","1","0","[]","0","1","","","13632","5","0","4","lose","no-go","0"
"pit-trial","123","868938","0.0-9.0","battery-v0.2","","""event"",""trial"",""time""
""fullscreenenter"",""1"",""2256""
","
","
","""event"",""trial"",""time""
""fullscreenenter"",""1"",""2256""
","
","","","1104.9000000059605","","","13","13632","1884","&#9733;","elianto","#3366ff99","-1"," ","0","0","[1956.199999988079]","1","1","","","13632","6","2","2","win","no-go","0"
"pit-trial","124","872654","0.0-10.0","battery-v0.2","","""event"",""trial"",""time""
""fullscreenenter"",""1"",""2256""
","
","
","""event"",""trial"",""time""
""fullscreenenter"",""1"",""2256""
","
","","","860.6000000238419","","","13","13632","1884","&#9752;","elianto","#f73b6a7A"," "," ","1","-10","[1711.5999999940395]","1","1","","","13632","7","3","3","lose","go","1"
"pit-trial","125","876379","0.0-11.0","battery-v0.2","","""event"",""trial"",""time""
""fullscreenenter"",""1"",""2256""
","
","
","""event"",""trial"",""time""
""fullscreenenter"",""1"",""2256""
","
","","","869.1000000238419","","","13","13632","1884","&#9730;","elianto","#3366ff99"," "," ","1","+10","[1719.8999999761581]","1","1","","","13632","8","1","1","win","go","0"
"pit-trial","126","881235","0.0-12.0","battery-v0.2","","""event"",""trial"",""time""
""fullscreenenter"",""1"",""2256""
","
","
","""event"",""trial"",""time""
""fullscreenenter"",""1"",""2256""
","
","","","-1","","","13","13632","1884","&#9733;","elianto","#3366ff99","-1","-1","1","0","[]","0","1","","","13632","9","2","2","win","no-go","1"
"pit-trial","127","885184","0.0-13.0","battery-v0.2","","""event"",""trial"",""time""
""fullscreenenter"",""1"",""2256""
","
","
","""event"",""trial"",""time""
""fullscreenenter"",""1"",""2256""
","
","","","1093.5999999940395","","","13","13632","1884","&#9752;","elianto","#f73b6a7A"," "," ","1","0","[1943.699999988079]","1","1","","","13632","10","3","3","lose","go","0"
"pit-trial","128","888788","0.0-14.0","battery-v0.2","","""event"",""trial"",""time""
""fullscreenenter"",""1"",""2256""
","
","
","""event"",""trial"",""time""
""fullscreenenter"",""1"",""2256""
","
","","","749.3000000119209","","","13","13632","1884","&#9730;","elianto","#3366ff99"," "," ","1","0","[1600]","1","1","","","13632","11","1","1","win","go","1"
"pit-trial","129","893645","0.0-15.0","battery-v0.2","","""event"",""trial"",""time""
""fullscreenenter"",""1"",""2256""
","
","
","""event"",""trial"",""time""
""fullscreenenter"",""1"",""2256""
","
","","","-1","","","13","13632","1884","&#9728;","elianto","#f73b6a7A","-1","-1","1","0","[]","0","1","","","13632","12","0","4","lose","no-go","0"
"pit-trial","130","897200","0.0-16.0","battery-v0.2","","""event"",""trial"",""time""
""fullscreenenter"",""1"",""2256""
","
","
","""event"",""trial"",""time""
""fullscreenenter"",""1"",""2256""
","
","","","698.0999999940395","","","13","13632","1884","&#9730;","elianto","#3366ff99"," "," ","1","+10","[1549.699999988079]","1","1","","","13632","13","1","1","win","go","0"
"pit-trial","131","902055","0.0-17.0","battery-v0.2","","""event"",""trial"",""time""
""fullscreenenter"",""1"",""2256""
","
","
","""event"",""trial"",""time""
""fullscreenenter"",""1"",""2256""
","
","","","-1","","","13","13632","1884","&#9728;","elianto","#f73b6a7A","-1","-1","1","-10","[]","0","1","","","13632","14","0","4","lose","no-go","1"
"pit-trial","132","905992","0.0-18.0","battery-v0.2","","""event"",""trial"",""time""
""fullscreenenter"",""1"",""2256""
","
","
","""event"",""trial"",""time""
""fullscreenenter"",""1"",""2256""
","
","","","1080.9000000059605","","","13","13632","1884","&#9733;","elianto","#3366ff99","-1"," ","0","+10","[1931.6000000238419]","1","1","","","13632","15","2","2","win","no-go","1"
"pit-trial","133","909581","0.0-19.0","battery-v0.2","","""event"",""trial"",""time""
""fullscreenenter"",""1"",""2256""
","
","
","""event"",""trial"",""time""
""fullscreenenter"",""1"",""2256""
","
","","","733.5","","","13","13632","1884","&#9752;","elianto","#f73b6a7A"," "," ","1","0","[1584.5]","1","1","","","13632","16","3","3","lose","go","0"
"pit-trial","134","914438","0.0-20.0","battery-v0.2","","""event"",""trial"",""time""
""fullscreenenter"",""1"",""2256""
","
","
","""event"",""trial"",""time""
""fullscreenenter"",""1"",""2256""
","
","","","-1","","","13","13632","1884","&#9728;","elianto","#f73b6a7A","-1","-1","1","0","[]","0","1","","","13632","17","0","4","lose","no-go","0"
"pit-trial","135","918283","0.0-21.0","battery-v0.2","","""event"",""trial"",""time""
""fullscreenenter"",""1"",""2256""
","
","
","""event"",""trial"",""time""
""fullscreenenter"",""1"",""2256""
","
","","","988.6999999880791","","","13","13632","1884","&#9752;","elianto","#f73b6a7A"," "," ","1","0","[1840.199999988079]","1","1","","","13632","18","3","3","lose","go","0"
"pit-trial","136","921651","0.0-22.0","battery-v0.2","","""event"",""trial"",""time""
""fullscreenenter"",""1"",""2256""
","
","
","""event"",""trial"",""time""
""fullscreenenter"",""1"",""2256""
","
","","","513.4000000059605","","","13","13632","1884","&#9730;","elianto","#3366ff99"," "," ","1","+10","[1363.7999999821186]","1","1","","","13632","19","1","1","win","go","0"
"pit-trial","137","925561","0.0-23.0","battery-v0.2","","""event"",""trial"",""time""
""fullscreenenter"",""1"",""2256""
","
","
","""event"",""trial"",""time""
""fullscreenenter"",""1"",""2256""
","
","","","1055.199999988079","","","13","13632","1884","&#9733;","elianto","#3366ff99","-1"," ","0","+10","[1905.4000000059605]","1","1","","","13632","20","2","2","win","no-go","1"
"pit-instructions","138","936970","0.0-24.0","battery-v0.2","","""event"",""trial"",""time""
""fullscreenenter"",""1"",""2256""
","
","
","""event"",""trial"",""time""
""fullscreenenter"",""1"",""2256""
","
","","[{""page_index"":0,""viewing_time"":5156.199999988079},{""page_index"":1,""viewing_time"":6249.700000017881}]","11406.299999982119","","","","","","","","","","","","","","","","","","","","","","","",""
"pit-trial","139","940712","0.0-25.0","battery-v0.2","","""event"",""trial"",""time""
""fullscreenenter"",""1"",""2256""
","
","
","""event"",""trial"",""time""
""fullscreenenter"",""1"",""2256""
","
","","","884.5","","","13","13632","1884","j","elianto","#f73b6a7A","-1"," ","0","-10","[1735.7999999821186]","1","2","","","13632","21","0","4","lose","no-go","0"
"pit-trial","140","945249","0.0-26.0","battery-v0.2","","""event"",""trial"",""time""
""fullscreenenter"",""1"",""2256""
","
","
","""event"",""trial"",""time""
""fullscreenenter"",""1"",""2256""
","
","","","1680.199999988079","","","13","13632","1884","e","elianto","#f73b6a7A","-1"," ","0","-10","[2531.699999988079]","1","2","","","13632","22","2","4","lose","no-go","0"
"pit-trial","141","949798","0.0-27.0","battery-v0.2","","""event"",""trial"",""time""
""fullscreenenter"",""1"",""2256""
","
","
","""event"",""trial"",""time""
""fullscreenenter"",""1"",""2256""
","
","","","1694","","","13","13632","1884","d","elianto","#3366ff99"," "," ","1","+10","[2544.2999999821186]","1","2","","","13632","23","1","1","win","go","0"
"pit-trial","142","953920","0.0-28.0","battery-v0.2","","""event"",""trial"",""time""
""fullscreenenter"",""1"",""2256""
","
","
","""event"",""trial"",""time""
""fullscreenenter"",""1"",""2256""
","
","","","1267.0999999940395","","","13","13632","1884","w","elianto","#f73b6a7A"," "," ","1","0","[2117.5]","1","2","","","13632","24","3","3","lose","go","0"
"pit-trial","143","958777","0.0-29.0","battery-v0.2","","""event"",""trial"",""time""
""fullscreenenter"",""1"",""2256""
","
","
","""event"",""trial"",""time""
""fullscreenenter"",""1"",""2256""
","
","","","-1","","","13","13632","1884","e","elianto","#f73b6a7A","-1","-1","1","0","[]","0","2","","","13632","25","2","4","lose","no-go","0"
"pit-trial","144","962454","0.0-30.0","battery-v0.2","","""event"",""trial"",""time""
""fullscreenenter"",""1"",""2256""
","
","
","""event"",""trial"",""time""
""fullscreenenter"",""1"",""2256""
","
","","","821.2999999821186","","","13","13632","1884","d","elianto","#3366ff99"," "," ","1","+10","[1672.2999999821186]","1","2","","","13632","26","1","1","win","go","0"
"pit-trial","145","966491","0.0-31.0","battery-v0.2","","""event"",""trial"",""time""
""fullscreenenter"",""1"",""2256""
","
","
","""event"",""trial"",""time""
""fullscreenenter"",""1"",""2256""
","
","","","1181.5","","","13","13632","1884","w","elianto","#f73b6a7A"," "," ","1","-10","[2032.5]","1","2","","","13632","27","3","3","lose","go","1"
"pit-trial","146","971345","0.0-32.0","battery-v0.2","","""event"",""trial"",""time""
""fullscreenenter"",""1"",""2256""
","
","
","""event"",""trial"",""time""
""fullscreenenter"",""1"",""2256""
","
","","","-1","","","13","13632","1884","j","elianto","#f73b6a7A","-1","-1","1","0","[]","0","2","","","13632","28","0","4","lose","no-go","0"
"pit-trial","147","975024","0.0-33.0","battery-v0.2","","""event"",""trial"",""time""
""fullscreenenter"",""1"",""2256""
","
","
","""event"",""trial"",""time""
""fullscreenenter"",""1"",""2256""
","
","","","823","","","13","13632","1884","d","elianto","#3366ff99"," "," ","1","+10","[1674.5999999940395]","1","2","","","13632","29","1","1","win","go","0"
"pit-trial","148","979682","0.0-34.0","battery-v0.2","","""event"",""trial"",""time""
""fullscreenenter"",""1"",""2256""
","
","
","""event"",""trial"",""time""
""fullscreenenter"",""1"",""2256""
","
","","","1801","","","13","13632","1884","w","elianto","#f73b6a7A"," "," ","1","0","[2652.899999976158]","1","2","","","13632","30","3","3","lose","go","0"
"pit-trial","149","984538","0.0-35.0","battery-v0.2","","""event"",""trial"",""time""
""fullscreenenter"",""1"",""2256""
","
","
","""event"",""trial"",""time""
""fullscreenenter"",""1"",""2256""
","
","","","-1","","","13","13632","1884","j","elianto","#f73b6a7A","-1","-1","1","0","[]","0","2","","","13632","31","0","4","lose","no-go","0"
"pit-trial","150","989394","0.0-36.0","battery-v0.2","","""event"",""trial"",""time""
""fullscreenenter"",""1"",""2256""
","
","
","""event"",""trial"",""time""
""fullscreenenter"",""1"",""2256""
","
","","","-1","","","13","13632","1884","e","elianto","#f73b6a7A","-1","-1","1","-10","[]","0","2","","","13632","32","2","4","lose","no-go","1"
"pit-trial","151","993267","0.0-37.0","battery-v0.2","","""event"",""trial"",""time""
""fullscreenenter"",""1"",""2256""
","
","
","""event"",""trial"",""time""
""fullscreenenter"",""1"",""2256""
","
","","","1016.1999999880791","","","13","13632","1884","w","elianto","#f73b6a7A"," "," ","1","0","[1867.199999988079]","1","2","","","13632","33","3","3","lose","go","0"
"pit-trial","152","997130","0.0-38.0","battery-v0.2","","""event"",""trial"",""time""
""fullscreenenter"",""1"",""2256""
","
","
","""event"",""trial"",""time""
""fullscreenenter"",""1"",""2256""
","
","","","1008","","","13","13632","1884","e","elianto","#f73b6a7A","-1"," ","0","-10","[1858.0999999940395]","1","2","","","13632","34","2","4","lose","no-go","0"
"pit-trial","153","1001987","0.0-39.0","battery-v0.2","","""event"",""trial"",""time""
""fullscreenenter"",""1"",""2256""
","
","
","""event"",""trial"",""time""
""fullscreenenter"",""1"",""2256""
","
","","","-1","","","13","13632","1884","j","elianto","#f73b6a7A","-1","-1","1","-10","[]","0","2","","","13632","35","0","4","lose","no-go","1"
"pit-trial","154","1005585","0.0-40.0","battery-v0.2","","""event"",""trial"",""time""
""fullscreenenter"",""1"",""2256""
","
","
","""event"",""trial"",""time""
""fullscreenenter"",""1"",""2256""
","
","","","742.4000000059605","","","13","13632","1884","d","elianto","#3366ff99"," "," ","1","0","[1593.2000000178814]","1","2","","","13632","36","1","1","win","go","1"
"pit-trial","155","1009440","0.0-41.0","battery-v0.2","","""event"",""trial"",""time""
""fullscreenenter"",""1"",""2256""
","
","
","""event"",""trial"",""time""
""fullscreenenter"",""1"",""2256""
","
","","","999.9000000059605","","","13","13632","1884","w","elianto","#f73b6a7A"," "," ","1","0","[1850.199999988079]","1","2","","","13632","37","3","3","lose","go","0"
"pit-trial","156","1014296","0.0-42.0","battery-v0.2","","""event"",""trial"",""time""
""fullscreenenter"",""1"",""2256""
","
","
","""event"",""trial"",""time""
""fullscreenenter"",""1"",""2256""
","
","","","-1","","","13","13632","1884","j","elianto","#f73b6a7A","-1","-1","1","0","[]","0","2","","","13632","38","0","4","lose","no-go","0"
"pit-trial","157","1018134","0.0-43.0","battery-v0.2","","""event"",""trial"",""time""
""fullscreenenter"",""1"",""2256""
","
","
","""event"",""trial"",""time""
""fullscreenenter"",""1"",""2256""
","
","","","981.5","","","13","13632","1884","d","elianto","#3366ff99"," "," ","1","+10","[1832.5]","1","2","","","13632","39","1","1","win","go","0"
"pit-trial","158","1022991","0.0-44.0","battery-v0.2","","""event"",""trial"",""time""
""fullscreenenter"",""1"",""2256""
","
","
","""event"",""trial"",""time""
""fullscreenenter"",""1"",""2256""
","
","","","-1","","","13","13632","1884","e","elianto","#f73b6a7A","-1","-1","1","0","[]","0","2","","","13632","40","2","4","lose","no-go","0"
"pit-trial","159","1026856","0.0-45.0","battery-v0.2","","""event"",""trial"",""time""
""fullscreenenter"",""1"",""2256""
","
","
","""event"",""trial"",""time""
""fullscreenenter"",""1"",""2256""
","
","","","1008.5999999940395","","","13","13632","1884","w","elianto","#f73b6a7A"," "," ","1","-10","[1860.4000000059605]","1","2","","","13632","41","3","3","lose","go","1"
"pit-trial","160","1031712","0.0-46.0","battery-v0.2","","""event"",""trial"",""time""
""fullscreenenter"",""1"",""2256""
","
","
","""event"",""trial"",""time""
""fullscreenenter"",""1"",""2256""
","
","","","-1","","","13","13632","1884","j","elianto","#f73b6a7A","-1","-1","1","0","[]","0","2","","","13632","42","0","4","lose","no-go","0"
"pit-trial","161","1035292","0.0-47.0","battery-v0.2","","""event"",""trial"",""time""
""fullscreenenter"",""1"",""2256""
","
","
","""event"",""trial"",""time""
""fullscreenenter"",""1"",""2256""
","
","","","724.5999999940395","","","13","13632","1884","d","elianto","#3366ff99"," "," ","1","+10","[1575.699999988079]","1","2","","","13632","43","1","1","win","go","0"
"pit-trial","162","1040147","0.0-48.0","battery-v0.2","","""event"",""trial"",""time""
""fullscreenenter"",""1"",""2256""
","
","
","""event"",""trial"",""time""
""fullscreenenter"",""1"",""2256""
","
","","","-1","","","13","13632","1884","e","elianto","#f73b6a7A","-1","-1","1","-10","[]","0","2","","","13632","44","2","4","lose","no-go","1"
"pit-trial","163","1044199","0.0-49.0","battery-v0.2","","""event"",""trial"",""time""
""fullscreenenter"",""1"",""2256""
","
","
","""event"",""trial"",""time""
""fullscreenenter"",""1"",""2256""
","
","","","1195.4000000059605","","","13","13632","1884","s","elianto","#3366ff99","-1"," ","0","+10","[2046.3999999761581]","1","2","","","13632","45","4","2","win","no-go","1"
"pit-trial","164","1048060","0.0-50.0","battery-v0.2","","""event"",""trial"",""time""
""fullscreenenter"",""1"",""2256""
","
","
","""event"",""trial"",""time""
""fullscreenenter"",""1"",""2256""
","
","","","1005.3999999761581","","","13","13632","1884","w","elianto","#f73b6a7A"," "," ","1","0","[1856.199999988079]","1","2","","","13632","46","3","3","lose","go","0"
"pit-trial","165","1052917","0.0-51.0","battery-v0.2","","""event"",""trial"",""time""
""fullscreenenter"",""1"",""2256""
","
","
","""event"",""trial"",""time""
""fullscreenenter"",""1"",""2256""
","
","","","-1","","","13","13632","1884","j","elianto","#f73b6a7A","-1","-1","1","0","[]","0","2","","","13632","47","0","4","lose","no-go","0"
"pit-trial","166","1056509","0.0-52.0","battery-v0.2","","""event"",""trial"",""time""
""fullscreenenter"",""1"",""2256""
","
","
","""event"",""trial"",""time""
""fullscreenenter"",""1"",""2256""
","
","","","736.2999999821186","","","13","13632","1884","e","elianto","#f73b6a7A","-1"," ","0","0","[1586.7999999821186]","1","2","","","13632","48","2","4","lose","no-go","1"
"pit-trial","167","1060453","0.0-53.0","battery-v0.2","","""event"",""trial"",""time""
""fullscreenenter"",""1"",""2256""
","
","
","""event"",""trial"",""time""
""fullscreenenter"",""1"",""2256""
","
","","","1087.699999988079","","","13","13632","1884","w","elianto","#f73b6a7A"," "," ","1","0","[1938.7999999821186]","1","2","","","13632","49","3","3","lose","go","0"
"pit-trial","168","1065309","0.0-54.0","battery-v0.2","","""event"",""trial"",""time""
""fullscreenenter"",""1"",""2256""
","
","
","""event"",""trial"",""time""
""fullscreenenter"",""1"",""2256""
","
","","","-1","","","13","13632","1884","j","elianto","#f73b6a7A","-1","-1","1","0","[]","0","2","","","13632","50","0","4","lose","no-go","0"
"pit-trial","169","1069259","0.0-55.0","battery-v0.2","","""event"",""trial"",""time""
""fullscreenenter"",""1"",""2256""
","
","
","""event"",""trial"",""time""
""fullscreenenter"",""1"",""2256""
","
","","","1093.5","","","13","13632","1884","s","elianto","#3366ff99","-1"," ","0","0","[1945.5]","1","2","","","13632","51","4","2","win","no-go","0"
"pit-trial","170","1072892","0.0-56.0","battery-v0.2","","""event"",""trial"",""time""
""fullscreenenter"",""1"",""2256""
","
","
","""event"",""trial"",""time""
""fullscreenenter"",""1"",""2256""
","
","","","777.7999999821186","","","13","13632","1884","d","elianto","#3366ff99"," "," ","1","0","[1627.8999999761581]","1","2","","","13632","52","1","1","win","go","1"
"pit-trial","171","1076949","0.0-57.0","battery-v0.2","","""event"",""trial"",""time""
""fullscreenenter"",""1"",""2256""
","
","
","""event"",""trial"",""time""
""fullscreenenter"",""1"",""2256""
","
","","","1201.5","","","13","13632","1884","e","elianto","#f73b6a7A","-1"," ","0","-10","[2052]","1","2","","","13632","53","2","4","lose","no-go","0"
"pit-trial","172","1080650","0.0-58.0","battery-v0.2","","""event"",""trial"",""time""
""fullscreenenter"",""1"",""2256""
","
","
","""event"",""trial"",""time""
""fullscreenenter"",""1"",""2256""
","
","","","845.4000000059605","","","13","13632","1884","s","elianto","#3366ff99","-1"," ","0","0","[1696.0999999940395]","1","2","","","13632","54","4","2","win","no-go","0"
"pit-trial","173","1084256","0.0-59.0","battery-v0.2","","""event"",""trial"",""time""
""fullscreenenter"",""1"",""2256""
","
","
","""event"",""trial"",""time""
""fullscreenenter"",""1"",""2256""
","
","","","750.6000000238419","","","13","13632","1884","d","elianto","#3366ff99"," "," ","1","+10","[1601.7000000178814]","1","2","","","13632","55","1","1","win","go","0"
"pit-trial","174","1089112","0.0-60.0","battery-v0.2","","""event"",""trial"",""time""
""fullscreenenter"",""1"",""2256""
","
","
","""event"",""trial"",""time""
""fullscreenenter"",""1"",""2256""
","
","","","-1","","","13","13632","1884","j","elianto","#f73b6a7A","-1","-1","1","-10","[]","0","2","","","13632","56","0","4","lose","no-go","1"
"pit-trial","175","1092893","0.0-61.0","battery-v0.2","","""event"",""trial"",""time""
""fullscreenenter"",""1"",""2256""
","
","
","""event"",""trial"",""time""
""fullscreenenter"",""1"",""2256""
","
","","","924.5999999940395","","","13","13632","1884","w","elianto","#f73b6a7A"," "," ","1","0","[1775.0999999940395]","1","2","","","13632","57","3","3","lose","go","0"
"pit-trial","176","1096737","0.0-62.0","battery-v0.2","","""event"",""trial"",""time""
""fullscreenenter"",""1"",""2256""
","
","
","""event"",""trial"",""time""
""fullscreenenter"",""1"",""2256""
","
","","","988.3000000119209","","","13","13632","1884","d","elianto","#3366ff99"," "," ","1","+10","[1839.4000000059605]","1","2","","","13632","58","1","1","win","go","0"
"pit-trial","177","1101593","0.0-63.0","battery-v0.2","","""event"",""trial"",""time""
""fullscreenenter"",""1"",""2256""
","
","
","""event"",""trial"",""time""
""fullscreenenter"",""1"",""2256""
","
","","","-1","","","13","13632","1884","j","elianto","#f73b6a7A","-1","-1","1","0","[]","0","2","","","13632","59","0","4","lose","no-go","0"
"pit-trial","178","1106450","0.0-64.0","battery-v0.2","","""event"",""trial"",""time""
""fullscreenenter"",""1"",""2256""
","
","
","""event"",""trial"",""time""
""fullscreenenter"",""1"",""2256""
","
","","","-1","","","13","13632","1884","s","elianto","#3366ff99","-1","-1","1","+10","[]","0","2","","","13632","60","4","2","win","no-go","0"
"pit-trial","179","1110327","0.0-65.0","battery-v0.2","","""event"",""trial"",""time""
""fullscreenenter"",""1"",""2256""
","
","
","""event"",""trial"",""time""
""fullscreenenter"",""1"",""2256""
","
","","","1022.0999999940395","","","13","13632","1884","e","elianto","#f73b6a7A","-1"," ","0","0","[1872.9000000059605]","1","2","","","13632","61","2","4","lose","no-go","1"
"pit-trial","180","1113891","0.0-66.0","battery-v0.2","","""event"",""trial"",""time""
""fullscreenenter"",""1"",""2256""
","
","
","""event"",""trial"",""time""
""fullscreenenter"",""1"",""2256""
","
","","","707.7000000178814","","","13","13632","1884","d","elianto","#3366ff99"," "," ","1","+10","[1558.300000011921]","1","2","","","13632","62","1","1","win","go","0"
"pit-trial","181","1118748","0.0-67.0","battery-v0.2","","""event"",""trial"",""time""
""fullscreenenter"",""1"",""2256""
","
","
","""event"",""trial"",""time""
""fullscreenenter"",""1"",""2256""
","
","","","-1","","","13","13632","1884","s","elianto","#3366ff99","-1","-1","1","+10","[]","0","2","","","13632","63","4","2","win","no-go","0"
"pit-trial","182","1122871","0.0-68.0","battery-v0.2","","""event"",""trial"",""time""
""fullscreenenter"",""1"",""2256""
","
","
","""event"",""trial"",""time""
""fullscreenenter"",""1"",""2256""
","
","","","1267.300000011921","","","13","13632","1884","w","elianto","#f73b6a7A"," "," ","1","0","[2117.5999999940395]","1","2","","","13632","64","3","3","lose","go","0"
"pit-trial","183","1127726","0.0-69.0","battery-v0.2","","""event"",""trial"",""time""
""fullscreenenter"",""1"",""2256""
","
","
","""event"",""trial"",""time""
""fullscreenenter"",""1"",""2256""
","
","","","-1","","","13","13632","1884","e","elianto","#f73b6a7A","-1","-1","1","-10","[]","0","2","","","13632","65","2","4","lose","no-go","1"
"pit-trial","184","1132583","0.0-70.0","battery-v0.2","","""event"",""trial"",""time""
""fullscreenenter"",""1"",""2256""
","
","
","""event"",""trial"",""time""
""fullscreenenter"",""1"",""2256""
","
","","","-1","","","13","13632","1884","s","elianto","#3366ff99","-1","-1","1","0","[]","0","2","","","13632","66","4","2","win","no-go","1"
"pit-trial","185","1136333","0.0-71.0","battery-v0.2","","""event"",""trial"",""time""
""fullscreenenter"",""1"",""2256""
","
","
","""event"",""trial"",""time""
""fullscreenenter"",""1"",""2256""
","
","","","893.3000000119209","","","13","13632","1884","w","elianto","#f73b6a7A"," "," ","1","0","[1744.6000000238419]","1","2","","","13632","67","3","3","lose","go","0"
"pit-trial","186","1140618","0.0-72.0","battery-v0.2","","""event"",""trial"",""time""
""fullscreenenter"",""1"",""2256""
","
","
","""event"",""trial"",""time""
""fullscreenenter"",""1"",""2256""
","
","","","1429.5","","","13","13632","1884","d","elianto","#3366ff99"," "," ","1","+10","[2280.2999999821186]","1","2","","","13632","68","1","1","win","go","0"
"pit-trial","187","1144705","0.0-73.0","battery-v0.2","","""event"",""trial"",""time""
""fullscreenenter"",""1"",""2256""
","
","
","""event"",""trial"",""time""
""fullscreenenter"",""1"",""2256""
","
","","","1230.6000000238419","","","13","13632","1884","p","elianto","#3366ff99"," "," ","1","+10","[2081.800000011921]","1","2","","","13632","69","5","1","win","go","0"
"pit-trial","188","1149561","0.0-74.0","battery-v0.2","","""event"",""trial"",""time""
""fullscreenenter"",""1"",""2256""
","
","
","""event"",""trial"",""time""
""fullscreenenter"",""1"",""2256""
","
","","","-1","","","13","13632","1884","s","elianto","#3366ff99","-1","-1","1","+10","[]","0","2","","","13632","70","4","2","win","no-go","0"
"pit-trial","189","1153535","0.0-75.0","battery-v0.2","","""event"",""trial"",""time""
""fullscreenenter"",""1"",""2256""
","
","
","""event"",""trial"",""time""
""fullscreenenter"",""1"",""2256""
","
","","","1118.2000000178814","","","13","13632","1884","d","elianto","#3366ff99"," "," ","1","+10","[1969.5999999940395]","1","2","","","13632","71","1","1","win","go","0"
"pit-trial","190","1157303","0.0-76.0","battery-v0.2","","""event"",""trial"",""time""
""fullscreenenter"",""1"",""2256""
","
","
","""event"",""trial"",""time""
""fullscreenenter"",""1"",""2256""
","
","","","912.3000000119209","","","13","13632","1884","w","elianto","#f73b6a7A"," "," ","1","0","[1764]","1","2","","","13632","72","3","3","lose","go","0"
"pit-trial","191","1161167","0.0-77.0","battery-v0.2","","""event"",""trial"",""time""
""fullscreenenter"",""1"",""2256""
","
","
","""event"",""trial"",""time""
""fullscreenenter"",""1"",""2256""
","
","","","1007.5999999940395","","","13","13632","1884","w","elianto","#f73b6a7A"," "," ","1","0","[1858.6000000238419]","1","2","","","13632","73","3","3","lose","go","0"
"pit-trial","192","1165268","0.0-78.0","battery-v0.2","","""event"",""trial"",""time""
""fullscreenenter"",""1"",""2256""
","
","
","""event"",""trial"",""time""
""fullscreenenter"",""1"",""2256""
","
","","","1244.5999999940395","","","13","13632","1884","d","elianto","#3366ff99"," "," ","1","+10","[2095.5]","1","2","","","13632","74","1","1","win","go","0"
"pit-trial","193","1170124","0.0-79.0","battery-v0.2","","""event"",""trial"",""time""
""fullscreenenter"",""1"",""2256""
","
","
","""event"",""trial"",""time""
""fullscreenenter"",""1"",""2256""
","
","","","-1","","","13","13632","1884","s","elianto","#3366ff99","-1","-1","1","0","[]","0","2","","","13632","75","4","2","win","no-go","1"
"pit-trial","194","1173628","0.0-80.0","battery-v0.2","","""event"",""trial"",""time""
""fullscreenenter"",""1"",""2256""
","
","
","""event"",""trial"",""time""
""fullscreenenter"",""1"",""2256""
","
","","","647.5","","","13","13632","1884","p","elianto","#3366ff99"," "," ","1","+10","[1499.199999988079]","1","2","","","13632","76","5","1","win","go","0"
"pit-trial","195","1178485","0.0-81.0","battery-v0.2","","""event"",""trial"",""time""
""fullscreenenter"",""1"",""2256""
","
","
","""event"",""trial"",""time""
""fullscreenenter"",""1"",""2256""
","
","","","-1","","","13","13632","1884","s","elianto","#3366ff99","-1","-1","1","+10","[]","0","2","","","13632","77","4","2","win","no-go","0"
"pit-trial","196","1183031","0.0-82.0","battery-v0.2","","""event"",""trial"",""time""
""fullscreenenter"",""1"",""2256""
","
","
","""event"",""trial"",""time""
""fullscreenenter"",""1"",""2256""
","
","","","1690.4000000059605","","","13","13632","1884","g","elianto","#f73b6a7A","-1"," ","0","-10","[2541.9000000059605]","1","2","","","13632","78","6","4","lose","no-go","0"
"pit-trial","197","1187015","0.0-83.0","battery-v0.2","","""event"",""trial"",""time""
""fullscreenenter"",""1"",""2256""
","
","
","""event"",""trial"",""time""
""fullscreenenter"",""1"",""2256""
","
","","","1128.7999999821186","","","13","13632","1884","p","elianto","#3366ff99"," "," ","1","+10","[1980]","1","2","","","13632","79","5","1","win","go","0"
"pit-trial","198","1190722","0.0-84.0","battery-v0.2","","""event"",""trial"",""time""
""fullscreenenter"",""1"",""2256""
","
","
","""event"",""trial"",""time""
""fullscreenenter"",""1"",""2256""
","
","","","852","","","13","13632","1884","w","elianto","#f73b6a7A"," "," ","1","-10","[1703.4000000059605]","1","2","","","13632","80","3","3","lose","go","1"
"pit-trial","199","1195576","0.0-85.0","battery-v0.2","","""event"",""trial"",""time""
""fullscreenenter"",""1"",""2256""
","
","
","""event"",""trial"",""time""
""fullscreenenter"",""1"",""2256""
","
","","","-1","","","13","13632","1884","a","elianto","#f73b6a7A"," ","-1","0","-10","[2897]","1","2","","","13632","81","7","3","lose","go","0"
"pit-trial","200","1200432","0.0-86.0","battery-v0.2","","""event"",""trial"",""time""
""fullscreenenter"",""1"",""2256""
","
","
","""event"",""trial"",""time""
""fullscreenenter"",""1"",""2256""
","
","","","-1","","","13","13632","1884","g","elianto","#f73b6a7A","-1","-1","1","0","[]","0","2","","","13632","82","6","4","lose","no-go","0"
"pit-trial","201","1205288","0.0-87.0","battery-v0.2","","""event"",""trial"",""time""
""fullscreenenter"",""1"",""2256""
","
","
","""event"",""trial"",""time""
""fullscreenenter"",""1"",""2256""
","
","","","-1","","","13","13632","1884","s","elianto","#3366ff99","-1","-1","1","+10","[]","0","2","","","13632","83","4","2","win","no-go","0"
"pit-trial","202","1210143","0.0-88.0","battery-v0.2","","""event"",""trial"",""time""
""fullscreenenter"",""1"",""2256""
","
","
","""event"",""trial"",""time""
""fullscreenenter"",""1"",""2256""
","
","","","-1","","","13","13632","1884","p","elianto","#3366ff99"," ","-1","0","0","[2933.9000000059605]","1","2","","","13632","84","5","1","win","go","0"
"pit-trial","203","1214998","0.0-89.0","battery-v0.2","","""event"",""trial"",""time""
""fullscreenenter"",""1"",""2256""
","
","
","""event"",""trial"",""time""
""fullscreenenter"",""1"",""2256""
","
","","","-1","","","13","13632","1884","a","elianto","#f73b6a7A"," ","-1","0","0","[]","0","2","","","13632","85","7","3","lose","go","1"
"pit-trial","204","1219854","0.0-90.0","battery-v0.2","","""event"",""trial"",""time""
""fullscreenenter"",""1"",""2256""
","
","
","""event"",""trial"",""time""
""fullscreenenter"",""1"",""2256""
","
","","","-1","","","13","13632","1884","s","elianto","#3366ff99","-1","-1","1","+10","[]","0","2","","","13632","86","4","2","win","no-go","0"
"pit-trial","205","1224711","0.0-91.0","battery-v0.2","","""event"",""trial"",""time""
""fullscreenenter"",""1"",""2256""
","
","
","""event"",""trial"",""time""
""fullscreenenter"",""1"",""2256""
","
","","","-1","","","13","13632","1884","g","elianto","#f73b6a7A","-1","-1","1","0","[]","0","2","","","13632","87","6","4","lose","no-go","0"
"pit-trial","206","1229567","0.0-92.0","battery-v0.2","","""event"",""trial"",""time""
""fullscreenenter"",""1"",""2256""
","
","
","""event"",""trial"",""time""
""fullscreenenter"",""1"",""2256""
","
","","","-1","","","13","13632","1884","p","elianto","#3366ff99"," ","-1","0","0","[]","0","2","","","13632","88","5","1","win","go","0"
"pit-trial","207","1234157","0.0-93.0","battery-v0.2","","""event"",""trial"",""time""
""fullscreenenter"",""1"",""2256""
","
","
","""event"",""trial"",""time""
""fullscreenenter"",""1"",""2256""
","
","","","1733","","","13","13632","1884","p","elianto","#3366ff99"," "," ","1","+10","[2584.300000011921]","1","2","","","13632","89","5","1","win","go","0"
"pit-trial","208","1239014","0.0-94.0","battery-v0.2","","""event"",""trial"",""time""
""fullscreenenter"",""1"",""2256""
","
","
","""event"",""trial"",""time""
""fullscreenenter"",""1"",""2256""
","
","","","-1","","","13","13632","1884","s","elianto","#3366ff99","-1","-1","1","+10","[]","0","2","","","13632","90","4","2","win","no-go","0"
"pit-trial","209","1243870","0.0-95.0","battery-v0.2","","""event"",""trial"",""time""
""fullscreenenter"",""1"",""2256""
","
","
","""event"",""trial"",""time""
""fullscreenenter"",""1"",""2256""
","
","","","-1","","","13","13632","1884","a","elianto","#f73b6a7A"," ","-1","0","-10","[]","0","2","","","13632","91","7","3","lose","go","0"
"pit-trial","210","1248727","0.0-96.0","battery-v0.2","","""event"",""trial"",""time""
""fullscreenenter"",""1"",""2256""
","
","
","""event"",""trial"",""time""
""fullscreenenter"",""1"",""2256""
","
","","","-1","","","13","13632","1884","g","elianto","#f73b6a7A","-1","-1","1","0","[]","0","2","","","13632","92","6","4","lose","no-go","0"
"pit-trial","211","1253583","0.0-97.0","battery-v0.2","","""event"",""trial"",""time""
""fullscreenenter"",""1"",""2256""
","
","
","""event"",""trial"",""time""
""fullscreenenter"",""1"",""2256""
","
","","","-1","","","13","13632","1884","a","elianto","#f73b6a7A"," ","-1","0","-10","[]","0","2","","","13632","93","7","3","lose","go","0"
"pit-trial","212","1257419","0.0-98.0","battery-v0.2","","""event"",""trial"",""time""
""fullscreenenter"",""1"",""2256""
","
","
","""event"",""trial"",""time""
""fullscreenenter"",""1"",""2256""
","
","","","981.2000000178814","","","13","13632","1884","l","elianto","#3366ff99","-1"," ","0","0","[1831.8999999761581]","1","2","","","13632","94","8","2","win","no-go","0"
"pit-trial","213","1261699","0.0-99.0","battery-v0.2","","""event"",""trial"",""time""
""fullscreenenter"",""1"",""2256""
","
","
","""event"",""trial"",""time""
""fullscreenenter"",""1"",""2256""
","
","","","1423.7999999821186","","","13","13632","1884","p","elianto","#3366ff99"," "," ","1","+10","[2275.5]","1","2","","","13632","95","5","1","win","go","0"
"pit-trial","214","1266555","0.0-100.0","battery-v0.2","","""event"",""trial"",""time""
""fullscreenenter"",""1"",""2256""
","
","
","""event"",""trial"",""time""
""fullscreenenter"",""1"",""2256""
","
","","","-1","","","13","13632","1884","g","elianto","#f73b6a7A","-1","-1","1","0","[]","0","2","","","13632","96","6","4","lose","no-go","0"
"pit-trial","215","1271412","0.0-101.0","battery-v0.2","","""event"",""trial"",""time""
""fullscreenenter"",""1"",""2256""
","
","
","""event"",""trial"",""time""
""fullscreenenter"",""1"",""2256""
","
","","","-1","","","13","13632","1884","g","elianto","#f73b6a7A","-1","-1","1","-10","[]","0","2","","","13632","97","6","4","lose","no-go","1"
"pit-trial","216","1275349","0.0-102.0","battery-v0.2","","""event"",""trial"",""time""
""fullscreenenter"",""1"",""2256""
","
","
","""event"",""trial"",""time""
""fullscreenenter"",""1"",""2256""
","
","","","1081.5999999940395","","","13","13632","1884","a","elianto","#f73b6a7A"," "," ","1","0","[1931.9000000059605]","1","2","","","13632","98","7","3","lose","go","0"
"pit-trial","217","1280166","0.0-103.0","battery-v0.2","","""event"",""trial"",""time""
""fullscreenenter"",""1"",""2256""
","
","
","""event"",""trial"",""time""
""fullscreenenter"",""1"",""2256""
","
","","","1960.9000000059605","","","13","13632","1884","p","elianto","#3366ff99"," "," ","1","+10","[2811.9000000059605]","1","2","","","13632","99","5","1","win","go","0"
"pit-trial","218","1285022","0.0-104.0","battery-v0.2","","""event"",""trial"",""time""
""fullscreenenter"",""1"",""2256""
","
","
","""event"",""trial"",""time""
""fullscreenenter"",""1"",""2256""
","
","","","-1","","","13","13632","1884","l","elianto","#3366ff99","-1","-1","1","+10","[]","0","2","","","13632","100","8","2","win","no-go","0"
"pit-trial","219","1288719","0.0-105.0","battery-v0.2","","""event"",""trial"",""time""
""fullscreenenter"",""1"",""2256""
","
","
","""event"",""trial"",""time""
""fullscreenenter"",""1"",""2256""
","
","","","840","","","13","13632","1884","p","elianto","#3366ff99"," "," ","1","+10","[1691.2000000178814]","1","2","","","13632","101","5","1","win","go","0"
"pit-trial","220","1293576","0.0-106.0","battery-v0.2","","""event"",""trial"",""time""
""fullscreenenter"",""1"",""2256""
","
","
","""event"",""trial"",""time""
""fullscreenenter"",""1"",""2256""
","
","","","-1","","","13","13632","1884","l","elianto","#3366ff99","-1","-1","1","+10","[]","0","2","","","13632","102","8","2","win","no-go","0"
"pit-trial","221","1298432","0.0-107.0","battery-v0.2","","""event"",""trial"",""time""
""fullscreenenter"",""1"",""2256""
","
","
","""event"",""trial"",""time""
""fullscreenenter"",""1"",""2256""
","
","","","-1","","","13","13632","1884","g","elianto","#f73b6a7A","-1","-1","1","0","[]","0","2","","","13632","103","6","4","lose","no-go","0"
"pit-trial","222","1302301","0.0-108.0","battery-v0.2","","""event"",""trial"",""time""
""fullscreenenter"",""1"",""2256""
","
","
","""event"",""trial"",""time""
""fullscreenenter"",""1"",""2256""
","
","","","1013.7000000178814","","","13","13632","1884","u","elianto","#3366ff99","-1"," ","0","0","[1864.4000000059605]","1","2","","","13632","104","9","2","win","no-go","0"
"pit-trial","223","1307157","0.0-109.0","battery-v0.2","","""event"",""trial"",""time""
""fullscreenenter"",""1"",""2256""
","
","
","""event"",""trial"",""time""
""fullscreenenter"",""1"",""2256""
","
","","","-1","","","13","13632","1884","g","elianto","#f73b6a7A","-1","-1","1","0","[]","0","2","","","13632","105","6","4","lose","no-go","0"
"pit-trial","224","1311731","0.0-110.0","battery-v0.2","","""event"",""trial"",""time""
""fullscreenenter"",""1"",""2256""
","
","
","""event"",""trial"",""time""
""fullscreenenter"",""1"",""2256""
","
","","","1717.9000000059605","","","13","13632","1884","p","elianto","#3366ff99"," "," ","1","+10","[2568.4000000059605]","1","2","","","13632","106","5","1","win","go","0"
"pit-trial","225","1316587","0.0-111.0","battery-v0.2","","""event"",""trial"",""time""
""fullscreenenter"",""1"",""2256""
","
","
","""event"",""trial"",""time""
""fullscreenenter"",""1"",""2256""
","
","","","-1","","","13","13632","1884","l","elianto","#3366ff99","-1","-1","1","+10","[]","0","2","","","13632","107","8","2","win","no-go","0"
"pit-trial","226","1320615","0.0-112.0","battery-v0.2","","""event"",""trial"",""time""
""fullscreenenter"",""1"",""2256""
","
","
","""event"",""trial"",""time""
""fullscreenenter"",""1"",""2256""
","
","","","1172.300000011921","","","13","13632","1884","u","elianto","#3366ff99","-1"," ","0","0","[2023.7999999821186]","1","2","","","13632","108","9","2","win","no-go","0"
"pit-trial","227","1325472","0.0-113.0","battery-v0.2","","""event"",""trial"",""time""
""fullscreenenter"",""1"",""2256""
","
","
","""event"",""trial"",""time""
""fullscreenenter"",""1"",""2256""
","
","","","-1","","","13","13632","1884","g","elianto","#f73b6a7A","-1","-1","1","0","[]","0","2","","","13632","109","6","4","lose","no-go","0"
"pit-trial","228","1330327","0.0-114.0","battery-v0.2","","""event"",""trial"",""time""
""fullscreenenter"",""1"",""2256""
","
","
","""event"",""trial"",""time""
""fullscreenenter"",""1"",""2256""
","
","","","-1","","","13","13632","1884","l","elianto","#3366ff99","-1","-1","1","+10","[]","0","2","","","13632","110","8","2","win","no-go","0"
"pit-trial","229","1335184","0.0-115.0","battery-v0.2","","""event"",""trial"",""time""
""fullscreenenter"",""1"",""2256""
","
","
","""event"",""trial"",""time""
""fullscreenenter"",""1"",""2256""
","
","","","-1","","","13","13632","1884","u","elianto","#3366ff99","-1","-1","1","+10","[]","0","2","","","13632","111","9","2","win","no-go","0"
"pit-trial","230","1339040","0.0-116.0","battery-v0.2","","""event"",""trial"",""time""
""fullscreenenter"",""1"",""2256""
","
","
","""event"",""trial"",""time""
""fullscreenenter"",""1"",""2256""
","
","","","998.8000000119209","","","13","13632","1884","p","elianto","#3366ff99"," "," ","1","+10","[1850.7000000178814]","1","2","","","13632","112","5","1","win","go","0"
"pit-trial","231","1343897","0.0-117.0","battery-v0.2","","""event"",""trial"",""time""
""fullscreenenter"",""1"",""2256""
","
","
","""event"",""trial"",""time""
""fullscreenenter"",""1"",""2256""
","
","","","-1","","","13","13632","1884","l","elianto","#3366ff99","-1","-1","1","+10","[]","0","2","","","13632","113","8","2","win","no-go","0"
"pit-trial","232","1347810","0.0-118.0","battery-v0.2","","""event"",""trial"",""time""
""fullscreenenter"",""1"",""2256""
","
","
","""event"",""trial"",""time""
""fullscreenenter"",""1"",""2256""
","
","","","1056","","","13","13632","1884","a","elianto","#f73b6a7A"," "," ","1","0","[1907.699999988079]","1","2","","","13632","114","7","3","lose","go","0"
"pit-trial","233","1351796","0.0-119.0","battery-v0.2","","""event"",""trial"",""time""
""fullscreenenter"",""1"",""2256""
","
","
","""event"",""trial"",""time""
""fullscreenenter"",""1"",""2256""
","
","","","1132.300000011921","","","13","13632","1884","p","elianto","#3366ff99"," "," ","1","0","[1982.5]","1","2","","","13632","115","5","1","win","go","1"
"pit-trial","234","1356652","0.0-120.0","battery-v0.2","","""event"",""trial"",""time""
""fullscreenenter"",""1"",""2256""
","
","
","""event"",""trial"",""time""
""fullscreenenter"",""1"",""2256""
","
","","","-1","","","13","13632","1884","u","elianto","#3366ff99","-1","-1","1","+10","[]","0","2","","","13632","116","9","2","win","no-go","0"
"pit-trial","235","1360657","0.0-121.0","battery-v0.2","","""event"",""trial"",""time""
""fullscreenenter"",""1"",""2256""
","
","
","""event"",""trial"",""time""
""fullscreenenter"",""1"",""2256""
","
","","","1148.3999999761581","","","13","13632","1884","p","elianto","#3366ff99"," "," ","1","0","[1999.7999999821186]","1","2","","","13632","117","5","1","win","go","1"
"pit-trial","236","1365515","0.0-122.0","battery-v0.2","","""event"",""trial"",""time""
""fullscreenenter"",""1"",""2256""
","
","
","""event"",""trial"",""time""
""fullscreenenter"",""1"",""2256""
","
","","","-1","","","13","13632","1884","g","elianto","#f73b6a7A","-1","-1","1","-10","[]","0","2","","","13632","118","6","4","lose","no-go","1"
"pit-trial","237","1370371","0.0-123.0","battery-v0.2","","""event"",""trial"",""time""
""fullscreenenter"",""1"",""2256""
","
","
","""event"",""trial"",""time""
""fullscreenenter"",""1"",""2256""
","
","","","-1","","","13","13632","1884","u","elianto","#3366ff99","-1","-1","1","+10","[]","0","2","","","13632","119","9","2","win","no-go","0"
"pit-trial","238","1375228","0.0-124.0","battery-v0.2","","""event"",""trial"",""time""
""fullscreenenter"",""1"",""2256""
","
","
","""event"",""trial"",""time""
""fullscreenenter"",""1"",""2256""
","
","","","-1","","","13","13632","1884","l","elianto","#3366ff99","-1","-1","1","+10","[]","0","2","","","13632","120","8","2","win","no-go","0"
"pit-trial","239","1379066","0.0-125.0","battery-v0.2","","""event"",""trial"",""time""
""fullscreenenter"",""1"",""2256""
","
","
","""event"",""trial"",""time""
""fullscreenenter"",""1"",""2256""
","
","","","983.1999999880791","","","13","13632","1884","p","elianto","#3366ff99"," "," ","1","+10","[1834]","1","2","","","13632","121","5","1","win","go","0"
"pit-trial","240","1383923","0.0-126.0","battery-v0.2","","""event"",""trial"",""time""
""fullscreenenter"",""1"",""2256""
","
","
","""event"",""trial"",""time""
""fullscreenenter"",""1"",""2256""
","
","","","-1","","","13","13632","1884","u","elianto","#3366ff99","-1","-1","1","+10","[]","0","2","","","13632","122","9","2","win","no-go","0"
"pit-trial","241","1388778","0.0-127.0","battery-v0.2","","""event"",""trial"",""time""
""fullscreenenter"",""1"",""2256""
","
","
","""event"",""trial"",""time""
""fullscreenenter"",""1"",""2256""
","
","","","-1","","","13","13632","1884","l","elianto","#3366ff99","-1","-1","1","+10","[]","0","2","","","13632","123","8","2","win","no-go","0"
"pit-trial","242","1392635","0.0-128.0","battery-v0.2","","""event"",""trial"",""time""
""fullscreenenter"",""1"",""2256""
","
","
","""event"",""trial"",""time""
""fullscreenenter"",""1"",""2256""
","
","","","1001.1999999880791","","","13","13632","1884","a","elianto","#f73b6a7A"," "," ","1","-10","[1852.2999999821186]","1","2","","","13632","124","7","3","lose","go","1"
"pit-trial","243","1397492","0.0-129.0","battery-v0.2","","""event"",""trial"",""time""
""fullscreenenter"",""1"",""2256""
","
","
","""event"",""trial"",""time""
""fullscreenenter"",""1"",""2256""
","
","","","-1","","","13","13632","1884","u","elianto","#3366ff99","-1","-1","1","+10","[]","0","2","","","13632","125","9","2","win","no-go","0"
"pit-trial","244","1402348","0.0-130.0","battery-v0.2","","""event"",""trial"",""time""
""fullscreenenter"",""1"",""2256""
","
","
","""event"",""trial"",""time""
""fullscreenenter"",""1"",""2256""
","
","","","-1","","","13","13632","1884","g","elianto","#f73b6a7A","-1","-1","1","0","[]","0","2","","","13632","126","6","4","lose","no-go","0"
"pit-trial","245","1406432","0.0-131.0","battery-v0.2","","""event"",""trial"",""time""
""fullscreenenter"",""1"",""2256""
","
","
","""event"",""trial"",""time""
""fullscreenenter"",""1"",""2256""
","
","","","1228.2000000178814","","","13","13632","1884","a","elianto","#f73b6a7A"," "," ","1","0","[2079.699999988079]","1","2","","","13632","127","7","3","lose","go","0"
"pit-trial","246","1411290","0.0-132.0","battery-v0.2","","""event"",""trial"",""time""
""fullscreenenter"",""1"",""2256""
","
","
","""event"",""trial"",""time""
""fullscreenenter"",""1"",""2256""
","
","","","-1","","","13","13632","1884","l","elianto","#3366ff99","-1","-1","1","+10","[]","0","2","","","13632","128","8","2","win","no-go","0"
"pit-trial","247","1416146","0.0-133.0","battery-v0.2","","""event"",""trial"",""time""
""fullscreenenter"",""1"",""2256""
","
","
","""event"",""trial"",""time""
""fullscreenenter"",""1"",""2256""
","
","","","-1","","","13","13632","1884","g","elianto","#f73b6a7A","-1","-1","1","0","[]","0","2","","","13632","129","6","4","lose","no-go","0"
"pit-trial","248","1419866","0.0-134.0","battery-v0.2","","""event"",""trial"",""time""
""fullscreenenter"",""1"",""2256""
","
","
","""event"",""trial"",""time""
""fullscreenenter"",""1"",""2256""
","
","","","863.2000000178814","","","13","13632","1884","a","elianto","#f73b6a7A"," "," ","1","-10","[1714.5]","1","2","","","13632","130","7","3","lose","go","1"
"pit-trial","249","1424722","0.0-135.0","battery-v0.2","","""event"",""trial"",""time""
""fullscreenenter"",""1"",""2256""
","
","
","""event"",""trial"",""time""
""fullscreenenter"",""1"",""2256""
","
","","","-1","","","13","13632","1884","u","elianto","#3366ff99","-1","-1","1","+10","[]","0","2","","","13632","131","9","2","win","no-go","0"
"pit-trial","250","1429578","0.0-136.0","battery-v0.2","","""event"",""trial"",""time""
""fullscreenenter"",""1"",""2256""
","
","
","""event"",""trial"",""time""
""fullscreenenter"",""1"",""2256""
","
","","","-1","","","13","13632","1884","l","elianto","#3366ff99","-1","-1","1","+10","[]","0","2","","","13632","132","8","2","win","no-go","0"
"pit-trial","251","1433329","0.0-137.0","battery-v0.2","","""event"",""trial"",""time""
""fullscreenenter"",""1"",""2256""
","
","
","""event"",""trial"",""time""
""fullscreenenter"",""1"",""2256""
","
","","","896.0999999940395","","","13","13632","1884","a","elianto","#f73b6a7A"," "," ","1","0","[1747.5]","1","2","","","13632","133","7","3","lose","go","0"
"pit-trial","252","1438185","0.0-138.0","battery-v0.2","","""event"",""trial"",""time""
""fullscreenenter"",""1"",""2256""
","
","
","""event"",""trial"",""time""
""fullscreenenter"",""1"",""2256""
","
","","","-1","","","13","13632","1884","g","elianto","#f73b6a7A","-1","-1","1","0","[]","0","2","","","13632","134","6","4","lose","no-go","0"
"pit-trial","253","1443041","0.0-139.0","battery-v0.2","","""event"",""trial"",""time""
""fullscreenenter"",""1"",""2256""
","
","
","""event"",""trial"",""time""
""fullscreenenter"",""1"",""2256""
","
","","","-1","","","13","13632","1884","l","elianto","#3366ff99","-1","-1","1","+10","[]","0","2","","","13632","135","8","2","win","no-go","0"
"pit-trial","254","1447898","0.0-140.0","battery-v0.2","","""event"",""trial"",""time""
""fullscreenenter"",""1"",""2256""
","
","
","""event"",""trial"",""time""
""fullscreenenter"",""1"",""2256""
","
","","","-1","","","13","13632","1884","u","elianto","#3366ff99","-1","-1","1","0","[]","0","2","","","13632","136","9","2","win","no-go","1"
"pit-trial","255","1452755","0.0-141.0","battery-v0.2","","""event"",""trial"",""time""
""fullscreenenter"",""1"",""2256""
","
","
","""event"",""trial"",""time""
""fullscreenenter"",""1"",""2256""
","
","","","-1","","","13","13632","1884","u","elianto","#3366ff99","-1","-1","1","+10","[]","0","2","","","13632","137","9","2","win","no-go","0"
"pit-trial","256","1457612","0.0-142.0","battery-v0.2","","""event"",""trial"",""time""
""fullscreenenter"",""1"",""2256""
","
","
","""event"",""trial"",""time""
""fullscreenenter"",""1"",""2256""
","
","","","-1","","","13","13632","1884","g","elianto","#f73b6a7A","-1","-1","1","0","[]","0","2","","","13632","138","6","4","lose","no-go","0"
"pit-trial","257","1462469","0.0-143.0","battery-v0.2","","""event"",""trial"",""time""
""fullscreenenter"",""1"",""2256""
","
","
","""event"",""trial"",""time""
""fullscreenenter"",""1"",""2256""
","
","","","-1","","","13","13632","1884","l","elianto","#3366ff99","-1","-1","1","0","[]","0","2","","","13632","139","8","2","win","no-go","1"
"pit-trial","258","1466194","0.0-144.0","battery-v0.2","","""event"",""trial"",""time""
""fullscreenenter"",""1"",""2256""
","
","
","""event"",""trial"",""time""
""fullscreenenter"",""1"",""2256""
","
","","","866.8000000119209","","","13","13632","1884","a","elianto","#f73b6a7A"," "," ","1","0","[1718.5999999940395]","1","2","","","13632","140","7","3","lose","go","0"
"pit-instructions","259","1479519","0.0-145.0","battery-v0.2","","""event"",""trial"",""time""
""fullscreenenter"",""1"",""2256""
","
","
","""event"",""trial"",""time""
""fullscreenenter"",""1"",""2256""
","
","","[{""page_index"":0,""viewing_time"":5182.5999999940395},{""page_index"":1,""viewing_time"":8133.0999999940395}]","13316.09999999404","","","","","","","","","","","","","","","","","","","","","","","",""
"pit-trial","260","1483282","0.0-146.0","battery-v0.2","","""event"",""trial"",""time""
""fullscreenenter"",""1"",""2256""
","
","
","""event"",""trial"",""time""
""fullscreenenter"",""1"",""2256""
","
","","","901.6999999880791","","","13","13632","1884","r","elianto","#3366ff99","-1"," ","0","0","[1752.8999999761581]","1","3","","","13632","141","1","2","win","no-go","0"
"pit-trial","261","1487040","0.0-147.0","battery-v0.2","","""event"",""trial"",""time""
""fullscreenenter"",""1"",""2256""
","
","
","""event"",""trial"",""time""
""fullscreenenter"",""1"",""2256""
","
","","","902.6999999880791","","","13","13632","1884","h","elianto","#f73b6a7A","-1"," ","0","-10","[1752.699999988079]","1","3","","","13632","142","3","4","lose","no-go","0"
"pit-trial","262","1491172","0.0-148.0","battery-v0.2","","""event"",""trial"",""time""
""fullscreenenter"",""1"",""2256""
","
","
","""event"",""trial"",""time""
""fullscreenenter"",""1"",""2256""
","
","","","1274.199999988079","","","13","13632","1884","y","elianto","#f73b6a7A"," "," ","1","0","[2125.5]","1","3","","","13632","143","2","3","lose","go","0"
