"trial_type","trial_index","time_elapsed","internal_node_id","task_version","subject_id","interactions","blur_events","focus_events","fullscreenenter_events","fullscreenexit_events","success","view_history","rt","responses","num_errors","age","subject","participantId","rune","rune_set","hex","correct","choice","accuracy","outcome","keys","total_keys","block","practice","value","sub","trial","stimulus","robot","valence","action","sham"
"pavlovia","0","6","0.0-0.0","battery-v0.2","","""event"",""trial"",""time""
""fullscreenenter"",""1"",""3141""
","
","
","""event"",""trial"",""time""
""fullscreenenter"",""1"",""3141""
","
","","","","","","","","","","","","","","","","","","","","","","","","","","",""
"fullscreen","1","4126","0.0-1.0","battery-v0.2","","""event"",""trial"",""time""
""fullscreenenter"",""1"",""3141""
","
","
","""event"",""trial"",""time""
""fullscreenenter"",""1"",""3141""
","
","true","","","","","","","","","","","","","","","","","","","","","","","","","",""
"pit-instructions","2","8576","0.0-2.0-0.0","battery-v0.2","","""event"",""trial"",""time""
""fullscreenenter"",""1"",""3141""
","
","
","""event"",""trial"",""time""
""fullscreenenter"",""1"",""3141""
","
","","[{""page_index"":0,""viewing_time"":4445.099999904633}]","4445.299999952316","","","","","","","","","","","","","","","","","","","","","","","",""
"pit-comprehension","3","11105","0.0-2.0-1.0-0.0","battery-v0.2","","""event"",""trial"",""time""
""fullscreenenter"",""1"",""3141""
","
","
","""event"",""trial"",""time""
""fullscreenenter"",""1"",""3141""
","
","","","2526.0999999046326","[""shark""]","0","18","13472","5849","","","","","","","","","","","","","","","","","","",""
"pit-instructions","4","12246","0.0-2.0-1.0-1.0","battery-v0.2","","""event"",""trial"",""time""
""fullscreenenter"",""1"",""3141""
","
","
","""event"",""trial"",""time""
""fullscreenenter"",""1"",""3141""
","
","","[{""page_index"":0,""viewing_time"":1135.2999999523163}]","1135.5","","","","","","","","","","","","","","","","","","","","","","","",""
"pit-comprehension","5","14362","0.0-2.0-2.0-0.0","battery-v0.2","","""event"",""trial"",""time""
""fullscreenenter"",""1"",""3141""
","
","
","""event"",""trial"",""time""
""fullscreenenter"",""1"",""3141""
","
","","","2114.2999999523163","[""tiger""]","0","18","13472","5849","","","","","","","","","","","","","","","","","","",""
"pit-instructions","6","15217","0.0-2.0-2.0-1.0","battery-v0.2","","""event"",""trial"",""time""
""fullscreenenter"",""1"",""3141""
","
","
","""event"",""trial"",""time""
""fullscreenenter"",""1"",""3141""
","
","","[{""page_index"":0,""viewing_time"":853.1999998092651}]","853.2999999523163","","","","","","","","","","","","","","","","","","","","","","","",""
"pit-instructions","7","140104","0.0-2.0-3.0","battery-v0.2","","""event"",""trial"",""time""
""fullscreenenter"",""1"",""3141""
","
","
","""event"",""trial"",""time""
""fullscreenenter"",""1"",""3141""
","
","","[{""page_index"":0,""viewing_time"":9342.599999904633},{""page_index"":1,""viewing_time"":6327.599999904633},{""page_index"":2,""viewing_time"":16151.200000047684},{""page_index"":3,""viewing_time"":5713.299999952316},{""page_index"":4,""viewing_time"":5801.5},{""page_index"":5,""viewing_time"":5150.400000095367},{""page_index"":6,""viewing_time"":7020.900000095367},{""page_index"":7,""viewing_time"":6394.899999856949},{""page_index"":8,""viewing_time"":6987.299999952316},{""page_index"":9,""viewing_time"":18659.200000047684},{""page_index"":10,""viewing_time"":7835.400000095367},{""page_index"":11,""viewing_time"":7022.5},{""page_index"":12,""viewing_time"":17168.599999904633},{""page_index"":13,""viewing_time"":5310.799999952316}]","124886.39999985695","","","","","","","","","","","","","","","","","","","","","","","",""
"pit-trial","8","144289","0.0-2.0-4.0-0.0","battery-v0.2","","""event"",""trial"",""time""
""fullscreenenter"",""1"",""3141""
","
","
","""event"",""trial"",""time""
""fullscreenenter"",""1"",""3141""
","
","","","1326","","","18","13472","5849","&#9784;","elianto","#FFFFF080"," "," ","1","&#10004","[2178.5999999046326]","1","0","0","","","","","","","",""
"pit-trial","9","147892","0.0-2.0-4.1-0.1","battery-v0.2","","""event"",""trial"",""time""
""fullscreenenter"",""1"",""3141""
","
","
","""event"",""trial"",""time""
""fullscreenenter"",""1"",""3141""
","
","","","733.5","","","18","13472","5849","&#9784;","elianto","#FFFFF080"," "," ","1","&#10004","[1589]","1","0","0","","","","","","","",""
"pit-trial","10","151244","0.0-2.0-4.2-0.2","battery-v0.2","","""event"",""trial"",""time""
""fullscreenenter"",""1"",""3141""
","
","
","""event"",""trial"",""time""
""fullscreenenter"",""1"",""3141""
","
","","","480.2999999523163","","","18","13472","5849","&#9784;","elianto","#FFFFF080"," "," ","1","&#10004","[1338.9000000953674]","1","0","0","","","","","","","",""
"pit-trial","11","154728","0.0-2.0-4.3-0.3","battery-v0.2","","""event"",""trial"",""time""
""fullscreenenter"",""1"",""3141""
","
","
","""event"",""trial"",""time""
""fullscreenenter"",""1"",""3141""
","
","","","617.7000000476837","","","18","13472","5849","&#9784;","elianto","#FFFFF080"," "," ","1","&#10004","[1473.9000000953674]","1","0","0","","","","","","","",""
"pit-trial","12","158162","0.0-2.0-4.4-0.4","battery-v0.2","","""event"",""trial"",""time""
""fullscreenenter"",""1"",""3141""
","
","
","""event"",""trial"",""time""
""fullscreenenter"",""1"",""3141""
","
","","","568.7999999523163","","","18","13472","5849","&#9784;","elianto","#FFFFF080"," "," ","1","&#10004","[1420]","1","0","0","","","","","","","",""
"pit-instructions","13","178591","0.0-2.0-5.0","battery-v0.2","","""event"",""trial"",""time""
""fullscreenenter"",""1"",""3141""
","
","
","""event"",""trial"",""time""
""fullscreenenter"",""1"",""3141""
","
","","[{""page_index"":0,""viewing_time"":4792.5},{""page_index"":1,""viewing_time"":5028.799999952316},{""page_index"":2,""viewing_time"":4606.100000143051},{""page_index"":3,""viewing_time"":6000.099999904633}]","20427.700000047684","","","","","","","","","","","","","","","","","","","","","","","",""
"pit-trial","14","183459","0.0-2.0-6.0-0.0","battery-v0.2","","""event"",""trial"",""time""
""fullscreenenter"",""1"",""3141""
","
","
","""event"",""trial"",""time""
""fullscreenenter"",""1"",""3141""
","
","","","-1","","","18","13472","5849","&#9854;","elianto","#FFFFF080","-1","-1","1","&#10004","[]","0","0","1","","","","","","","",""
"pit-trial","15","188330","0.0-2.0-6.1-0.1","battery-v0.2","","""event"",""trial"",""time""
""fullscreenenter"",""1"",""3141""
","
","
","""event"",""trial"",""time""
""fullscreenenter"",""1"",""3141""
","
","","","-1","","","18","13472","5849","&#9854;","elianto","#FFFFF080","-1","-1","1","&#10004","[]","0","0","1","","","","","","","",""
"pit-trial","16","193195","0.0-2.0-6.2-0.2","battery-v0.2","","""event"",""trial"",""time""
""fullscreenenter"",""1"",""3141""
","
","
","""event"",""trial"",""time""
""fullscreenenter"",""1"",""3141""
","
","","","-1","","","18","13472","5849","&#9854;","elianto","#FFFFF080","-1","-1","1","&#10004","[]","0","0","1","","","","","","","",""
"pit-trial","17","198056","0.0-2.0-6.3-0.3","battery-v0.2","","""event"",""trial"",""time""
""fullscreenenter"",""1"",""3141""
","
","
","""event"",""trial"",""time""
""fullscreenenter"",""1"",""3141""
","
","","","-1","","","18","13472","5849","&#9854;","elianto","#FFFFF080","-1","-1","1","&#10004","[]","0","0","1","","","","","","","",""
"pit-trial","18","202928","0.0-2.0-6.4-0.4","battery-v0.2","","""event"",""trial"",""time""
""fullscreenenter"",""1"",""3141""
","
","
","""event"",""trial"",""time""
""fullscreenenter"",""1"",""3141""
","
","","","-1","","","18","13472","5849","&#9854;","elianto","#FFFFF080","-1","-1","1","&#10004","[]","0","0","1","","","","","","","",""
"pit-instructions","19","392211","0.0-2.0-7.0","battery-v0.2","","""event"",""trial"",""time""
""fullscreenenter"",""1"",""3141""
","
","
","""event"",""trial"",""time""
""fullscreenenter"",""1"",""3141""
","
","","[{""page_index"":0,""viewing_time"":5526.5},{""page_index"":1,""viewing_time"":6814.099999904633},{""page_index"":2,""viewing_time"":5617.299999952316},{""page_index"":3,""viewing_time"":6087.900000095367},{""page_index"":4,""viewing_time"":5316.700000047684},{""page_index"":5,""viewing_time"":5307.199999809265},{""page_index"":6,""viewing_time"":5069},{""page_index"":7,""viewing_time"":16509.5},{""page_index"":8,""viewing_time"":22706.200000047684},{""page_index"":9,""viewing_time"":6550.200000047684},{""page_index"":10,""viewing_time"":6950.700000047684},{""page_index"":11,""viewing_time"":5137.099999904633},{""page_index"":12,""viewing_time"":6900.400000095367},{""page_index"":13,""viewing_time"":36850.59999990463},{""page_index"":14,""viewing_time"":23826.5},{""page_index"":15,""viewing_time"":10409.5},{""page_index"":16,""viewing_time"":6316.799999952316},{""page_index"":17,""viewing_time"":7384.700000047684}]","189281","","","","","","","","","","","","","","","","","","","","","","","",""
"pit-trial","20","395930","0.0-2.0-8.0-0.0","battery-v0.2","","""event"",""trial"",""time""
""fullscreenenter"",""1"",""3141""
","
","
","""event"",""trial"",""time""
""fullscreenenter"",""1"",""3141""
","
","","","864.2999999523163","","","18","13472","5849","&#9776;","elianto","#3366ff99"," "," ","1","+10","[1715.7000000476837]","1","0","1","","","","","","","",""
"pit-trial","21","399344","0.0-2.0-8.0-1.0","battery-v0.2","","""event"",""trial"",""time""
""fullscreenenter"",""1"",""3141""
","
","
","""event"",""trial"",""time""
""fullscreenenter"",""1"",""3141""
","
","","","546.3999998569489","","","18","13472","5849","&#9776;","elianto","#3366ff99"," "," ","1","+10","[1400.5]","1","0","1","","","","","","","",""
"pit-trial","22","402612","0.0-2.0-8.0-2.0","battery-v0.2","","""event"",""trial"",""time""
""fullscreenenter"",""1"",""3141""
","
","
","""event"",""trial"",""time""
""fullscreenenter"",""1"",""3141""
","
","","","400.69999980926514","","","18","13472","5849","&#9776;","elianto","#3366ff99"," "," ","1","+10","[1255.5999999046326]","1","0","1","","","","","","","",""
"pit-trial","23","405667","0.0-2.0-8.0-3.0","battery-v0.2","","""event"",""trial"",""time""
""fullscreenenter"",""1"",""3141""
","
","
","""event"",""trial"",""time""
""fullscreenenter"",""1"",""3141""
","
","","","194.59999990463257","","","18","13472","5849","&#9776;","elianto","#3366ff99"," "," ","1","0","[1047.5999999046326]","1","0","1","","","","","","","",""
"pit-trial","24","408936","0.0-2.0-8.0-4.0","battery-v0.2","","""event"",""trial"",""time""
""fullscreenenter"",""1"",""3141""
","
","
","""event"",""trial"",""time""
""fullscreenenter"",""1"",""3141""
","
","","","398.10000014305115","","","18","13472","5849","&#9776;","elianto","#3366ff99"," "," ","1","+10","[1259.1000001430511]","1","0","1","","","","","","","",""
"pit-trial","25","412215","0.0-2.0-8.1-0.1","battery-v0.2","","""event"",""trial"",""time""
""fullscreenenter"",""1"",""3141""
","
","
","""event"",""trial"",""time""
""fullscreenenter"",""1"",""3141""
","
","","","410.60000014305115","","","18","13472","5849","&#9776;","elianto","#3366ff99"," "," ","1","+10","[1268]","1","0","1","","","","","","","",""
"pit-trial","26","415638","0.0-2.0-8.1-1.1","battery-v0.2","","""event"",""trial"",""time""
""fullscreenenter"",""1"",""3141""
","
","
","""event"",""trial"",""time""
""fullscreenenter"",""1"",""3141""
","
","","","555.7999999523163","","","18","13472","5849","&#9776;","elianto","#3366ff99"," "," ","1","+10","[1417.0999999046326]","1","0","1","","","","","","","",""
"pit-trial","27","418986","0.0-2.0-8.1-2.1","battery-v0.2","","""event"",""trial"",""time""
""fullscreenenter"",""1"",""3141""
","
","
","""event"",""trial"",""time""
""fullscreenenter"",""1"",""3141""
","
","","","489.7000000476837","","","18","13472","5849","&#9776;","elianto","#3366ff99"," "," ","1","+10","[1340.5]","1","0","1","","","","","","","",""
"pit-trial","28","422406","0.0-2.0-8.1-3.1","battery-v0.2","","""event"",""trial"",""time""
""fullscreenenter"",""1"",""3141""
","
","
","""event"",""trial"",""time""
""fullscreenenter"",""1"",""3141""
","
","","","566.5999999046326","","","18","13472","5849","&#9776;","elianto","#3366ff99"," "," ","1","0","[1417]","1","0","1","","","","","","","",""
"pit-trial","29","425666","0.0-2.0-8.1-4.1","battery-v0.2","","""event"",""trial"",""time""
""fullscreenenter"",""1"",""3141""
","
","
","""event"",""trial"",""time""
""fullscreenenter"",""1"",""3141""
","
","","","407.89999985694885","","","18","13472","5849","&#9776;","elianto","#3366ff99"," "," ","1","+10","[1258.3999998569489]","1","0","1","","","","","","","",""
"pit-trial","30","428945","0.0-2.0-8.2-0.2","battery-v0.2","","""event"",""trial"",""time""
""fullscreenenter"",""1"",""3141""
","
","
","""event"",""trial"",""time""
""fullscreenenter"",""1"",""3141""
","
","","","425.7000000476837","","","18","13472","5849","&#9776;","elianto","#3366ff99"," "," ","1","+10","[1276.5]","1","0","1","","","","","","","",""
"pit-trial","31","432180","0.0-2.0-8.2-1.2","battery-v0.2","","""event"",""trial"",""time""
""fullscreenenter"",""1"",""3141""
","
","
","""event"",""trial"",""time""
""fullscreenenter"",""1"",""3141""
","
","","","382.7000000476837","","","18","13472","5849","&#9776;","elianto","#3366ff99"," "," ","1","+10","[1233.3999998569489]","1","0","1","","","","","","","",""
"pit-trial","32","435844","0.0-2.0-8.2-2.2","battery-v0.2","","""event"",""trial"",""time""
""fullscreenenter"",""1"",""3141""
","
","
","""event"",""trial"",""time""
""fullscreenenter"",""1"",""3141""
","
","","","810.5","","","18","13472","5849","&#9776;","elianto","#3366ff99"," "," ","1","+10","[1660.7000000476837]","1","0","1","","","","","","","",""
"pit-trial","33","439205","0.0-2.0-8.2-3.2","battery-v0.2","","""event"",""trial"",""time""
""fullscreenenter"",""1"",""3141""
","
","
","""event"",""trial"",""time""
""fullscreenenter"",""1"",""3141""
","
","","","508.90000009536743","","","18","13472","5849","&#9776;","elianto","#3366ff99"," "," ","1","0","[1359.6000001430511]","1","0","1","","","","","","","",""
"pit-trial","34","442704","0.0-2.0-8.2-4.2","battery-v0.2","","""event"",""trial"",""time""
""fullscreenenter"",""1"",""3141""
","
","
","""event"",""trial"",""time""
""fullscreenenter"",""1"",""3141""
","
","","","645.5","","","18","13472","5849","&#9776;","elianto","#3366ff99"," "," ","1","+10","[1496.6999998092651]","1","0","1","","","","","","","",""
"call-function","35","442705","0.0-2.0-9.0","battery-v0.2","","""event"",""trial"",""time""
""fullscreenenter"",""1"",""3141""
","
","
","""event"",""trial"",""time""
""fullscreenenter"",""1"",""3141""
","
","","","","","","","","","","","","","","","","","","","","","","","","","","",""
"pit-instructions","36","579097","0.0-2.0-10.0","battery-v0.2","","""event"",""trial"",""time""
""fullscreenenter"",""1"",""3141""
","
","
","""event"",""trial"",""time""
""fullscreenenter"",""1"",""3141""
","
","","[{""page_index"":0,""viewing_time"":65783.09999990463},{""page_index"":1,""viewing_time"":21245.700000047684},{""page_index"":2,""viewing_time"":10380.399999856949},{""page_index"":3,""viewing_time"":11034.5},{""page_index"":4,""viewing_time"":27948.5}]","136392.39999985695","","","","","","","","","","","","","","","","","","","","","","","",""
"pit-trial","37","582646","0.0-2.0-11.0-0.0","battery-v0.2","","""event"",""trial"",""time""
""fullscreenenter"",""1"",""3141""
","
","
","""event"",""trial"",""time""
""fullscreenenter"",""1"",""3141""
","
","","","681.5999999046326","","","18","13472","5849","&#9761;","elianto","#3366ff99","-1"," ","0","0","[1533.2999999523163]","1","0","2","","","","","","","",""
"pit-trial","38","585910","0.0-2.0-11.0-1.0","battery-v0.2","","""event"",""trial"",""time""
""fullscreenenter"",""1"",""3141""
","
","
","""event"",""trial"",""time""
""fullscreenenter"",""1"",""3141""
","
","","","389.89999985694885","","","18","13472","5849","&#9761;","elianto","#3366ff99","-1"," ","0","0","[1247.7000000476837]","1","0","2","","","","","","","",""
"pit-trial","39","589073","0.0-2.0-11.0-2.0","battery-v0.2","","""event"",""trial"",""time""
""fullscreenenter"",""1"",""3141""
","
","
","""event"",""trial"",""time""
""fullscreenenter"",""1"",""3141""
","
","","","308","","","18","13472","5849","&#9761;","elianto","#3366ff99","-1"," ","0","0","[1159.9000000953674]","1","0","2","","","","","","","",""
"pit-trial","40","592376","0.0-2.0-11.0-3.0","battery-v0.2","","""event"",""trial"",""time""
""fullscreenenter"",""1"",""3141""
","
","
","""event"",""trial"",""time""
""fullscreenenter"",""1"",""3141""
","
","","","450","","","18","13472","5849","&#9761;","elianto","#3366ff99","-1"," ","0","+10","[1300.3999998569489]","1","0","2","","","","","","","",""
"pit-trial","41","597228","0.0-2.0-11.0-4.0","battery-v0.2","","""event"",""trial"",""time""
""fullscreenenter"",""1"",""3141""
","
","
","""event"",""trial"",""time""
""fullscreenenter"",""1"",""3141""
","
","","","-1","","","18","13472","5849","&#9761;","elianto","#3366ff99","-1","-1","1","+10","[]","0","0","2","","","","","","","",""
"pit-trial","42","602081","0.0-2.0-11.1-0.1","battery-v0.2","","""event"",""trial"",""time""
""fullscreenenter"",""1"",""3141""
","
","
","""event"",""trial"",""time""
""fullscreenenter"",""1"",""3141""
","
","","","-1","","","18","13472","5849","&#9761;","elianto","#3366ff99","-1","-1","1","+10","[]","0","0","2","","","","","","","",""
"pit-trial","43","606932","0.0-2.0-11.1-1.1","battery-v0.2","","""event"",""trial"",""time""
""fullscreenenter"",""1"",""3141""
","
","
","""event"",""trial"",""time""
""fullscreenenter"",""1"",""3141""
","
","","","-1","","","18","13472","5849","&#9761;","elianto","#3366ff99","-1","-1","1","+10","[]","0","0","2","","","","","","","",""
"pit-trial","44","611785","0.0-2.0-11.1-2.1","battery-v0.2","","""event"",""trial"",""time""
""fullscreenenter"",""1"",""3141""
","
","
","""event"",""trial"",""time""
""fullscreenenter"",""1"",""3141""
","
","","","-1","","","18","13472","5849","&#9761;","elianto","#3366ff99","-1","-1","1","+10","[]","0","0","2","","","","","","","",""
"pit-trial","45","616637","0.0-2.0-11.1-3.1","battery-v0.2","","""event"",""trial"",""time""
""fullscreenenter"",""1"",""3141""
","
","
","""event"",""trial"",""time""
""fullscreenenter"",""1"",""3141""
","
","","","-1","","","18","13472","5849","&#9761;","elianto","#3366ff99","-1","-1","1","0","[]","0","0","2","","","","","","","",""
"pit-trial","46","621490","0.0-2.0-11.1-4.1","battery-v0.2","","""event"",""trial"",""time""
""fullscreenenter"",""1"",""3141""
","
","
","""event"",""trial"",""time""
""fullscreenenter"",""1"",""3141""
","
","","","-1","","","18","13472","5849","&#9761;","elianto","#3366ff99","-1","-1","1","+10","[]","0","0","2","","","","","","","",""
"pit-trial","47","626343","0.0-2.0-11.2-0.2","battery-v0.2","","""event"",""trial"",""time""
""fullscreenenter"",""1"",""3141""
","
","
","""event"",""trial"",""time""
""fullscreenenter"",""1"",""3141""
","
","","","-1","","","18","13472","5849","&#9761;","elianto","#3366ff99","-1","-1","1","+10","[]","0","0","2","","","","","","","",""
"pit-trial","48","631198","0.0-2.0-11.2-1.2","battery-v0.2","","""event"",""trial"",""time""
""fullscreenenter"",""1"",""3141""
","
","
","""event"",""trial"",""time""
""fullscreenenter"",""1"",""3141""
","
","","","-1","","","18","13472","5849","&#9761;","elianto","#3366ff99","-1","-1","1","+10","[]","0","0","2","","","","","","","",""
"pit-trial","49","636063","0.0-2.0-11.2-2.2","battery-v0.2","","""event"",""trial"",""time""
""fullscreenenter"",""1"",""3141""
","
","
","""event"",""trial"",""time""
""fullscreenenter"",""1"",""3141""
","
","","","-1","","","18","13472","5849","&#9761;","elianto","#3366ff99","-1","-1","1","+10","[]","0","0","2","","","","","","","",""
"pit-trial","50","640915","0.0-2.0-11.2-3.2","battery-v0.2","","""event"",""trial"",""time""
""fullscreenenter"",""1"",""3141""
","
","
","""event"",""trial"",""time""
""fullscreenenter"",""1"",""3141""
","
","","","-1","","","18","13472","5849","&#9761;","elianto","#3366ff99","-1","-1","1","0","[]","0","0","2","","","","","","","",""
"pit-trial","51","645768","0.0-2.0-11.2-4.2","battery-v0.2","","""event"",""trial"",""time""
""fullscreenenter"",""1"",""3141""
","
","
","""event"",""trial"",""time""
""fullscreenenter"",""1"",""3141""
","
","","","-1","","","18","13472","5849","&#9761;","elianto","#3366ff99","-1","-1","1","+10","[]","0","0","2","","","","","","","",""
"pit-trial","52","650624","0.0-2.0-11.3-0.3","battery-v0.2","","""event"",""trial"",""time""
""fullscreenenter"",""1"",""3141""
","
","
","""event"",""trial"",""time""
""fullscreenenter"",""1"",""3141""
","
","","","-1","","","18","13472","5849","&#9761;","elianto","#3366ff99","-1","-1","1","+10","[]","0","0","2","","","","","","","",""
"pit-trial","53","655476","0.0-2.0-11.3-1.3","battery-v0.2","","""event"",""trial"",""time""
""fullscreenenter"",""1"",""3141""
","
","
","""event"",""trial"",""time""
""fullscreenenter"",""1"",""3141""
","
","","","-1","","","18","13472","5849","&#9761;","elianto","#3366ff99","-1","-1","1","+10","[]","0","0","2","","","","","","","",""
"pit-trial","54","660330","0.0-2.0-11.3-2.3","battery-v0.2","","""event"",""trial"",""time""
""fullscreenenter"",""1"",""3141""
","
","
","""event"",""trial"",""time""
""fullscreenenter"",""1"",""3141""
","
","","","-1","","","18","13472","5849","&#9761;","elianto","#3366ff99","-1","-1","1","+10","[]","0","0","2","","","","","","","",""
"pit-trial","55","665183","0.0-2.0-11.3-3.3","battery-v0.2","","""event"",""trial"",""time""
""fullscreenenter"",""1"",""3141""
","
","
","""event"",""trial"",""time""
""fullscreenenter"",""1"",""3141""
","
","","","-1","","","18","13472","5849","&#9761;","elianto","#3366ff99","-1","-1","1","0","[]","0","0","2","","","","","","","",""
"pit-trial","56","670037","0.0-2.0-11.3-4.3","battery-v0.2","","""event"",""trial"",""time""
""fullscreenenter"",""1"",""3141""
","
","
","""event"",""trial"",""time""
""fullscreenenter"",""1"",""3141""
","
","","","-1","","","18","13472","5849","&#9761;","elianto","#3366ff99","-1","-1","1","+10","[]","0","0","2","","","","","","","",""
"call-function","57","670039","0.0-2.0-12.0","battery-v0.2","","""event"",""trial"",""time""
""fullscreenenter"",""1"",""3141""
","
","
","""event"",""trial"",""time""
""fullscreenenter"",""1"",""3141""
","
","","","","","","","","","","","","","","","","","","","","","","","","","","",""
"pit-instructions","58","720880","0.0-2.0-13.0","battery-v0.2","","""event"",""trial"",""time""
""fullscreenenter"",""1"",""3141""
","
","
","""event"",""trial"",""time""
""fullscreenenter"",""1"",""3141""
","
","","[{""page_index"":0,""viewing_time"":8038.699999809265},{""page_index"":1,""viewing_time"":8893.700000047684},{""page_index"":2,""viewing_time"":3264.600000143051},{""page_index"":3,""viewing_time"":25079.299999952316},{""page_index"":4,""viewing_time"":5564.099999904633}]","50840.59999990463","","","","","","","","","","","","","","","","","","","","","","","",""
"pit-trial","59","725749","0.0-2.0-14.0-0.0","battery-v0.2","","""event"",""trial"",""time""
""fullscreenenter"",""1"",""3141""
","
","
","""event"",""trial"",""time""
""fullscreenenter"",""1"",""3141""
","
","","","-1","","","18","13472","5849","&#9826;","elianto","#f73b6a7A","-1","-1","1","0","[]","0","0","3","","","","","","","",""
"pit-trial","60","730629","0.0-2.0-14.0-1.0","battery-v0.2","","""event"",""trial"",""time""
""fullscreenenter"",""1"",""3141""
","
","
","""event"",""trial"",""time""
""fullscreenenter"",""1"",""3141""
","
","","","-1","","","18","13472","5849","&#9826;","elianto","#f73b6a7A","-1","-1","1","0","[]","0","0","3","","","","","","","",""
"pit-trial","61","735505","0.0-2.0-14.0-2.0","battery-v0.2","","""event"",""trial"",""time""
""fullscreenenter"",""1"",""3141""
","
","
","""event"",""trial"",""time""
""fullscreenenter"",""1"",""3141""
","
","","","-1","","","18","13472","5849","&#9826;","elianto","#f73b6a7A","-1","-1","1","0","[]","0","0","3","","","","","","","",""
"pit-trial","62","740367","0.0-2.0-14.0-3.0","battery-v0.2","","""event"",""trial"",""time""
""fullscreenenter"",""1"",""3141""
","
","
","""event"",""trial"",""time""
""fullscreenenter"",""1"",""3141""
","
","","","-1","","","18","13472","5849","&#9826;","elianto","#f73b6a7A","-1","-1","1","-10","[]","0","0","3","","","","","","","",""
"pit-trial","63","745224","0.0-2.0-14.0-4.0","battery-v0.2","","""event"",""trial"",""time""
""fullscreenenter"",""1"",""3141""
","
","
","""event"",""trial"",""time""
""fullscreenenter"",""1"",""3141""
","
","","","-1","","","18","13472","5849","&#9826;","elianto","#f73b6a7A","-1","-1","1","0","[]","0","0","3","","","","","","","",""
"pit-trial","64","750091","0.0-2.0-14.1-0.1","battery-v0.2","","""event"",""trial"",""time""
""fullscreenenter"",""1"",""3141""
","
","
","""event"",""trial"",""time""
""fullscreenenter"",""1"",""3141""
","
","","","-1","","","18","13472","5849","&#9826;","elianto","#f73b6a7A","-1","-1","1","0","[]","0","0","3","","","","","","","",""
"pit-trial","65","754944","0.0-2.0-14.1-1.1","battery-v0.2","","""event"",""trial"",""time""
""fullscreenenter"",""1"",""3141""
","
","
","""event"",""trial"",""time""
""fullscreenenter"",""1"",""3141""
","
","","","-1","","","18","13472","5849","&#9826;","elianto","#f73b6a7A","-1","-1","1","0","[]","0","0","3","","","","","","","",""
"pit-trial","66","759798","0.0-2.0-14.1-2.1","battery-v0.2","","""event"",""trial"",""time""
""fullscreenenter"",""1"",""3141""
","
","
","""event"",""trial"",""time""
""fullscreenenter"",""1"",""3141""
","
","","","-1","","","18","13472","5849","&#9826;","elianto","#f73b6a7A","-1","-1","1","0","[]","0","0","3","","","","","","","",""
"pit-trial","67","764652","0.0-2.0-14.1-3.1","battery-v0.2","","""event"",""trial"",""time""
""fullscreenenter"",""1"",""3141""
","
","
","""event"",""trial"",""time""
""fullscreenenter"",""1"",""3141""
","
","","","-1","","","18","13472","5849","&#9826;","elianto","#f73b6a7A","-1","-1","1","-10","[]","0","0","3","","","","","","","",""
"pit-trial","68","769507","0.0-2.0-14.1-4.1","battery-v0.2","","""event"",""trial"",""time""
""fullscreenenter"",""1"",""3141""
","
","
","""event"",""trial"",""time""
""fullscreenenter"",""1"",""3141""
","
","","","-1","","","18","13472","5849","&#9826;","elianto","#f73b6a7A","-1","-1","1","0","[]","0","0","3","","","","","","","",""
"pit-trial","69","774361","0.0-2.0-14.2-0.2","battery-v0.2","","""event"",""trial"",""time""
""fullscreenenter"",""1"",""3141""
","
","
","""event"",""trial"",""time""
""fullscreenenter"",""1"",""3141""
","
","","","-1","","","18","13472","5849","&#9826;","elianto","#f73b6a7A","-1","-1","1","0","[]","0","0","3","","","","","","","",""
"pit-trial","70","779216","0.0-2.0-14.2-1.2","battery-v0.2","","""event"",""trial"",""time""
""fullscreenenter"",""1"",""3141""
","
","
","""event"",""trial"",""time""
""fullscreenenter"",""1"",""3141""
","
","","","-1","","","18","13472","5849","&#9826;","elianto","#f73b6a7A","-1","-1","1","0","[]","0","0","3","","","","","","","",""
"pit-trial","71","784070","0.0-2.0-14.2-2.2","battery-v0.2","","""event"",""trial"",""time""
""fullscreenenter"",""1"",""3141""
","
","
","""event"",""trial"",""time""
""fullscreenenter"",""1"",""3141""
","
","","","-1","","","18","13472","5849","&#9826;","elianto","#f73b6a7A","-1","-1","1","0","[]","0","0","3","","","","","","","",""
"pit-trial","72","788922","0.0-2.0-14.2-3.2","battery-v0.2","","""event"",""trial"",""time""
""fullscreenenter"",""1"",""3141""
","
","
","""event"",""trial"",""time""
""fullscreenenter"",""1"",""3141""
","
","","","-1","","","18","13472","5849","&#9826;","elianto","#f73b6a7A","-1","-1","1","-10","[]","0","0","3","","","","","","","",""
"pit-trial","73","793776","0.0-2.0-14.2-4.2","battery-v0.2","","""event"",""trial"",""time""
""fullscreenenter"",""1"",""3141""
","
","
","""event"",""trial"",""time""
""fullscreenenter"",""1"",""3141""
","
","","","-1","","","18","13472","5849","&#9826;","elianto","#f73b6a7A","-1","-1","1","0","[]","0","0","3","","","","","","","",""
"pit-trial","74","798630","0.0-2.0-14.3-0.3","battery-v0.2","","""event"",""trial"",""time""
""fullscreenenter"",""1"",""3141""
","
","
","""event"",""trial"",""time""
""fullscreenenter"",""1"",""3141""
","
","","","-1","","","18","13472","5849","&#9826;","elianto","#f73b6a7A","-1","-1","1","0","[]","0","0","3","","","","","","","",""
"pit-trial","75","803485","0.0-2.0-14.3-1.3","battery-v0.2","","""event"",""trial"",""time""
""fullscreenenter"",""1"",""3141""
","
","
","""event"",""trial"",""time""
""fullscreenenter"",""1"",""3141""
","
","","","-1","","","18","13472","5849","&#9826;","elianto","#f73b6a7A","-1","-1","1","0","[]","0","0","3","","","","","","","",""
"pit-trial","76","808339","0.0-2.0-14.3-2.3","battery-v0.2","","""event"",""trial"",""time""
""fullscreenenter"",""1"",""3141""
","
","
","""event"",""trial"",""time""
""fullscreenenter"",""1"",""3141""
","
","","","-1","","","18","13472","5849","&#9826;","elianto","#f73b6a7A","-1","-1","1","0","[]","0","0","3","","","","","","","",""
"pit-trial","77","813192","0.0-2.0-14.3-3.3","battery-v0.2","","""event"",""trial"",""time""
""fullscreenenter"",""1"",""3141""
","
","
","""event"",""trial"",""time""
""fullscreenenter"",""1"",""3141""
","
","","","-1","","","18","13472","5849","&#9826;","elianto","#f73b6a7A","-1","-1","1","-10","[]","0","0","3","","","","","","","",""
"pit-trial","78","818044","0.0-2.0-14.3-4.3","battery-v0.2","","""event"",""trial"",""time""
""fullscreenenter"",""1"",""3141""
","
","
","""event"",""trial"",""time""
""fullscreenenter"",""1"",""3141""
","
","","","-1","","","18","13472","5849","&#9826;","elianto","#f73b6a7A","-1","-1","1","0","[]","0","0","3","","","","","","","",""
"call-function","79","818045","0.0-2.0-15.0","battery-v0.2","","""event"",""trial"",""time""
""fullscreenenter"",""1"",""3141""
","
","
","""event"",""trial"",""time""
""fullscreenenter"",""1"",""3141""
","
","","","","","","","","","","","","","","","","","","","","","","","","","","",""
"pit-instructions","80","852864","0.0-2.0-16.0","battery-v0.2","","""event"",""trial"",""time""
""fullscreenenter"",""1"",""3141""
","
","
","""event"",""trial"",""time""
""fullscreenenter"",""1"",""3141""
","
","","[{""page_index"":0,""viewing_time"":12293.899999856949},{""page_index"":1,""viewing_time"":12333.800000190735},{""page_index"":2,""viewing_time"":4269.399999856949},{""page_index"":3,""viewing_time"":5921.700000047684}]","34818.89999985695","","","","","","","","","","","","","","","","","","","","","","","",""
"pit-trial","81","856419","0.0-2.0-17.0-0.0","battery-v0.2","","""event"",""trial"",""time""
""fullscreenenter"",""1"",""3141""
","
","
","""event"",""trial"",""time""
""fullscreenenter"",""1"",""3141""
","
","","","692.0999999046326","","","18","13472","5849","&#9789;","elianto","#f73b6a7A"," "," ","1","0","[1550.7000000476837]","1","0","4","","","","","","","",""
"pit-trial","82","859747","0.0-2.0-17.0-1.0","battery-v0.2","","""event"",""trial"",""time""
""fullscreenenter"",""1"",""3141""
","
","
","""event"",""trial"",""time""
""fullscreenenter"",""1"",""3141""
","
","","","462.39999985694885","","","18","13472","5849","&#9789;","elianto","#f73b6a7A"," "," ","1","0","[1317]","1","0","4","","","","","","","",""
"pit-trial","83","862869","0.0-2.0-17.0-2.0","battery-v0.2","","""event"",""trial"",""time""
""fullscreenenter"",""1"",""3141""
","
","
","""event"",""trial"",""time""
""fullscreenenter"",""1"",""3141""
","
","","","259.2999999523163","","","18","13472","5849","&#9789;","elianto","#f73b6a7A"," "," ","1","0","[1110.4000000953674]","1","0","4","","","","","","","",""
"pit-trial","84","866142","0.0-2.0-17.0-3.0","battery-v0.2","","""event"",""trial"",""time""
""fullscreenenter"",""1"",""3141""
","
","
","""event"",""trial"",""time""
""fullscreenenter"",""1"",""3141""
","
","","","416.40000009536743","","","18","13472","5849","&#9789;","elianto","#f73b6a7A"," "," ","1","-10","[1266.7999999523163]","1","0","4","","","","","","","",""
"pit-trial","85","869290","0.0-2.0-17.0-4.0","battery-v0.2","","""event"",""trial"",""time""
""fullscreenenter"",""1"",""3141""
","
","
","""event"",""trial"",""time""
""fullscreenenter"",""1"",""3141""
","
","","","281.89999985694885","","","18","13472","5849","&#9789;","elianto","#f73b6a7A"," "," ","1","0","[1132.2000000476837]","1","0","4","","","","","","","",""
"pit-trial","86","872338","0.0-2.0-17.1-0.1","battery-v0.2","","""event"",""trial"",""time""
""fullscreenenter"",""1"",""3141""
","
","
","""event"",""trial"",""time""
""fullscreenenter"",""1"",""3141""
","
","","","176.80000019073486","","","18","13472","5849","&#9789;","elianto","#f73b6a7A"," "," ","1","0","[1034.6000001430511]","1","0","4","","","","","","","",""
"pit-trial","87","875664","0.0-2.0-17.1-1.1","battery-v0.2","","""event"",""trial"",""time""
""fullscreenenter"",""1"",""3141""
","
","
","""event"",""trial"",""time""
""fullscreenenter"",""1"",""3141""
","
","","","464.60000014305115","","","18","13472","5849","&#9789;","elianto","#f73b6a7A"," "," ","1","0","[1322.6999998092651]","1","0","4","","","","","","","",""
"pit-trial","88","879296","0.0-2.0-17.1-2.1","battery-v0.2","","""event"",""trial"",""time""
""fullscreenenter"",""1"",""3141""
","
","
","""event"",""trial"",""time""
""fullscreenenter"",""1"",""3141""
","
","","","769.6999998092651","","","18","13472","5849","&#9789;","elianto","#f73b6a7A"," "," ","1","0","[1621.5]","1","0","4","","","","","","","",""
"pit-trial","89","882635","0.0-2.0-17.1-3.1","battery-v0.2","","""event"",""trial"",""time""
""fullscreenenter"",""1"",""3141""
","
","
","""event"",""trial"",""time""
""fullscreenenter"",""1"",""3141""
","
","","","484.5","","","18","13472","5849","&#9789;","elianto","#f73b6a7A"," "," ","1","-10","[1337.2000000476837]","1","0","4","","","","","","","",""
"pit-trial","90","885660","0.0-2.0-17.1-4.1","battery-v0.2","","""event"",""trial"",""time""
""fullscreenenter"",""1"",""3141""
","
","
","""event"",""trial"",""time""
""fullscreenenter"",""1"",""3141""
","
","","","171.09999990463257","","","18","13472","5849","&#9789;","elianto","#f73b6a7A"," "," ","1","0","[1022.4000000953674]","1","0","4","","","","","","","",""
"pit-trial","91","888975","0.0-2.0-17.2-0.2","battery-v0.2","","""event"",""trial"",""time""
""fullscreenenter"",""1"",""3141""
","
","
","""event"",""trial"",""time""
""fullscreenenter"",""1"",""3141""
","
","","","462.7000000476837","","","18","13472","5849","&#9789;","elianto","#f73b6a7A"," "," ","1","0","[1313.5999999046326]","1","0","4","","","","","","","",""
"pit-trial","92","892049","0.0-2.0-17.2-1.2","battery-v0.2","","""event"",""trial"",""time""
""fullscreenenter"",""1"",""3141""
","
","
","""event"",""trial"",""time""
""fullscreenenter"",""1"",""3141""
","
","","","221.70000004768372","","","18","13472","5849","&#9789;","elianto","#f73b6a7A"," "," ","1","0","[1072.2000000476837]","1","0","4","","","","","","","",""
"pit-trial","93","895373","0.0-2.0-17.2-2.2","battery-v0.2","","""event"",""trial"",""time""
""fullscreenenter"",""1"",""3141""
","
","
","""event"",""trial"",""time""
""fullscreenenter"",""1"",""3141""
","
","","","470.7000000476837","","","18","13472","5849","&#9789;","elianto","#f73b6a7A"," "," ","1","0","[1321.1000001430511]","1","0","4","","","","","","","",""
"pit-trial","94","898488","0.0-2.0-17.2-3.2","battery-v0.2","","""event"",""trial"",""time""
""fullscreenenter"",""1"",""3141""
","
","
","""event"",""trial"",""time""
""fullscreenenter"",""1"",""3141""
","
","","","260.90000009536743","","","18","13472","5849","&#9789;","elianto","#f73b6a7A"," "," ","1","-10","[1112.1000001430511]","1","0","4","","","","","","","",""
"pit-trial","95","901571","0.0-2.0-17.2-4.2","battery-v0.2","","""event"",""trial"",""time""
""fullscreenenter"",""1"",""3141""
","
","
","""event"",""trial"",""time""
""fullscreenenter"",""1"",""3141""
","
","","","230.20000004768372","","","18","13472","5849","&#9789;","elianto","#f73b6a7A"," "," ","1","0","[1080.4000000953674]","1","0","4","","","","","","","",""
"pit-trial","96","904680","0.0-2.0-17.3-0.3","battery-v0.2","","""event"",""trial"",""time""
""fullscreenenter"",""1"",""3141""
","
","
","""event"",""trial"",""time""
""fullscreenenter"",""1"",""3141""
","
","","","254.40000009536743","","","18","13472","5849","&#9789;","elianto","#f73b6a7A"," "," ","1","0","[1104.7000000476837]","1","0","4","","","","","","","",""
"pit-trial","97","907642","0.0-2.0-17.3-1.3","battery-v0.2","","""event"",""trial"",""time""
""fullscreenenter"",""1"",""3141""
","
","
","""event"",""trial"",""time""
""fullscreenenter"",""1"",""3141""
","
","","","109","","","18","13472","5849","&#9789;","elianto","#f73b6a7A"," "," ","1","0","[959.7999999523163]","1","0","4","","","","","","","",""
"pit-trial","98","911044","0.0-2.0-17.3-2.3","battery-v0.2","","""event"",""trial"",""time""
""fullscreenenter"",""1"",""3141""
","
","
","""event"",""trial"",""time""
""fullscreenenter"",""1"",""3141""
","
","","","550.0999999046326","","","18","13472","5849","&#9789;","elianto","#f73b6a7A"," "," ","1","0","[1400.5999999046326]","1","0","4","","","","","","","",""
"pit-trial","99","914331","0.0-2.0-17.3-3.3","battery-v0.2","","""event"",""trial"",""time""
""fullscreenenter"",""1"",""3141""
","
","
","""event"",""trial"",""time""
""fullscreenenter"",""1"",""3141""
","
","","","433.5","","","18","13472","5849","&#9789;","elianto","#f73b6a7A"," "," ","1","-10","[1284.0999999046326]","1","0","4","","","","","","","",""
"pit-trial","100","917434","0.0-2.0-17.3-4.3","battery-v0.2","","""event"",""trial"",""time""
""fullscreenenter"",""1"",""3141""
","
","
","""event"",""trial"",""time""
""fullscreenenter"",""1"",""3141""
","
","","","250.90000009536743","","","18","13472","5849","&#9789;","elianto","#f73b6a7A"," "," ","1","0","[1101.5]","1","0","4","","","","","","","",""
"call-function","101","917437","0.0-2.0-18.0","battery-v0.2","","""event"",""trial"",""time""
""fullscreenenter"",""1"",""3141""
","
","
","""event"",""trial"",""time""
""fullscreenenter"",""1"",""3141""
","
","","","","","","","","","","","","","","","","","","","","","","","","","","",""
"pit-instructions","102","1101576","0.0-2.0-19.0","battery-v0.2","","""event"",""trial"",""time""
""fullscreenenter"",""1"",""3141""
","
","
","""event"",""trial"",""time""
""fullscreenenter"",""1"",""3141""
","
","","[{""page_index"":0,""viewing_time"":32332.60000014305},{""page_index"":1,""viewing_time"":13090.399999856949},{""page_index"":2,""viewing_time"":18401.5},{""page_index"":3,""viewing_time"":7702},{""page_index"":4,""viewing_time"":84287.79999995232},{""page_index"":5,""viewing_time"":8456.5},{""page_index"":6,""viewing_time"":9526.300000190735},{""page_index"":7,""viewing_time"":6161.399999856949},{""page_index"":8,""viewing_time"":4178.299999952316}]","184137","","","","","","","","","","","","","","","","","","","","","","","",""
"pit-comprehension","103","1106771","0.0-2.0-20.0-0.0","battery-v0.2","","""event"",""trial"",""time""
""fullscreenenter"",""1"",""3141""
","
","
","""event"",""trial"",""time""
""fullscreenenter"",""1"",""3141""
","
","","","5193.700000047684","[""SPACE""]","0","18","13472","5849","","","","","","","","","","","","","","","","","","",""
"pit-instructions","104","1110055","0.0-2.0-20.0-1.0","battery-v0.2","","""event"",""trial"",""time""
""fullscreenenter"",""1"",""3141""
","
","
","""event"",""trial"",""time""
""fullscreenenter"",""1"",""3141""
","
","","[{""page_index"":0,""viewing_time"":3262.2000000476837}]","3262.4000000953674","","","","","","","","","","","","","","","","","","","","","","","",""
"pit-comprehension","105","1114847","0.0-2.0-21.0-0.0","battery-v0.2","","""event"",""trial"",""time""
""fullscreenenter"",""1"",""3141""
","
","
","""event"",""trial"",""time""
""fullscreenenter"",""1"",""3141""
","
","","","4791.100000143051","[""10""]","0","18","13472","5849","","","","","","","","","","","","","","","","","","",""
"pit-instructions","106","1116818","0.0-2.0-21.0-1.0","battery-v0.2","","""event"",""trial"",""time""
""fullscreenenter"",""1"",""3141""
","
","
","""event"",""trial"",""time""
""fullscreenenter"",""1"",""3141""
","
","","[{""page_index"":0,""viewing_time"":1949.7000000476837}]","1949.7999999523163","","","","","","","","","","","","","","","","","","","","","","","",""
"pit-comprehension","107","1123245","0.0-2.0-22.0-0.0","battery-v0.2","","""event"",""trial"",""time""
""fullscreenenter"",""1"",""3141""
","
","
","""event"",""trial"",""time""
""fullscreenenter"",""1"",""3141""
","
","","","6424.899999856949","[""-10""]","1","18","13472","5849","","","","","","","","","","","","","","","","","","",""
"pit-instructions","108","1125925","0.0-2.0-22.0-1.0","battery-v0.2","","""event"",""trial"",""time""
""fullscreenenter"",""1"",""3141""
","
","
","""event"",""trial"",""time""
""fullscreenenter"",""1"",""3141""
","
","","[{""page_index"":0,""viewing_time"":2660.100000143051}]","2660.300000190735","","","","","","","","","","","","","","","","","","","","","","","",""
"pit-instructions","109","1126666","0.0-2.0-22.0-2.0-0.0","battery-v0.2","","""event"",""trial"",""time""
""fullscreenenter"",""1"",""3141""
","
","
","""event"",""trial"",""time""
""fullscreenenter"",""1"",""3141""
","
","","[{""page_index"":0,""viewing_time"":740.2000000476837}]","740.2999999523163","","","","","","","","","","","","","","","","","","","","","","","",""
"pit-comprehension","110","1133173","0.0-2.0-22.1-0.1","battery-v0.2","","""event"",""trial"",""time""
""fullscreenenter"",""1"",""3141""
","
","
","""event"",""trial"",""time""
""fullscreenenter"",""1"",""3141""
","
","","","6505.400000095367","[""0""]","0","18","13472","5849","","","","","","","","","","","","","","","","","","",""
"pit-instructions","111","1136636","0.0-2.0-22.1-1.1","battery-v0.2","","""event"",""trial"",""time""
""fullscreenenter"",""1"",""3141""
","
","
","""event"",""trial"",""time""
""fullscreenenter"",""1"",""3141""
","
","","[{""page_index"":0,""viewing_time"":3440.7000000476837}]","3440.800000190735","","","","","","","","","","","","","","","","","","","","","","","",""
"pit-comprehension","112","1146084","0.0-2.0-23.0-0.0","battery-v0.2","","""event"",""trial"",""time""
""fullscreenenter"",""1"",""3141""
","
","
","""event"",""trial"",""time""
""fullscreenenter"",""1"",""3141""
","
","","","9446.5","[""True""]","0","18","13472","5849","","","","","","","","","","","","","","","","","","",""
"pit-instructions","113","1147878","0.0-2.0-23.0-1.0","battery-v0.2","","""event"",""trial"",""time""
""fullscreenenter"",""1"",""3141""
","
","
","""event"",""trial"",""time""
""fullscreenenter"",""1"",""3141""
","
","","[{""page_index"":0,""viewing_time"":1772.5}]","1772.7000000476837","","","","","","","","","","","","","","","","","","","","","","","",""
"pit-comprehension","114","1155280","0.0-2.0-24.0-0.0","battery-v0.2","","""event"",""trial"",""time""
""fullscreenenter"",""1"",""3141""
","
","
","""event"",""trial"",""time""
""fullscreenenter"",""1"",""3141""
","
","","","7400.200000047684","[""True""]","0","18","13472","5849","","","","","","","","","","","","","","","","","","",""
"pit-instructions","115","1157141","0.0-2.0-24.0-1.0","battery-v0.2","","""event"",""trial"",""time""
""fullscreenenter"",""1"",""3141""
","
","
","""event"",""trial"",""time""
""fullscreenenter"",""1"",""3141""
","
","","[{""page_index"":0,""viewing_time"":1837.5}]","1837.7000000476837","","","","","","","","","","","","","","","","","","","","","","","",""
"pit-comprehension","116","1163971","0.0-2.0-25.0-0.0","battery-v0.2","","""event"",""trial"",""time""
""fullscreenenter"",""1"",""3141""
","
","
","""event"",""trial"",""time""
""fullscreenenter"",""1"",""3141""
","
","","","6828.599999904633","[""True""]","0","18","13472","5849","","","","","","","","","","","","","","","","","","",""
"pit-instructions","117","1167364","0.0-2.0-25.0-1.0","battery-v0.2","","""event"",""trial"",""time""
""fullscreenenter"",""1"",""3141""
","
","
","""event"",""trial"",""time""
""fullscreenenter"",""1"",""3141""
","
","","[{""page_index"":0,""viewing_time"":3371.0999999046326}]","3371.199999809265","","","","","","","","","","","","","","","","","","","","","","","",""
"pit-comprehension","118","1173134","0.0-2.0-26.0-0.0","battery-v0.2","","""event"",""trial"",""time""
""fullscreenenter"",""1"",""3141""
","
","
","""event"",""trial"",""time""
""fullscreenenter"",""1"",""3141""
","
","","","5768.5","[""False""]","0","18","13472","5849","","","","","","","","","","","","","","","","","","",""
"pit-instructions","119","1175241","0.0-2.0-26.0-1.0","battery-v0.2","","""event"",""trial"",""time""
""fullscreenenter"",""1"",""3141""
","
","
","""event"",""trial"",""time""
""fullscreenenter"",""1"",""3141""
","
","","[{""page_index"":0,""viewing_time"":2084.0999999046326}]","2084.0999999046326","","","","","","","","","","","","","","","","","","","","","","","",""
"pit-instructions","120","1196324","0.0-3.0","battery-v0.2","","""event"",""trial"",""time""
""fullscreenenter"",""1"",""3141""
","
","
","""event"",""trial"",""time""
""fullscreenenter"",""1"",""3141""
","
","","[{""page_index"":0,""viewing_time"":4865.5},{""page_index"":1,""viewing_time"":8629.300000190735},{""page_index"":2,""viewing_time"":7587}]","21081.900000095367","","","","","","","","","","","","","","","","","","","","","","","",""
"pit-trial","121","1200341","0.0-4.0","battery-v0.2","","""event"",""trial"",""time""
""fullscreenenter"",""1"",""3141""
","
","
","""event"",""trial"",""time""
""fullscreenenter"",""1"",""3141""
","
","","","1159.8000001907349","","","18","13472","5849","&#9728;","elianto","#f73b6a7A","-1"," ","0","-10","[2013.5]","1","1","","","13472","1","0","4","lose","no-go","0"
"pit-trial","122","1203815","0.0-5.0","battery-v0.2","","""event"",""trial"",""time""
""fullscreenenter"",""1"",""3141""
","
","
","""event"",""trial"",""time""
""fullscreenenter"",""1"",""3141""
","
","","","610.1000001430511","","","18","13472","5849","&#9733;","elianto","#3366ff99","-1"," ","0","0","[1465.1000001430511]","1","1","","","13472","2","2","2","win","no-go","0"
"pit-trial","123","1207374","0.0-6.0","battery-v0.2","","""event"",""trial"",""time""
""fullscreenenter"",""1"",""3141""
","
","
","""event"",""trial"",""time""
""fullscreenenter"",""1"",""3141""
","
","","","693.7000000476837","","","18","13472","5849","&#9752;","elianto","#f73b6a7A"," "," ","1","0","[1545.3000001907349]","1","1","","","13472","3","3","3","lose","go","0"
"pit-trial","124","1210923","0.0-7.0","battery-v0.2","","""event"",""trial"",""time""
""fullscreenenter"",""1"",""3141""
","
","
","""event"",""trial"",""time""
""fullscreenenter"",""1"",""3141""
","
","","","684.5","","","18","13472","5849","&#9730;","elianto","#3366ff99"," "," ","1","+10","[1537.4000000953674]","1","1","","","13472","4","1","1","win","go","0"
"pit-trial","125","1215798","0.0-8.0","battery-v0.2","","""event"",""trial"",""time""
""fullscreenenter"",""1"",""3141""
","
","
","""event"",""trial"",""time""
""fullscreenenter"",""1"",""3141""
","
","","","-1","","","18","13472","5849","&#9728;","elianto","#f73b6a7A","-1","-1","1","0","[]","0","1","","","13472","5","0","4","lose","no-go","0"
"pit-trial","126","1219475","0.0-9.0","battery-v0.2","","""event"",""trial"",""time""
""fullscreenenter"",""1"",""3141""
","
","
","""event"",""trial"",""time""
""fullscreenenter"",""1"",""3141""
","
","","","807.2000000476837","","","18","13472","5849","&#9730;","elianto","#3366ff99"," "," ","1","0","[1661.2999999523163]","1","1","","","13472","6","1","1","win","go","1"
"pit-trial","127","1222967","0.0-10.0","battery-v0.2","","""event"",""trial"",""time""
""fullscreenenter"",""1"",""3141""
","
","
","""event"",""trial"",""time""
""fullscreenenter"",""1"",""3141""
","
","","","610.9000000953674","","","18","13472","5849","&#9752;","elianto","#f73b6a7A"," "," ","1","0","[1474.7999999523163]","1","1","","","13472","7","3","3","lose","go","0"
"pit-trial","128","1226799","0.0-11.0","battery-v0.2","","""event"",""trial"",""time""
""fullscreenenter"",""1"",""3141""
","
","
","""event"",""trial"",""time""
""fullscreenenter"",""1"",""3141""
","
","","","979.2999999523163","","","18","13472","5849","&#9733;","elianto","#3366ff99","-1"," ","0","0","[1830.5]","1","1","","","13472","8","2","2","win","no-go","0"
"pit-trial","129","1231651","0.0-12.0","battery-v0.2","","""event"",""trial"",""time""
""fullscreenenter"",""1"",""3141""
","
","
","""event"",""trial"",""time""
""fullscreenenter"",""1"",""3141""
","
","","","-1","","","18","13472","5849","&#9728;","elianto","#f73b6a7A","-1","-1","1","0","[]","0","1","","","13472","9","0","4","lose","no-go","0"
"pit-trial","130","1235470","0.0-13.0","battery-v0.2","","""event"",""trial"",""time""
""fullscreenenter"",""1"",""3141""
","
","
","""event"",""trial"",""time""
""fullscreenenter"",""1"",""3141""
","
","","","965.2000000476837","","","18","13472","5849","&#9733;","elianto","#3366ff99","-1"," ","0","0","[1816.5999999046326]","1","1","","","13472","10","2","2","win","no-go","0"
"pit-trial","131","1239071","0.0-14.0","battery-v0.2","","""event"",""trial"",""time""
""fullscreenenter"",""1"",""3141""
","
","
","""event"",""trial"",""time""
""fullscreenenter"",""1"",""3141""
","
","","","747.7999999523163","","","18","13472","5849","&#9730;","elianto","#3366ff99"," "," ","1","+10","[1598.8999998569489]","1","1","","","13472","11","1","1","win","go","0"
"pit-trial","132","1243186","0.0-15.0","battery-v0.2","","""event"",""trial"",""time""
""fullscreenenter"",""1"",""3141""
","
","
","""event"",""trial"",""time""
""fullscreenenter"",""1"",""3141""
","
","","","1261.7000000476837","","","18","13472","5849","&#9752;","elianto","#f73b6a7A"," "," ","1","0","[2112.7000000476837]","1","1","","","13472","12","3","3","lose","go","0"
"pit-trial","133","1246882","0.0-16.0","battery-v0.2","","""event"",""trial"",""time""
""fullscreenenter"",""1"",""3141""
","
","
","""event"",""trial"",""time""
""fullscreenenter"",""1"",""3141""
","
","","","843.3999998569489","","","18","13472","5849","&#9730;","elianto","#3366ff99"," "," ","1","+10","[1694.2000000476837]","1","1","","","13472","13","1","1","win","go","0"
"pit-trial","134","1251736","0.0-17.0","battery-v0.2","","""event"",""trial"",""time""
""fullscreenenter"",""1"",""3141""
","
","
","""event"",""trial"",""time""
""fullscreenenter"",""1"",""3141""
","
","","","-1","","","18","13472","5849","&#9733;","elianto","#3366ff99","-1","-1","1","0","[]","0","1","","","13472","14","2","2","win","no-go","1"
"pit-trial","135","1255793","0.0-18.0","battery-v0.2","","""event"",""trial"",""time""
""fullscreenenter"",""1"",""3141""
","
","
","""event"",""trial"",""time""
""fullscreenenter"",""1"",""3141""
","
","","","1202.7999999523163","","","18","13472","5849","&#9752;","elianto","#f73b6a7A"," "," ","1","0","[2054.5999999046326]","1","1","","","13472","15","3","3","lose","go","0"
"pit-trial","136","1260645","0.0-19.0","battery-v0.2","","""event"",""trial"",""time""
""fullscreenenter"",""1"",""3141""
","
","
","""event"",""trial"",""time""
""fullscreenenter"",""1"",""3141""
","
","","","-1","","","18","13472","5849","&#9728;","elianto","#f73b6a7A","-1","-1","1","0","[]","0","1","","","13472","16","0","4","lose","no-go","0"
"pit-trial","137","1264084","0.0-20.0","battery-v0.2","","""event"",""trial"",""time""
""fullscreenenter"",""1"",""3141""
","
","
","""event"",""trial"",""time""
""fullscreenenter"",""1"",""3141""
","
","","","583.5","","","18","13472","5849","&#9730;","elianto","#3366ff99"," "," ","1","+10","[1434]","1","1","","","13472","17","1","1","win","go","0"
"pit-trial","138","1268938","0.0-21.0","battery-v0.2","","""event"",""trial"",""time""
""fullscreenenter"",""1"",""3141""
","
","
","""event"",""trial"",""time""
""fullscreenenter"",""1"",""3141""
","
","","","-1","","","18","13472","5849","&#9733;","elianto","#3366ff99","-1","-1","1","+10","[]","0","1","","","13472","18","2","2","win","no-go","0"
"pit-trial","139","1273791","0.0-22.0","battery-v0.2","","""event"",""trial"",""time""
""fullscreenenter"",""1"",""3141""
","
","
","""event"",""trial"",""time""
""fullscreenenter"",""1"",""3141""
","
","","","-1","","","18","13472","5849","&#9728;","elianto","#f73b6a7A","-1","-1","1","0","[]","0","1","","","13472","19","0","4","lose","no-go","0"
"pit-trial","140","1277333","0.0-23.0","battery-v0.2","","""event"",""trial"",""time""
""fullscreenenter"",""1"",""3141""
","
","
","""event"",""trial"",""time""
""fullscreenenter"",""1"",""3141""
","
","","","688.2000000476837","","","18","13472","5849","&#9752;","elianto","#f73b6a7A"," "," ","1","-10","[1540]","1","1","","","13472","20","3","3","lose","go","1"
"pit-instructions","141","1312714","0.0-24.0","battery-v0.2","","""event"",""trial"",""time""
""fullscreenenter"",""1"",""3141""
","
","
","""event"",""trial"",""time""
""fullscreenenter"",""1"",""3141""
","
","","[{""page_index"":0,""viewing_time"":14641.800000190735},{""page_index"":1,""viewing_time"":20738.5}]","35380.40000009537","","","","","","","","","","","","","","","","","","","","","","","",""
"pit-trial","142","1316994","0.0-25.0","battery-v0.2","","""event"",""trial"",""time""
""fullscreenenter"",""1"",""3141""
","
","
","""event"",""trial"",""time""
""fullscreenenter"",""1"",""3141""
","
","","","1412.7999999523163","","","18","13472","5849","t","elianto","#f73b6a7A","-1"," ","0","-10","[2277.4000000953674]","1","2","","","13472","21","2","4","lose","no-go","0"
"pit-trial","143","1320847","0.0-26.0","battery-v0.2","","""event"",""trial"",""time""
""fullscreenenter"",""1"",""3141""
","
","
","""event"",""trial"",""time""
""fullscreenenter"",""1"",""3141""
","
","","","987.7000000476837","","","18","13472","5849","b","elianto","#f73b6a7A"," "," ","1","-10","[1850]","1","2","","","13472","22","3","3","lose","go","1"
"pit-trial","144","1324430","0.0-27.0","battery-v0.2","","""event"",""trial"",""time""
""fullscreenenter"",""1"",""3141""
","
","
","""event"",""trial"",""time""
""fullscreenenter"",""1"",""3141""
","
","","","718.0999999046326","","","18","13472","5849","f","elianto","#3366ff99"," "," ","1","+10","[1569.5999999046326]","1","2","","","13472","23","1","1","win","go","0"
"pit-trial","145","1328072","0.0-28.0","battery-v0.2","","""event"",""trial"",""time""
""fullscreenenter"",""1"",""3141""
","
","
","""event"",""trial"",""time""
""fullscreenenter"",""1"",""3141""
","
","","","773.7000000476837","","","18","13472","5849","n","elianto","#f73b6a7A","-1"," ","0","0","[1632.5]","1","2","","","13472","24","0","4","lose","no-go","1"
"pit-trial","146","1331500","0.0-29.0","battery-v0.2","","""event"",""trial"",""time""
""fullscreenenter"",""1"",""3141""
","
","
","""event"",""trial"",""time""
""fullscreenenter"",""1"",""3141""
","
","","","576.4000000953674","","","18","13472","5849","n","elianto","#f73b6a7A","-1"," ","0","-10","[1427.2999999523163]","1","2","","","13472","25","0","4","lose","no-go","0"
"pit-trial","147","1335048","0.0-30.0","battery-v0.2","","""event"",""trial"",""time""
""fullscreenenter"",""1"",""3141""
","
","
","""event"",""trial"",""time""
""fullscreenenter"",""1"",""3141""
","
","","","695.5","","","18","13472","5849","f","elianto","#3366ff99"," "," ","1","+10","[1546.5]","1","2","","","13472","26","1","1","win","go","0"
"pit-trial","148","1338128","0.0-31.0","battery-v0.2","","""event"",""trial"",""time""
""fullscreenenter"",""1"",""3141""
","
","
","""event"",""trial"",""time""
""fullscreenenter"",""1"",""3141""
","
","","","228.10000014305115","","","18","13472","5849","b","elianto","#f73b6a7A"," "," ","1","-10","[1079]","1","2","","","13472","27","3","3","lose","go","1"
"pit-trial","149","1342981","0.0-32.0","battery-v0.2","","""event"",""trial"",""time""
""fullscreenenter"",""1"",""3141""
","
","
","""event"",""trial"",""time""
""fullscreenenter"",""1"",""3141""
","
","","","-1","","","18","13472","5849","t","elianto","#f73b6a7A","-1","-1","1","0","[]","0","2","","","13472","28","2","4","lose","no-go","0"
"pit-trial","150","1346383","0.0-33.0","battery-v0.2","","""event"",""trial"",""time""
""fullscreenenter"",""1"",""3141""
","
","
","""event"",""trial"",""time""
""fullscreenenter"",""1"",""3141""
","
","","","548.7000000476837","","","18","13472","5849","f","elianto","#3366ff99"," "," ","1","+10","[1399.6000001430511]","1","2","","","13472","29","1","1","win","go","0"
"pit-trial","151","1351236","0.0-34.0","battery-v0.2","","""event"",""trial"",""time""
""fullscreenenter"",""1"",""3141""
","
","
","""event"",""trial"",""time""
""fullscreenenter"",""1"",""3141""
","
","","","-1","","","18","13472","5849","n","elianto","#f73b6a7A","-1","-1","1","0","[]","0","2","","","13472","30","0","4","lose","no-go","0"
"pit-trial","152","1356090","0.0-35.0","battery-v0.2","","""event"",""trial"",""time""
""fullscreenenter"",""1"",""3141""
","
","
","""event"",""trial"",""time""
""fullscreenenter"",""1"",""3141""
","
","","","-1","","","18","13472","5849","t","elianto","#f73b6a7A","-1","-1","1","0","[]","0","2","","","13472","31","2","4","lose","no-go","0"
"pit-trial","153","1360943","0.0-36.0","battery-v0.2","","""event"",""trial"",""time""
""fullscreenenter"",""1"",""3141""
","
","
","""event"",""trial"",""time""
""fullscreenenter"",""1"",""3141""
","
","","","-1","","","18","13472","5849","b","elianto","#f73b6a7A"," ","-1","0","-10","[]","0","2","","","13472","32","3","3","lose","go","0"
"pit-trial","154","1365797","0.0-37.0","battery-v0.2","","""event"",""trial"",""time""
""fullscreenenter"",""1"",""3141""
","
","
","""event"",""trial"",""time""
""fullscreenenter"",""1"",""3141""
","
","","","-1","","","18","13472","5849","n","elianto","#f73b6a7A","-1","-1","1","0","[]","0","2","","","13472","33","0","4","lose","no-go","0"
"pit-trial","155","1370661","0.0-38.0","battery-v0.2","","""event"",""trial"",""time""
""fullscreenenter"",""1"",""3141""
","
","
","""event"",""trial"",""time""
""fullscreenenter"",""1"",""3141""
","
","","","-1","","","18","13472","5849","t","elianto","#f73b6a7A","-1","-1","1","0","[]","0","2","","","13472","34","2","4","lose","no-go","0"
"pit-trial","156","1374282","0.0-39.0","battery-v0.2","","""event"",""trial"",""time""
""fullscreenenter"",""1"",""3141""
","
","
","""event"",""trial"",""time""
""fullscreenenter"",""1"",""3141""
","
","","","768.2000000476837","","","18","13472","5849","b","elianto","#f73b6a7A"," "," ","1","0","[1618.2999999523163]","1","2","","","13472","35","3","3","lose","go","0"
"pit-trial","157","1377664","0.0-40.0","battery-v0.2","","""event"",""trial"",""time""
""fullscreenenter"",""1"",""3141""
","
","
","""event"",""trial"",""time""
""fullscreenenter"",""1"",""3141""
","
","","","527.2000000476837","","","18","13472","5849","f","elianto","#3366ff99"," "," ","1","+10","[1378]","1","2","","","13472","36","1","1","win","go","0"
"pit-trial","158","1382519","0.0-41.0","battery-v0.2","","""event"",""trial"",""time""
""fullscreenenter"",""1"",""3141""
","
","
","""event"",""trial"",""time""
""fullscreenenter"",""1"",""3141""
","
","","","-1","","","18","13472","5849","n","elianto","#f73b6a7A","-1","-1","1","0","[]","0","2","","","13472","37","0","4","lose","no-go","0"
"pit-trial","159","1386270","0.0-42.0","battery-v0.2","","""event"",""trial"",""time""
""fullscreenenter"",""1"",""3141""
","
","
","""event"",""trial"",""time""
""fullscreenenter"",""1"",""3141""
","
","","","896.9000000953674","","","18","13472","5849","b","elianto","#f73b6a7A"," "," ","1","0","[1748.1000001430511]","1","2","","","13472","38","3","3","lose","go","0"
"pit-trial","160","1389853","0.0-43.0","battery-v0.2","","""event"",""trial"",""time""
""fullscreenenter"",""1"",""3141""
","
","
","""event"",""trial"",""time""
""fullscreenenter"",""1"",""3141""
","
","","","728.7000000476837","","","18","13472","5849","f","elianto","#3366ff99"," "," ","1","+10","[1579.6000001430511]","1","2","","","13472","39","1","1","win","go","0"
"pit-trial","161","1394706","0.0-44.0","battery-v0.2","","""event"",""trial"",""time""
""fullscreenenter"",""1"",""3141""
","
","
","""event"",""trial"",""time""
""fullscreenenter"",""1"",""3141""
","
","","","-1","","","18","13472","5849","t","elianto","#f73b6a7A","-1","-1","1","0","[]","0","2","","","13472","40","2","4","lose","no-go","0"
"pit-trial","162","1398787","0.0-45.0","battery-v0.2","","""event"",""trial"",""time""
""fullscreenenter"",""1"",""3141""
","
","
","""event"",""trial"",""time""
""fullscreenenter"",""1"",""3141""
","
","","","1225.6999998092651","","","18","13472","5849","b","elianto","#f73b6a7A"," "," ","1","-10","[2077.4000000953674]","1","2","","","13472","41","3","3","lose","go","1"
"pit-trial","163","1403641","0.0-46.0","battery-v0.2","","""event"",""trial"",""time""
""fullscreenenter"",""1"",""3141""
","
","
","""event"",""trial"",""time""
""fullscreenenter"",""1"",""3141""
","
","","","-1","","","18","13472","5849","t","elianto","#f73b6a7A","-1","-1","1","0","[]","0","2","","","13472","42","2","4","lose","no-go","0"
"pit-trial","164","1407172","0.0-47.0","battery-v0.2","","""event"",""trial"",""time""
""fullscreenenter"",""1"",""3141""
","
","
","""event"",""trial"",""time""
""fullscreenenter"",""1"",""3141""
","
","","","678.3999998569489","","","18","13472","5849","f","elianto","#3366ff99"," "," ","1","+10","[1528.5999999046326]","1","2","","","13472","43","1","1","win","go","0"
"pit-trial","165","1412026","0.0-48.0","battery-v0.2","","""event"",""trial"",""time""
""fullscreenenter"",""1"",""3141""
","
","
","""event"",""trial"",""time""
""fullscreenenter"",""1"",""3141""
","
","","","-1","","","18","13472","5849","n","elianto","#f73b6a7A","-1","-1","1","-10","[]","0","2","","","13472","44","0","4","lose","no-go","1"
"pit-trial","166","1415786","0.0-49.0","battery-v0.2","","""event"",""trial"",""time""
""fullscreenenter"",""1"",""3141""
","
","
","""event"",""trial"",""time""
""fullscreenenter"",""1"",""3141""
","
","","","908","","","18","13472","5849","b","elianto","#f73b6a7A"," "," ","1","-10","[1758.5999999046326]","1","2","","","13472","45","3","3","lose","go","1"
"pit-trial","167","1419421","0.0-50.0","battery-v0.2","","""event"",""trial"",""time""
""fullscreenenter"",""1"",""3141""
","
","
","""event"",""trial"",""time""
""fullscreenenter"",""1"",""3141""
","
","","","782.2000000476837","","","18","13472","5849","n","elianto","#f73b6a7A","-1"," ","0","-10","[1632.7000000476837]","1","2","","","13472","46","0","4","lose","no-go","0"
"pit-trial","168","1424273","0.0-51.0","battery-v0.2","","""event"",""trial"",""time""
""fullscreenenter"",""1"",""3141""
","
","
","""event"",""trial"",""time""
""fullscreenenter"",""1"",""3141""
","
","","","-1","","","18","13472","5849","t","elianto","#f73b6a7A","-1","-1","1","0","[]","0","2","","","13472","47","2","4","lose","no-go","0"
"pit-trial","169","1428552","0.0-52.0","battery-v0.2","","""event"",""trial"",""time""
""fullscreenenter"",""1"",""3141""
","
","
","""event"",""trial"",""time""
""fullscreenenter"",""1"",""3141""
","
","","","1424.2999999523163","","","18","13472","5849","c","elianto","#3366ff99","-1"," ","0","0","[2275.100000143051]","1","2","","","13472","48","4","2","win","no-go","0"
"pit-trial","170","1432709","0.0-53.0","battery-v0.2","","""event"",""trial"",""time""
""fullscreenenter"",""1"",""3141""
","
","
","""event"",""trial"",""time""
""fullscreenenter"",""1"",""3141""
","
","","","1305.0999999046326","","","18","13472","5849","b","elianto","#f73b6a7A"," "," ","1","0","[2155.4000000953674]","1","2","","","13472","49","3","3","lose","go","0"
"pit-trial","171","1437561","0.0-54.0","battery-v0.2","","""event"",""trial"",""time""
""fullscreenenter"",""1"",""3141""
","
","
","""event"",""trial"",""time""
""fullscreenenter"",""1"",""3141""
","
","","","-1","","","18","13472","5849","c","elianto","#3366ff99","-1","-1","1","+10","[]","0","2","","","13472","50","4","2","win","no-go","0"
"pit-trial","172","1441150","0.0-55.0","battery-v0.2","","""event"",""trial"",""time""
""fullscreenenter"",""1"",""3141""
","
","
","""event"",""trial"",""time""
""fullscreenenter"",""1"",""3141""
","
","","","735.1000001430511","","","18","13472","5849","f","elianto","#3366ff99"," "," ","1","+10","[1585.7000000476837]","1","2","","","13472","51","1","1","win","go","0"
"pit-trial","173","1446004","0.0-56.0","battery-v0.2","","""event"",""trial"",""time""
""fullscreenenter"",""1"",""3141""
","
","
","""event"",""trial"",""time""
""fullscreenenter"",""1"",""3141""
","
","","","-1","","","18","13472","5849","n","elianto","#f73b6a7A","-1","-1","1","0","[]","0","2","","","13472","52","0","4","lose","no-go","0"
"pit-trial","174","1450868","0.0-57.0","battery-v0.2","","""event"",""trial"",""time""
""fullscreenenter"",""1"",""3141""
","
","
","""event"",""trial"",""time""
""fullscreenenter"",""1"",""3141""
","
","","","-1","","","18","13472","5849","c","elianto","#3366ff99","-1","-1","1","+10","[]","0","2","","","13472","53","4","2","win","no-go","0"
"pit-trial","175","1454436","0.0-58.0","battery-v0.2","","""event"",""trial"",""time""
""fullscreenenter"",""1"",""3141""
","
","
","""event"",""trial"",""time""
""fullscreenenter"",""1"",""3141""
","
","","","713.5","","","18","13472","5849","f","elianto","#3366ff99"," "," ","1","+10","[1563.6000001430511]","1","2","","","13472","54","1","1","win","go","0"
"pit-trial","176","1459288","0.0-59.0","battery-v0.2","","""event"",""trial"",""time""
""fullscreenenter"",""1"",""3141""
","
","
","""event"",""trial"",""time""
""fullscreenenter"",""1"",""3141""
","
","","","-1","","","18","13472","5849","t","elianto","#f73b6a7A","-1","-1","1","0","[]","0","2","","","13472","55","2","4","lose","no-go","0"
"pit-trial","177","1464141","0.0-60.0","battery-v0.2","","""event"",""trial"",""time""
""fullscreenenter"",""1"",""3141""
","
","
","""event"",""trial"",""time""
""fullscreenenter"",""1"",""3141""
","
","","","-1","","","18","13472","5849","n","elianto","#f73b6a7A","-1","-1","1","0","[]","0","2","","","13472","56","0","4","lose","no-go","0"
"pit-trial","178","1468994","0.0-61.0","battery-v0.2","","""event"",""trial"",""time""
""fullscreenenter"",""1"",""3141""
","
","
","""event"",""trial"",""time""
""fullscreenenter"",""1"",""3141""
","
","","","-1","","","18","13472","5849","n","elianto","#f73b6a7A","-1","-1","1","0","[]","0","2","","","13472","57","0","4","lose","no-go","0"
"pit-trial","179","1473859","0.0-62.0","battery-v0.2","","""event"",""trial"",""time""
""fullscreenenter"",""1"",""3141""
","
","
","""event"",""trial"",""time""
""fullscreenenter"",""1"",""3141""
","
","","","-1","","","18","13472","5849","c","elianto","#3366ff99","-1","-1","1","+10","[]","0","2","","","13472","58","4","2","win","no-go","0"
"pit-trial","180","1477366","0.0-63.0","battery-v0.2","","""event"",""trial"",""time""
""fullscreenenter"",""1"",""3141""
","
","
","""event"",""trial"",""time""
""fullscreenenter"",""1"",""3141""
","
","","","655.7000000476837","","","18","13472","5849","f","elianto","#3366ff99"," "," ","1","+10","[1505.6000001430511]","1","2","","","13472","59","1","1","win","go","0"
"pit-trial","181","1480889","0.0-64.0","battery-v0.2","","""event"",""trial"",""time""
""fullscreenenter"",""1"",""3141""
","
","
","""event"",""trial"",""time""
""fullscreenenter"",""1"",""3141""
","
","","","669.8000001907349","","","18","13472","5849","b","elianto","#f73b6a7A"," "," ","1","0","[1520.9000000953674]","1","2","","","13472","60","3","3","lose","go","0"
"pit-trial","182","1485742","0.0-65.0","battery-v0.2","","""event"",""trial"",""time""
""fullscreenenter"",""1"",""3141""
","
","
","""event"",""trial"",""time""
""fullscreenenter"",""1"",""3141""
","
","","","-1","","","18","13472","5849","t","elianto","#f73b6a7A","-1","-1","1","-10","[]","0","2","","","13472","61","2","4","lose","no-go","1"
"pit-trial","183","1489595","0.0-66.0","battery-v0.2","","""event"",""trial"",""time""
""fullscreenenter"",""1"",""3141""
","
","
","""event"",""trial"",""time""
""fullscreenenter"",""1"",""3141""
","
","","","1000.9000000953674","","","18","13472","5849","b","elianto","#f73b6a7A"," "," ","1","0","[1852.1000001430511]","1","2","","","13472","62","3","3","lose","go","0"
"pit-trial","184","1492937","0.0-67.0","battery-v0.2","","""event"",""trial"",""time""
""fullscreenenter"",""1"",""3141""
","
","
","""event"",""trial"",""time""
""fullscreenenter"",""1"",""3141""
","
","","","489.5","","","18","13472","5849","f","elianto","#3366ff99"," "," ","1","+10","[1340]","1","2","","","13472","63","1","1","win","go","0"
"pit-trial","185","1497788","0.0-68.0","battery-v0.2","","""event"",""trial"",""time""
""fullscreenenter"",""1"",""3141""
","
","
","""event"",""trial"",""time""
""fullscreenenter"",""1"",""3141""
","
","","","-1","","","18","13472","5849","c","elianto","#3366ff99","-1","-1","1","+10","[]","0","2","","","13472","64","4","2","win","no-go","0"
"pit-trial","186","1502641","0.0-69.0","battery-v0.2","","""event"",""trial"",""time""
""fullscreenenter"",""1"",""3141""
","
","
","""event"",""trial"",""time""
""fullscreenenter"",""1"",""3141""
","
","","","-1","","","18","13472","5849","t","elianto","#f73b6a7A","-1","-1","1","0","[]","0","2","","","13472","65","2","4","lose","no-go","0"
"pit-trial","187","1507493","0.0-70.0","battery-v0.2","","""event"",""trial"",""time""
""fullscreenenter"",""1"",""3141""
","
","
","""event"",""trial"",""time""
""fullscreenenter"",""1"",""3141""
","
","","","-1","","","18","13472","5849","c","elianto","#3366ff99","-1","-1","1","+10","[]","0","2","","","13472","66","4","2","win","no-go","0"
"pit-trial","188","1510991","0.0-71.0","battery-v0.2","","""event"",""trial"",""time""
""fullscreenenter"",""1"",""3141""
","
","
","""event"",""trial"",""time""
""fullscreenenter"",""1"",""3141""
","
","","","644.4000000953674","","","18","13472","5849","f","elianto","#3366ff99"," "," ","1","0","[1495.5]","1","2","","","13472","67","1","1","win","go","1"
"pit-trial","189","1514639","0.0-72.0","battery-v0.2","","""event"",""trial"",""time""
""fullscreenenter"",""1"",""3141""
","
","
","""event"",""trial"",""time""
""fullscreenenter"",""1"",""3141""
","
","","","797.2000000476837","","","18","13472","5849","b","elianto","#f73b6a7A"," "," ","1","0","[1647.2000000476837]","1","2","","","13472","68","3","3","lose","go","0"
"pit-trial","190","1518640","0.0-73.0","battery-v0.2","","""event"",""trial"",""time""
""fullscreenenter"",""1"",""3141""
","
","
","""event"",""trial"",""time""
""fullscreenenter"",""1"",""3141""
","
","","","1148.7000000476837","","","18","13472","5849","z","elianto","#3366ff99"," "," ","1","+10","[1998.9000000953674]","1","2","","","13472","69","5","1","win","go","0"
"pit-trial","191","1523494","0.0-74.0","battery-v0.2","","""event"",""trial"",""time""
""fullscreenenter"",""1"",""3141""
","
","
","""event"",""trial"",""time""
""fullscreenenter"",""1"",""3141""
","
","","","-1","","","18","13472","5849","c","elianto","#3366ff99","-1","-1","1","+10","[]","0","2","","","13472","70","4","2","win","no-go","0"
"pit-trial","192","1527077","0.0-75.0","battery-v0.2","","""event"",""trial"",""time""
""fullscreenenter"",""1"",""3141""
","
","
","""event"",""trial"",""time""
""fullscreenenter"",""1"",""3141""
","
","","","730.7000000476837","","","18","13472","5849","f","elianto","#3366ff99"," "," ","1","+10","[1581.6000001430511]","1","2","","","13472","71","1","1","win","go","0"
"pit-trial","193","1530623","0.0-76.0","battery-v0.2","","""event"",""trial"",""time""
""fullscreenenter"",""1"",""3141""
","
","
","""event"",""trial"",""time""
""fullscreenenter"",""1"",""3141""
","
","","","694","","","18","13472","5849","b","elianto","#f73b6a7A"," "," ","1","0","[1544.4000000953674]","1","2","","","13472","72","3","3","lose","go","0"
"pit-trial","194","1535474","0.0-77.0","battery-v0.2","","""event"",""trial"",""time""
""fullscreenenter"",""1"",""3141""
","
","
","""event"",""trial"",""time""
""fullscreenenter"",""1"",""3141""
","
","","","-1","","","18","13472","5849","c","elianto","#3366ff99","-1","-1","1","+10","[]","0","2","","","13472","73","4","2","win","no-go","0"
"pit-trial","195","1539272","0.0-78.0","battery-v0.2","","""event"",""trial"",""time""
""fullscreenenter"",""1"",""3141""
","
","
","""event"",""trial"",""time""
""fullscreenenter"",""1"",""3141""
","
","","","942.5999999046326","","","18","13472","5849","b","elianto","#f73b6a7A"," "," ","1","0","[1794.4000000953674]","1","2","","","13472","74","3","3","lose","go","0"
"pit-trial","196","1544118","0.0-79.0","battery-v0.2","","""event"",""trial"",""time""
""fullscreenenter"",""1"",""3141""
","
","
","""event"",""trial"",""time""
""fullscreenenter"",""1"",""3141""
","
","","","1992.7000000476837","","","18","13472","5849","z","elianto","#3366ff99"," "," ","1","+10","[2842.9000000953674]","1","2","","","13472","75","5","1","win","go","0"
"pit-trial","197","1547593","0.0-80.0","battery-v0.2","","""event"",""trial"",""time""
""fullscreenenter"",""1"",""3141""
","
","
","""event"",""trial"",""time""
""fullscreenenter"",""1"",""3141""
","
","","","621.4000000953674","","","18","13472","5849","f","elianto","#3366ff99"," "," ","1","+10","[1472]","1","2","","","13472","76","1","1","win","go","0"
"pit-trial","198","1552445","0.0-81.0","battery-v0.2","","""event"",""trial"",""time""
""fullscreenenter"",""1"",""3141""
","
","
","""event"",""trial"",""time""
""fullscreenenter"",""1"",""3141""
","
","","","-1","","","18","13472","5849","c","elianto","#3366ff99","-1","-1","1","+10","[]","0","2","","","13472","77","4","2","win","no-go","0"
"pit-trial","199","1557300","0.0-82.0","battery-v0.2","","""event"",""trial"",""time""
""fullscreenenter"",""1"",""3141""
","
","
","""event"",""trial"",""time""
""fullscreenenter"",""1"",""3141""
","
","","","-1","","","18","13472","5849","h","elianto","#f73b6a7A","-1","-1","1","0","[]","0","2","","","13472","78","6","4","lose","no-go","0"
"pit-trial","200","1561288","0.0-83.0","battery-v0.2","","""event"",""trial"",""time""
""fullscreenenter"",""1"",""3141""
","
","
","""event"",""trial"",""time""
""fullscreenenter"",""1"",""3141""
","
","","","1133.6000001430511","","","18","13472","5849","z","elianto","#3366ff99"," "," ","1","+10","[1984.2000000476837]","1","2","","","13472","79","5","1","win","go","0"
"pit-trial","201","1565082","0.0-84.0","battery-v0.2","","""event"",""trial"",""time""
""fullscreenenter"",""1"",""3141""
","
","
","""event"",""trial"",""time""
""fullscreenenter"",""1"",""3141""
","
","","","942.7000000476837","","","18","13472","5849","b","elianto","#f73b6a7A"," "," ","1","0","[1793.4000000953674]","1","2","","","13472","80","3","3","lose","go","0"
"pit-trial","202","1569939","0.0-85.0","battery-v0.2","","""event"",""trial"",""time""
""fullscreenenter"",""1"",""3141""
","
","
","""event"",""trial"",""time""
""fullscreenenter"",""1"",""3141""
","
","","","-1","","","18","13472","5849","h","elianto","#f73b6a7A","-1","-1","1","-10","[]","0","2","","","13472","81","6","4","lose","no-go","1"
"pit-trial","203","1574791","0.0-86.0","battery-v0.2","","""event"",""trial"",""time""
""fullscreenenter"",""1"",""3141""
","
","
","""event"",""trial"",""time""
""fullscreenenter"",""1"",""3141""
","
","","","-1","","","18","13472","5849","c","elianto","#3366ff99","-1","-1","1","0","[]","0","2","","","13472","82","4","2","win","no-go","1"
"pit-trial","204","1578476","0.0-87.0","battery-v0.2","","""event"",""trial"",""time""
""fullscreenenter"",""1"",""3141""
","
","
","""event"",""trial"",""time""
""fullscreenenter"",""1"",""3141""
","
","","","832.0999999046326","","","18","13472","5849","z","elianto","#3366ff99"," "," ","1","0","[1683.0999999046326]","1","2","","","13472","83","5","1","win","go","1"
"pit-trial","205","1582582","0.0-88.0","battery-v0.2","","""event"",""trial"",""time""
""fullscreenenter"",""1"",""3141""
","
","
","""event"",""trial"",""time""
""fullscreenenter"",""1"",""3141""
","
","","","1250.8000001907349","","","18","13472","5849","y","elianto","#f73b6a7A"," "," ","1","0","[2102.300000190735]","1","2","","","13472","84","7","3","lose","go","0"
"pit-trial","206","1586213","0.0-89.0","battery-v0.2","","""event"",""trial"",""time""
""fullscreenenter"",""1"",""3141""
","
","
","""event"",""trial"",""time""
""fullscreenenter"",""1"",""3141""
","
","","","780.3000001907349","","","18","13472","5849","h","elianto","#f73b6a7A","-1"," ","0","-10","[1630.7000000476837]","1","2","","","13472","85","6","4","lose","no-go","0"
"pit-trial","207","1591068","0.0-90.0","battery-v0.2","","""event"",""trial"",""time""
""fullscreenenter"",""1"",""3141""
","
","
","""event"",""trial"",""time""
""fullscreenenter"",""1"",""3141""
","
","","","-1","","","18","13472","5849","y","elianto","#f73b6a7A"," ","-1","0","-10","[]","0","2","","","13472","86","7","3","lose","go","0"
"pit-trial","208","1594784","0.0-91.0","battery-v0.2","","""event"",""trial"",""time""
""fullscreenenter"",""1"",""3141""
","
","
","""event"",""trial"",""time""
""fullscreenenter"",""1"",""3141""
","
","","","861.5","","","18","13472","5849","z","elianto","#3366ff99"," "," ","1","+10","[1712.5999999046326]","1","2","","","13472","87","5","1","win","go","0"
"pit-trial","209","1599637","0.0-92.0","battery-v0.2","","""event"",""trial"",""time""
""fullscreenenter"",""1"",""3141""
","
","
","""event"",""trial"",""time""
""fullscreenenter"",""1"",""3141""
","
","","","-1","","","18","13472","5849","c","elianto","#3366ff99","-1","-1","1","+10","[]","0","2","","","13472","88","4","2","win","no-go","0"
"pit-trial","210","1604488","0.0-93.0","battery-v0.2","","""event"",""trial"",""time""
""fullscreenenter"",""1"",""3141""
","
","
","""event"",""trial"",""time""
""fullscreenenter"",""1"",""3141""
","
","","","-1","","","18","13472","5849","c","elianto","#3366ff99","-1","-1","1","0","[]","0","2","","","13472","89","4","2","win","no-go","1"
"pit-trial","211","1609342","0.0-94.0","battery-v0.2","","""event"",""trial"",""time""
""fullscreenenter"",""1"",""3141""
","
","
","""event"",""trial"",""time""
""fullscreenenter"",""1"",""3141""
","
","","","-1","","","18","13472","5849","h","elianto","#f73b6a7A","-1","-1","1","0","[]","0","2","","","13472","90","6","4","lose","no-go","0"
"pit-trial","212","1614196","0.0-95.0","battery-v0.2","","""event"",""trial"",""time""
""fullscreenenter"",""1"",""3141""
","
","
","""event"",""trial"",""time""
""fullscreenenter"",""1"",""3141""
","
","","","-1","","","18","13472","5849","y","elianto","#f73b6a7A"," ","-1","0","-10","[]","0","2","","","13472","91","7","3","lose","go","0"
"pit-trial","213","1618333","0.0-96.0","battery-v0.2","","""event"",""trial"",""time""
""fullscreenenter"",""1"",""3141""
","
","
","""event"",""trial"",""time""
""fullscreenenter"",""1"",""3141""
","
","","","1284.6999998092651","","","18","13472","5849","z","elianto","#3366ff99"," "," ","1","+10","[2135.5]","1","2","","","13472","92","5","1","win","go","0"
"pit-trial","214","1622278","0.0-97.0","battery-v0.2","","""event"",""trial"",""time""
""fullscreenenter"",""1"",""3141""
","
","
","""event"",""trial"",""time""
""fullscreenenter"",""1"",""3141""
","
","","","1091","","","18","13472","5849","y","elianto","#f73b6a7A"," "," ","1","0","[1942.6999998092651]","1","2","","","13472","93","7","3","lose","go","0"
"pit-trial","215","1626840","0.0-98.0","battery-v0.2","","""event"",""trial"",""time""
""fullscreenenter"",""1"",""3141""
","
","
","""event"",""trial"",""time""
""fullscreenenter"",""1"",""3141""
","
","","","1708.2999999523163","","","18","13472","5849","r","elianto","#3366ff99","-1"," ","0","0","[2559.199999809265]","1","2","","","13472","94","8","2","win","no-go","0"
"pit-trial","216","1630727","0.0-99.0","battery-v0.2","","""event"",""trial"",""time""
""fullscreenenter"",""1"",""3141""
","
","
","""event"",""trial"",""time""
""fullscreenenter"",""1"",""3141""
","
","","","1032.6000001430511","","","18","13472","5849","z","elianto","#3366ff99"," "," ","1","0","[1883.5]","1","2","","","13472","95","5","1","win","go","1"
"pit-trial","217","1634935","0.0-100.0","battery-v0.2","","""event"",""trial"",""time""
""fullscreenenter"",""1"",""3141""
","
","
","""event"",""trial"",""time""
""fullscreenenter"",""1"",""3141""
","
","","","1354.2000000476837","","","18","13472","5849","h","elianto","#f73b6a7A","-1"," ","0","-10","[2204.7999999523163]","1","2","","","13472","96","6","4","lose","no-go","0"
"pit-trial","218","1638729","0.0-101.0","battery-v0.2","","""event"",""trial"",""time""
""fullscreenenter"",""1"",""3141""
","
","
","""event"",""trial"",""time""
""fullscreenenter"",""1"",""3141""
","
","","","940.2000000476837","","","18","13472","5849","r","elianto","#3366ff99","-1"," ","0","0","[1791.1000001430511]","1","2","","","13472","97","8","2","win","no-go","0"
"pit-trial","219","1643581","0.0-102.0","battery-v0.2","","""event"",""trial"",""time""
""fullscreenenter"",""1"",""3141""
","
","
","""event"",""trial"",""time""
""fullscreenenter"",""1"",""3141""
","
","","","-1","","","18","13472","5849","h","elianto","#f73b6a7A","-1","-1","1","0","[]","0","2","","","13472","98","6","4","lose","no-go","0"
"pit-trial","220","1647562","0.0-103.0","battery-v0.2","","""event"",""trial"",""time""
""fullscreenenter"",""1"",""3141""
","
","
","""event"",""trial"",""time""
""fullscreenenter"",""1"",""3141""
","
","","","1128.5","","","18","13472","5849","z","elianto","#3366ff99"," "," ","1","+10","[1979.5]","1","2","","","13472","99","5","1","win","go","0"
"pit-trial","221","1651871","0.0-104.0","battery-v0.2","","""event"",""trial"",""time""
""fullscreenenter"",""1"",""3141""
","
","
","""event"",""trial"",""time""
""fullscreenenter"",""1"",""3141""
","
","","","1457.0999999046326","","","18","13472","5849","y","elianto","#f73b6a7A"," "," ","1","-10","[2307.899999856949]","1","2","","","13472","100","7","3","lose","go","1"
"pit-trial","222","1655532","0.0-105.0","battery-v0.2","","""event"",""trial"",""time""
""fullscreenenter"",""1"",""3141""
","
","
","""event"",""trial"",""time""
""fullscreenenter"",""1"",""3141""
","
","","","807.7999999523163","","","18","13472","5849","m","elianto","#3366ff99","-1"," ","0","0","[1658.8999998569489]","1","2","","","13472","101","9","2","win","no-go","0"
"pit-trial","223","1659440","0.0-106.0","battery-v0.2","","""event"",""trial"",""time""
""fullscreenenter"",""1"",""3141""
","
","
","""event"",""trial"",""time""
""fullscreenenter"",""1"",""3141""
","
","","","1052.5999999046326","","","18","13472","5849","z","elianto","#3366ff99"," "," ","1","+10","[1904.2000000476837]","1","2","","","13472","102","5","1","win","go","0"
"pit-trial","224","1664294","0.0-107.0","battery-v0.2","","""event"",""trial"",""time""
""fullscreenenter"",""1"",""3141""
","
","
","""event"",""trial"",""time""
""fullscreenenter"",""1"",""3141""
","
","","","-1","","","18","13472","5849","r","elianto","#3366ff99","-1","-1","1","+10","[]","0","2","","","13472","103","8","2","win","no-go","0"
"pit-trial","225","1669146","0.0-108.0","battery-v0.2","","""event"",""trial"",""time""
""fullscreenenter"",""1"",""3141""
","
","
","""event"",""trial"",""time""
""fullscreenenter"",""1"",""3141""
","
","","","-1","","","18","13472","5849","h","elianto","#f73b6a7A","-1","-1","1","0","[]","0","2","","","13472","104","6","4","lose","no-go","0"
"pit-trial","226","1672747","0.0-109.0","battery-v0.2","","""event"",""trial"",""time""
""fullscreenenter"",""1"",""3141""
","
","
","""event"",""trial"",""time""
""fullscreenenter"",""1"",""3141""
","
","","","747.1000001430511","","","18","13472","5849","z","elianto","#3366ff99"," "," ","1","+10","[1597.7999999523163]","1","2","","","13472","105","5","1","win","go","0"
"pit-trial","227","1677600","0.0-110.0","battery-v0.2","","""event"",""trial"",""time""
""fullscreenenter"",""1"",""3141""
","
","
","""event"",""trial"",""time""
""fullscreenenter"",""1"",""3141""
","
","","","-1","","","18","13472","5849","m","elianto","#3366ff99","-1","-1","1","+10","[]","0","2","","","13472","106","9","2","win","no-go","0"
"pit-trial","228","1682454","0.0-111.0","battery-v0.2","","""event"",""trial"",""time""
""fullscreenenter"",""1"",""3141""
","
","
","""event"",""trial"",""time""
""fullscreenenter"",""1"",""3141""
","
","","","-1","","","18","13472","5849","h","elianto","#f73b6a7A","-1","-1","1","0","[]","0","2","","","13472","107","6","4","lose","no-go","0"
"pit-trial","229","1687308","0.0-112.0","battery-v0.2","","""event"",""trial"",""time""
""fullscreenenter"",""1"",""3141""
","
","
","""event"",""trial"",""time""
""fullscreenenter"",""1"",""3141""
","
","","","-1","","","18","13472","5849","r","elianto","#3366ff99","-1","-1","1","+10","[]","0","2","","","13472","108","8","2","win","no-go","0"
"pit-trial","230","1692161","0.0-113.0","battery-v0.2","","""event"",""trial"",""time""
""fullscreenenter"",""1"",""3141""
","
","
","""event"",""trial"",""time""
""fullscreenenter"",""1"",""3141""
","
","","","-1","","","18","13472","5849","m","elianto","#3366ff99","-1","-1","1","0","[]","0","2","","","13472","109","9","2","win","no-go","1"
"pit-trial","231","1697014","0.0-114.0","battery-v0.2","","""event"",""trial"",""time""
""fullscreenenter"",""1"",""3141""
","
","
","""event"",""trial"",""time""
""fullscreenenter"",""1"",""3141""
","
","","","-1","","","18","13472","5849","r","elianto","#3366ff99","-1","-1","1","+10","[]","0","2","","","13472","110","8","2","win","no-go","0"
"pit-trial","232","1700491","0.0-115.0","battery-v0.2","","""event"",""trial"",""time""
""fullscreenenter"",""1"",""3141""
","
","
","""event"",""trial"",""time""
""fullscreenenter"",""1"",""3141""
","
","","","622.7999999523163","","","18","13472","5849","z","elianto","#3366ff99"," "," ","1","+10","[1473.1000001430511]","1","2","","","13472","111","5","1","win","go","0"
"pit-trial","233","1705344","0.0-116.0","battery-v0.2","","""event"",""trial"",""time""
""fullscreenenter"",""1"",""3141""
","
","
","""event"",""trial"",""time""
""fullscreenenter"",""1"",""3141""
","
","","","-1","","","18","13472","5849","h","elianto","#f73b6a7A","-1","-1","1","-10","[]","0","2","","","13472","112","6","4","lose","no-go","1"
"pit-trial","234","1710007","0.0-117.0","battery-v0.2","","""event"",""trial"",""time""
""fullscreenenter"",""1"",""3141""
","
","
","""event"",""trial"",""time""
""fullscreenenter"",""1"",""3141""
","
","","","1809.3999998569489","","","18","13472","5849","y","elianto","#f73b6a7A"," "," ","1","0","[2661.399999856949]","1","2","","","13472","113","7","3","lose","go","0"
"pit-trial","235","1714861","0.0-118.0","battery-v0.2","","""event"",""trial"",""time""
""fullscreenenter"",""1"",""3141""
","
","
","""event"",""trial"",""time""
""fullscreenenter"",""1"",""3141""
","
","","","-1","","","18","13472","5849","m","elianto","#3366ff99","-1","-1","1","+10","[]","0","2","","","13472","114","9","2","win","no-go","0"
"pit-trial","236","1718624","0.0-119.0","battery-v0.2","","""event"",""trial"",""time""
""fullscreenenter"",""1"",""3141""
","
","
","""event"",""trial"",""time""
""fullscreenenter"",""1"",""3141""
","
","","","909.1000001430511","","","18","13472","5849","z","elianto","#3366ff99"," "," ","1","+10","[1760]","1","2","","","13472","115","5","1","win","go","0"
"pit-trial","237","1723477","0.0-120.0","battery-v0.2","","""event"",""trial"",""time""
""fullscreenenter"",""1"",""3141""
","
","
","""event"",""trial"",""time""
""fullscreenenter"",""1"",""3141""
","
","","","-1","","","18","13472","5849","r","elianto","#3366ff99","-1","-1","1","+10","[]","0","2","","","13472","116","8","2","win","no-go","0"
"pit-trial","238","1727118","0.0-121.0","battery-v0.2","","""event"",""trial"",""time""
""fullscreenenter"",""1"",""3141""
","
","
","""event"",""trial"",""time""
""fullscreenenter"",""1"",""3141""
","
","","","789.7000000476837","","","18","13472","5849","z","elianto","#3366ff99"," "," ","1","+10","[1639.9000000953674]","1","2","","","13472","117","5","1","win","go","0"
"pit-trial","239","1731970","0.0-122.0","battery-v0.2","","""event"",""trial"",""time""
""fullscreenenter"",""1"",""3141""
","
","
","""event"",""trial"",""time""
""fullscreenenter"",""1"",""3141""
","
","","","-1","","","18","13472","5849","r","elianto","#3366ff99","-1","-1","1","+10","[]","0","2","","","13472","118","8","2","win","no-go","0"
"pit-trial","240","1736822","0.0-123.0","battery-v0.2","","""event"",""trial"",""time""
""fullscreenenter"",""1"",""3141""
","
","
","""event"",""trial"",""time""
""fullscreenenter"",""1"",""3141""
","
","","","-1","","","18","13472","5849","m","elianto","#3366ff99","-1","-1","1","+10","[]","0","2","","","13472","119","9","2","win","no-go","0"
"pit-trial","241","1741674","0.0-124.0","battery-v0.2","","""event"",""trial"",""time""
""fullscreenenter"",""1"",""3141""
","
","
","""event"",""trial"",""time""
""fullscreenenter"",""1"",""3141""
","
","","","-1","","","18","13472","5849","h","elianto","#f73b6a7A","-1","-1","1","0","[]","0","2","","","13472","120","6","4","lose","no-go","0"
"pit-trial","242","1745224","0.0-125.0","battery-v0.2","","""event"",""trial"",""time""
""fullscreenenter"",""1"",""3141""
","
","
","""event"",""trial"",""time""
""fullscreenenter"",""1"",""3141""
","
","","","698.5","","","18","13472","5849","y","elianto","#f73b6a7A"," "," ","1","0","[1549.2000000476837]","1","2","","","13472","121","7","3","lose","go","0"
"pit-trial","243","1748875","0.0-126.0","battery-v0.2","","""event"",""trial"",""time""
""fullscreenenter"",""1"",""3141""
","
","
","""event"",""trial"",""time""
""fullscreenenter"",""1"",""3141""
","
","","","796.7999999523163","","","18","13472","5849","z","elianto","#3366ff99"," "," ","1","+10","[1648.1999998092651]","1","2","","","13472","122","5","1","win","go","0"
"pit-trial","244","1753728","0.0-127.0","battery-v0.2","","""event"",""trial"",""time""
""fullscreenenter"",""1"",""3141""
","
","
","""event"",""trial"",""time""
""fullscreenenter"",""1"",""3141""
","
","","","-1","","","18","13472","5849","r","elianto","#3366ff99","-1","-1","1","0","[]","0","2","","","13472","123","8","2","win","no-go","1"
"pit-trial","245","1758580","0.0-128.0","battery-v0.2","","""event"",""trial"",""time""
""fullscreenenter"",""1"",""3141""
","
","
","""event"",""trial"",""time""
""fullscreenenter"",""1"",""3141""
","
","","","-1","","","18","13472","5849","m","elianto","#3366ff99","-1","-1","1","+10","[]","0","2","","","13472","124","9","2","win","no-go","0"
"pit-trial","246","1763431","0.0-129.0","battery-v0.2","","""event"",""trial"",""time""
""fullscreenenter"",""1"",""3141""
","
","
","""event"",""trial"",""time""
""fullscreenenter"",""1"",""3141""
","
","","","-1","","","18","13472","5849","r","elianto","#3366ff99","-1","-1","1","0","[]","0","2","","","13472","125","8","2","win","no-go","1"
"pit-trial","247","1768283","0.0-130.0","battery-v0.2","","""event"",""trial"",""time""
""fullscreenenter"",""1"",""3141""
","
","
","""event"",""trial"",""time""
""fullscreenenter"",""1"",""3141""
","
","","","-1","","","18","13472","5849","m","elianto","#3366ff99","-1","-1","1","+10","[]","0","2","","","13472","126","9","2","win","no-go","0"
"pit-trial","248","1771846","0.0-131.0","battery-v0.2","","""event"",""trial"",""time""
""fullscreenenter"",""1"",""3141""
","
","
","""event"",""trial"",""time""
""fullscreenenter"",""1"",""3141""
","
","","","710.8999998569489","","","18","13472","5849","y","elianto","#f73b6a7A"," "," ","1","0","[1561.5999999046326]","1","2","","","13472","127","7","3","lose","go","0"
"pit-trial","249","1776700","0.0-132.0","battery-v0.2","","""event"",""trial"",""time""
""fullscreenenter"",""1"",""3141""
","
","
","""event"",""trial"",""time""
""fullscreenenter"",""1"",""3141""
","
","","","-1","","","18","13472","5849","h","elianto","#f73b6a7A","-1","-1","1","0","[]","0","2","","","13472","128","6","4","lose","no-go","0"
"pit-trial","250","1780224","0.0-133.0","battery-v0.2","","""event"",""trial"",""time""
""fullscreenenter"",""1"",""3141""
","
","
","""event"",""trial"",""time""
""fullscreenenter"",""1"",""3141""
","
","","","671.0999999046326","","","18","13472","5849","y","elianto","#f73b6a7A"," "," ","1","0","[1522.0999999046326]","1","2","","","13472","129","7","3","lose","go","0"
"pit-trial","251","1785076","0.0-134.0","battery-v0.2","","""event"",""trial"",""time""
""fullscreenenter"",""1"",""3141""
","
","
","""event"",""trial"",""time""
""fullscreenenter"",""1"",""3141""
","
","","","-1","","","18","13472","5849","h","elianto","#f73b6a7A","-1","-1","1","0","[]","0","2","","","13472","130","6","4","lose","no-go","0"
"pit-trial","252","1789931","0.0-135.0","battery-v0.2","","""event"",""trial"",""time""
""fullscreenenter"",""1"",""3141""
","
","
","""event"",""trial"",""time""
""fullscreenenter"",""1"",""3141""
","
","","","-1","","","18","13472","5849","r","elianto","#3366ff99","-1","-1","1","+10","[]","0","2","","","13472","131","8","2","win","no-go","0"
"pit-trial","253","1794786","0.0-136.0","battery-v0.2","","""event"",""trial"",""time""
""fullscreenenter"",""1"",""3141""
","
","
","""event"",""trial"",""time""
""fullscreenenter"",""1"",""3141""
","
","","","-1","","","18","13472","5849","m","elianto","#3366ff99","-1","-1","1","+10","[]","0","2","","","13472","132","9","2","win","no-go","0"
"pit-trial","254","1799639","0.0-137.0","battery-v0.2","","""event"",""trial"",""time""
""fullscreenenter"",""1"",""3141""
","
","
","""event"",""trial"",""time""
""fullscreenenter"",""1"",""3141""
","
","","","-1","","","18","13472","5849","h","elianto","#f73b6a7A","-1","-1","1","0","[]","0","2","","","13472","133","6","4","lose","no-go","0"
"pit-trial","255","1803056","0.0-138.0","battery-v0.2","","""event"",""trial"",""time""
""fullscreenenter"",""1"",""3141""
","
","
","""event"",""trial"",""time""
""fullscreenenter"",""1"",""3141""
","
","","","564.9000000953674","","","18","13472","5849","y","elianto","#f73b6a7A"," "," ","1","-10","[1415.5]","1","2","","","13472","134","7","3","lose","go","1"
"pit-trial","256","1807909","0.0-139.0","battery-v0.2","","""event"",""trial"",""time""
""fullscreenenter"",""1"",""3141""
","
","
","""event"",""trial"",""time""
""fullscreenenter"",""1"",""3141""
","
","","","-1","","","18","13472","5849","r","elianto","#3366ff99","-1","-1","1","+10","[]","0","2","","","13472","135","8","2","win","no-go","0"
"pit-trial","257","1812761","0.0-140.0","battery-v0.2","","""event"",""trial"",""time""
""fullscreenenter"",""1"",""3141""
","
","
","""event"",""trial"",""time""
""fullscreenenter"",""1"",""3141""
","
","","","-1","","","18","13472","5849","m","elianto","#3366ff99","-1","-1","1","+10","[]","0","2","","","13472","136","9","2","win","no-go","0"
"pit-trial","258","1817613","0.0-141.0","battery-v0.2","","""event"",""trial"",""time""
""fullscreenenter"",""1"",""3141""
","
","
","""event"",""trial"",""time""
""fullscreenenter"",""1"",""3141""
","
","","","-1","","","18","13472","5849","m","elianto","#3366ff99","-1","-1","1","+10","[]","0","2","","","13472","137","9","2","win","no-go","0"
"pit-trial","259","1822466","0.0-142.0","battery-v0.2","","""event"",""trial"",""time""
""fullscreenenter"",""1"",""3141""
","
","
","""event"",""trial"",""time""
""fullscreenenter"",""1"",""3141""
","
","","","-1","","","18","13472","5849","h","elianto","#f73b6a7A","-1","-1","1","-10","[]","0","2","","","13472","138","6","4","lose","no-go","1"
"pit-trial","260","1827320","0.0-143.0","battery-v0.2","","""event"",""trial"",""time""
""fullscreenenter"",""1"",""3141""
","
","
","""event"",""trial"",""time""
""fullscreenenter"",""1"",""3141""
","
","","","-1","","","18","13472","5849","r","elianto","#3366ff99","-1","-1","1","0","[]","0","2","","","13472","139","8","2","win","no-go","1"
"pit-trial","261","1830760","0.0-144.0","battery-v0.2","","""event"",""trial"",""time""
""fullscreenenter"",""1"",""3141""
","
","
","""event"",""trial"",""time""
""fullscreenenter"",""1"",""3141""
","
","","","588.2999999523163","","","18","13472","5849","y","elianto","#f73b6a7A"," "," ","1","-10","[1438.7000000476837]","1","2","","","13472","140","7","3","lose","go","1"
"pit-instructions","262","1844828","0.0-145.0","battery-v0.2","","""event"",""trial"",""time""
""fullscreenenter"",""1"",""3141""
","
","
","""event"",""trial"",""time""
""fullscreenenter"",""1"",""3141""
","
","","[{""page_index"":0,""viewing_time"":5949.600000143051},{""page_index"":1,""viewing_time"":8116.899999856949}]","14066.700000047684","","","","","","","","","","","","","","","","","","","","","","","",""
"pit-trial","263","1848419","0.0-146.0","battery-v0.2","","""event"",""trial"",""time""
""fullscreenenter"",""1"",""3141""
","
","
","""event"",""trial"",""time""
""fullscreenenter"",""1"",""3141""
","
","","","718","","","18","13472","5849","w","elianto","#f73b6a7A","-1"," ","0","0","[1573.7999999523163]","1","3","","","13472","141","3","4","lose","no-go","1"
"pit-trial","264","1852137","0.0-147.0","battery-v0.2","","""event"",""trial"",""time""
""fullscreenenter"",""1"",""3141""
","
","
","""event"",""trial"",""time""
""fullscreenenter"",""1"",""3141""
","
","","","858.5","","","18","13472","5849","j","elianto","#f73b6a7A"," "," ","1","-10","[1710.5]","1","3","","","13472","142","0","3","lose","go","1"
"pit-trial","265","1855604","0.0-148.0","battery-v0.2","","""event"",""trial"",""time""
""fullscreenenter"",""1"",""3141""
","
","
","""event"",""trial"",""time""
""fullscreenenter"",""1"",""3141""
","
","","","588.7000000476837","","","18","13472","5849","d","elianto","#3366ff99","-1"," ","0","+10","[1451.7999999523163]","1","3","","","13472","143","1","2","win","no-go","1"
"pit-trial","266","1860481","0.0-149.0","battery-v0.2","","""event"",""trial"",""time""
""fullscreenenter"",""1"",""3141""
","
","
","""event"",""trial"",""time""
""fullscreenenter"",""1"",""3141""
","
","","","-1","","","18","13472","5849","e","elianto","#f73b6a7A"," ","-1","0","-10","[]","0","3","","","13472","144","2","3","lose","go","0"
