"trial_type","trial_index","time_elapsed","internal_node_id","task_version","subject_id","interactions","blur_events","focus_events","fullscreenenter_events","fullscreenexit_events","success","view_history","rt","responses","num_errors","age","subject","participantId","rune","rune_set","hex","correct","choice","accuracy","outcome","keys","total_keys","block","practice","value","sub","trial","stimulus","robot","valence","action","sham"
"pavlovia","0","5","0.0-0.0","battery-v0.2","","""event"",""trial"",""time""
""fullscreenenter"",""1"",""2007""
","
","
","""event"",""trial"",""time""
""fullscreenenter"",""1"",""2007""
","
","","","","","","","","","","","","","","","","","","","","","","","","","","",""
"fullscreen","1","3007","0.0-1.0","battery-v0.2","","""event"",""trial"",""time""
""fullscreenenter"",""1"",""2007""
","
","
","""event"",""trial"",""time""
""fullscreenenter"",""1"",""2007""
","
","true","","","","","","","","","","","","","","","","","","","","","","","","","",""
"pit-instructions","2","8434","0.0-2.0-0.0","battery-v0.2","","""event"",""trial"",""time""
""fullscreenenter"",""1"",""2007""
","
","
","""event"",""trial"",""time""
""fullscreenenter"",""1"",""2007""
","
","","[{""page_index"":0,""viewing_time"":5421.899999976158}]","5422.099999964237","","","","","","","","","","","","","","","","","","","","","","","",""
"pit-comprehension","3","12439","0.0-2.0-1.0-0.0","battery-v0.2","","""event"",""trial"",""time""
""fullscreenenter"",""1"",""2007""
","
","
","""event"",""trial"",""time""
""fullscreenenter"",""1"",""2007""
","
","","","4002.7999999523163","[""shark""]","0","24","10841","5094","","","","","","","","","","","","","","","","","","",""
"pit-instructions","4","14273","0.0-2.0-1.0-1.0","battery-v0.2","","""event"",""trial"",""time""
""fullscreenenter"",""1"",""2007""
","
","
","""event"",""trial"",""time""
""fullscreenenter"",""1"",""2007""
","
","","[{""page_index"":0,""viewing_time"":1828.0999999642372}]","1828.3999999761581","","","","","","","","","","","","","","","","","","","","","","","",""
"pit-comprehension","5","16868","0.0-2.0-2.0-0.0","battery-v0.2","","""event"",""trial"",""time""
""fullscreenenter"",""1"",""2007""
","
","
","""event"",""trial"",""time""
""fullscreenenter"",""1"",""2007""
","
","","","2591.899999976158","[""tiger""]","0","24","10841","5094","","","","","","","","","","","","","","","","","","",""
"pit-instructions","6","20038","0.0-2.0-2.0-1.0","battery-v0.2","","""event"",""trial"",""time""
""fullscreenenter"",""1"",""2007""
""blur"",""7"",""52184""
""focus"",""7"",""52934""
""blur"",""7"",""109004""
""focus"",""7"",""110203""
","""event"",""trial"",""time""
""blur"",""7"",""52184""
""blur"",""7"",""109004""
","""event"",""trial"",""time""
""focus"",""7"",""52934""
""focus"",""7"",""110203""
","""event"",""trial"",""time""
""fullscreenenter"",""1"",""2007""
","
","","[{""page_index"":0,""viewing_time"":3167.300000011921}]","3167.699999988079","","","","","","","","","","","","","","","","","","","","","","","",""
"pit-instructions","7","148241","0.0-2.0-3.0","battery-v0.2","","""event"",""trial"",""time""
""fullscreenenter"",""1"",""2007""
""blur"",""7"",""52184""
""focus"",""7"",""52934""
""blur"",""7"",""109004""
""focus"",""7"",""110203""
","""event"",""trial"",""time""
""blur"",""7"",""52184""
""blur"",""7"",""109004""
","""event"",""trial"",""time""
""focus"",""7"",""52934""
""focus"",""7"",""110203""
","""event"",""trial"",""time""
""fullscreenenter"",""1"",""2007""
","
","","[{""page_index"":0,""viewing_time"":9397.399999976158},{""page_index"":1,""viewing_time"":8404.900000035763},{""page_index"":2,""viewing_time"":6699.199999988079},{""page_index"":3,""viewing_time"":9586.899999976158},{""page_index"":4,""viewing_time"":9035},{""page_index"":5,""viewing_time"":6738.600000023842},{""page_index"":6,""viewing_time"":6762.800000011921},{""page_index"":7,""viewing_time"":13305.899999976158},{""page_index"":8,""viewing_time"":6061.699999988079},{""page_index"":9,""viewing_time"":15100.5},{""page_index"":10,""viewing_time"":14003.199999988079},{""page_index"":11,""viewing_time"":11801.200000047684},{""page_index"":12,""viewing_time"":6078.5},{""page_index"":13,""viewing_time"":5224.399999976158}]","128200.80000001192","","","","","","","","","","","","","","","","","","","","","","","",""
"pit-trial","8","151785","0.0-2.0-4.0-0.0","battery-v0.2","","""event"",""trial"",""time""
""fullscreenenter"",""1"",""2007""
""blur"",""7"",""52184""
""focus"",""7"",""52934""
""blur"",""7"",""109004""
""focus"",""7"",""110203""
","""event"",""trial"",""time""
""blur"",""7"",""52184""
""blur"",""7"",""109004""
","""event"",""trial"",""time""
""focus"",""7"",""52934""
""focus"",""7"",""110203""
","""event"",""trial"",""time""
""fullscreenenter"",""1"",""2007""
","
","","","683.5","","","24","10841","5094","&#9784;","elianto","#FFFFF080"," "," ","1","&#10004","[1537.699999988079]","1","0","0","","","","","","","",""
"pit-trial","9","155366","0.0-2.0-4.1-0.1","battery-v0.2","","""event"",""trial"",""time""
""fullscreenenter"",""1"",""2007""
""blur"",""7"",""52184""
""focus"",""7"",""52934""
""blur"",""7"",""109004""
""focus"",""7"",""110203""
","""event"",""trial"",""time""
""blur"",""7"",""52184""
""blur"",""7"",""109004""
","""event"",""trial"",""time""
""focus"",""7"",""52934""
""focus"",""7"",""110203""
","""event"",""trial"",""time""
""fullscreenenter"",""1"",""2007""
","
","","","718.3000000119209","","","24","10841","5094","&#9784;","elianto","#FFFFF080"," "," ","1","&#10004","[1571.800000011921]","1","0","0","","","","","","","",""
"pit-trial","10","158716","0.0-2.0-4.2-0.2","battery-v0.2","","""event"",""trial"",""time""
""fullscreenenter"",""1"",""2007""
""blur"",""7"",""52184""
""focus"",""7"",""52934""
""blur"",""7"",""109004""
""focus"",""7"",""110203""
","""event"",""trial"",""time""
""blur"",""7"",""52184""
""blur"",""7"",""109004""
","""event"",""trial"",""time""
""focus"",""7"",""52934""
""focus"",""7"",""110203""
","""event"",""trial"",""time""
""fullscreenenter"",""1"",""2007""
","
","","","486.30000001192093","","","24","10841","5094","&#9784;","elianto","#FFFFF080"," "," ","1","&#10004","[1336.6000000238419]","1","0","0","","","","","","","",""
"pit-trial","11","162027","0.0-2.0-4.3-0.3","battery-v0.2","","""event"",""trial"",""time""
""fullscreenenter"",""1"",""2007""
""blur"",""7"",""52184""
""focus"",""7"",""52934""
""blur"",""7"",""109004""
""focus"",""7"",""110203""
","""event"",""trial"",""time""
""blur"",""7"",""52184""
""blur"",""7"",""109004""
","""event"",""trial"",""time""
""focus"",""7"",""52934""
""focus"",""7"",""110203""
","""event"",""trial"",""time""
""fullscreenenter"",""1"",""2007""
","
","","","453.30000001192093","","","24","10841","5094","&#9784;","elianto","#FFFFF080"," "," ","1","&#10004","[1304]","1","0","0","","","","","","","",""
"pit-trial","12","166900","0.0-2.0-4.4-0.4","battery-v0.2","","""event"",""trial"",""time""
""fullscreenenter"",""1"",""2007""
""blur"",""7"",""52184""
""focus"",""7"",""52934""
""blur"",""7"",""109004""
""focus"",""7"",""110203""
","""event"",""trial"",""time""
""blur"",""7"",""52184""
""blur"",""7"",""109004""
","""event"",""trial"",""time""
""focus"",""7"",""52934""
""focus"",""7"",""110203""
","""event"",""trial"",""time""
""fullscreenenter"",""1"",""2007""
","
","","","-1","","","24","10841","5094","&#9784;","elianto","#FFFFF080"," ","-1","0","&#10060","[4342.600000023842]","1","0","0","","","","","","","",""
"pit-trial","13","170980","0.0-2.0-4.5-0.5","battery-v0.2","","""event"",""trial"",""time""
""fullscreenenter"",""1"",""2007""
""blur"",""7"",""52184""
""focus"",""7"",""52934""
""blur"",""7"",""109004""
""focus"",""7"",""110203""
","""event"",""trial"",""time""
""blur"",""7"",""52184""
""blur"",""7"",""109004""
","""event"",""trial"",""time""
""focus"",""7"",""52934""
""focus"",""7"",""110203""
","""event"",""trial"",""time""
""fullscreenenter"",""1"",""2007""
","
","","","1216.4000000357628","","","24","10841","5094","&#9784;","elianto","#FFFFF080"," "," ","1","&#10004","[2068.699999988079]","1","0","0","","","","","","","",""
"pit-trial","14","174403","0.0-2.0-4.6-0.6","battery-v0.2","","""event"",""trial"",""time""
""fullscreenenter"",""1"",""2007""
""blur"",""7"",""52184""
""focus"",""7"",""52934""
""blur"",""7"",""109004""
""focus"",""7"",""110203""
","""event"",""trial"",""time""
""blur"",""7"",""52184""
""blur"",""7"",""109004""
","""event"",""trial"",""time""
""focus"",""7"",""52934""
""focus"",""7"",""110203""
","""event"",""trial"",""time""
""fullscreenenter"",""1"",""2007""
","
","","","557.8000000119209","","","24","10841","5094","&#9784;","elianto","#FFFFF080"," "," ","1","&#10004","[1414.6000000238419]","1","0","0","","","","","","","",""
"pit-instructions","15","189861","0.0-2.0-4.6-1.6-0.6","battery-v0.2","","""event"",""trial"",""time""
""fullscreenenter"",""1"",""2007""
""blur"",""7"",""52184""
""focus"",""7"",""52934""
""blur"",""7"",""109004""
""focus"",""7"",""110203""
","""event"",""trial"",""time""
""blur"",""7"",""52184""
""blur"",""7"",""109004""
","""event"",""trial"",""time""
""focus"",""7"",""52934""
""focus"",""7"",""110203""
","""event"",""trial"",""time""
""fullscreenenter"",""1"",""2007""
","
","","[{""page_index"":0,""viewing_time"":6130.799999952316},{""page_index"":1,""viewing_time"":9323.5}]","15454.899999976158","","","","","","","","","","","","","","","","","","","","","","","",""
"pit-trial","16","193263","0.0-2.0-4.7-0.7","battery-v0.2","","""event"",""trial"",""time""
""fullscreenenter"",""1"",""2007""
""blur"",""7"",""52184""
""focus"",""7"",""52934""
""blur"",""7"",""109004""
""focus"",""7"",""110203""
","""event"",""trial"",""time""
""blur"",""7"",""52184""
""blur"",""7"",""109004""
","""event"",""trial"",""time""
""focus"",""7"",""52934""
""focus"",""7"",""110203""
","""event"",""trial"",""time""
""fullscreenenter"",""1"",""2007""
","
","","","529.5","","","24","10841","5094","&#9784;","elianto","#FFFFF080"," "," ","1","&#10004","[1385.1000000238419]","1","0","0","","","","","","","",""
"pit-instructions","17","215372","0.0-2.0-5.0","battery-v0.2","","""event"",""trial"",""time""
""fullscreenenter"",""1"",""2007""
""blur"",""7"",""52184""
""focus"",""7"",""52934""
""blur"",""7"",""109004""
""focus"",""7"",""110203""
","""event"",""trial"",""time""
""blur"",""7"",""52184""
""blur"",""7"",""109004""
","""event"",""trial"",""time""
""focus"",""7"",""52934""
""focus"",""7"",""110203""
","""event"",""trial"",""time""
""fullscreenenter"",""1"",""2007""
","
","","[{""page_index"":0,""viewing_time"":5999.700000047684},{""page_index"":1,""viewing_time"":5802.299999952316},{""page_index"":2,""viewing_time"":4975.800000011921},{""page_index"":3,""viewing_time"":5327}]","22105.200000047684","","","","","","","","","","","","","","","","","","","","","","","",""
"pit-trial","18","220237","0.0-2.0-6.0-0.0","battery-v0.2","","""event"",""trial"",""time""
""fullscreenenter"",""1"",""2007""
""blur"",""7"",""52184""
""focus"",""7"",""52934""
""blur"",""7"",""109004""
""focus"",""7"",""110203""
","""event"",""trial"",""time""
""blur"",""7"",""52184""
""blur"",""7"",""109004""
","""event"",""trial"",""time""
""focus"",""7"",""52934""
""focus"",""7"",""110203""
","""event"",""trial"",""time""
""fullscreenenter"",""1"",""2007""
","
","","","-1","","","24","10841","5094","&#9854;","elianto","#FFFFF080","-1","-1","1","&#10004","[]","0","0","1","","","","","","","",""
"pit-trial","19","225110","0.0-2.0-6.1-0.1","battery-v0.2","","""event"",""trial"",""time""
""fullscreenenter"",""1"",""2007""
""blur"",""7"",""52184""
""focus"",""7"",""52934""
""blur"",""7"",""109004""
""focus"",""7"",""110203""
","""event"",""trial"",""time""
""blur"",""7"",""52184""
""blur"",""7"",""109004""
","""event"",""trial"",""time""
""focus"",""7"",""52934""
""focus"",""7"",""110203""
","""event"",""trial"",""time""
""fullscreenenter"",""1"",""2007""
","
","","","-1","","","24","10841","5094","&#9854;","elianto","#FFFFF080","-1","-1","1","&#10004","[]","0","0","1","","","","","","","",""
"pit-trial","20","229980","0.0-2.0-6.2-0.2","battery-v0.2","","""event"",""trial"",""time""
""fullscreenenter"",""1"",""2007""
""blur"",""7"",""52184""
""focus"",""7"",""52934""
""blur"",""7"",""109004""
""focus"",""7"",""110203""
","""event"",""trial"",""time""
""blur"",""7"",""52184""
""blur"",""7"",""109004""
","""event"",""trial"",""time""
""focus"",""7"",""52934""
""focus"",""7"",""110203""
","""event"",""trial"",""time""
""fullscreenenter"",""1"",""2007""
","
","","","-1","","","24","10841","5094","&#9854;","elianto","#FFFFF080","-1","-1","1","&#10004","[]","0","0","1","","","","","","","",""
"pit-trial","21","234852","0.0-2.0-6.3-0.3","battery-v0.2","","""event"",""trial"",""time""
""fullscreenenter"",""1"",""2007""
""blur"",""7"",""52184""
""focus"",""7"",""52934""
""blur"",""7"",""109004""
""focus"",""7"",""110203""
","""event"",""trial"",""time""
""blur"",""7"",""52184""
""blur"",""7"",""109004""
","""event"",""trial"",""time""
""focus"",""7"",""52934""
""focus"",""7"",""110203""
","""event"",""trial"",""time""
""fullscreenenter"",""1"",""2007""
","
","","","-1","","","24","10841","5094","&#9854;","elianto","#FFFFF080","-1","-1","1","&#10004","[]","0","0","1","","","","","","","",""
"pit-trial","22","239723","0.0-2.0-6.4-0.4","battery-v0.2","","""event"",""trial"",""time""
""fullscreenenter"",""1"",""2007""
""blur"",""7"",""52184""
""focus"",""7"",""52934""
""blur"",""7"",""109004""
""focus"",""7"",""110203""
","""event"",""trial"",""time""
""blur"",""7"",""52184""
""blur"",""7"",""109004""
","""event"",""trial"",""time""
""focus"",""7"",""52934""
""focus"",""7"",""110203""
","""event"",""trial"",""time""
""fullscreenenter"",""1"",""2007""
","
","","","-1","","","24","10841","5094","&#9854;","elianto","#FFFFF080","-1","-1","1","&#10004","[]","0","0","1","","","","","","","",""
"pit-instructions","23","358268","0.0-2.0-7.0","battery-v0.2","","""event"",""trial"",""time""
""fullscreenenter"",""1"",""2007""
""blur"",""7"",""52184""
""focus"",""7"",""52934""
""blur"",""7"",""109004""
""focus"",""7"",""110203""
","""event"",""trial"",""time""
""blur"",""7"",""52184""
""blur"",""7"",""109004""
","""event"",""trial"",""time""
""focus"",""7"",""52934""
""focus"",""7"",""110203""
","""event"",""trial"",""time""
""fullscreenenter"",""1"",""2007""
","
","","[{""page_index"":0,""viewing_time"":5695.5},{""page_index"":1,""viewing_time"":8352},{""page_index"":2,""viewing_time"":6164.800000011921},{""page_index"":3,""viewing_time"":5976.5},{""page_index"":4,""viewing_time"":5324.099999964237},{""page_index"":5,""viewing_time"":5622},{""page_index"":6,""viewing_time"":6183},{""page_index"":7,""viewing_time"":7648.200000047684},{""page_index"":8,""viewing_time"":7307.899999976158},{""page_index"":9,""viewing_time"":6461.899999976158},{""page_index"":10,""viewing_time"":6421.800000011921},{""page_index"":11,""viewing_time"":5897.699999988079},{""page_index"":12,""viewing_time"":7821.600000023842},{""page_index"":13,""viewing_time"":6608.300000011921},{""page_index"":14,""viewing_time"":6650.099999964237},{""page_index"":15,""viewing_time"":6621.400000035763},{""page_index"":16,""viewing_time"":7715.199999988079},{""page_index"":17,""viewing_time"":6067.899999976158}]","118540.69999998808","","","","","","","","","","","","","","","","","","","","","","","",""
"pit-trial","24","361949","0.0-2.0-8.0-0.0","battery-v0.2","","""event"",""trial"",""time""
""fullscreenenter"",""1"",""2007""
""blur"",""7"",""52184""
""focus"",""7"",""52934""
""blur"",""7"",""109004""
""focus"",""7"",""110203""
","""event"",""trial"",""time""
""blur"",""7"",""52184""
""blur"",""7"",""109004""
","""event"",""trial"",""time""
""focus"",""7"",""52934""
""focus"",""7"",""110203""
","""event"",""trial"",""time""
""fullscreenenter"",""1"",""2007""
","
","","","819.4000000357628","","","24","10841","5094","&#9776;","elianto","#3366ff99"," "," ","1","+10","[1671.199999988079]","1","0","1","","","","","","","",""
"pit-trial","25","365259","0.0-2.0-8.0-1.0","battery-v0.2","","""event"",""trial"",""time""
""fullscreenenter"",""1"",""2007""
""blur"",""7"",""52184""
""focus"",""7"",""52934""
""blur"",""7"",""109004""
""focus"",""7"",""110203""
","""event"",""trial"",""time""
""blur"",""7"",""52184""
""blur"",""7"",""109004""
","""event"",""trial"",""time""
""focus"",""7"",""52934""
""focus"",""7"",""110203""
","""event"",""trial"",""time""
""fullscreenenter"",""1"",""2007""
","
","","","446.19999998807907","","","24","10841","5094","&#9776;","elianto","#3366ff99"," "," ","1","+10","[1297.0999999642372]","1","0","1","","","","","","","",""
"pit-trial","26","368496","0.0-2.0-8.0-2.0","battery-v0.2","","""event"",""trial"",""time""
""fullscreenenter"",""1"",""2007""
""blur"",""7"",""52184""
""focus"",""7"",""52934""
""blur"",""7"",""109004""
""focus"",""7"",""110203""
","""event"",""trial"",""time""
""blur"",""7"",""52184""
""blur"",""7"",""109004""
","""event"",""trial"",""time""
""focus"",""7"",""52934""
""focus"",""7"",""110203""
","""event"",""trial"",""time""
""fullscreenenter"",""1"",""2007""
","
","","","376.7000000476837","","","24","10841","5094","&#9776;","elianto","#3366ff99"," "," ","1","+10","[1233.5]","1","0","1","","","","","","","",""
"pit-trial","27","371708","0.0-2.0-8.0-3.0","battery-v0.2","","""event"",""trial"",""time""
""fullscreenenter"",""1"",""2007""
""blur"",""7"",""52184""
""focus"",""7"",""52934""
""blur"",""7"",""109004""
""focus"",""7"",""110203""
","""event"",""trial"",""time""
""blur"",""7"",""52184""
""blur"",""7"",""109004""
","""event"",""trial"",""time""
""focus"",""7"",""52934""
""focus"",""7"",""110203""
","""event"",""trial"",""time""
""fullscreenenter"",""1"",""2007""
","
","","","352","","","24","10841","5094","&#9776;","elianto","#3366ff99"," "," ","1","0","[1205]","1","0","1","","","","","","","",""
"pit-trial","28","375254","0.0-2.0-8.0-4.0","battery-v0.2","","""event"",""trial"",""time""
""fullscreenenter"",""1"",""2007""
""blur"",""7"",""52184""
""focus"",""7"",""52934""
""blur"",""7"",""109004""
""focus"",""7"",""110203""
","""event"",""trial"",""time""
""blur"",""7"",""52184""
""blur"",""7"",""109004""
","""event"",""trial"",""time""
""focus"",""7"",""52934""
""focus"",""7"",""110203""
","""event"",""trial"",""time""
""fullscreenenter"",""1"",""2007""
","
","","","672.6000000238419","","","24","10841","5094","&#9776;","elianto","#3366ff99"," "," ","1","+10","[1529]","1","0","1","","","","","","","",""
"pit-trial","29","378763","0.0-2.0-8.1-0.1","battery-v0.2","","""event"",""trial"",""time""
""fullscreenenter"",""1"",""2007""
""blur"",""7"",""52184""
""focus"",""7"",""52934""
""blur"",""7"",""109004""
""focus"",""7"",""110203""
","""event"",""trial"",""time""
""blur"",""7"",""52184""
""blur"",""7"",""109004""
","""event"",""trial"",""time""
""focus"",""7"",""52934""
""focus"",""7"",""110203""
","""event"",""trial"",""time""
""fullscreenenter"",""1"",""2007""
","
","","","638.6000000238419","","","24","10841","5094","&#9776;","elianto","#3366ff99"," "," ","1","+10","[1493]","1","0","1","","","","","","","",""
"pit-trial","30","382171","0.0-2.0-8.1-1.1","battery-v0.2","","""event"",""trial"",""time""
""fullscreenenter"",""1"",""2007""
""blur"",""7"",""52184""
""focus"",""7"",""52934""
""blur"",""7"",""109004""
""focus"",""7"",""110203""
","""event"",""trial"",""time""
""blur"",""7"",""52184""
""blur"",""7"",""109004""
","""event"",""trial"",""time""
""focus"",""7"",""52934""
""focus"",""7"",""110203""
","""event"",""trial"",""time""
""fullscreenenter"",""1"",""2007""
","
","","","539.5999999642372","","","24","10841","5094","&#9776;","elianto","#3366ff99"," "," ","1","+10","[1394.1000000238419]","1","0","1","","","","","","","",""
"pit-trial","31","385612","0.0-2.0-8.1-2.1","battery-v0.2","","""event"",""trial"",""time""
""fullscreenenter"",""1"",""2007""
""blur"",""7"",""52184""
""focus"",""7"",""52934""
""blur"",""7"",""109004""
""focus"",""7"",""110203""
","""event"",""trial"",""time""
""blur"",""7"",""52184""
""blur"",""7"",""109004""
","""event"",""trial"",""time""
""focus"",""7"",""52934""
""focus"",""7"",""110203""
","""event"",""trial"",""time""
""fullscreenenter"",""1"",""2007""
","
","","","571","","","24","10841","5094","&#9776;","elianto","#3366ff99"," "," ","1","+10","[1427.300000011921]","1","0","1","","","","","","","",""
"pit-trial","32","388939","0.0-2.0-8.1-3.1","battery-v0.2","","""event"",""trial"",""time""
""fullscreenenter"",""1"",""2007""
""blur"",""7"",""52184""
""focus"",""7"",""52934""
""blur"",""7"",""109004""
""focus"",""7"",""110203""
","""event"",""trial"",""time""
""blur"",""7"",""52184""
""blur"",""7"",""109004""
","""event"",""trial"",""time""
""focus"",""7"",""52934""
""focus"",""7"",""110203""
","""event"",""trial"",""time""
""fullscreenenter"",""1"",""2007""
","
","","","462.5","","","24","10841","5094","&#9776;","elianto","#3366ff99"," "," ","1","0","[1316.800000011921]","1","0","1","","","","","","","",""
"pit-trial","33","392221","0.0-2.0-8.1-4.1","battery-v0.2","","""event"",""trial"",""time""
""fullscreenenter"",""1"",""2007""
""blur"",""7"",""52184""
""focus"",""7"",""52934""
""blur"",""7"",""109004""
""focus"",""7"",""110203""
","""event"",""trial"",""time""
""blur"",""7"",""52184""
""blur"",""7"",""109004""
","""event"",""trial"",""time""
""focus"",""7"",""52934""
""focus"",""7"",""110203""
","""event"",""trial"",""time""
""fullscreenenter"",""1"",""2007""
","
","","","411.60000002384186","","","24","10841","5094","&#9776;","elianto","#3366ff99"," "," ","1","+10","[1266.3999999761581]","1","0","1","","","","","","","",""
"pit-trial","34","396187","0.0-2.0-8.2-0.2","battery-v0.2","","""event"",""trial"",""time""
""fullscreenenter"",""1"",""2007""
""blur"",""7"",""52184""
""focus"",""7"",""52934""
""blur"",""7"",""109004""
""focus"",""7"",""110203""
","""event"",""trial"",""time""
""blur"",""7"",""52184""
""blur"",""7"",""109004""
","""event"",""trial"",""time""
""focus"",""7"",""52934""
""focus"",""7"",""110203""
","""event"",""trial"",""time""
""fullscreenenter"",""1"",""2007""
","
","","","1099.699999988079","","","24","10841","5094","&#9776;","elianto","#3366ff99"," "," ","1","+10","[1954.9000000357628]","1","0","1","","","","","","","",""
"pit-trial","35","399437","0.0-2.0-8.2-1.2","battery-v0.2","","""event"",""trial"",""time""
""fullscreenenter"",""1"",""2007""
""blur"",""7"",""52184""
""focus"",""7"",""52934""
""blur"",""7"",""109004""
""focus"",""7"",""110203""
","""event"",""trial"",""time""
""blur"",""7"",""52184""
""blur"",""7"",""109004""
","""event"",""trial"",""time""
""focus"",""7"",""52934""
""focus"",""7"",""110203""
","""event"",""trial"",""time""
""fullscreenenter"",""1"",""2007""
","
","","","381.80000001192093","","","24","10841","5094","&#9776;","elianto","#3366ff99"," "," ","1","+10","[1239.0999999642372]","1","0","1","","","","","","","",""
"pit-trial","36","402804","0.0-2.0-8.2-2.2","battery-v0.2","","""event"",""trial"",""time""
""fullscreenenter"",""1"",""2007""
""blur"",""7"",""52184""
""focus"",""7"",""52934""
""blur"",""7"",""109004""
""focus"",""7"",""110203""
","""event"",""trial"",""time""
""blur"",""7"",""52184""
""blur"",""7"",""109004""
","""event"",""trial"",""time""
""focus"",""7"",""52934""
""focus"",""7"",""110203""
","""event"",""trial"",""time""
""fullscreenenter"",""1"",""2007""
","
","","","509.30000001192093","","","24","10841","5094","&#9776;","elianto","#3366ff99"," "," ","1","+10","[1359.4000000357628]","1","0","1","","","","","","","",""
"pit-trial","37","406358","0.0-2.0-8.2-3.2","battery-v0.2","","""event"",""trial"",""time""
""fullscreenenter"",""1"",""2007""
""blur"",""7"",""52184""
""focus"",""7"",""52934""
""blur"",""7"",""109004""
""focus"",""7"",""110203""
","""event"",""trial"",""time""
""blur"",""7"",""52184""
""blur"",""7"",""109004""
","""event"",""trial"",""time""
""focus"",""7"",""52934""
""focus"",""7"",""110203""
","""event"",""trial"",""time""
""fullscreenenter"",""1"",""2007""
","
","","","683.7000000476837","","","24","10841","5094","&#9776;","elianto","#3366ff99"," "," ","1","0","[1538.300000011921]","1","0","1","","","","","","","",""
"pit-trial","38","409596","0.0-2.0-8.2-4.2","battery-v0.2","","""event"",""trial"",""time""
""fullscreenenter"",""1"",""2007""
""blur"",""7"",""52184""
""focus"",""7"",""52934""
""blur"",""7"",""109004""
""focus"",""7"",""110203""
","""event"",""trial"",""time""
""blur"",""7"",""52184""
""blur"",""7"",""109004""
","""event"",""trial"",""time""
""focus"",""7"",""52934""
""focus"",""7"",""110203""
","""event"",""trial"",""time""
""fullscreenenter"",""1"",""2007""
","
","","","373","","","24","10841","5094","&#9776;","elianto","#3366ff99"," "," ","1","+10","[1224.5]","1","0","1","","","","","","","",""
"call-function","39","409600","0.0-2.0-9.0","battery-v0.2","","""event"",""trial"",""time""
""fullscreenenter"",""1"",""2007""
""blur"",""7"",""52184""
""focus"",""7"",""52934""
""blur"",""7"",""109004""
""focus"",""7"",""110203""
","""event"",""trial"",""time""
""blur"",""7"",""52184""
""blur"",""7"",""109004""
","""event"",""trial"",""time""
""focus"",""7"",""52934""
""focus"",""7"",""110203""
","""event"",""trial"",""time""
""fullscreenenter"",""1"",""2007""
","
","","","","","","","","","","","","","","","","","","","","","","","","","","",""
"pit-instructions","40","448979","0.0-2.0-10.0","battery-v0.2","","""event"",""trial"",""time""
""fullscreenenter"",""1"",""2007""
""blur"",""7"",""52184""
""focus"",""7"",""52934""
""blur"",""7"",""109004""
""focus"",""7"",""110203""
","""event"",""trial"",""time""
""blur"",""7"",""52184""
""blur"",""7"",""109004""
","""event"",""trial"",""time""
""focus"",""7"",""52934""
""focus"",""7"",""110203""
","""event"",""trial"",""time""
""fullscreenenter"",""1"",""2007""
","
","","[{""page_index"":0,""viewing_time"":5621.5},{""page_index"":1,""viewing_time"":6487.699999988079},{""page_index"":2,""viewing_time"":10880.300000011921},{""page_index"":3,""viewing_time"":8950.400000035763},{""page_index"":4,""viewing_time"":7437.399999976158}]","39377.90000003576","","","","","","","","","","","","","","","","","","","","","","","",""
"pit-trial","41","452845","0.0-2.0-11.0-0.0","battery-v0.2","","""event"",""trial"",""time""
""fullscreenenter"",""1"",""2007""
""blur"",""7"",""52184""
""focus"",""7"",""52934""
""blur"",""7"",""109004""
""focus"",""7"",""110203""
","""event"",""trial"",""time""
""blur"",""7"",""52184""
""blur"",""7"",""109004""
","""event"",""trial"",""time""
""focus"",""7"",""52934""
""focus"",""7"",""110203""
","""event"",""trial"",""time""
""fullscreenenter"",""1"",""2007""
","
","","","1001.3999999761581","","","24","10841","5094","&#9761;","elianto","#3366ff99","-1"," ","0","0","[1856.2000000476837]","1","0","2","","","","","","","",""
"pit-trial","42","456249","0.0-2.0-11.0-1.0","battery-v0.2","","""event"",""trial"",""time""
""fullscreenenter"",""1"",""2007""
""blur"",""7"",""52184""
""focus"",""7"",""52934""
""blur"",""7"",""109004""
""focus"",""7"",""110203""
","""event"",""trial"",""time""
""blur"",""7"",""52184""
""blur"",""7"",""109004""
","""event"",""trial"",""time""
""focus"",""7"",""52934""
""focus"",""7"",""110203""
","""event"",""trial"",""time""
""fullscreenenter"",""1"",""2007""
","
","","","541.6000000238419","","","24","10841","5094","&#9761;","elianto","#3366ff99","-1"," ","0","0","[1397.3999999761581]","1","0","2","","","","","","","",""
"pit-trial","43","459625","0.0-2.0-11.0-2.0","battery-v0.2","","""event"",""trial"",""time""
""fullscreenenter"",""1"",""2007""
""blur"",""7"",""52184""
""focus"",""7"",""52934""
""blur"",""7"",""109004""
""focus"",""7"",""110203""
","""event"",""trial"",""time""
""blur"",""7"",""52184""
""blur"",""7"",""109004""
","""event"",""trial"",""time""
""focus"",""7"",""52934""
""focus"",""7"",""110203""
","""event"",""trial"",""time""
""fullscreenenter"",""1"",""2007""
","
","","","516.3000000119209","","","24","10841","5094","&#9761;","elianto","#3366ff99","-1"," ","0","0","[1367.3999999761581]","1","0","2","","","","","","","",""
"pit-trial","44","462853","0.0-2.0-11.0-3.0","battery-v0.2","","""event"",""trial"",""time""
""fullscreenenter"",""1"",""2007""
""blur"",""7"",""52184""
""focus"",""7"",""52934""
""blur"",""7"",""109004""
""focus"",""7"",""110203""
","""event"",""trial"",""time""
""blur"",""7"",""52184""
""blur"",""7"",""109004""
","""event"",""trial"",""time""
""focus"",""7"",""52934""
""focus"",""7"",""110203""
","""event"",""trial"",""time""
""fullscreenenter"",""1"",""2007""
","
","","","363","","","24","10841","5094","&#9761;","elianto","#3366ff99","-1"," ","0","+10","[1214]","1","0","2","","","","","","","",""
"pit-trial","45","466733","0.0-2.0-11.0-4.0","battery-v0.2","","""event"",""trial"",""time""
""fullscreenenter"",""1"",""2007""
""blur"",""7"",""52184""
""focus"",""7"",""52934""
""blur"",""7"",""109004""
""focus"",""7"",""110203""
","""event"",""trial"",""time""
""blur"",""7"",""52184""
""blur"",""7"",""109004""
","""event"",""trial"",""time""
""focus"",""7"",""52934""
""focus"",""7"",""110203""
","""event"",""trial"",""time""
""fullscreenenter"",""1"",""2007""
","
","","","1014.0999999642372","","","24","10841","5094","&#9761;","elianto","#3366ff99","-1"," ","0","0","[1871.2999999523163]","1","0","2","","","","","","","",""
"pit-trial","46","470062","0.0-2.0-11.1-0.1","battery-v0.2","","""event"",""trial"",""time""
""fullscreenenter"",""1"",""2007""
""blur"",""7"",""52184""
""focus"",""7"",""52934""
""blur"",""7"",""109004""
""focus"",""7"",""110203""
","""event"",""trial"",""time""
""blur"",""7"",""52184""
""blur"",""7"",""109004""
","""event"",""trial"",""time""
""focus"",""7"",""52934""
""focus"",""7"",""110203""
","""event"",""trial"",""time""
""fullscreenenter"",""1"",""2007""
","
","","","460.4000000357628","","","24","10841","5094","&#9761;","elianto","#3366ff99","-1"," ","0","0","[1311.199999988079]","1","0","2","","","","","","","",""
"pit-trial","47","473486","0.0-2.0-11.1-1.1","battery-v0.2","","""event"",""trial"",""time""
""fullscreenenter"",""1"",""2007""
""blur"",""7"",""52184""
""focus"",""7"",""52934""
""blur"",""7"",""109004""
""focus"",""7"",""110203""
","""event"",""trial"",""time""
""blur"",""7"",""52184""
""blur"",""7"",""109004""
","""event"",""trial"",""time""
""focus"",""7"",""52934""
""focus"",""7"",""110203""
","""event"",""trial"",""time""
""fullscreenenter"",""1"",""2007""
","
","","","557.3000000119209","","","24","10841","5094","&#9761;","elianto","#3366ff99","-1"," ","0","0","[1408.9000000357628]","1","0","2","","","","","","","",""
"pit-trial","48","476705","0.0-2.0-11.1-2.1","battery-v0.2","","""event"",""trial"",""time""
""fullscreenenter"",""1"",""2007""
""blur"",""7"",""52184""
""focus"",""7"",""52934""
""blur"",""7"",""109004""
""focus"",""7"",""110203""
","""event"",""trial"",""time""
""blur"",""7"",""52184""
""blur"",""7"",""109004""
","""event"",""trial"",""time""
""focus"",""7"",""52934""
""focus"",""7"",""110203""
","""event"",""trial"",""time""
""fullscreenenter"",""1"",""2007""
","
","","","359.7000000476837","","","24","10841","5094","&#9761;","elianto","#3366ff99","-1"," ","0","0","[1211.9000000357628]","1","0","2","","","","","","","",""
"pit-trial","49","480566","0.0-2.0-11.1-3.1","battery-v0.2","","""event"",""trial"",""time""
""fullscreenenter"",""1"",""2007""
""blur"",""7"",""52184""
""focus"",""7"",""52934""
""blur"",""7"",""109004""
""focus"",""7"",""110203""
","""event"",""trial"",""time""
""blur"",""7"",""52184""
""blur"",""7"",""109004""
","""event"",""trial"",""time""
""focus"",""7"",""52934""
""focus"",""7"",""110203""
","""event"",""trial"",""time""
""fullscreenenter"",""1"",""2007""
","
","","","998.1000000238419","","","24","10841","5094","&#9761;","elianto","#3366ff99","-1"," ","0","+10","[748.1000000238419,1848.1000000238419]","2","0","2","","","","","","","",""
"pit-trial","50","484212","0.0-2.0-11.1-4.1","battery-v0.2","","""event"",""trial"",""time""
""fullscreenenter"",""1"",""2007""
""blur"",""7"",""52184""
""focus"",""7"",""52934""
""blur"",""7"",""109004""
""focus"",""7"",""110203""
","""event"",""trial"",""time""
""blur"",""7"",""52184""
""blur"",""7"",""109004""
","""event"",""trial"",""time""
""focus"",""7"",""52934""
""focus"",""7"",""110203""
","""event"",""trial"",""time""
""fullscreenenter"",""1"",""2007""
","
","","","775.5","","","24","10841","5094","&#9761;","elianto","#3366ff99","-1"," ","0","0","[1630.8999999761581]","1","0","2","","","","","","","",""
"pit-trial","51","487170","0.0-2.0-11.2-0.2","battery-v0.2","","""event"",""trial"",""time""
""fullscreenenter"",""1"",""2007""
""blur"",""7"",""52184""
""focus"",""7"",""52934""
""blur"",""7"",""109004""
""focus"",""7"",""110203""
","""event"",""trial"",""time""
""blur"",""7"",""52184""
""blur"",""7"",""109004""
","""event"",""trial"",""time""
""focus"",""7"",""52934""
""focus"",""7"",""110203""
","""event"",""trial"",""time""
""fullscreenenter"",""1"",""2007""
","
","","","95.90000003576279","","","24","10841","5094","&#9761;","elianto","#3366ff99","-1"," ","0","0","[946.7000000476837]","1","0","2","","","","","","","",""
"pit-trial","52","490336","0.0-2.0-11.2-1.2","battery-v0.2","","""event"",""trial"",""time""
""fullscreenenter"",""1"",""2007""
""blur"",""7"",""52184""
""focus"",""7"",""52934""
""blur"",""7"",""109004""
""focus"",""7"",""110203""
","""event"",""trial"",""time""
""blur"",""7"",""52184""
""blur"",""7"",""109004""
","""event"",""trial"",""time""
""focus"",""7"",""52934""
""focus"",""7"",""110203""
","""event"",""trial"",""time""
""fullscreenenter"",""1"",""2007""
","
","","","296","","","24","10841","5094","&#9761;","elianto","#3366ff99","-1"," ","0","0","[1146.5]","1","0","2","","","","","","","",""
"pit-trial","53","493411","0.0-2.0-11.2-2.2","battery-v0.2","","""event"",""trial"",""time""
""fullscreenenter"",""1"",""2007""
""blur"",""7"",""52184""
""focus"",""7"",""52934""
""blur"",""7"",""109004""
""focus"",""7"",""110203""
","""event"",""trial"",""time""
""blur"",""7"",""52184""
""blur"",""7"",""109004""
","""event"",""trial"",""time""
""focus"",""7"",""52934""
""focus"",""7"",""110203""
","""event"",""trial"",""time""
""fullscreenenter"",""1"",""2007""
","
","","","215.70000004768372","","","24","10841","5094","&#9761;","elianto","#3366ff99","-1"," ","0","0","[1067.800000011921]","1","0","2","","","","","","","",""
"pit-trial","54","496659","0.0-2.0-11.2-3.2","battery-v0.2","","""event"",""trial"",""time""
""fullscreenenter"",""1"",""2007""
""blur"",""7"",""52184""
""focus"",""7"",""52934""
""blur"",""7"",""109004""
""focus"",""7"",""110203""
","""event"",""trial"",""time""
""blur"",""7"",""52184""
""blur"",""7"",""109004""
","""event"",""trial"",""time""
""focus"",""7"",""52934""
""focus"",""7"",""110203""
","""event"",""trial"",""time""
""fullscreenenter"",""1"",""2007""
","
","","","385.10000002384186","","","24","10841","5094","&#9761;","elianto","#3366ff99","-1"," ","0","+10","[1237.6000000238419]","1","0","2","","","","","","","",""
"pit-trial","55","499773","0.0-2.0-11.2-4.2","battery-v0.2","","""event"",""trial"",""time""
""fullscreenenter"",""1"",""2007""
""blur"",""7"",""52184""
""focus"",""7"",""52934""
""blur"",""7"",""109004""
""focus"",""7"",""110203""
","""event"",""trial"",""time""
""blur"",""7"",""52184""
""blur"",""7"",""109004""
","""event"",""trial"",""time""
""focus"",""7"",""52934""
""focus"",""7"",""110203""
","""event"",""trial"",""time""
""fullscreenenter"",""1"",""2007""
","
","","","249.39999997615814","","","24","10841","5094","&#9761;","elianto","#3366ff99","-1"," ","0","0","[1105.1000000238419]","1","0","2","","","","","","","",""
"pit-trial","56","503323","0.0-2.0-11.3-0.3","battery-v0.2","","""event"",""trial"",""time""
""fullscreenenter"",""1"",""2007""
""blur"",""7"",""52184""
""focus"",""7"",""52934""
""blur"",""7"",""109004""
""focus"",""7"",""110203""
","""event"",""trial"",""time""
""blur"",""7"",""52184""
""blur"",""7"",""109004""
","""event"",""trial"",""time""
""focus"",""7"",""52934""
""focus"",""7"",""110203""
","""event"",""trial"",""time""
""fullscreenenter"",""1"",""2007""
","
","","","685.5","","","24","10841","5094","&#9761;","elianto","#3366ff99","-1"," ","0","0","[764.8000000119209,1541.2000000476837]","2","0","2","","","","","","","",""
"pit-trial","57","506620","0.0-2.0-11.3-1.3","battery-v0.2","","""event"",""trial"",""time""
""fullscreenenter"",""1"",""2007""
""blur"",""7"",""52184""
""focus"",""7"",""52934""
""blur"",""7"",""109004""
""focus"",""7"",""110203""
","""event"",""trial"",""time""
""blur"",""7"",""52184""
""blur"",""7"",""109004""
","""event"",""trial"",""time""
""focus"",""7"",""52934""
""focus"",""7"",""110203""
","""event"",""trial"",""time""
""fullscreenenter"",""1"",""2007""
","
","","","432","","","24","10841","5094","&#9761;","elianto","#3366ff99","-1"," ","0","0","[1282.199999988079]","1","0","2","","","","","","","",""
"pit-trial","58","509947","0.0-2.0-11.3-2.3","battery-v0.2","","""event"",""trial"",""time""
""fullscreenenter"",""1"",""2007""
""blur"",""7"",""52184""
""focus"",""7"",""52934""
""blur"",""7"",""109004""
""focus"",""7"",""110203""
","""event"",""trial"",""time""
""blur"",""7"",""52184""
""blur"",""7"",""109004""
","""event"",""trial"",""time""
""focus"",""7"",""52934""
""focus"",""7"",""110203""
","""event"",""trial"",""time""
""fullscreenenter"",""1"",""2007""
","
","","","467","","","24","10841","5094","&#9761;","elianto","#3366ff99","-1"," ","0","0","[1317.2000000476837]","1","0","2","","","","","","","",""
"pit-trial","59","512986","0.0-2.0-11.3-3.3","battery-v0.2","","""event"",""trial"",""time""
""fullscreenenter"",""1"",""2007""
""blur"",""7"",""52184""
""focus"",""7"",""52934""
""blur"",""7"",""109004""
""focus"",""7"",""110203""
","""event"",""trial"",""time""
""blur"",""7"",""52184""
""blur"",""7"",""109004""
","""event"",""trial"",""time""
""focus"",""7"",""52934""
""focus"",""7"",""110203""
","""event"",""trial"",""time""
""fullscreenenter"",""1"",""2007""
","
","","","168.89999997615814","","","24","10841","5094","&#9761;","elianto","#3366ff99","-1"," ","0","+10","[1027.3999999761581]","1","0","2","","","","","","","",""
"pit-trial","60","516280","0.0-2.0-11.3-4.3","battery-v0.2","","""event"",""trial"",""time""
""fullscreenenter"",""1"",""2007""
""blur"",""7"",""52184""
""focus"",""7"",""52934""
""blur"",""7"",""109004""
""focus"",""7"",""110203""
","""event"",""trial"",""time""
""blur"",""7"",""52184""
""blur"",""7"",""109004""
","""event"",""trial"",""time""
""focus"",""7"",""52934""
""focus"",""7"",""110203""
","""event"",""trial"",""time""
""fullscreenenter"",""1"",""2007""
","
","","","436.39999997615814","","","24","10841","5094","&#9761;","elianto","#3366ff99","-1"," ","0","0","[1288.7000000476837]","1","0","2","","","","","","","",""
"call-function","61","516282","0.0-2.0-12.0","battery-v0.2","","""event"",""trial"",""time""
""fullscreenenter"",""1"",""2007""
""blur"",""7"",""52184""
""focus"",""7"",""52934""
""blur"",""7"",""109004""
""focus"",""7"",""110203""
","""event"",""trial"",""time""
""blur"",""7"",""52184""
""blur"",""7"",""109004""
","""event"",""trial"",""time""
""focus"",""7"",""52934""
""focus"",""7"",""110203""
","""event"",""trial"",""time""
""fullscreenenter"",""1"",""2007""
","
","","","","","","","","","","","","","","","","","","","","","","","","","","",""
"pit-instructions","62","585017","0.0-2.0-13.0","battery-v0.2","","""event"",""trial"",""time""
""fullscreenenter"",""1"",""2007""
""blur"",""7"",""52184""
""focus"",""7"",""52934""
""blur"",""7"",""109004""
""focus"",""7"",""110203""
","""event"",""trial"",""time""
""blur"",""7"",""52184""
""blur"",""7"",""109004""
","""event"",""trial"",""time""
""focus"",""7"",""52934""
""focus"",""7"",""110203""
","""event"",""trial"",""time""
""fullscreenenter"",""1"",""2007""
","
","","[{""page_index"":0,""viewing_time"":13265.099999964237},{""page_index"":1,""viewing_time"":7805.300000011921},{""page_index"":2,""viewing_time"":5272.199999988079},{""page_index"":1,""viewing_time"":1203.1000000238419},{""page_index"":0,""viewing_time"":15678.399999976158},{""page_index"":1,""viewing_time"":6168.800000011921},{""page_index"":2,""viewing_time"":3494.600000023842},{""page_index"":3,""viewing_time"":10491},{""page_index"":4,""viewing_time"":5355.099999964237}]","68734.79999995232","","","","","","","","","","","","","","","","","","","","","","","",""
"pit-trial","63","589886","0.0-2.0-14.0-0.0","battery-v0.2","","""event"",""trial"",""time""
""fullscreenenter"",""1"",""2007""
""blur"",""7"",""52184""
""focus"",""7"",""52934""
""blur"",""7"",""109004""
""focus"",""7"",""110203""
","""event"",""trial"",""time""
""blur"",""7"",""52184""
""blur"",""7"",""109004""
","""event"",""trial"",""time""
""focus"",""7"",""52934""
""focus"",""7"",""110203""
","""event"",""trial"",""time""
""fullscreenenter"",""1"",""2007""
","
","","","-1","","","24","10841","5094","&#9826;","elianto","#f73b6a7A","-1","-1","1","0","[]","0","0","3","","","","","","","",""
"pit-trial","64","594753","0.0-2.0-14.0-1.0","battery-v0.2","","""event"",""trial"",""time""
""fullscreenenter"",""1"",""2007""
""blur"",""7"",""52184""
""focus"",""7"",""52934""
""blur"",""7"",""109004""
""focus"",""7"",""110203""
","""event"",""trial"",""time""
""blur"",""7"",""52184""
""blur"",""7"",""109004""
","""event"",""trial"",""time""
""focus"",""7"",""52934""
""focus"",""7"",""110203""
","""event"",""trial"",""time""
""fullscreenenter"",""1"",""2007""
","
","","","-1","","","24","10841","5094","&#9826;","elianto","#f73b6a7A","-1","-1","1","0","[]","0","0","3","","","","","","","",""
"pit-trial","65","599621","0.0-2.0-14.0-2.0","battery-v0.2","","""event"",""trial"",""time""
""fullscreenenter"",""1"",""2007""
""blur"",""7"",""52184""
""focus"",""7"",""52934""
""blur"",""7"",""109004""
""focus"",""7"",""110203""
","""event"",""trial"",""time""
""blur"",""7"",""52184""
""blur"",""7"",""109004""
","""event"",""trial"",""time""
""focus"",""7"",""52934""
""focus"",""7"",""110203""
","""event"",""trial"",""time""
""fullscreenenter"",""1"",""2007""
","
","","","-1","","","24","10841","5094","&#9826;","elianto","#f73b6a7A","-1","-1","1","0","[]","0","0","3","","","","","","","",""
"pit-trial","66","604493","0.0-2.0-14.0-3.0","battery-v0.2","","""event"",""trial"",""time""
""fullscreenenter"",""1"",""2007""
""blur"",""7"",""52184""
""focus"",""7"",""52934""
""blur"",""7"",""109004""
""focus"",""7"",""110203""
","""event"",""trial"",""time""
""blur"",""7"",""52184""
""blur"",""7"",""109004""
","""event"",""trial"",""time""
""focus"",""7"",""52934""
""focus"",""7"",""110203""
","""event"",""trial"",""time""
""fullscreenenter"",""1"",""2007""
","
","","","-1","","","24","10841","5094","&#9826;","elianto","#f73b6a7A","-1","-1","1","-10","[]","0","0","3","","","","","","","",""
"pit-trial","67","609360","0.0-2.0-14.0-4.0","battery-v0.2","","""event"",""trial"",""time""
""fullscreenenter"",""1"",""2007""
""blur"",""7"",""52184""
""focus"",""7"",""52934""
""blur"",""7"",""109004""
""focus"",""7"",""110203""
","""event"",""trial"",""time""
""blur"",""7"",""52184""
""blur"",""7"",""109004""
","""event"",""trial"",""time""
""focus"",""7"",""52934""
""focus"",""7"",""110203""
","""event"",""trial"",""time""
""fullscreenenter"",""1"",""2007""
","
","","","-1","","","24","10841","5094","&#9826;","elianto","#f73b6a7A","-1","-1","1","0","[]","0","0","3","","","","","","","",""
"pit-trial","68","614223","0.0-2.0-14.1-0.1","battery-v0.2","","""event"",""trial"",""time""
""fullscreenenter"",""1"",""2007""
""blur"",""7"",""52184""
""focus"",""7"",""52934""
""blur"",""7"",""109004""
""focus"",""7"",""110203""
","""event"",""trial"",""time""
""blur"",""7"",""52184""
""blur"",""7"",""109004""
","""event"",""trial"",""time""
""focus"",""7"",""52934""
""focus"",""7"",""110203""
","""event"",""trial"",""time""
""fullscreenenter"",""1"",""2007""
","
","","","-1","","","24","10841","5094","&#9826;","elianto","#f73b6a7A","-1","-1","1","0","[]","0","0","3","","","","","","","",""
"pit-trial","69","619090","0.0-2.0-14.1-1.1","battery-v0.2","","""event"",""trial"",""time""
""fullscreenenter"",""1"",""2007""
""blur"",""7"",""52184""
""focus"",""7"",""52934""
""blur"",""7"",""109004""
""focus"",""7"",""110203""
","""event"",""trial"",""time""
""blur"",""7"",""52184""
""blur"",""7"",""109004""
","""event"",""trial"",""time""
""focus"",""7"",""52934""
""focus"",""7"",""110203""
","""event"",""trial"",""time""
""fullscreenenter"",""1"",""2007""
","
","","","-1","","","24","10841","5094","&#9826;","elianto","#f73b6a7A","-1","-1","1","0","[]","0","0","3","","","","","","","",""
"pit-trial","70","623960","0.0-2.0-14.1-2.1","battery-v0.2","","""event"",""trial"",""time""
""fullscreenenter"",""1"",""2007""
""blur"",""7"",""52184""
""focus"",""7"",""52934""
""blur"",""7"",""109004""
""focus"",""7"",""110203""
","""event"",""trial"",""time""
""blur"",""7"",""52184""
""blur"",""7"",""109004""
","""event"",""trial"",""time""
""focus"",""7"",""52934""
""focus"",""7"",""110203""
","""event"",""trial"",""time""
""fullscreenenter"",""1"",""2007""
","
","","","-1","","","24","10841","5094","&#9826;","elianto","#f73b6a7A","-1","-1","1","0","[]","0","0","3","","","","","","","",""
"pit-trial","71","628827","0.0-2.0-14.1-3.1","battery-v0.2","","""event"",""trial"",""time""
""fullscreenenter"",""1"",""2007""
""blur"",""7"",""52184""
""focus"",""7"",""52934""
""blur"",""7"",""109004""
""focus"",""7"",""110203""
","""event"",""trial"",""time""
""blur"",""7"",""52184""
""blur"",""7"",""109004""
","""event"",""trial"",""time""
""focus"",""7"",""52934""
""focus"",""7"",""110203""
","""event"",""trial"",""time""
""fullscreenenter"",""1"",""2007""
","
","","","-1","","","24","10841","5094","&#9826;","elianto","#f73b6a7A","-1","-1","1","-10","[]","0","0","3","","","","","","","",""
"pit-trial","72","633700","0.0-2.0-14.1-4.1","battery-v0.2","","""event"",""trial"",""time""
""fullscreenenter"",""1"",""2007""
""blur"",""7"",""52184""
""focus"",""7"",""52934""
""blur"",""7"",""109004""
""focus"",""7"",""110203""
","""event"",""trial"",""time""
""blur"",""7"",""52184""
""blur"",""7"",""109004""
","""event"",""trial"",""time""
""focus"",""7"",""52934""
""focus"",""7"",""110203""
","""event"",""trial"",""time""
""fullscreenenter"",""1"",""2007""
","
","","","-1","","","24","10841","5094","&#9826;","elianto","#f73b6a7A","-1","-1","1","0","[]","0","0","3","","","","","","","",""
"pit-trial","73","638570","0.0-2.0-14.2-0.2","battery-v0.2","","""event"",""trial"",""time""
""fullscreenenter"",""1"",""2007""
""blur"",""7"",""52184""
""focus"",""7"",""52934""
""blur"",""7"",""109004""
""focus"",""7"",""110203""
","""event"",""trial"",""time""
""blur"",""7"",""52184""
""blur"",""7"",""109004""
","""event"",""trial"",""time""
""focus"",""7"",""52934""
""focus"",""7"",""110203""
","""event"",""trial"",""time""
""fullscreenenter"",""1"",""2007""
","
","","","-1","","","24","10841","5094","&#9826;","elianto","#f73b6a7A","-1","-1","1","0","[]","0","0","3","","","","","","","",""
"pit-trial","74","643444","0.0-2.0-14.2-1.2","battery-v0.2","","""event"",""trial"",""time""
""fullscreenenter"",""1"",""2007""
""blur"",""7"",""52184""
""focus"",""7"",""52934""
""blur"",""7"",""109004""
""focus"",""7"",""110203""
","""event"",""trial"",""time""
""blur"",""7"",""52184""
""blur"",""7"",""109004""
","""event"",""trial"",""time""
""focus"",""7"",""52934""
""focus"",""7"",""110203""
","""event"",""trial"",""time""
""fullscreenenter"",""1"",""2007""
","
","","","-1","","","24","10841","5094","&#9826;","elianto","#f73b6a7A","-1","-1","1","0","[]","0","0","3","","","","","","","",""
"pit-trial","75","648313","0.0-2.0-14.2-2.2","battery-v0.2","","""event"",""trial"",""time""
""fullscreenenter"",""1"",""2007""
""blur"",""7"",""52184""
""focus"",""7"",""52934""
""blur"",""7"",""109004""
""focus"",""7"",""110203""
","""event"",""trial"",""time""
""blur"",""7"",""52184""
""blur"",""7"",""109004""
","""event"",""trial"",""time""
""focus"",""7"",""52934""
""focus"",""7"",""110203""
","""event"",""trial"",""time""
""fullscreenenter"",""1"",""2007""
","
","","","-1","","","24","10841","5094","&#9826;","elianto","#f73b6a7A","-1","-1","1","0","[]","0","0","3","","","","","","","",""
"pit-trial","76","653186","0.0-2.0-14.2-3.2","battery-v0.2","","""event"",""trial"",""time""
""fullscreenenter"",""1"",""2007""
""blur"",""7"",""52184""
""focus"",""7"",""52934""
""blur"",""7"",""109004""
""focus"",""7"",""110203""
","""event"",""trial"",""time""
""blur"",""7"",""52184""
""blur"",""7"",""109004""
","""event"",""trial"",""time""
""focus"",""7"",""52934""
""focus"",""7"",""110203""
","""event"",""trial"",""time""
""fullscreenenter"",""1"",""2007""
","
","","","-1","","","24","10841","5094","&#9826;","elianto","#f73b6a7A","-1","-1","1","-10","[]","0","0","3","","","","","","","",""
"pit-trial","77","658061","0.0-2.0-14.2-4.2","battery-v0.2","","""event"",""trial"",""time""
""fullscreenenter"",""1"",""2007""
""blur"",""7"",""52184""
""focus"",""7"",""52934""
""blur"",""7"",""109004""
""focus"",""7"",""110203""
","""event"",""trial"",""time""
""blur"",""7"",""52184""
""blur"",""7"",""109004""
","""event"",""trial"",""time""
""focus"",""7"",""52934""
""focus"",""7"",""110203""
","""event"",""trial"",""time""
""fullscreenenter"",""1"",""2007""
","
","","","-1","","","24","10841","5094","&#9826;","elianto","#f73b6a7A","-1","-1","1","0","[]","0","0","3","","","","","","","",""
"pit-trial","78","662930","0.0-2.0-14.3-0.3","battery-v0.2","","""event"",""trial"",""time""
""fullscreenenter"",""1"",""2007""
""blur"",""7"",""52184""
""focus"",""7"",""52934""
""blur"",""7"",""109004""
""focus"",""7"",""110203""
","""event"",""trial"",""time""
""blur"",""7"",""52184""
""blur"",""7"",""109004""
","""event"",""trial"",""time""
""focus"",""7"",""52934""
""focus"",""7"",""110203""
","""event"",""trial"",""time""
""fullscreenenter"",""1"",""2007""
","
","","","-1","","","24","10841","5094","&#9826;","elianto","#f73b6a7A","-1","-1","1","0","[]","0","0","3","","","","","","","",""
"pit-trial","79","667801","0.0-2.0-14.3-1.3","battery-v0.2","","""event"",""trial"",""time""
""fullscreenenter"",""1"",""2007""
""blur"",""7"",""52184""
""focus"",""7"",""52934""
""blur"",""7"",""109004""
""focus"",""7"",""110203""
","""event"",""trial"",""time""
""blur"",""7"",""52184""
""blur"",""7"",""109004""
","""event"",""trial"",""time""
""focus"",""7"",""52934""
""focus"",""7"",""110203""
","""event"",""trial"",""time""
""fullscreenenter"",""1"",""2007""
","
","","","-1","","","24","10841","5094","&#9826;","elianto","#f73b6a7A","-1","-1","1","0","[]","0","0","3","","","","","","","",""
"pit-trial","80","672676","0.0-2.0-14.3-2.3","battery-v0.2","","""event"",""trial"",""time""
""fullscreenenter"",""1"",""2007""
""blur"",""7"",""52184""
""focus"",""7"",""52934""
""blur"",""7"",""109004""
""focus"",""7"",""110203""
","""event"",""trial"",""time""
""blur"",""7"",""52184""
""blur"",""7"",""109004""
","""event"",""trial"",""time""
""focus"",""7"",""52934""
""focus"",""7"",""110203""
","""event"",""trial"",""time""
""fullscreenenter"",""1"",""2007""
","
","","","-1","","","24","10841","5094","&#9826;","elianto","#f73b6a7A","-1","-1","1","0","[]","0","0","3","","","","","","","",""
"pit-trial","81","677546","0.0-2.0-14.3-3.3","battery-v0.2","","""event"",""trial"",""time""
""fullscreenenter"",""1"",""2007""
""blur"",""7"",""52184""
""focus"",""7"",""52934""
""blur"",""7"",""109004""
""focus"",""7"",""110203""
","""event"",""trial"",""time""
""blur"",""7"",""52184""
""blur"",""7"",""109004""
","""event"",""trial"",""time""
""focus"",""7"",""52934""
""focus"",""7"",""110203""
","""event"",""trial"",""time""
""fullscreenenter"",""1"",""2007""
","
","","","-1","","","24","10841","5094","&#9826;","elianto","#f73b6a7A","-1","-1","1","-10","[]","0","0","3","","","","","","","",""
"pit-trial","82","682420","0.0-2.0-14.3-4.3","battery-v0.2","","""event"",""trial"",""time""
""fullscreenenter"",""1"",""2007""
""blur"",""7"",""52184""
""focus"",""7"",""52934""
""blur"",""7"",""109004""
""focus"",""7"",""110203""
","""event"",""trial"",""time""
""blur"",""7"",""52184""
""blur"",""7"",""109004""
","""event"",""trial"",""time""
""focus"",""7"",""52934""
""focus"",""7"",""110203""
","""event"",""trial"",""time""
""fullscreenenter"",""1"",""2007""
","
","","","-1","","","24","10841","5094","&#9826;","elianto","#f73b6a7A","-1","-1","1","0","[]","0","0","3","","","","","","","",""
"call-function","83","682424","0.0-2.0-15.0","battery-v0.2","","""event"",""trial"",""time""
""fullscreenenter"",""1"",""2007""
""blur"",""7"",""52184""
""focus"",""7"",""52934""
""blur"",""7"",""109004""
""focus"",""7"",""110203""
","""event"",""trial"",""time""
""blur"",""7"",""52184""
""blur"",""7"",""109004""
","""event"",""trial"",""time""
""focus"",""7"",""52934""
""focus"",""7"",""110203""
","""event"",""trial"",""time""
""fullscreenenter"",""1"",""2007""
","
","","","","","","","","","","","","","","","","","","","","","","","","","","",""
"pit-instructions","84","714127","0.0-2.0-16.0","battery-v0.2","","""event"",""trial"",""time""
""fullscreenenter"",""1"",""2007""
""blur"",""7"",""52184""
""focus"",""7"",""52934""
""blur"",""7"",""109004""
""focus"",""7"",""110203""
","""event"",""trial"",""time""
""blur"",""7"",""52184""
""blur"",""7"",""109004""
","""event"",""trial"",""time""
""focus"",""7"",""52934""
""focus"",""7"",""110203""
","""event"",""trial"",""time""
""fullscreenenter"",""1"",""2007""
","
","","[{""page_index"":0,""viewing_time"":10308.300000011921},{""page_index"":1,""viewing_time"":9453.199999988079},{""page_index"":2,""viewing_time"":6989.900000035763},{""page_index"":3,""viewing_time"":4950.800000011921}]","31702.600000023842","","","","","","","","","","","","","","","","","","","","","","","",""
"pit-trial","85","718993","0.0-2.0-17.0-0.0","battery-v0.2","","""event"",""trial"",""time""
""fullscreenenter"",""1"",""2007""
""blur"",""7"",""52184""
""focus"",""7"",""52934""
""blur"",""7"",""109004""
""focus"",""7"",""110203""
","""event"",""trial"",""time""
""blur"",""7"",""52184""
""blur"",""7"",""109004""
","""event"",""trial"",""time""
""focus"",""7"",""52934""
""focus"",""7"",""110203""
","""event"",""trial"",""time""
""fullscreenenter"",""1"",""2007""
","
","","","-1","","","24","10841","5094","&#9789;","elianto","#f73b6a7A"," ","-1","0","-10","[]","0","0","4","","","","","","","",""
"pit-trial","86","723860","0.0-2.0-17.0-1.0","battery-v0.2","","""event"",""trial"",""time""
""fullscreenenter"",""1"",""2007""
""blur"",""7"",""52184""
""focus"",""7"",""52934""
""blur"",""7"",""109004""
""focus"",""7"",""110203""
","""event"",""trial"",""time""
""blur"",""7"",""52184""
""blur"",""7"",""109004""
","""event"",""trial"",""time""
""focus"",""7"",""52934""
""focus"",""7"",""110203""
","""event"",""trial"",""time""
""fullscreenenter"",""1"",""2007""
","
","","","-1","","","24","10841","5094","&#9789;","elianto","#f73b6a7A"," ","-1","0","-10","[]","0","0","4","","","","","","","",""
"pit-trial","87","728733","0.0-2.0-17.0-2.0","battery-v0.2","","""event"",""trial"",""time""
""fullscreenenter"",""1"",""2007""
""blur"",""7"",""52184""
""focus"",""7"",""52934""
""blur"",""7"",""109004""
""focus"",""7"",""110203""
","""event"",""trial"",""time""
""blur"",""7"",""52184""
""blur"",""7"",""109004""
","""event"",""trial"",""time""
""focus"",""7"",""52934""
""focus"",""7"",""110203""
","""event"",""trial"",""time""
""fullscreenenter"",""1"",""2007""
","
","","","-1","","","24","10841","5094","&#9789;","elianto","#f73b6a7A"," ","-1","0","-10","[]","0","0","4","","","","","","","",""
"pit-trial","88","733604","0.0-2.0-17.0-3.0","battery-v0.2","","""event"",""trial"",""time""
""fullscreenenter"",""1"",""2007""
""blur"",""7"",""52184""
""focus"",""7"",""52934""
""blur"",""7"",""109004""
""focus"",""7"",""110203""
","""event"",""trial"",""time""
""blur"",""7"",""52184""
""blur"",""7"",""109004""
","""event"",""trial"",""time""
""focus"",""7"",""52934""
""focus"",""7"",""110203""
","""event"",""trial"",""time""
""fullscreenenter"",""1"",""2007""
","
","","","-1","","","24","10841","5094","&#9789;","elianto","#f73b6a7A"," ","-1","0","0","[]","0","0","4","","","","","","","",""
"pit-trial","89","738472","0.0-2.0-17.0-4.0","battery-v0.2","","""event"",""trial"",""time""
""fullscreenenter"",""1"",""2007""
""blur"",""7"",""52184""
""focus"",""7"",""52934""
""blur"",""7"",""109004""
""focus"",""7"",""110203""
","""event"",""trial"",""time""
""blur"",""7"",""52184""
""blur"",""7"",""109004""
","""event"",""trial"",""time""
""focus"",""7"",""52934""
""focus"",""7"",""110203""
","""event"",""trial"",""time""
""fullscreenenter"",""1"",""2007""
","
","","","-1","","","24","10841","5094","&#9789;","elianto","#f73b6a7A"," ","-1","0","-10","[]","0","0","4","","","","","","","",""
"pit-trial","90","743340","0.0-2.0-17.1-0.1","battery-v0.2","","""event"",""trial"",""time""
""fullscreenenter"",""1"",""2007""
""blur"",""7"",""52184""
""focus"",""7"",""52934""
""blur"",""7"",""109004""
""focus"",""7"",""110203""
","""event"",""trial"",""time""
""blur"",""7"",""52184""
""blur"",""7"",""109004""
","""event"",""trial"",""time""
""focus"",""7"",""52934""
""focus"",""7"",""110203""
","""event"",""trial"",""time""
""fullscreenenter"",""1"",""2007""
","
","","","-1","","","24","10841","5094","&#9789;","elianto","#f73b6a7A"," ","-1","0","-10","[]","0","0","4","","","","","","","",""
"pit-trial","91","748209","0.0-2.0-17.1-1.1","battery-v0.2","","""event"",""trial"",""time""
""fullscreenenter"",""1"",""2007""
""blur"",""7"",""52184""
""focus"",""7"",""52934""
""blur"",""7"",""109004""
""focus"",""7"",""110203""
","""event"",""trial"",""time""
""blur"",""7"",""52184""
""blur"",""7"",""109004""
","""event"",""trial"",""time""
""focus"",""7"",""52934""
""focus"",""7"",""110203""
","""event"",""trial"",""time""
""fullscreenenter"",""1"",""2007""
","
","","","-1","","","24","10841","5094","&#9789;","elianto","#f73b6a7A"," ","-1","0","-10","[]","0","0","4","","","","","","","",""
"pit-trial","92","753073","0.0-2.0-17.1-2.1","battery-v0.2","","""event"",""trial"",""time""
""fullscreenenter"",""1"",""2007""
""blur"",""7"",""52184""
""focus"",""7"",""52934""
""blur"",""7"",""109004""
""focus"",""7"",""110203""
","""event"",""trial"",""time""
""blur"",""7"",""52184""
""blur"",""7"",""109004""
","""event"",""trial"",""time""
""focus"",""7"",""52934""
""focus"",""7"",""110203""
","""event"",""trial"",""time""
""fullscreenenter"",""1"",""2007""
","
","","","-1","","","24","10841","5094","&#9789;","elianto","#f73b6a7A"," ","-1","0","-10","[]","0","0","4","","","","","","","",""
"pit-trial","93","757946","0.0-2.0-17.1-3.1","battery-v0.2","","""event"",""trial"",""time""
""fullscreenenter"",""1"",""2007""
""blur"",""7"",""52184""
""focus"",""7"",""52934""
""blur"",""7"",""109004""
""focus"",""7"",""110203""
","""event"",""trial"",""time""
""blur"",""7"",""52184""
""blur"",""7"",""109004""
","""event"",""trial"",""time""
""focus"",""7"",""52934""
""focus"",""7"",""110203""
","""event"",""trial"",""time""
""fullscreenenter"",""1"",""2007""
","
","","","-1","","","24","10841","5094","&#9789;","elianto","#f73b6a7A"," ","-1","0","0","[]","0","0","4","","","","","","","",""
"pit-trial","94","762817","0.0-2.0-17.1-4.1","battery-v0.2","","""event"",""trial"",""time""
""fullscreenenter"",""1"",""2007""
""blur"",""7"",""52184""
""focus"",""7"",""52934""
""blur"",""7"",""109004""
""focus"",""7"",""110203""
","""event"",""trial"",""time""
""blur"",""7"",""52184""
""blur"",""7"",""109004""
","""event"",""trial"",""time""
""focus"",""7"",""52934""
""focus"",""7"",""110203""
","""event"",""trial"",""time""
""fullscreenenter"",""1"",""2007""
","
","","","-1","","","24","10841","5094","&#9789;","elianto","#f73b6a7A"," ","-1","0","-10","[]","0","0","4","","","","","","","",""
"pit-trial","95","767684","0.0-2.0-17.2-0.2","battery-v0.2","","""event"",""trial"",""time""
""fullscreenenter"",""1"",""2007""
""blur"",""7"",""52184""
""focus"",""7"",""52934""
""blur"",""7"",""109004""
""focus"",""7"",""110203""
","""event"",""trial"",""time""
""blur"",""7"",""52184""
""blur"",""7"",""109004""
","""event"",""trial"",""time""
""focus"",""7"",""52934""
""focus"",""7"",""110203""
","""event"",""trial"",""time""
""fullscreenenter"",""1"",""2007""
","
","","","-1","","","24","10841","5094","&#9789;","elianto","#f73b6a7A"," ","-1","0","-10","[]","0","0","4","","","","","","","",""
"pit-trial","96","772555","0.0-2.0-17.2-1.2","battery-v0.2","","""event"",""trial"",""time""
""fullscreenenter"",""1"",""2007""
""blur"",""7"",""52184""
""focus"",""7"",""52934""
""blur"",""7"",""109004""
""focus"",""7"",""110203""
","""event"",""trial"",""time""
""blur"",""7"",""52184""
""blur"",""7"",""109004""
","""event"",""trial"",""time""
""focus"",""7"",""52934""
""focus"",""7"",""110203""
","""event"",""trial"",""time""
""fullscreenenter"",""1"",""2007""
","
","","","-1","","","24","10841","5094","&#9789;","elianto","#f73b6a7A"," ","-1","0","-10","[]","0","0","4","","","","","","","",""
"pit-trial","97","777424","0.0-2.0-17.2-2.2","battery-v0.2","","""event"",""trial"",""time""
""fullscreenenter"",""1"",""2007""
""blur"",""7"",""52184""
""focus"",""7"",""52934""
""blur"",""7"",""109004""
""focus"",""7"",""110203""
","""event"",""trial"",""time""
""blur"",""7"",""52184""
""blur"",""7"",""109004""
","""event"",""trial"",""time""
""focus"",""7"",""52934""
""focus"",""7"",""110203""
","""event"",""trial"",""time""
""fullscreenenter"",""1"",""2007""
","
","","","-1","","","24","10841","5094","&#9789;","elianto","#f73b6a7A"," ","-1","0","-10","[]","0","0","4","","","","","","","",""
"pit-trial","98","782292","0.0-2.0-17.2-3.2","battery-v0.2","","""event"",""trial"",""time""
""fullscreenenter"",""1"",""2007""
""blur"",""7"",""52184""
""focus"",""7"",""52934""
""blur"",""7"",""109004""
""focus"",""7"",""110203""
","""event"",""trial"",""time""
""blur"",""7"",""52184""
""blur"",""7"",""109004""
","""event"",""trial"",""time""
""focus"",""7"",""52934""
""focus"",""7"",""110203""
","""event"",""trial"",""time""
""fullscreenenter"",""1"",""2007""
","
","","","-1","","","24","10841","5094","&#9789;","elianto","#f73b6a7A"," ","-1","0","0","[]","0","0","4","","","","","","","",""
"pit-trial","99","787165","0.0-2.0-17.2-4.2","battery-v0.2","","""event"",""trial"",""time""
""fullscreenenter"",""1"",""2007""
""blur"",""7"",""52184""
""focus"",""7"",""52934""
""blur"",""7"",""109004""
""focus"",""7"",""110203""
","""event"",""trial"",""time""
""blur"",""7"",""52184""
""blur"",""7"",""109004""
","""event"",""trial"",""time""
""focus"",""7"",""52934""
""focus"",""7"",""110203""
","""event"",""trial"",""time""
""fullscreenenter"",""1"",""2007""
","
","","","-1","","","24","10841","5094","&#9789;","elianto","#f73b6a7A"," ","-1","0","-10","[]","0","0","4","","","","","","","",""
"pit-trial","100","792032","0.0-2.0-17.3-0.3","battery-v0.2","","""event"",""trial"",""time""
""fullscreenenter"",""1"",""2007""
""blur"",""7"",""52184""
""focus"",""7"",""52934""
""blur"",""7"",""109004""
""focus"",""7"",""110203""
","""event"",""trial"",""time""
""blur"",""7"",""52184""
""blur"",""7"",""109004""
","""event"",""trial"",""time""
""focus"",""7"",""52934""
""focus"",""7"",""110203""
","""event"",""trial"",""time""
""fullscreenenter"",""1"",""2007""
","
","","","-1","","","24","10841","5094","&#9789;","elianto","#f73b6a7A"," ","-1","0","-10","[]","0","0","4","","","","","","","",""
"pit-trial","101","796896","0.0-2.0-17.3-1.3","battery-v0.2","","""event"",""trial"",""time""
""fullscreenenter"",""1"",""2007""
""blur"",""7"",""52184""
""focus"",""7"",""52934""
""blur"",""7"",""109004""
""focus"",""7"",""110203""
","""event"",""trial"",""time""
""blur"",""7"",""52184""
""blur"",""7"",""109004""
","""event"",""trial"",""time""
""focus"",""7"",""52934""
""focus"",""7"",""110203""
","""event"",""trial"",""time""
""fullscreenenter"",""1"",""2007""
","
","","","-1","","","24","10841","5094","&#9789;","elianto","#f73b6a7A"," ","-1","0","-10","[]","0","0","4","","","","","","","",""
"pit-trial","102","801764","0.0-2.0-17.3-2.3","battery-v0.2","","""event"",""trial"",""time""
""fullscreenenter"",""1"",""2007""
""blur"",""7"",""52184""
""focus"",""7"",""52934""
""blur"",""7"",""109004""
""focus"",""7"",""110203""
","""event"",""trial"",""time""
""blur"",""7"",""52184""
""blur"",""7"",""109004""
","""event"",""trial"",""time""
""focus"",""7"",""52934""
""focus"",""7"",""110203""
","""event"",""trial"",""time""
""fullscreenenter"",""1"",""2007""
","
","","","-1","","","24","10841","5094","&#9789;","elianto","#f73b6a7A"," ","-1","0","-10","[]","0","0","4","","","","","","","",""
"pit-trial","103","806635","0.0-2.0-17.3-3.3","battery-v0.2","","""event"",""trial"",""time""
""fullscreenenter"",""1"",""2007""
""blur"",""7"",""52184""
""focus"",""7"",""52934""
""blur"",""7"",""109004""
""focus"",""7"",""110203""
","""event"",""trial"",""time""
""blur"",""7"",""52184""
""blur"",""7"",""109004""
","""event"",""trial"",""time""
""focus"",""7"",""52934""
""focus"",""7"",""110203""
","""event"",""trial"",""time""
""fullscreenenter"",""1"",""2007""
","
","","","-1","","","24","10841","5094","&#9789;","elianto","#f73b6a7A"," ","-1","0","0","[]","0","0","4","","","","","","","",""
"pit-trial","104","811504","0.0-2.0-17.3-4.3","battery-v0.2","","""event"",""trial"",""time""
""fullscreenenter"",""1"",""2007""
""blur"",""7"",""52184""
""focus"",""7"",""52934""
""blur"",""7"",""109004""
""focus"",""7"",""110203""
","""event"",""trial"",""time""
""blur"",""7"",""52184""
""blur"",""7"",""109004""
","""event"",""trial"",""time""
""focus"",""7"",""52934""
""focus"",""7"",""110203""
","""event"",""trial"",""time""
""fullscreenenter"",""1"",""2007""
","
","","","-1","","","24","10841","5094","&#9789;","elianto","#f73b6a7A"," ","-1","0","-10","[]","0","0","4","","","","","","","",""
"call-function","105","811506","0.0-2.0-18.0","battery-v0.2","","""event"",""trial"",""time""
""fullscreenenter"",""1"",""2007""
""blur"",""7"",""52184""
""focus"",""7"",""52934""
""blur"",""7"",""109004""
""focus"",""7"",""110203""
","""event"",""trial"",""time""
""blur"",""7"",""52184""
""blur"",""7"",""109004""
","""event"",""trial"",""time""
""focus"",""7"",""52934""
""focus"",""7"",""110203""
","""event"",""trial"",""time""
""fullscreenenter"",""1"",""2007""
","
","","","","","","","","","","","","","","","","","","","","","","","","","","",""
"pit-instructions","106","888878","0.0-2.0-19.0","battery-v0.2","","""event"",""trial"",""time""
""fullscreenenter"",""1"",""2007""
""blur"",""7"",""52184""
""focus"",""7"",""52934""
""blur"",""7"",""109004""
""focus"",""7"",""110203""
","""event"",""trial"",""time""
""blur"",""7"",""52184""
""blur"",""7"",""109004""
","""event"",""trial"",""time""
""focus"",""7"",""52934""
""focus"",""7"",""110203""
","""event"",""trial"",""time""
""fullscreenenter"",""1"",""2007""
","
","","[{""page_index"":0,""viewing_time"":7561.700000047684},{""page_index"":1,""viewing_time"":1337.699999988079},{""page_index"":0,""viewing_time"":9424.399999976158},{""page_index"":1,""viewing_time"":5990.699999988079},{""page_index"":2,""viewing_time"":12835.800000011921},{""page_index"":3,""viewing_time"":6983.800000011921},{""page_index"":4,""viewing_time"":8097.199999988079},{""page_index"":5,""viewing_time"":8196.699999988079},{""page_index"":6,""viewing_time"":7907},{""page_index"":7,""viewing_time"":4621.600000023842},{""page_index"":8,""viewing_time"":4412.5}]","77370.40000003576","","","","","","","","","","","","","","","","","","","","","","","",""
"pit-comprehension","107","894781","0.0-2.0-20.0-0.0","battery-v0.2","","""event"",""trial"",""time""
""fullscreenenter"",""1"",""2007""
""blur"",""7"",""52184""
""focus"",""7"",""52934""
""blur"",""7"",""109004""
""focus"",""7"",""110203""
","""event"",""trial"",""time""
""blur"",""7"",""52184""
""blur"",""7"",""109004""
","""event"",""trial"",""time""
""focus"",""7"",""52934""
""focus"",""7"",""110203""
","""event"",""trial"",""time""
""fullscreenenter"",""1"",""2007""
","
","","","5899.099999964237","[""SPACE""]","0","24","10841","5094","","","","","","","","","","","","","","","","","","",""
"pit-instructions","108","898572","0.0-2.0-20.0-1.0","battery-v0.2","","""event"",""trial"",""time""
""fullscreenenter"",""1"",""2007""
""blur"",""7"",""52184""
""focus"",""7"",""52934""
""blur"",""7"",""109004""
""focus"",""7"",""110203""
","""event"",""trial"",""time""
""blur"",""7"",""52184""
""blur"",""7"",""109004""
","""event"",""trial"",""time""
""focus"",""7"",""52934""
""focus"",""7"",""110203""
","""event"",""trial"",""time""
""fullscreenenter"",""1"",""2007""
","
","","[{""page_index"":0,""viewing_time"":3765.2999999523163}]","3765.599999964237","","","","","","","","","","","","","","","","","","","","","","","",""
"pit-comprehension","109","905073","0.0-2.0-21.0-0.0","battery-v0.2","","""event"",""trial"",""time""
""fullscreenenter"",""1"",""2007""
""blur"",""7"",""52184""
""focus"",""7"",""52934""
""blur"",""7"",""109004""
""focus"",""7"",""110203""
","""event"",""trial"",""time""
""blur"",""7"",""52184""
""blur"",""7"",""109004""
","""event"",""trial"",""time""
""focus"",""7"",""52934""
""focus"",""7"",""110203""
","""event"",""trial"",""time""
""fullscreenenter"",""1"",""2007""
","
","","","6497.400000035763","[""10""]","0","24","10841","5094","","","","","","","","","","","","","","","","","","",""
"pit-instructions","110","906172","0.0-2.0-21.0-1.0","battery-v0.2","","""event"",""trial"",""time""
""fullscreenenter"",""1"",""2007""
""blur"",""7"",""52184""
""focus"",""7"",""52934""
""blur"",""7"",""109004""
""focus"",""7"",""110203""
","""event"",""trial"",""time""
""blur"",""7"",""52184""
""blur"",""7"",""109004""
","""event"",""trial"",""time""
""focus"",""7"",""52934""
""focus"",""7"",""110203""
","""event"",""trial"",""time""
""fullscreenenter"",""1"",""2007""
","
","","[{""page_index"":0,""viewing_time"":1075.3999999761581}]","1075.5999999642372","","","","","","","","","","","","","","","","","","","","","","","",""
"pit-comprehension","111","925069","0.0-2.0-22.0-0.0","battery-v0.2","","""event"",""trial"",""time""
""fullscreenenter"",""1"",""2007""
""blur"",""7"",""52184""
""focus"",""7"",""52934""
""blur"",""7"",""109004""
""focus"",""7"",""110203""
","""event"",""trial"",""time""
""blur"",""7"",""52184""
""blur"",""7"",""109004""
","""event"",""trial"",""time""
""focus"",""7"",""52934""
""focus"",""7"",""110203""
","""event"",""trial"",""time""
""fullscreenenter"",""1"",""2007""
","
","","","18894.400000035763","[""0""]","0","24","10841","5094","","","","","","","","","","","","","","","","","","",""
"pit-instructions","112","926584","0.0-2.0-22.0-1.0","battery-v0.2","","""event"",""trial"",""time""
""fullscreenenter"",""1"",""2007""
""blur"",""7"",""52184""
""focus"",""7"",""52934""
""blur"",""7"",""109004""
""focus"",""7"",""110203""
","""event"",""trial"",""time""
""blur"",""7"",""52184""
""blur"",""7"",""109004""
","""event"",""trial"",""time""
""focus"",""7"",""52934""
""focus"",""7"",""110203""
","""event"",""trial"",""time""
""fullscreenenter"",""1"",""2007""
","
","","[{""page_index"":0,""viewing_time"":1495.1000000238419}]","1495.6000000238419","","","","","","","","","","","","","","","","","","","","","","","",""
"pit-comprehension","113","935776","0.0-2.0-23.0-0.0","battery-v0.2","","""event"",""trial"",""time""
""fullscreenenter"",""1"",""2007""
""blur"",""7"",""52184""
""focus"",""7"",""52934""
""blur"",""7"",""109004""
""focus"",""7"",""110203""
","""event"",""trial"",""time""
""blur"",""7"",""52184""
""blur"",""7"",""109004""
","""event"",""trial"",""time""
""focus"",""7"",""52934""
""focus"",""7"",""110203""
","""event"",""trial"",""time""
""fullscreenenter"",""1"",""2007""
","
","","","9188.699999988079","[""False""]","1","24","10841","5094","","","","","","","","","","","","","","","","","","",""
"pit-instructions","114","961926","0.0-2.0-23.0-1.0","battery-v0.2","","""event"",""trial"",""time""
""fullscreenenter"",""1"",""2007""
""blur"",""7"",""52184""
""focus"",""7"",""52934""
""blur"",""7"",""109004""
""focus"",""7"",""110203""
","""event"",""trial"",""time""
""blur"",""7"",""52184""
""blur"",""7"",""109004""
","""event"",""trial"",""time""
""focus"",""7"",""52934""
""focus"",""7"",""110203""
","""event"",""trial"",""time""
""fullscreenenter"",""1"",""2007""
","
","","[{""page_index"":0,""viewing_time"":26128.69999998808}]","26129.099999964237","","","","","","","","","","","","","","","","","","","","","","","",""
"pit-instructions","115","963651","0.0-2.0-23.0-2.0-0.0","battery-v0.2","","""event"",""trial"",""time""
""fullscreenenter"",""1"",""2007""
""blur"",""7"",""52184""
""focus"",""7"",""52934""
""blur"",""7"",""109004""
""focus"",""7"",""110203""
","""event"",""trial"",""time""
""blur"",""7"",""52184""
""blur"",""7"",""109004""
","""event"",""trial"",""time""
""focus"",""7"",""52934""
""focus"",""7"",""110203""
","""event"",""trial"",""time""
""fullscreenenter"",""1"",""2007""
","
","","[{""page_index"":0,""viewing_time"":1722.6000000238419}]","1722.8999999761581","","","","","","","","","","","","","","","","","","","","","","","",""
"pit-comprehension","116","973248","0.0-2.0-23.1-0.1","battery-v0.2","","""event"",""trial"",""time""
""fullscreenenter"",""1"",""2007""
""blur"",""7"",""52184""
""focus"",""7"",""52934""
""blur"",""7"",""109004""
""focus"",""7"",""110203""
","""event"",""trial"",""time""
""blur"",""7"",""52184""
""blur"",""7"",""109004""
","""event"",""trial"",""time""
""focus"",""7"",""52934""
""focus"",""7"",""110203""
","""event"",""trial"",""time""
""fullscreenenter"",""1"",""2007""
","
","","","9594.100000023842","[""True""]","0","24","10841","5094","","","","","","","","","","","","","","","","","","",""
"pit-instructions","117","976509","0.0-2.0-23.1-1.1","battery-v0.2","","""event"",""trial"",""time""
""fullscreenenter"",""1"",""2007""
""blur"",""7"",""52184""
""focus"",""7"",""52934""
""blur"",""7"",""109004""
""focus"",""7"",""110203""
","""event"",""trial"",""time""
""blur"",""7"",""52184""
""blur"",""7"",""109004""
","""event"",""trial"",""time""
""focus"",""7"",""52934""
""focus"",""7"",""110203""
","""event"",""trial"",""time""
""fullscreenenter"",""1"",""2007""
","
","","[{""page_index"":0,""viewing_time"":3237.300000011921}]","3238.199999988079","","","","","","","","","","","","","","","","","","","","","","","",""
"pit-comprehension","118","984099","0.0-2.0-24.0-0.0","battery-v0.2","","""event"",""trial"",""time""
""fullscreenenter"",""1"",""2007""
""blur"",""7"",""52184""
""focus"",""7"",""52934""
""blur"",""7"",""109004""
""focus"",""7"",""110203""
","""event"",""trial"",""time""
""blur"",""7"",""52184""
""blur"",""7"",""109004""
","""event"",""trial"",""time""
""focus"",""7"",""52934""
""focus"",""7"",""110203""
","""event"",""trial"",""time""
""fullscreenenter"",""1"",""2007""
","
","","","7587.300000011921","[""True""]","0","24","10841","5094","","","","","","","","","","","","","","","","","","",""
"pit-instructions","119","986735","0.0-2.0-24.0-1.0","battery-v0.2","","""event"",""trial"",""time""
""fullscreenenter"",""1"",""2007""
""blur"",""7"",""52184""
""focus"",""7"",""52934""
""blur"",""7"",""109004""
""focus"",""7"",""110203""
","""event"",""trial"",""time""
""blur"",""7"",""52184""
""blur"",""7"",""109004""
","""event"",""trial"",""time""
""focus"",""7"",""52934""
""focus"",""7"",""110203""
","""event"",""trial"",""time""
""fullscreenenter"",""1"",""2007""
","
","","[{""page_index"":0,""viewing_time"":2603.399999976158}]","2603.699999988079","","","","","","","","","","","","","","","","","","","","","","","",""
"pit-comprehension","120","993147","0.0-2.0-25.0-0.0","battery-v0.2","","""event"",""trial"",""time""
""fullscreenenter"",""1"",""2007""
""blur"",""7"",""52184""
""focus"",""7"",""52934""
""blur"",""7"",""109004""
""focus"",""7"",""110203""
","""event"",""trial"",""time""
""blur"",""7"",""52184""
""blur"",""7"",""109004""
","""event"",""trial"",""time""
""focus"",""7"",""52934""
""focus"",""7"",""110203""
","""event"",""trial"",""time""
""fullscreenenter"",""1"",""2007""
","
","","","6409","[""True""]","0","24","10841","5094","","","","","","","","","","","","","","","","","","",""
"pit-instructions","121","994605","0.0-2.0-25.0-1.0","battery-v0.2","","""event"",""trial"",""time""
""fullscreenenter"",""1"",""2007""
""blur"",""7"",""52184""
""focus"",""7"",""52934""
""blur"",""7"",""109004""
""focus"",""7"",""110203""
","""event"",""trial"",""time""
""blur"",""7"",""52184""
""blur"",""7"",""109004""
","""event"",""trial"",""time""
""focus"",""7"",""52934""
""focus"",""7"",""110203""
","""event"",""trial"",""time""
""fullscreenenter"",""1"",""2007""
","
","","[{""page_index"":0,""viewing_time"":1426.8999999761581}]","1427.0999999642372","","","","","","","","","","","","","","","","","","","","","","","",""
"pit-comprehension","122","999725","0.0-2.0-26.0-0.0","battery-v0.2","","""event"",""trial"",""time""
""fullscreenenter"",""1"",""2007""
""blur"",""7"",""52184""
""focus"",""7"",""52934""
""blur"",""7"",""109004""
""focus"",""7"",""110203""
","""event"",""trial"",""time""
""blur"",""7"",""52184""
""blur"",""7"",""109004""
","""event"",""trial"",""time""
""focus"",""7"",""52934""
""focus"",""7"",""110203""
","""event"",""trial"",""time""
""fullscreenenter"",""1"",""2007""
","
","","","5117.699999988079","[""True""]","1","24","10841","5094","","","","","","","","","","","","","","","","","","",""
"pit-instructions","123","1014788","0.0-2.0-26.0-1.0","battery-v0.2","","""event"",""trial"",""time""
""fullscreenenter"",""1"",""2007""
""blur"",""7"",""52184""
""focus"",""7"",""52934""
""blur"",""7"",""109004""
""focus"",""7"",""110203""
","""event"",""trial"",""time""
""blur"",""7"",""52184""
""blur"",""7"",""109004""
","""event"",""trial"",""time""
""focus"",""7"",""52934""
""focus"",""7"",""110203""
","""event"",""trial"",""time""
""fullscreenenter"",""1"",""2007""
","
","","[{""page_index"":0,""viewing_time"":15041.699999988079}]","15041.900000035763","","","","","","","","","","","","","","","","","","","","","","","",""
"pit-instructions","124","1020035","0.0-2.0-26.0-2.0-0.0","battery-v0.2","","""event"",""trial"",""time""
""fullscreenenter"",""1"",""2007""
""blur"",""7"",""52184""
""focus"",""7"",""52934""
""blur"",""7"",""109004""
""focus"",""7"",""110203""
","""event"",""trial"",""time""
""blur"",""7"",""52184""
""blur"",""7"",""109004""
","""event"",""trial"",""time""
""focus"",""7"",""52934""
""focus"",""7"",""110203""
","""event"",""trial"",""time""
""fullscreenenter"",""1"",""2007""
","
","","[{""page_index"":0,""viewing_time"":5245}]","5245.399999976158","","","","","","","","","","","","","","","","","","","","","","","",""
"pit-comprehension","125","1026055","0.0-2.0-26.1-0.1","battery-v0.2","","""event"",""trial"",""time""
""fullscreenenter"",""1"",""2007""
""blur"",""7"",""52184""
""focus"",""7"",""52934""
""blur"",""7"",""109004""
""focus"",""7"",""110203""
","""event"",""trial"",""time""
""blur"",""7"",""52184""
""blur"",""7"",""109004""
","""event"",""trial"",""time""
""focus"",""7"",""52934""
""focus"",""7"",""110203""
","""event"",""trial"",""time""
""fullscreenenter"",""1"",""2007""
","
","","","6017.299999952316","[""False""]","0","24","10841","5094","","","","","","","","","","","","","","","","","","",""
"pit-instructions","126","1027608","0.0-2.0-26.1-1.1","battery-v0.2","","""event"",""trial"",""time""
""fullscreenenter"",""1"",""2007""
""blur"",""7"",""52184""
""focus"",""7"",""52934""
""blur"",""7"",""109004""
""focus"",""7"",""110203""
","""event"",""trial"",""time""
""blur"",""7"",""52184""
""blur"",""7"",""109004""
","""event"",""trial"",""time""
""focus"",""7"",""52934""
""focus"",""7"",""110203""
","""event"",""trial"",""time""
""fullscreenenter"",""1"",""2007""
","
","","[{""page_index"":0,""viewing_time"":1521.5}]","1521.699999988079","","","","","","","","","","","","","","","","","","","","","","","",""
"pit-instructions","127","1046775","0.0-3.0","battery-v0.2","","""event"",""trial"",""time""
""fullscreenenter"",""1"",""2007""
""blur"",""7"",""52184""
""focus"",""7"",""52934""
""blur"",""7"",""109004""
""focus"",""7"",""110203""
","""event"",""trial"",""time""
""blur"",""7"",""52184""
""blur"",""7"",""109004""
","""event"",""trial"",""time""
""focus"",""7"",""52934""
""focus"",""7"",""110203""
","""event"",""trial"",""time""
""fullscreenenter"",""1"",""2007""
","
","","[{""page_index"":0,""viewing_time"":4407.699999988079},{""page_index"":1,""viewing_time"":6619},{""page_index"":2,""viewing_time"":8139.100000023842}]","19166.100000023842","","","","","","","","","","","","","","","","","","","","","","","",""
"pit-trial","128","1051649","0.0-4.0","battery-v0.2","","""event"",""trial"",""time""
""fullscreenenter"",""1"",""2007""
""blur"",""7"",""52184""
""focus"",""7"",""52934""
""blur"",""7"",""109004""
""focus"",""7"",""110203""
","""event"",""trial"",""time""
""blur"",""7"",""52184""
""blur"",""7"",""109004""
","""event"",""trial"",""time""
""focus"",""7"",""52934""
""focus"",""7"",""110203""
","""event"",""trial"",""time""
""fullscreenenter"",""1"",""2007""
","
","","","-1","","","24","10841","5094","&#9752;","elianto","#f73b6a7A"," ","-1","0","0","[]","0","1","","","10841","1","3","3","lose","go","1"
"pit-trial","129","1055738","0.0-5.0","battery-v0.2","","""event"",""trial"",""time""
""fullscreenenter"",""1"",""2007""
""blur"",""7"",""52184""
""focus"",""7"",""52934""
""blur"",""7"",""109004""
""focus"",""7"",""110203""
","""event"",""trial"",""time""
""blur"",""7"",""52184""
""blur"",""7"",""109004""
","""event"",""trial"",""time""
""focus"",""7"",""52934""
""focus"",""7"",""110203""
","""event"",""trial"",""time""
""fullscreenenter"",""1"",""2007""
","
","","","1223","","","24","10841","5094","&#9730;","elianto","#3366ff99"," "," ","1","0","[2074.399999976158]","1","1","","","10841","2","1","1","win","go","1"
"pit-trial","130","1059552","0.0-6.0","battery-v0.2","","""event"",""trial"",""time""
""fullscreenenter"",""1"",""2007""
""blur"",""7"",""52184""
""focus"",""7"",""52934""
""blur"",""7"",""109004""
""focus"",""7"",""110203""
","""event"",""trial"",""time""
""blur"",""7"",""52184""
""blur"",""7"",""109004""
","""event"",""trial"",""time""
""focus"",""7"",""52934""
""focus"",""7"",""110203""
","""event"",""trial"",""time""
""fullscreenenter"",""1"",""2007""
","
","","","949.1999999880791","","","24","10841","5094","&#9733;","elianto","#3366ff99","-1"," ","0","0","[1802]","1","1","","","10841","3","2","2","win","no-go","0"
"pit-trial","131","1064423","0.0-7.0","battery-v0.2","","""event"",""trial"",""time""
""fullscreenenter"",""1"",""2007""
""blur"",""7"",""52184""
""focus"",""7"",""52934""
""blur"",""7"",""109004""
""focus"",""7"",""110203""
","""event"",""trial"",""time""
""blur"",""7"",""52184""
""blur"",""7"",""109004""
","""event"",""trial"",""time""
""focus"",""7"",""52934""
""focus"",""7"",""110203""
","""event"",""trial"",""time""
""fullscreenenter"",""1"",""2007""
","
","","","-1","","","24","10841","5094","&#9728;","elianto","#f73b6a7A","-1","-1","1","0","[]","0","1","","","10841","4","0","4","lose","no-go","0"
"pit-trial","132","1068171","0.0-8.0","battery-v0.2","","""event"",""trial"",""time""
""fullscreenenter"",""1"",""2007""
""blur"",""7"",""52184""
""focus"",""7"",""52934""
""blur"",""7"",""109004""
""focus"",""7"",""110203""
","""event"",""trial"",""time""
""blur"",""7"",""52184""
""blur"",""7"",""109004""
","""event"",""trial"",""time""
""focus"",""7"",""52934""
""focus"",""7"",""110203""
","""event"",""trial"",""time""
""fullscreenenter"",""1"",""2007""
","
","","","881.5999999642372","","","24","10841","5094","&#9733;","elianto","#3366ff99","-1"," ","0","0","[1733.0999999642372]","1","1","","","10841","5","2","2","win","no-go","0"
"pit-trial","133","1073040","0.0-9.0","battery-v0.2","","""event"",""trial"",""time""
""fullscreenenter"",""1"",""2007""
""blur"",""7"",""52184""
""focus"",""7"",""52934""
""blur"",""7"",""109004""
""focus"",""7"",""110203""
","""event"",""trial"",""time""
""blur"",""7"",""52184""
""blur"",""7"",""109004""
","""event"",""trial"",""time""
""focus"",""7"",""52934""
""focus"",""7"",""110203""
","""event"",""trial"",""time""
""fullscreenenter"",""1"",""2007""
","
","","","-1","","","24","10841","5094","&#9728;","elianto","#f73b6a7A","-1","-1","1","-10","[]","0","1","","","10841","6","0","4","lose","no-go","1"
"pit-trial","134","1077588","0.0-10.0","battery-v0.2","","""event"",""trial"",""time""
""fullscreenenter"",""1"",""2007""
""blur"",""7"",""52184""
""focus"",""7"",""52934""
""blur"",""7"",""109004""
""focus"",""7"",""110203""
","""event"",""trial"",""time""
""blur"",""7"",""52184""
""blur"",""7"",""109004""
","""event"",""trial"",""time""
""focus"",""7"",""52934""
""focus"",""7"",""110203""
","""event"",""trial"",""time""
""fullscreenenter"",""1"",""2007""
","
","","","1679.699999988079","","","24","10841","5094","&#9730;","elianto","#3366ff99"," "," ","1","+10","[2534.100000023842]","1","1","","","10841","7","1","1","win","go","0"
"pit-trial","135","1082468","0.0-11.0","battery-v0.2","","""event"",""trial"",""time""
""fullscreenenter"",""1"",""2007""
""blur"",""7"",""52184""
""focus"",""7"",""52934""
""blur"",""7"",""109004""
""focus"",""7"",""110203""
","""event"",""trial"",""time""
""blur"",""7"",""52184""
""blur"",""7"",""109004""
","""event"",""trial"",""time""
""focus"",""7"",""52934""
""focus"",""7"",""110203""
","""event"",""trial"",""time""
""fullscreenenter"",""1"",""2007""
","
","","","-1","","","24","10841","5094","&#9752;","elianto","#f73b6a7A"," ","-1","0","0","[]","0","1","","","10841","8","3","3","lose","go","1"
"pit-trial","136","1087339","0.0-12.0","battery-v0.2","","""event"",""trial"",""time""
""fullscreenenter"",""1"",""2007""
""blur"",""7"",""52184""
""focus"",""7"",""52934""
""blur"",""7"",""109004""
""focus"",""7"",""110203""
","""event"",""trial"",""time""
""blur"",""7"",""52184""
""blur"",""7"",""109004""
","""event"",""trial"",""time""
""focus"",""7"",""52934""
""focus"",""7"",""110203""
","""event"",""trial"",""time""
""fullscreenenter"",""1"",""2007""
","
","","","-1","","","24","10841","5094","&#9752;","elianto","#f73b6a7A"," ","-1","0","-10","[]","0","1","","","10841","9","3","3","lose","go","0"
"pit-trial","137","1090908","0.0-13.0","battery-v0.2","","""event"",""trial"",""time""
""fullscreenenter"",""1"",""2007""
""blur"",""7"",""52184""
""focus"",""7"",""52934""
""blur"",""7"",""109004""
""focus"",""7"",""110203""
","""event"",""trial"",""time""
""blur"",""7"",""52184""
""blur"",""7"",""109004""
","""event"",""trial"",""time""
""focus"",""7"",""52934""
""focus"",""7"",""110203""
","""event"",""trial"",""time""
""fullscreenenter"",""1"",""2007""
","
","","","693.9000000357628","","","24","10841","5094","&#9733;","elianto","#3366ff99","-1"," ","0","0","[1550.2000000476837]","1","1","","","10841","10","2","2","win","no-go","0"
"pit-trial","138","1094417","0.0-14.0","battery-v0.2","","""event"",""trial"",""time""
""fullscreenenter"",""1"",""2007""
""blur"",""7"",""52184""
""focus"",""7"",""52934""
""blur"",""7"",""109004""
""focus"",""7"",""110203""
","""event"",""trial"",""time""
""blur"",""7"",""52184""
""blur"",""7"",""109004""
","""event"",""trial"",""time""
""focus"",""7"",""52934""
""focus"",""7"",""110203""
","""event"",""trial"",""time""
""fullscreenenter"",""1"",""2007""
","
","","","644","","","24","10841","5094","&#9730;","elianto","#3366ff99"," "," ","1","+10","[1494.6000000238419]","1","1","","","10841","11","1","1","win","go","0"
"pit-trial","139","1099292","0.0-15.0","battery-v0.2","","""event"",""trial"",""time""
""fullscreenenter"",""1"",""2007""
""blur"",""7"",""52184""
""focus"",""7"",""52934""
""blur"",""7"",""109004""
""focus"",""7"",""110203""
","""event"",""trial"",""time""
""blur"",""7"",""52184""
""blur"",""7"",""109004""
","""event"",""trial"",""time""
""focus"",""7"",""52934""
""focus"",""7"",""110203""
","""event"",""trial"",""time""
""fullscreenenter"",""1"",""2007""
","
","","","-1","","","24","10841","5094","&#9728;","elianto","#f73b6a7A","-1","-1","1","-10","[]","0","1","","","10841","12","0","4","lose","no-go","1"
"pit-trial","140","1102906","0.0-16.0","battery-v0.2","","""event"",""trial"",""time""
""fullscreenenter"",""1"",""2007""
""blur"",""7"",""52184""
""focus"",""7"",""52934""
""blur"",""7"",""109004""
""focus"",""7"",""110203""
","""event"",""trial"",""time""
""blur"",""7"",""52184""
""blur"",""7"",""109004""
","""event"",""trial"",""time""
""focus"",""7"",""52934""
""focus"",""7"",""110203""
","""event"",""trial"",""time""
""fullscreenenter"",""1"",""2007""
","
","","","752.3999999761581","","","24","10841","5094","&#9733;","elianto","#3366ff99","-1"," ","0","0","[1603.5]","1","1","","","10841","13","2","2","win","no-go","0"
"pit-trial","141","1107776","0.0-17.0","battery-v0.2","","""event"",""trial"",""time""
""fullscreenenter"",""1"",""2007""
""blur"",""7"",""52184""
""focus"",""7"",""52934""
""blur"",""7"",""109004""
""focus"",""7"",""110203""
","""event"",""trial"",""time""
""blur"",""7"",""52184""
""blur"",""7"",""109004""
","""event"",""trial"",""time""
""focus"",""7"",""52934""
""focus"",""7"",""110203""
","""event"",""trial"",""time""
""fullscreenenter"",""1"",""2007""
","
","","","-1","","","24","10841","5094","&#9752;","elianto","#f73b6a7A"," ","-1","0","-10","[]","0","1","","","10841","14","3","3","lose","go","0"
"pit-trial","142","1111651","0.0-18.0","battery-v0.2","","""event"",""trial"",""time""
""fullscreenenter"",""1"",""2007""
""blur"",""7"",""52184""
""focus"",""7"",""52934""
""blur"",""7"",""109004""
""focus"",""7"",""110203""
","""event"",""trial"",""time""
""blur"",""7"",""52184""
""blur"",""7"",""109004""
","""event"",""trial"",""time""
""focus"",""7"",""52934""
""focus"",""7"",""110203""
","""event"",""trial"",""time""
""fullscreenenter"",""1"",""2007""
","
","","","1004.1000000238419","","","24","10841","5094","&#9730;","elianto","#3366ff99"," "," ","1","+10","[1861.699999988079]","1","1","","","10841","15","1","1","win","go","0"
"pit-trial","143","1116522","0.0-19.0","battery-v0.2","","""event"",""trial"",""time""
""fullscreenenter"",""1"",""2007""
""blur"",""7"",""52184""
""focus"",""7"",""52934""
""blur"",""7"",""109004""
""focus"",""7"",""110203""
","""event"",""trial"",""time""
""blur"",""7"",""52184""
""blur"",""7"",""109004""
","""event"",""trial"",""time""
""focus"",""7"",""52934""
""focus"",""7"",""110203""
","""event"",""trial"",""time""
""fullscreenenter"",""1"",""2007""
","
","","","-1","","","24","10841","5094","&#9728;","elianto","#f73b6a7A","-1","-1","1","0","[]","0","1","","","10841","16","0","4","lose","no-go","0"
"pit-trial","144","1120065","0.0-20.0","battery-v0.2","","""event"",""trial"",""time""
""fullscreenenter"",""1"",""2007""
""blur"",""7"",""52184""
""focus"",""7"",""52934""
""blur"",""7"",""109004""
""focus"",""7"",""110203""
","""event"",""trial"",""time""
""blur"",""7"",""52184""
""blur"",""7"",""109004""
","""event"",""trial"",""time""
""focus"",""7"",""52934""
""focus"",""7"",""110203""
","""event"",""trial"",""time""
""fullscreenenter"",""1"",""2007""
","
","","","676.1000000238419","","","24","10841","5094","&#9733;","elianto","#3366ff99","-1"," ","0","0","[1528.8999999761581]","1","1","","","10841","17","2","2","win","no-go","0"
"pit-trial","145","1124939","0.0-21.0","battery-v0.2","","""event"",""trial"",""time""
""fullscreenenter"",""1"",""2007""
""blur"",""7"",""52184""
""focus"",""7"",""52934""
""blur"",""7"",""109004""
""focus"",""7"",""110203""
","""event"",""trial"",""time""
""blur"",""7"",""52184""
""blur"",""7"",""109004""
","""event"",""trial"",""time""
""focus"",""7"",""52934""
""focus"",""7"",""110203""
","""event"",""trial"",""time""
""fullscreenenter"",""1"",""2007""
","
","","","-1","","","24","10841","5094","&#9752;","elianto","#f73b6a7A"," ","-1","0","-10","[]","0","1","","","10841","18","3","3","lose","go","0"
"pit-trial","146","1129812","0.0-22.0","battery-v0.2","","""event"",""trial"",""time""
""fullscreenenter"",""1"",""2007""
""blur"",""7"",""52184""
""focus"",""7"",""52934""
""blur"",""7"",""109004""
""focus"",""7"",""110203""
","""event"",""trial"",""time""
""blur"",""7"",""52184""
""blur"",""7"",""109004""
","""event"",""trial"",""time""
""focus"",""7"",""52934""
""focus"",""7"",""110203""
","""event"",""trial"",""time""
""fullscreenenter"",""1"",""2007""
","
","","","-1","","","24","10841","5094","&#9728;","elianto","#f73b6a7A","-1","-1","1","0","[]","0","1","","","10841","19","0","4","lose","no-go","0"
"pit-trial","147","1133335","0.0-23.0","battery-v0.2","","""event"",""trial"",""time""
""fullscreenenter"",""1"",""2007""
""blur"",""7"",""52184""
""focus"",""7"",""52934""
""blur"",""7"",""109004""
""focus"",""7"",""110203""
","""event"",""trial"",""time""
""blur"",""7"",""52184""
""blur"",""7"",""109004""
","""event"",""trial"",""time""
""focus"",""7"",""52934""
""focus"",""7"",""110203""
","""event"",""trial"",""time""
""fullscreenenter"",""1"",""2007""
","
","","","654.3999999761581","","","24","10841","5094","&#9730;","elianto","#3366ff99"," "," ","1","+10","[1509]","1","1","","","10841","20","1","1","win","go","0"
"pit-instructions","148","1145506","0.0-24.0","battery-v0.2","","""event"",""trial"",""time""
""fullscreenenter"",""1"",""2007""
""blur"",""7"",""52184""
""focus"",""7"",""52934""
""blur"",""7"",""109004""
""focus"",""7"",""110203""
","""event"",""trial"",""time""
""blur"",""7"",""52184""
""blur"",""7"",""109004""
","""event"",""trial"",""time""
""focus"",""7"",""52934""
""focus"",""7"",""110203""
","""event"",""trial"",""time""
""fullscreenenter"",""1"",""2007""
","
","","[{""page_index"":0,""viewing_time"":5747.199999988079},{""page_index"":1,""viewing_time"":6422.600000023842}]","12170.199999988079","","","","","","","","","","","","","","","","","","","","","","","",""
"pit-trial","149","1150379","0.0-25.0","battery-v0.2","","""event"",""trial"",""time""
""fullscreenenter"",""1"",""2007""
""blur"",""7"",""52184""
""focus"",""7"",""52934""
""blur"",""7"",""109004""
""focus"",""7"",""110203""
","""event"",""trial"",""time""
""blur"",""7"",""52184""
""blur"",""7"",""109004""
","""event"",""trial"",""time""
""focus"",""7"",""52934""
""focus"",""7"",""110203""
","""event"",""trial"",""time""
""fullscreenenter"",""1"",""2007""
","
","","","-1","","","24","10841","5094","t","elianto","#f73b6a7A"," ","-1","0","-10","[]","0","2","","","10841","21","2","3","lose","go","0"
"pit-trial","150","1155248","0.0-26.0","battery-v0.2","","""event"",""trial"",""time""
""fullscreenenter"",""1"",""2007""
""blur"",""7"",""52184""
""focus"",""7"",""52934""
""blur"",""7"",""109004""
""focus"",""7"",""110203""
","""event"",""trial"",""time""
""blur"",""7"",""52184""
""blur"",""7"",""109004""
","""event"",""trial"",""time""
""focus"",""7"",""52934""
""focus"",""7"",""110203""
","""event"",""trial"",""time""
""fullscreenenter"",""1"",""2007""
","
","","","-1","","","24","10841","5094","b","elianto","#f73b6a7A","-1","-1","1","0","[]","0","2","","","10841","22","3","4","lose","no-go","0"
"pit-trial","151","1160122","0.0-27.0","battery-v0.2","","""event"",""trial"",""time""
""fullscreenenter"",""1"",""2007""
""blur"",""7"",""52184""
""focus"",""7"",""52934""
""blur"",""7"",""109004""
""focus"",""7"",""110203""
","""event"",""trial"",""time""
""blur"",""7"",""52184""
""blur"",""7"",""109004""
","""event"",""trial"",""time""
""focus"",""7"",""52934""
""focus"",""7"",""110203""
","""event"",""trial"",""time""
""fullscreenenter"",""1"",""2007""
","
","","","-1","","","24","10841","5094","n","elianto","#f73b6a7A"," ","-1","0","-10","[]","0","2","","","10841","23","0","3","lose","go","0"
"pit-trial","152","1163674","0.0-28.0","battery-v0.2","","""event"",""trial"",""time""
""fullscreenenter"",""1"",""2007""
""blur"",""7"",""52184""
""focus"",""7"",""52934""
""blur"",""7"",""109004""
""focus"",""7"",""110203""
","""event"",""trial"",""time""
""blur"",""7"",""52184""
""blur"",""7"",""109004""
","""event"",""trial"",""time""
""focus"",""7"",""52934""
""focus"",""7"",""110203""
","""event"",""trial"",""time""
""fullscreenenter"",""1"",""2007""
","
","","","686.0999999642372","","","24","10841","5094","f","elianto","#3366ff99","-1"," ","0","0","[1536.5]","1","2","","","10841","24","1","2","win","no-go","0"
"pit-trial","153","1168547","0.0-29.0","battery-v0.2","","""event"",""trial"",""time""
""fullscreenenter"",""1"",""2007""
""blur"",""7"",""52184""
""focus"",""7"",""52934""
""blur"",""7"",""109004""
""focus"",""7"",""110203""
","""event"",""trial"",""time""
""blur"",""7"",""52184""
""blur"",""7"",""109004""
","""event"",""trial"",""time""
""focus"",""7"",""52934""
""focus"",""7"",""110203""
","""event"",""trial"",""time""
""fullscreenenter"",""1"",""2007""
","
","","","-1","","","24","10841","5094","n","elianto","#f73b6a7A"," ","-1","0","-10","[]","0","2","","","10841","25","0","3","lose","go","0"
"pit-trial","154","1172033","0.0-30.0","battery-v0.2","","""event"",""trial"",""time""
""fullscreenenter"",""1"",""2007""
""blur"",""7"",""52184""
""focus"",""7"",""52934""
""blur"",""7"",""109004""
""focus"",""7"",""110203""
","""event"",""trial"",""time""
""blur"",""7"",""52184""
""blur"",""7"",""109004""
","""event"",""trial"",""time""
""focus"",""7"",""52934""
""focus"",""7"",""110203""
","""event"",""trial"",""time""
""fullscreenenter"",""1"",""2007""
","
","","","619.5","","","24","10841","5094","f","elianto","#3366ff99","-1"," ","0","0","[1470.5]","1","2","","","10841","26","1","2","win","no-go","0"
"pit-trial","155","1176906","0.0-31.0","battery-v0.2","","""event"",""trial"",""time""
""fullscreenenter"",""1"",""2007""
""blur"",""7"",""52184""
""focus"",""7"",""52934""
""blur"",""7"",""109004""
