"trial_type","trial_index","time_elapsed","internal_node_id","task_version","subject_id","interactions","blur_events","focus_events","fullscreenenter_events","fullscreenexit_events","success","view_history","rt","responses","num_errors","age","subject","participantId","rune","rune_set","hex","correct","choice","accuracy","outcome","keys","total_keys","block","practice","value","sub","trial","stimulus","robot","valence","action","sham"
"pavlovia","0","8","0.0-0.0","battery-v0.2","","""event"",""trial"",""time""
""focus"",""0"",""1""
""fullscreenenter"",""1"",""2128""
","
","""event"",""trial"",""time""
""focus"",""0"",""1""
","""event"",""trial"",""time""
""fullscreenenter"",""1"",""2128""
","
","","","","","","","","","","","","","","","","","","","","","","","","","","",""
"fullscreen","1","2925","0.0-1.0","battery-v0.2","","""event"",""trial"",""time""
""focus"",""0"",""1""
""fullscreenenter"",""1"",""2128""
","
","""event"",""trial"",""time""
""focus"",""0"",""1""
","""event"",""trial"",""time""
""fullscreenenter"",""1"",""2128""
","
","true","","","","","","","","","","","","","","","","","","","","","","","","","",""
"pit-instructions","2","6929","0.0-2.0-0.0","battery-v0.2","","""event"",""trial"",""time""
""focus"",""0"",""1""
""fullscreenenter"",""1"",""2128""
","
","""event"",""trial"",""time""
""focus"",""0"",""1""
","""event"",""trial"",""time""
""fullscreenenter"",""1"",""2128""
","
","","[{""page_index"":0,""viewing_time"":4003}]","4003","","","","","","","","","","","","","","","","","","","","","","","",""
"pit-comprehension","3","11425","0.0-2.0-1.0-0.0","battery-v0.2","","""event"",""trial"",""time""
""focus"",""0"",""1""
""fullscreenenter"",""1"",""2128""
","
","""event"",""trial"",""time""
""focus"",""0"",""1""
","""event"",""trial"",""time""
""fullscreenenter"",""1"",""2128""
","
","","","4492","[""shark""]","0","17","3036","2284","","","","","","","","","","","","","","","","","","",""
"pit-instructions","4","12777","0.0-2.0-1.0-1.0","battery-v0.2","","""event"",""trial"",""time""
""focus"",""0"",""1""
""fullscreenenter"",""1"",""2128""
","
","""event"",""trial"",""time""
""focus"",""0"",""1""
","""event"",""trial"",""time""
""fullscreenenter"",""1"",""2128""
","
","","[{""page_index"":0,""viewing_time"":1347}]","1347","","","","","","","","","","","","","","","","","","","","","","","",""
"pit-comprehension","5","15154","0.0-2.0-2.0-0.0","battery-v0.2","","""event"",""trial"",""time""
""focus"",""0"",""1""
""fullscreenenter"",""1"",""2128""
","
","""event"",""trial"",""time""
""focus"",""0"",""1""
","""event"",""trial"",""time""
""fullscreenenter"",""1"",""2128""
","
","","","2375","[""tiger""]","0","17","3036","2284","","","","","","","","","","","","","","","","","","",""
"pit-instructions","6","18001","0.0-2.0-2.0-1.0","battery-v0.2","","""event"",""trial"",""time""
""focus"",""0"",""1""
""fullscreenenter"",""1"",""2128""
","
","""event"",""trial"",""time""
""focus"",""0"",""1""
","""event"",""trial"",""time""
""fullscreenenter"",""1"",""2128""
","
","","[{""page_index"":0,""viewing_time"":2845}]","2846","","","","","","","","","","","","","","","","","","","","","","","",""
"pit-instructions","7","126769","0.0-2.0-3.0","battery-v0.2","","""event"",""trial"",""time""
""focus"",""0"",""1""
""fullscreenenter"",""1"",""2128""
","
","""event"",""trial"",""time""
""focus"",""0"",""1""
","""event"",""trial"",""time""
""fullscreenenter"",""1"",""2128""
","
","","[{""page_index"":0,""viewing_time"":10134},{""page_index"":1,""viewing_time"":7248},{""page_index"":2,""viewing_time"":7873},{""page_index"":3,""viewing_time"":6127},{""page_index"":4,""viewing_time"":7216},{""page_index"":5,""viewing_time"":6777},{""page_index"":6,""viewing_time"":9927},{""page_index"":7,""viewing_time"":6601},{""page_index"":8,""viewing_time"":7447},{""page_index"":9,""viewing_time"":9448},{""page_index"":10,""viewing_time"":7456},{""page_index"":11,""viewing_time"":9376},{""page_index"":12,""viewing_time"":7392},{""page_index"":13,""viewing_time"":5744}]","108766","","","","","","","","","","","","","","","","","","","","","","","",""
"pit-trial","8","130431","0.0-2.0-4.0-0.0","battery-v0.2","","""event"",""trial"",""time""
""focus"",""0"",""1""
""fullscreenenter"",""1"",""2128""
","
","""event"",""trial"",""time""
""focus"",""0"",""1""
","""event"",""trial"",""time""
""fullscreenenter"",""1"",""2128""
","
","","","784","","","17","3036","2284","&#9784;","elianto","#FFFFF080"," "," ","1","&#10004","[1648]","1","0","0","","","","","","","",""
"pit-trial","9","134160","0.0-2.0-4.1-0.1","battery-v0.2","","""event"",""trial"",""time""
""focus"",""0"",""1""
""fullscreenenter"",""1"",""2128""
","
","""event"",""trial"",""time""
""focus"",""0"",""1""
","""event"",""trial"",""time""
""fullscreenenter"",""1"",""2128""
","
","","","859","","","17","3036","2284","&#9784;","elianto","#FFFFF080"," "," ","1","&#10004","[1714]","1","0","0","","","","","","","",""
"pit-trial","10","137818","0.0-2.0-4.2-0.2","battery-v0.2","","""event"",""trial"",""time""
""focus"",""0"",""1""
""fullscreenenter"",""1"",""2128""
","
","""event"",""trial"",""time""
""focus"",""0"",""1""
","""event"",""trial"",""time""
""fullscreenenter"",""1"",""2128""
","
","","","800","","","17","3036","2284","&#9784;","elianto","#FFFFF080"," "," ","1","&#10004","[1653]","1","0","0","","","","","","","",""
"pit-trial","11","141233","0.0-2.0-4.3-0.3","battery-v0.2","","""event"",""trial"",""time""
""focus"",""0"",""1""
""fullscreenenter"",""1"",""2128""
","
","""event"",""trial"",""time""
""focus"",""0"",""1""
","""event"",""trial"",""time""
""fullscreenenter"",""1"",""2128""
","
","","","552","","","17","3036","2284","&#9784;","elianto","#FFFFF080"," "," ","1","&#10004","[1406]","1","0","0","","","","","","","",""
"pit-trial","12","144685","0.0-2.0-4.4-0.4","battery-v0.2","","""event"",""trial"",""time""
""focus"",""0"",""1""
""fullscreenenter"",""1"",""2128""
","
","""event"",""trial"",""time""
""focus"",""0"",""1""
","""event"",""trial"",""time""
""fullscreenenter"",""1"",""2128""
","
","","","589","","","17","3036","2284","&#9784;","elianto","#FFFFF080"," "," ","1","&#10004","[1449]","1","0","0","","","","","","","",""
"pit-instructions","13","170122","0.0-2.0-5.0","battery-v0.2","","""event"",""trial"",""time""
""focus"",""0"",""1""
""fullscreenenter"",""1"",""2128""
","
","""event"",""trial"",""time""
""focus"",""0"",""1""
","""event"",""trial"",""time""
""fullscreenenter"",""1"",""2128""
","
","","[{""page_index"":0,""viewing_time"":5459},{""page_index"":1,""viewing_time"":7224},{""page_index"":2,""viewing_time"":6368},{""page_index"":3,""viewing_time"":6384}]","25435","","","","","","","","","","","","","","","","","","","","","","","",""
"pit-trial","14","174981","0.0-2.0-6.0-0.0","battery-v0.2","","""event"",""trial"",""time""
""focus"",""0"",""1""
""fullscreenenter"",""1"",""2128""
","
","""event"",""trial"",""time""
""focus"",""0"",""1""
","""event"",""trial"",""time""
""fullscreenenter"",""1"",""2128""
","
","","","-1","","","17","3036","2284","&#9854;","elianto","#FFFFF080","-1","-1","1","&#10004","[]","0","0","1","","","","","","","",""
"pit-trial","15","179850","0.0-2.0-6.1-0.1","battery-v0.2","","""event"",""trial"",""time""
""focus"",""0"",""1""
""fullscreenenter"",""1"",""2128""
","
","""event"",""trial"",""time""
""focus"",""0"",""1""
","""event"",""trial"",""time""
""fullscreenenter"",""1"",""2128""
","
","","","-1","","","17","3036","2284","&#9854;","elianto","#FFFFF080","-1","-1","1","&#10004","[]","0","0","1","","","","","","","",""
"pit-trial","16","184719","0.0-2.0-6.2-0.2","battery-v0.2","","""event"",""trial"",""time""
""focus"",""0"",""1""
""fullscreenenter"",""1"",""2128""
","
","""event"",""trial"",""time""
""focus"",""0"",""1""
","""event"",""trial"",""time""
""fullscreenenter"",""1"",""2128""
","
","","","-1","","","17","3036","2284","&#9854;","elianto","#FFFFF080","-1","-1","1","&#10004","[]","0","0","1","","","","","","","",""
"pit-trial","17","189586","0.0-2.0-6.3-0.3","battery-v0.2","","""event"",""trial"",""time""
""focus"",""0"",""1""
""fullscreenenter"",""1"",""2128""
","
","""event"",""trial"",""time""
""focus"",""0"",""1""
","""event"",""trial"",""time""
""fullscreenenter"",""1"",""2128""
","
","","","-1","","","17","3036","2284","&#9854;","elianto","#FFFFF080","-1","-1","1","&#10004","[]","0","0","1","","","","","","","",""
"pit-trial","18","194450","0.0-2.0-6.4-0.4","battery-v0.2","","""event"",""trial"",""time""
""focus"",""0"",""1""
""fullscreenenter"",""1"",""2128""
","
","""event"",""trial"",""time""
""focus"",""0"",""1""
","""event"",""trial"",""time""
""fullscreenenter"",""1"",""2128""
","
","","","-1","","","17","3036","2284","&#9854;","elianto","#FFFFF080","-1","-1","1","&#10004","[]","0","0","1","","","","","","","",""
"pit-instructions","19","316001","0.0-2.0-7.0","battery-v0.2","","""event"",""trial"",""time""
""focus"",""0"",""1""
""fullscreenenter"",""1"",""2128""
","
","""event"",""trial"",""time""
""focus"",""0"",""1""
","""event"",""trial"",""time""
""fullscreenenter"",""1"",""2128""
","
","","[{""page_index"":0,""viewing_time"":6355},{""page_index"":1,""viewing_time"":7426},{""page_index"":2,""viewing_time"":6720},{""page_index"":3,""viewing_time"":7152},{""page_index"":4,""viewing_time"":5912},{""page_index"":5,""viewing_time"":7355},{""page_index"":6,""viewing_time"":4805},{""page_index"":7,""viewing_time"":8648},{""page_index"":8,""viewing_time"":6648},{""page_index"":9,""viewing_time"":5656},{""page_index"":10,""viewing_time"":7272},{""page_index"":11,""viewing_time"":4560},{""page_index"":12,""viewing_time"":6624},{""page_index"":13,""viewing_time"":7320},{""page_index"":14,""viewing_time"":7289},{""page_index"":15,""viewing_time"":6503},{""page_index"":16,""viewing_time"":7528},{""page_index"":17,""viewing_time"":7776}]","121549","","","","","","","","","","","","","","","","","","","","","","","",""
"pit-trial","20","319452","0.0-2.0-8.0-0.0","battery-v0.2","","""event"",""trial"",""time""
""focus"",""0"",""1""
""fullscreenenter"",""1"",""2128""
","
","""event"",""trial"",""time""
""focus"",""0"",""1""
","""event"",""trial"",""time""
""fullscreenenter"",""1"",""2128""
","
","","","576","","","17","3036","2284","&#9776;","elianto","#3366ff99"," "," ","1","+10","[1434]","1","0","1","","","","","","","",""
"pit-trial","21","323136","0.0-2.0-8.0-1.0","battery-v0.2","","""event"",""trial"",""time""
""focus"",""0"",""1""
""fullscreenenter"",""1"",""2128""
","
","""event"",""trial"",""time""
""focus"",""0"",""1""
","""event"",""trial"",""time""
""fullscreenenter"",""1"",""2128""
","
","","","815","","","17","3036","2284","&#9776;","elianto","#3366ff99"," "," ","1","+10","[1671]","1","0","1","","","","","","","",""
"pit-trial","22","326952","0.0-2.0-8.0-2.0","battery-v0.2","","""event"",""trial"",""time""
""focus"",""0"",""1""
""fullscreenenter"",""1"",""2128""
","
","""event"",""trial"",""time""
""focus"",""0"",""1""
","""event"",""trial"",""time""
""fullscreenenter"",""1"",""2128""
","
","","","958","","","17","3036","2284","&#9776;","elianto","#3366ff99"," "," ","1","+10","[1810]","1","0","1","","","","","","","",""
"pit-trial","23","330211","0.0-2.0-8.0-3.0","battery-v0.2","","""event"",""trial"",""time""
""focus"",""0"",""1""
""fullscreenenter"",""1"",""2128""
","
","""event"",""trial"",""time""
""focus"",""0"",""1""
","""event"",""trial"",""time""
""fullscreenenter"",""1"",""2128""
","
","","","395","","","17","3036","2284","&#9776;","elianto","#3366ff99"," "," ","1","0","[1246]","1","0","1","","","","","","","",""
"pit-trial","24","333434","0.0-2.0-8.0-4.0","battery-v0.2","","""event"",""trial"",""time""
""focus"",""0"",""1""
""fullscreenenter"",""1"",""2128""
","
","""event"",""trial"",""time""
""focus"",""0"",""1""
","""event"",""trial"",""time""
""fullscreenenter"",""1"",""2128""
","
","","","360","","","17","3036","2284","&#9776;","elianto","#3366ff99"," "," ","1","+10","[1216]","1","0","1","","","","","","","",""
"call-function","25","333435","0.0-2.0-9.0","battery-v0.2","","""event"",""trial"",""time""
""focus"",""0"",""1""
""fullscreenenter"",""1"",""2128""
","
","""event"",""trial"",""time""
""focus"",""0"",""1""
","""event"",""trial"",""time""
""fullscreenenter"",""1"",""2128""
","
","","","","","","","","","","","","","","","","","","","","","","","","","","",""
"pit-instructions","26","387145","0.0-2.0-10.0","battery-v0.2","","""event"",""trial"",""time""
""focus"",""0"",""1""
""fullscreenenter"",""1"",""2128""
","
","""event"",""trial"",""time""
""focus"",""0"",""1""
","""event"",""trial"",""time""
""fullscreenenter"",""1"",""2128""
","
","","[{""page_index"":0,""viewing_time"":6102},{""page_index"":1,""viewing_time"":8200},{""page_index"":2,""viewing_time"":20000},{""page_index"":3,""viewing_time"":11311},{""page_index"":4,""viewing_time"":8097}]","53710","","","","","","","","","","","","","","","","","","","","","","","",""
"pit-trial","27","390986","0.0-2.0-11.0-0.0","battery-v0.2","","""event"",""trial"",""time""
""focus"",""0"",""1""
""fullscreenenter"",""1"",""2128""
","
","""event"",""trial"",""time""
""focus"",""0"",""1""
","""event"",""trial"",""time""
""fullscreenenter"",""1"",""2128""
","
","","","979","","","17","3036","2284","&#9761;","elianto","#3366ff99","-1"," ","0","0","[1835]","1","0","2","","","","","","","",""
"pit-trial","28","394440","0.0-2.0-11.0-1.0","battery-v0.2","","""event"",""trial"",""time""
""focus"",""0"",""1""
""fullscreenenter"",""1"",""2128""
","
","""event"",""trial"",""time""
""focus"",""0"",""1""
","""event"",""trial"",""time""
""fullscreenenter"",""1"",""2128""
","
","","","590","","","17","3036","2284","&#9761;","elianto","#3366ff99","-1"," ","0","0","[1443]","1","0","2","","","","","","","",""
"pit-trial","29","399307","0.0-2.0-11.0-2.0","battery-v0.2","","""event"",""trial"",""time""
""focus"",""0"",""1""
""fullscreenenter"",""1"",""2128""
","
","""event"",""trial"",""time""
""focus"",""0"",""1""
","""event"",""trial"",""time""
""fullscreenenter"",""1"",""2128""
","
","","","-1","","","17","3036","2284","&#9761;","elianto","#3366ff99","-1","-1","1","+10","[]","0","0","2","","","","","","","",""
"pit-trial","30","404179","0.0-2.0-11.0-3.0","battery-v0.2","","""event"",""trial"",""time""
""focus"",""0"",""1""
""fullscreenenter"",""1"",""2128""
","
","""event"",""trial"",""time""
""focus"",""0"",""1""
","""event"",""trial"",""time""
""fullscreenenter"",""1"",""2128""
","
","","","-1","","","17","3036","2284","&#9761;","elianto","#3366ff99","-1","-1","1","0","[]","0","0","2","","","","","","","",""
"pit-trial","31","409046","0.0-2.0-11.0-4.0","battery-v0.2","","""event"",""trial"",""time""
""focus"",""0"",""1""
""fullscreenenter"",""1"",""2128""
","
","""event"",""trial"",""time""
""focus"",""0"",""1""
","""event"",""trial"",""time""
""fullscreenenter"",""1"",""2128""
","
","","","-1","","","17","3036","2284","&#9761;","elianto","#3366ff99","-1","-1","1","+10","[]","0","0","2","","","","","","","",""
"pit-trial","32","413921","0.0-2.0-11.1-0.1","battery-v0.2","","""event"",""trial"",""time""
""focus"",""0"",""1""
""fullscreenenter"",""1"",""2128""
","
","""event"",""trial"",""time""
""focus"",""0"",""1""
","""event"",""trial"",""time""
""fullscreenenter"",""1"",""2128""
","
","","","-1","","","17","3036","2284","&#9761;","elianto","#3366ff99","-1","-1","1","+10","[]","0","0","2","","","","","","","",""
"pit-trial","33","418788","0.0-2.0-11.1-1.1","battery-v0.2","","""event"",""trial"",""time""
""focus"",""0"",""1""
""fullscreenenter"",""1"",""2128""
","
","""event"",""trial"",""time""
""focus"",""0"",""1""
","""event"",""trial"",""time""
""fullscreenenter"",""1"",""2128""
","
","","","-1","","","17","3036","2284","&#9761;","elianto","#3366ff99","-1","-1","1","+10","[]","0","0","2","","","","","","","",""
"pit-trial","34","423659","0.0-2.0-11.1-2.1","battery-v0.2","","""event"",""trial"",""time""
""focus"",""0"",""1""
""fullscreenenter"",""1"",""2128""
","
","""event"",""trial"",""time""
""focus"",""0"",""1""
","""event"",""trial"",""time""
""fullscreenenter"",""1"",""2128""
","
","","","-1","","","17","3036","2284","&#9761;","elianto","#3366ff99","-1","-1","1","+10","[]","0","0","2","","","","","","","",""
"pit-trial","35","428524","0.0-2.0-11.1-3.1","battery-v0.2","","""event"",""trial"",""time""
""focus"",""0"",""1""
""fullscreenenter"",""1"",""2128""
","
","""event"",""trial"",""time""
""focus"",""0"",""1""
","""event"",""trial"",""time""
""fullscreenenter"",""1"",""2128""
","
","","","-1","","","17","3036","2284","&#9761;","elianto","#3366ff99","-1","-1","1","0","[]","0","0","2","","","","","","","",""
"pit-trial","36","433397","0.0-2.0-11.1-4.1","battery-v0.2","","""event"",""trial"",""time""
""focus"",""0"",""1""
""fullscreenenter"",""1"",""2128""
","
","""event"",""trial"",""time""
""focus"",""0"",""1""
","""event"",""trial"",""time""
""fullscreenenter"",""1"",""2128""
","
","","","-1","","","17","3036","2284","&#9761;","elianto","#3366ff99","-1","-1","1","+10","[]","0","0","2","","","","","","","",""
"call-function","37","433398","0.0-2.0-12.0","battery-v0.2","","""event"",""trial"",""time""
""focus"",""0"",""1""
""fullscreenenter"",""1"",""2128""
","
","""event"",""trial"",""time""
""focus"",""0"",""1""
","""event"",""trial"",""time""
""fullscreenenter"",""1"",""2128""
","
","","","","","","","","","","","","","","","","","","","","","","","","","","",""
"pit-instructions","38","481737","0.0-2.0-13.0","battery-v0.2","","""event"",""trial"",""time""
""focus"",""0"",""1""
""fullscreenenter"",""1"",""2128""
","
","""event"",""trial"",""time""
""focus"",""0"",""1""
","""event"",""trial"",""time""
""fullscreenenter"",""1"",""2128""
","
","","[{""page_index"":0,""viewing_time"":8628},{""page_index"":1,""viewing_time"":8247},{""page_index"":2,""viewing_time"":4960},{""page_index"":3,""viewing_time"":21695},{""page_index"":4,""viewing_time"":4810}]","48340","","","","","","","","","","","","","","","","","","","","","","","",""
"pit-trial","39","485266","0.0-2.0-14.0-0.0","battery-v0.2","","""event"",""trial"",""time""
""focus"",""0"",""1""
""fullscreenenter"",""1"",""2128""
","
","""event"",""trial"",""time""
""focus"",""0"",""1""
","""event"",""trial"",""time""
""fullscreenenter"",""1"",""2128""
","
","","","663","","","17","3036","2284","&#9826;","elianto","#f73b6a7A","-1"," ","0","-10","[1522]","1","0","3","","","","","","","",""
"pit-trial","40","488502","0.0-2.0-14.0-1.0","battery-v0.2","","""event"",""trial"",""time""
""focus"",""0"",""1""
""fullscreenenter"",""1"",""2128""
","
","""event"",""trial"",""time""
""focus"",""0"",""1""
","""event"",""trial"",""time""
""fullscreenenter"",""1"",""2128""
","
","","","377","","","17","3036","2284","&#9826;","elianto","#f73b6a7A","-1"," ","0","-10","[1231]","1","0","3","","","","","","","",""
"pit-trial","41","493368","0.0-2.0-14.0-2.0","battery-v0.2","","""event"",""trial"",""time""
""focus"",""0"",""1""
""fullscreenenter"",""1"",""2128""
","
","""event"",""trial"",""time""
""focus"",""0"",""1""
","""event"",""trial"",""time""
""fullscreenenter"",""1"",""2128""
","
","","","-1","","","17","3036","2284","&#9826;","elianto","#f73b6a7A","-1","-1","1","0","[]","0","0","3","","","","","","","",""
"pit-trial","42","498223","0.0-2.0-14.0-3.0","battery-v0.2","","""event"",""trial"",""time""
""focus"",""0"",""1""
""fullscreenenter"",""1"",""2128""
","
","""event"",""trial"",""time""
""focus"",""0"",""1""
","""event"",""trial"",""time""
""fullscreenenter"",""1"",""2128""
","
","","","-1","","","17","3036","2284","&#9826;","elianto","#f73b6a7A","-1","-1","1","-10","[]","0","0","3","","","","","","","",""
"pit-trial","43","503088","0.0-2.0-14.0-4.0","battery-v0.2","","""event"",""trial"",""time""
""focus"",""0"",""1""
""fullscreenenter"",""1"",""2128""
","
","""event"",""trial"",""time""
""focus"",""0"",""1""
","""event"",""trial"",""time""
""fullscreenenter"",""1"",""2128""
","
","","","-1","","","17","3036","2284","&#9826;","elianto","#f73b6a7A","-1","-1","1","0","[]","0","0","3","","","","","","","",""
"pit-trial","44","507953","0.0-2.0-14.1-0.1","battery-v0.2","","""event"",""trial"",""time""
""focus"",""0"",""1""
""fullscreenenter"",""1"",""2128""
","
","""event"",""trial"",""time""
""focus"",""0"",""1""
","""event"",""trial"",""time""
""fullscreenenter"",""1"",""2128""
","
","","","-1","","","17","3036","2284","&#9826;","elianto","#f73b6a7A","-1","-1","1","0","[]","0","0","3","","","","","","","",""
"pit-trial","45","512823","0.0-2.0-14.1-1.1","battery-v0.2","","""event"",""trial"",""time""
""focus"",""0"",""1""
""fullscreenenter"",""1"",""2128""
","
","""event"",""trial"",""time""
""focus"",""0"",""1""
","""event"",""trial"",""time""
""fullscreenenter"",""1"",""2128""
","
","","","-1","","","17","3036","2284","&#9826;","elianto","#f73b6a7A","-1","-1","1","0","[]","0","0","3","","","","","","","",""
"pit-trial","46","517695","0.0-2.0-14.1-2.1","battery-v0.2","","""event"",""trial"",""time""
""focus"",""0"",""1""
""fullscreenenter"",""1"",""2128""
","
","""event"",""trial"",""time""
""focus"",""0"",""1""
","""event"",""trial"",""time""
""fullscreenenter"",""1"",""2128""
","
","","","-1","","","17","3036","2284","&#9826;","elianto","#f73b6a7A","-1","-1","1","0","[]","0","0","3","","","","","","","",""
"pit-trial","47","522559","0.0-2.0-14.1-3.1","battery-v0.2","","""event"",""trial"",""time""
""focus"",""0"",""1""
""fullscreenenter"",""1"",""2128""
","
","""event"",""trial"",""time""
""focus"",""0"",""1""
","""event"",""trial"",""time""
""fullscreenenter"",""1"",""2128""
","
","","","-1","","","17","3036","2284","&#9826;","elianto","#f73b6a7A","-1","-1","1","-10","[]","0","0","3","","","","","","","",""
"pit-trial","48","527437","0.0-2.0-14.1-4.1","battery-v0.2","","""event"",""trial"",""time""
""focus"",""0"",""1""
""fullscreenenter"",""1"",""2128""
","
","""event"",""trial"",""time""
""focus"",""0"",""1""
","""event"",""trial"",""time""
""fullscreenenter"",""1"",""2128""
","
","","","-1","","","17","3036","2284","&#9826;","elianto","#f73b6a7A","-1","-1","1","0","[]","0","0","3","","","","","","","",""
"call-function","49","527437","0.0-2.0-15.0","battery-v0.2","","""event"",""trial"",""time""
""focus"",""0"",""1""
""fullscreenenter"",""1"",""2128""
","
","""event"",""trial"",""time""
""focus"",""0"",""1""
","""event"",""trial"",""time""
""fullscreenenter"",""1"",""2128""
","
","","","","","","","","","","","","","","","","","","","","","","","","","","",""
"pit-instructions","50","552778","0.0-2.0-16.0","battery-v0.2","","""event"",""trial"",""time""
""focus"",""0"",""1""
""fullscreenenter"",""1"",""2128""
","
","""event"",""trial"",""time""
""focus"",""0"",""1""
","""event"",""trial"",""time""
""fullscreenenter"",""1"",""2128""
","
","","[{""page_index"":0,""viewing_time"":6770},{""page_index"":1,""viewing_time"":8513},{""page_index"":2,""viewing_time"":4744},{""page_index"":3,""viewing_time"":5312}]","25340","","","","","","","","","","","","","","","","","","","","","","","",""
"pit-trial","51","556255","0.0-2.0-17.0-0.0","battery-v0.2","","""event"",""trial"",""time""
""focus"",""0"",""1""
""fullscreenenter"",""1"",""2128""
","
","""event"",""trial"",""time""
""focus"",""0"",""1""
","""event"",""trial"",""time""
""fullscreenenter"",""1"",""2128""
","
","","","614","","","17","3036","2284","&#9789;","elianto","#f73b6a7A"," "," ","1","0","[1471]","1","0","4","","","","","","","",""
"pit-trial","52","559524","0.0-2.0-17.0-1.0","battery-v0.2","","""event"",""trial"",""time""
""focus"",""0"",""1""
""fullscreenenter"",""1"",""2128""
","
","""event"",""trial"",""time""
""focus"",""0"",""1""
","""event"",""trial"",""time""
""fullscreenenter"",""1"",""2128""
","
","","","402","","","17","3036","2284","&#9789;","elianto","#f73b6a7A"," "," ","1","0","[1257]","1","0","4","","","","","","","",""
"pit-trial","53","562836","0.0-2.0-17.0-2.0","battery-v0.2","","""event"",""trial"",""time""
""focus"",""0"",""1""
""fullscreenenter"",""1"",""2128""
","
","""event"",""trial"",""time""
""focus"",""0"",""1""
","""event"",""trial"",""time""
""fullscreenenter"",""1"",""2128""
","
","","","454","","","17","3036","2284","&#9789;","elianto","#f73b6a7A"," "," ","1","0","[1309]","1","0","4","","","","","","","",""
"pit-trial","54","566124","0.0-2.0-17.0-3.0","battery-v0.2","","""event"",""trial"",""time""
""focus"",""0"",""1""
""fullscreenenter"",""1"",""2128""
","
","""event"",""trial"",""time""
""focus"",""0"",""1""
","""event"",""trial"",""time""
""fullscreenenter"",""1"",""2128""
","
","","","430","","","17","3036","2284","&#9789;","elianto","#f73b6a7A"," "," ","1","-10","[1282]","1","0","4","","","","","","","",""
"pit-trial","55","569362","0.0-2.0-17.0-4.0","battery-v0.2","","""event"",""trial"",""time""
""focus"",""0"",""1""
""fullscreenenter"",""1"",""2128""
","
","""event"",""trial"",""time""
""focus"",""0"",""1""
","""event"",""trial"",""time""
""fullscreenenter"",""1"",""2128""
","
","","","370","","","17","3036","2284","&#9789;","elianto","#f73b6a7A"," "," ","1","0","[1231]","1","0","4","","","","","","","",""
"call-function","56","569363","0.0-2.0-18.0","battery-v0.2","","""event"",""trial"",""time""
""focus"",""0"",""1""
""fullscreenenter"",""1"",""2128""
","
","""event"",""trial"",""time""
""focus"",""0"",""1""
","""event"",""trial"",""time""
""fullscreenenter"",""1"",""2128""
","
","","","","","","","","","","","","","","","","","","","","","","","","","","",""
"pit-instructions","57","666434","0.0-2.0-19.0","battery-v0.2","","""event"",""trial"",""time""
""focus"",""0"",""1""
""fullscreenenter"",""1"",""2128""
","
","""event"",""trial"",""time""
""focus"",""0"",""1""
","""event"",""trial"",""time""
""fullscreenenter"",""1"",""2128""
","
","","[{""page_index"":0,""viewing_time"":6390},{""page_index"":1,""viewing_time"":5913},{""page_index"":2,""viewing_time"":16255},{""page_index"":3,""viewing_time"":15952},{""page_index"":4,""viewing_time"":10648},{""page_index"":5,""viewing_time"":9672},{""page_index"":6,""viewing_time"":15504},{""page_index"":7,""viewing_time"":9217},{""page_index"":8,""viewing_time"":7519}]","97070","","","","","","","","","","","","","","","","","","","","","","","",""
"pit-comprehension","58","672571","0.0-2.0-20.0-0.0","battery-v0.2","","""event"",""trial"",""time""
""focus"",""0"",""1""
""fullscreenenter"",""1"",""2128""
","
","""event"",""trial"",""time""
""focus"",""0"",""1""
","""event"",""trial"",""time""
""fullscreenenter"",""1"",""2128""
","
","","","6135","[""SPACE""]","0","17","3036","2284","","","","","","","","","","","","","","","","","","",""
"pit-instructions","59","675874","0.0-2.0-20.0-1.0","battery-v0.2","","""event"",""trial"",""time""
""focus"",""0"",""1""
""fullscreenenter"",""1"",""2128""
","
","""event"",""trial"",""time""
""focus"",""0"",""1""
","""event"",""trial"",""time""
""fullscreenenter"",""1"",""2128""
","
","","[{""page_index"":0,""viewing_time"":3282}]","3283","","","","","","","","","","","","","","","","","","","","","","","",""
"pit-comprehension","60","682955","0.0-2.0-21.0-0.0","battery-v0.2","","""event"",""trial"",""time""
""focus"",""0"",""1""
""fullscreenenter"",""1"",""2128""
","
","""event"",""trial"",""time""
""focus"",""0"",""1""
","""event"",""trial"",""time""
""fullscreenenter"",""1"",""2128""
","
","","","7079","[""10""]","0","17","3036","2284","","","","","","","","","","","","","","","","","","",""
"pit-instructions","61","684849","0.0-2.0-21.0-1.0","battery-v0.2","","""event"",""trial"",""time""
""focus"",""0"",""1""
""fullscreenenter"",""1"",""2128""
","
","""event"",""trial"",""time""
""focus"",""0"",""1""
","""event"",""trial"",""time""
""fullscreenenter"",""1"",""2128""
","
","","[{""page_index"":0,""viewing_time"":1881}]","1881","","","","","","","","","","","","","","","","","","","","","","","",""
"pit-comprehension","62","691986","0.0-2.0-22.0-0.0","battery-v0.2","","""event"",""trial"",""time""
""focus"",""0"",""1""
""fullscreenenter"",""1"",""2128""
","
","""event"",""trial"",""time""
""focus"",""0"",""1""
","""event"",""trial"",""time""
""fullscreenenter"",""1"",""2128""
","
","","","7136","[""0""]","0","17","3036","2284","","","","","","","","","","","","","","","","","","",""
"pit-instructions","63","694657","0.0-2.0-22.0-1.0","battery-v0.2","","""event"",""trial"",""time""
""focus"",""0"",""1""
""fullscreenenter"",""1"",""2128""
","
","""event"",""trial"",""time""
""focus"",""0"",""1""
","""event"",""trial"",""time""
""fullscreenenter"",""1"",""2128""
","
","","[{""page_index"":0,""viewing_time"":2656}]","2656","","","","","","","","","","","","","","","","","","","","","","","",""
"pit-comprehension","64","703530","0.0-2.0-23.0-0.0","battery-v0.2","","""event"",""trial"",""time""
""focus"",""0"",""1""
""fullscreenenter"",""1"",""2128""
","
","""event"",""trial"",""time""
""focus"",""0"",""1""
","""event"",""trial"",""time""
""fullscreenenter"",""1"",""2128""
","
","","","8870","[""True""]","0","17","3036","2284","","","","","","","","","","","","","","","","","","",""
"pit-instructions","65","704977","0.0-2.0-23.0-1.0","battery-v0.2","","""event"",""trial"",""time""
""focus"",""0"",""1""
""fullscreenenter"",""1"",""2128""
","
","""event"",""trial"",""time""
""focus"",""0"",""1""
","""event"",""trial"",""time""
""fullscreenenter"",""1"",""2128""
","
","","[{""page_index"":0,""viewing_time"":1433}]","1433","","","","","","","","","","","","","","","","","","","","","","","",""
"pit-comprehension","66","713530","0.0-2.0-24.0-0.0","battery-v0.2","","""event"",""trial"",""time""
""focus"",""0"",""1""
""fullscreenenter"",""1"",""2128""
","
","""event"",""trial"",""time""
""focus"",""0"",""1""
","""event"",""trial"",""time""
""fullscreenenter"",""1"",""2128""
","
","","","8551","[""True""]","0","17","3036","2284","","","","","","","","","","","","","","","","","","",""
"pit-instructions","67","715250","0.0-2.0-24.0-1.0","battery-v0.2","","""event"",""trial"",""time""
""focus"",""0"",""1""
""fullscreenenter"",""1"",""2128""
","
","""event"",""trial"",""time""
""focus"",""0"",""1""
","""event"",""trial"",""time""
""fullscreenenter"",""1"",""2128""
","
","","[{""page_index"":0,""viewing_time"":1705}]","1705","","","","","","","","","","","","","","","","","","","","","","","",""
"pit-comprehension","68","724578","0.0-2.0-25.0-0.0","battery-v0.2","","""event"",""trial"",""time""
""focus"",""0"",""1""
""fullscreenenter"",""1"",""2128""
","
","""event"",""trial"",""time""
""focus"",""0"",""1""
","""event"",""trial"",""time""
""fullscreenenter"",""1"",""2128""
","
","","","9326","[""True""]","0","17","3036","2284","","","","","","","","","","","","","","","","","","",""
"pit-instructions","69","726290","0.0-2.0-25.0-1.0","battery-v0.2","","""event"",""trial"",""time""
""focus"",""0"",""1""
""fullscreenenter"",""1"",""2128""
","
","""event"",""trial"",""time""
""focus"",""0"",""1""
","""event"",""trial"",""time""
""fullscreenenter"",""1"",""2128""
","
","","[{""page_index"":0,""viewing_time"":1695}]","1695","","","","","","","","","","","","","","","","","","","","","","","",""
"pit-comprehension","70","734843","0.0-2.0-26.0-0.0","battery-v0.2","","""event"",""trial"",""time""
""focus"",""0"",""1""
""fullscreenenter"",""1"",""2128""
","
","""event"",""trial"",""time""
""focus"",""0"",""1""
","""event"",""trial"",""time""
""fullscreenenter"",""1"",""2128""
","
","","","8551","[""False""]","0","17","3036","2284","","","","","","","","","","","","","","","","","","",""
"pit-instructions","71","736602","0.0-2.0-26.0-1.0","battery-v0.2","","""event"",""trial"",""time""
""focus"",""0"",""1""
""fullscreenenter"",""1"",""2128""
","
","""event"",""trial"",""time""
""focus"",""0"",""1""
","""event"",""trial"",""time""
""fullscreenenter"",""1"",""2128""
","
","","[{""page_index"":0,""viewing_time"":1744}]","1744","","","","","","","","","","","","","","","","","","","","","","","",""
"pit-instructions","72","754282","0.0-3.0","battery-v0.2","","""event"",""trial"",""time""
""focus"",""0"",""1""
""fullscreenenter"",""1"",""2128""
","
","""event"",""trial"",""time""
""focus"",""0"",""1""
","""event"",""trial"",""time""
""fullscreenenter"",""1"",""2128""
","
","","[{""page_index"":0,""viewing_time"":4495},{""page_index"":1,""viewing_time"":5168},{""page_index"":2,""viewing_time"":8016}]","17679","","","","","","","","","","","","","","","","","","","","","","","",""
"pit-trial","73","758139","0.0-4.0","battery-v0.2","","""event"",""trial"",""time""
""focus"",""0"",""1""
""fullscreenenter"",""1"",""2128""
","
","""event"",""trial"",""time""
""focus"",""0"",""1""
","""event"",""trial"",""time""
""fullscreenenter"",""1"",""2128""
","
","","","995","","","17","3036","2284","&#9728;","elianto","#f73b6a7A","-1"," ","0","-10","[1854]","1","1","","","3036","1","0","4","lose","no-go","0"
"pit-trial","74","762054","0.0-5.0","battery-v0.2","","""event"",""trial"",""time""
""focus"",""0"",""1""
""fullscreenenter"",""1"",""2128""
","
","""event"",""trial"",""time""
""focus"",""0"",""1""
","""event"",""trial"",""time""
""fullscreenenter"",""1"",""2128""
","
","","","1045","","","17","3036","2284","&#9752;","elianto","#f73b6a7A"," "," ","1","-10","[1898]","1","1","","","3036","2","3","3","lose","go","1"
"pit-trial","75","765900","0.0-6.0","battery-v0.2","","""event"",""trial"",""time""
""focus"",""0"",""1""
""fullscreenenter"",""1"",""2128""
","
","""event"",""trial"",""time""
""focus"",""0"",""1""
","""event"",""trial"",""time""
""fullscreenenter"",""1"",""2128""
","
","","","980","","","17","3036","2284","&#9733;","elianto","#3366ff99","-1"," ","0","0","[1831]","1","1","","","3036","3","2","2","win","no-go","0"
"pit-trial","76","769690","0.0-7.0","battery-v0.2","","""event"",""trial"",""time""
""focus"",""0"",""1""
""fullscreenenter"",""1"",""2128""
","
","""event"",""trial"",""time""
""focus"",""0"",""1""
","""event"",""trial"",""time""
""fullscreenenter"",""1"",""2128""
","
","","","932","","","17","3036","2284","&#9730;","elianto","#3366ff99"," "," ","1","0","[1787]","1","1","","","3036","4","1","1","win","go","1"
"pit-trial","77","774558","0.0-8.0","battery-v0.2","","""event"",""trial"",""time""
""focus"",""0"",""1""
""fullscreenenter"",""1"",""2128""
","
","""event"",""trial"",""time""
""focus"",""0"",""1""
","""event"",""trial"",""time""
""fullscreenenter"",""1"",""2128""
","
","","","-1","","","17","3036","2284","&#9730;","elianto","#3366ff99"," ","-1","0","0","[]","0","1","","","3036","5","1","1","win","go","0"
"pit-trial","78","778492","0.0-9.0","battery-v0.2","","""event"",""trial"",""time""
""focus"",""0"",""1""
""fullscreenenter"",""1"",""2128""
","
","""event"",""trial"",""time""
""focus"",""0"",""1""
","""event"",""trial"",""time""
""fullscreenenter"",""1"",""2128""
","
","","","1073","","","17","3036","2284","&#9728;","elianto","#f73b6a7A","-1"," ","0","-10","[1929]","1","1","","","3036","6","0","4","lose","no-go","0"
"pit-trial","79","783350","0.0-10.0","battery-v0.2","","""event"",""trial"",""time""
""focus"",""0"",""1""
""fullscreenenter"",""1"",""2128""
","
","""event"",""trial"",""time""
""focus"",""0"",""1""
","""event"",""trial"",""time""
""fullscreenenter"",""1"",""2128""
","
","","","-1","","","17","3036","2284","&#9733;","elianto","#3366ff99","-1","-1","1","+10","[]","0","1","","","3036","7","2","2","win","no-go","0"
"pit-trial","80","788229","0.0-11.0","battery-v0.2","","""event"",""trial"",""time""
""focus"",""0"",""1""
""fullscreenenter"",""1"",""2128""
","
","""event"",""trial"",""time""
""focus"",""0"",""1""
","""event"",""trial"",""time""
""fullscreenenter"",""1"",""2128""
","
","","","-1","","","17","3036","2284","&#9752;","elianto","#f73b6a7A"," ","-1","0","0","[]","0","1","","","3036","8","3","3","lose","go","1"
"pit-trial","81","792506","0.0-12.0","battery-v0.2","","""event"",""trial"",""time""
""focus"",""0"",""1""
""fullscreenenter"",""1"",""2128""
","
","""event"",""trial"",""time""
""focus"",""0"",""1""
","""event"",""trial"",""time""
""fullscreenenter"",""1"",""2128""
","
","","","1417","","","17","3036","2284","&#9733;","elianto","#3366ff99","-1"," ","0","0","[2273]","1","1","","","3036","9","2","2","win","no-go","0"
"pit-trial","82","797365","0.0-13.0","battery-v0.2","","""event"",""trial"",""time""
""focus"",""0"",""1""
""fullscreenenter"",""1"",""2128""
","
","""event"",""trial"",""time""
""focus"",""0"",""1""
","""event"",""trial"",""time""
""fullscreenenter"",""1"",""2128""
","
","","","-1","","","17","3036","2284","&#9728;","elianto","#f73b6a7A","-1","-1","1","0","[]","0","1","","","3036","10","0","4","lose","no-go","0"
"pit-trial","83","801586","0.0-14.0","battery-v0.2","","""event"",""trial"",""time""
""focus"",""0"",""1""
""fullscreenenter"",""1"",""2128""
","
","""event"",""trial"",""time""
""focus"",""0"",""1""
","""event"",""trial"",""time""
""fullscreenenter"",""1"",""2128""
","
","","","1356","","","17","3036","2284","&#9730;","elianto","#3366ff99"," "," ","1","+10","[2211]","1","1","","","3036","11","1","1","win","go","0"
"pit-trial","84","806462","0.0-15.0","battery-v0.2","","""event"",""trial"",""time""
""focus"",""0"",""1""
""fullscreenenter"",""1"",""2128""
","
","""event"",""trial"",""time""
""focus"",""0"",""1""
","""event"",""trial"",""time""
""fullscreenenter"",""1"",""2128""
","
","","","-1","","","17","3036","2284","&#9752;","elianto","#f73b6a7A"," ","-1","0","-10","[]","0","1","","","3036","12","3","3","lose","go","0"
"pit-trial","85","811328","0.0-16.0","battery-v0.2","","""event"",""trial"",""time""
""focus"",""0"",""1""
""fullscreenenter"",""1"",""2128""
","
","""event"",""trial"",""time""
""focus"",""0"",""1""
","""event"",""trial"",""time""
""fullscreenenter"",""1"",""2128""
","
","","","-1","","","17","3036","2284","&#9733;","elianto","#3366ff99","-1","-1","1","+10","[]","0","1","","","3036","13","2","2","win","no-go","0"
"pit-trial","86","815981","0.0-17.0","battery-v0.2","","""event"",""trial"",""time""
""focus"",""0"",""1""
""fullscreenenter"",""1"",""2128""
","
","""event"",""trial"",""time""
""focus"",""0"",""1""
","""event"",""trial"",""time""
""fullscreenenter"",""1"",""2128""
","
","","","1785","","","17","3036","2284","&#9728;","elianto","#f73b6a7A","-1"," ","0","-10","[2638]","1","1","","","3036","14","0","4","lose","no-go","0"
"pit-trial","87","819564","0.0-18.0","battery-v0.2","","""event"",""trial"",""time""
""focus"",""0"",""1""
""fullscreenenter"",""1"",""2128""
","
","""event"",""trial"",""time""
""focus"",""0"",""1""
","""event"",""trial"",""time""
""fullscreenenter"",""1"",""2128""
","
","","","718","","","17","3036","2284","&#9730;","elianto","#3366ff99"," "," ","1","+10","[1577]","1","1","","","3036","15","1","1","win","go","0"
"pit-trial","88","823939","0.0-19.0","battery-v0.2","","""event"",""trial"",""time""
""focus"",""0"",""1""
""fullscreenenter"",""1"",""2128""
","
","""event"",""trial"",""time""
""focus"",""0"",""1""
","""event"",""trial"",""time""
""fullscreenenter"",""1"",""2128""
","
","","","1510","","","17","3036","2284","&#9752;","elianto","#f73b6a7A"," "," ","1","0","[2364]","1","1","","","3036","16","3","3","lose","go","0"
"pit-trial","89","828803","0.0-20.0","battery-v0.2","","""event"",""trial"",""time""
""focus"",""0"",""1""
""fullscreenenter"",""1"",""2128""
","
","""event"",""trial"",""time""
""focus"",""0"",""1""
","""event"",""trial"",""time""
""fullscreenenter"",""1"",""2128""
","
","","","-1","","","17","3036","2284","&#9728;","elianto","#f73b6a7A","-1","-1","1","0","[]","0","1","","","3036","17","0","4","lose","no-go","0"
"pit-trial","90","832603","0.0-21.0","battery-v0.2","","""event"",""trial"",""time""
""focus"",""0"",""1""
""fullscreenenter"",""1"",""2128""
","
","""event"",""trial"",""time""
""focus"",""0"",""1""
","""event"",""trial"",""time""
""fullscreenenter"",""1"",""2128""
","
","","","939","","","17","3036","2284","&#9730;","elianto","#3366ff99"," "," ","1","+10","[1793]","1","1","","","3036","18","1","1","win","go","0"
"pit-trial","91","836655","0.0-22.0","battery-v0.2","","""event"",""trial"",""time""
""focus"",""0"",""1""
""fullscreenenter"",""1"",""2128""
","
","""event"",""trial"",""time""
""focus"",""0"",""1""
","""event"",""trial"",""time""
""fullscreenenter"",""1"",""2128""
","
","","","1183","","","17","3036","2284","&#9752;","elianto","#f73b6a7A"," "," ","1","0","[2038]","1","1","","","3036","19","3","3","lose","go","0"
"pit-trial","92","841525","0.0-23.0","battery-v0.2","","""event"",""trial"",""time""
""focus"",""0"",""1""
""fullscreenenter"",""1"",""2128""
","
","""event"",""trial"",""time""
""focus"",""0"",""1""
","""event"",""trial"",""time""
""fullscreenenter"",""1"",""2128""
","
","","","-1","","","17","3036","2284","&#9733;","elianto","#3366ff99","-1","-1","1","+10","[]","0","1","","","3036","20","2","2","win","no-go","0"
"pit-instructions","93","855754","0.0-24.0","battery-v0.2","","""event"",""trial"",""time""
""focus"",""0"",""1""
""fullscreenenter"",""1"",""2128""
","
","""event"",""trial"",""time""
""focus"",""0"",""1""
","""event"",""trial"",""time""
""fullscreenenter"",""1"",""2128""
","
","","[{""page_index"":0,""viewing_time"":7576},{""page_index"":1,""viewing_time"":6651}]","14228","","","","","","","","","","","","","","","","","","","","","","","",""
"pit-trial","94","860028","0.0-25.0","battery-v0.2","","""event"",""trial"",""time""
""focus"",""0"",""1""
""fullscreenenter"",""1"",""2128""
","
","""event"",""trial"",""time""
""focus"",""0"",""1""
","""event"",""trial"",""time""
""fullscreenenter"",""1"",""2128""
","
","","","1399","","","17","3036","2284","g","elianto","#f73b6a7A"," "," ","1","0","[2264]","1","2","","","3036","21","3","3","lose","go","0"
"pit-trial","95","863950","0.0-26.0","battery-v0.2","","""event"",""trial"",""time""
""focus"",""0"",""1""
""fullscreenenter"",""1"",""2128""
","
","""event"",""trial"",""time""
""focus"",""0"",""1""
","""event"",""trial"",""time""
""fullscreenenter"",""1"",""2128""
","
","","","1064","","","17","3036","2284","a","elianto","#f73b6a7A","-1"," ","0","-10","[1917]","1","2","","","3036","22","2","4","lose","no-go","0"
"pit-trial","96","867639","0.0-27.0","battery-v0.2","","""event"",""trial"",""time""
""focus"",""0"",""1""
""fullscreenenter"",""1"",""2128""
","
","""event"",""trial"",""time""
""focus"",""0"",""1""
","""event"",""trial"",""time""
""fullscreenenter"",""1"",""2128""
","
","","","824","","","17","3036","2284","l","elianto","#3366ff99"," "," ","1","+10","[1677]","1","2","","","3036","23","1","1","win","go","0"
"pit-trial","97","871803","0.0-28.0","battery-v0.2","","""event"",""trial"",""time""
""focus"",""0"",""1""
""fullscreenenter"",""1"",""2128""
","
","""event"",""trial"",""time""
""focus"",""0"",""1""
","""event"",""trial"",""time""
""fullscreenenter"",""1"",""2128""
","
","","","1294","","","17","3036","2284","u","elianto","#f73b6a7A","-1"," ","0","-10","[2150]","1","2","","","3036","24","0","4","lose","no-go","0"
"pit-trial","98","876038","0.0-29.0","battery-v0.2","","""event"",""trial"",""time""
""focus"",""0"",""1""
""fullscreenenter"",""1"",""2128""
","
","""event"",""trial"",""time""
""focus"",""0"",""1""
","""event"",""trial"",""time""
""fullscreenenter"",""1"",""2128""
","
","","","1382","","","17","3036","2284","g","elianto","#f73b6a7A"," "," ","1","0","[2233]","1","2","","","3036","25","3","3","lose","go","0"
"pit-trial","99","880898","0.0-30.0","battery-v0.2","","""event"",""trial"",""time""
""focus"",""0"",""1""
""fullscreenenter"",""1"",""2128""
","
","""event"",""trial"",""time""
""focus"",""0"",""1""
","""event"",""trial"",""time""
""fullscreenenter"",""1"",""2128""
","
","","","-1","","","17","3036","2284","l","elianto","#3366ff99"," ","-1","0","0","[]","0","2","","","3036","26","1","1","win","go","0"
"pit-trial","100","885764","0.0-31.0","battery-v0.2","","""event"",""trial"",""time""
""focus"",""0"",""1""
""fullscreenenter"",""1"",""2128""
","
","""event"",""trial"",""time""
""focus"",""0"",""1""
","""event"",""trial"",""time""
""fullscreenenter"",""1"",""2128""
","
","","","-1","","","17","3036","2284","a","elianto","#f73b6a7A","-1","-1","1","0","[]","0","2","","","3036","27","2","4","lose","no-go","0"
"pit-trial","101","890620","0.0-32.0","battery-v0.2","","""event"",""trial"",""time""
""focus"",""0"",""1""
""fullscreenenter"",""1"",""2128""
","
","""event"",""trial"",""time""
""focus"",""0"",""1""
","""event"",""trial"",""time""
""fullscreenenter"",""1"",""2128""
","
","","","-1","","","17","3036","2284","u","elianto","#f73b6a7A","-1","-1","1","0","[]","0","2","","","3036","28","0","4","lose","no-go","0"
"pit-trial","102","895490","0.0-33.0","battery-v0.2","","""event"",""trial"",""time""
""focus"",""0"",""1""
""fullscreenenter"",""1"",""2128""
","
","""event"",""trial"",""time""
""focus"",""0"",""1""
","""event"",""trial"",""time""
""fullscreenenter"",""1"",""2128""
","
","","","-1","","","17","3036","2284","a","elianto","#f73b6a7A","-1","-1","1","0","[]","0","2","","","3036","29","2","4","lose","no-go","0"
"pit-trial","103","899280","0.0-34.0","battery-v0.2","","""event"",""trial"",""time""
""focus"",""0"",""1""
""fullscreenenter"",""1"",""2128""
","
","""event"",""trial"",""time""
""focus"",""0"",""1""
","""event"",""trial"",""time""
""fullscreenenter"",""1"",""2128""
","
","","","918","","","17","3036","2284","l","elianto","#3366ff99"," "," ","1","+10","[1775]","1","2","","","3036","30","1","1","win","go","0"
"pit-trial","104","904144","0.0-35.0","battery-v0.2","","""event"",""trial"",""time""
""focus"",""0"",""1""
""fullscreenenter"",""1"",""2128""
","
","""event"",""trial"",""time""
""focus"",""0"",""1""
","""event"",""trial"",""time""
""fullscreenenter"",""1"",""2128""
","
","","","-1","","","17","3036","2284","g","elianto","#f73b6a7A"," ","-1","0","0","[]","0","2","","","3036","31","3","3","lose","go","1"
"pit-trial","105","909009","0.0-36.0","battery-v0.2","","""event"",""trial"",""time""
""focus"",""0"",""1""
""fullscreenenter"",""1"",""2128""
","
","""event"",""trial"",""time""
""focus"",""0"",""1""
","""event"",""trial"",""time""
""fullscreenenter"",""1"",""2128""
","
","","","-1","","","17","3036","2284","u","elianto","#f73b6a7A","-1","-1","1","0","[]","0","2","","","3036","32","0","4","lose","no-go","0"
"pit-trial","106","913876","0.0-37.0","battery-v0.2","","""event"",""trial"",""time""
""focus"",""0"",""1""
""fullscreenenter"",""1"",""2128""
","
","""event"",""trial"",""time""
""focus"",""0"",""1""
","""event"",""trial"",""time""
""fullscreenenter"",""1"",""2128""
","
","","","-1","","","17","3036","2284","a","elianto","#f73b6a7A","-1","-1","1","0","[]","0","2","","","3036","33","2","4","lose","no-go","0"
"pit-trial","107","917727","0.0-38.0","battery-v0.2","","""event"",""trial"",""time""
""focus"",""0"",""1""
""fullscreenenter"",""1"",""2128""
","
","""event"",""trial"",""time""
""focus"",""0"",""1""
","""event"",""trial"",""time""
""fullscreenenter"",""1"",""2128""
","
","","","989","","","17","3036","2284","l","elianto","#3366ff99"," "," ","1","0","[1842]","1","2","","","3036","34","1","1","win","go","1"
"pit-trial","108","922597","0.0-39.0","battery-v0.2","","""event"",""trial"",""time""
""focus"",""0"",""1""
""fullscreenenter"",""1"",""2128""
","
","""event"",""trial"",""time""
""focus"",""0"",""1""
","""event"",""trial"",""time""
""fullscreenenter"",""1"",""2128""
","
","","","-1","","","17","3036","2284","u","elianto","#f73b6a7A","-1","-1","1","0","[]","0","2","","","3036","35","0","4","lose","no-go","0"
"pit-trial","109","927465","0.0-40.0","battery-v0.2","","""event"",""trial"",""time""
""focus"",""0"",""1""
""fullscreenenter"",""1"",""2128""
","
","""event"",""trial"",""time""
""focus"",""0"",""1""
","""event"",""trial"",""time""
""fullscreenenter"",""1"",""2128""
","
","","","-1","","","17","3036","2284","g","elianto","#f73b6a7A"," ","-1","0","-10","[]","0","2","","","3036","36","3","3","lose","go","0"
"pit-trial","110","932329","0.0-41.0","battery-v0.2","","""event"",""trial"",""time""
""focus"",""0"",""1""
""fullscreenenter"",""1"",""2128""
","
","""event"",""trial"",""time""
""focus"",""0"",""1""
","""event"",""trial"",""time""
""fullscreenenter"",""1"",""2128""
","
","","","-1","","","17","3036","2284","u","elianto","#f73b6a7A","-1","-1","1","0","[]","0","2","","","3036","37","0","4","lose","no-go","0"
"pit-trial","111","937205","0.0-42.0","battery-v0.2","","""event"",""trial"",""time""
""focus"",""0"",""1""
""fullscreenenter"",""1"",""2128""
","
","""event"",""trial"",""time""
""focus"",""0"",""1""
","""event"",""trial"",""time""
""fullscreenenter"",""1"",""2128""
","
","","","-1","","","17","3036","2284","g","elianto","#f73b6a7A"," ","-1","0","0","[]","0","2","","","3036","38","3","3","lose","go","1"
"pit-trial","112","940818","0.0-43.0","battery-v0.2","","""event"",""trial"",""time""
""focus"",""0"",""1""
""fullscreenenter"",""1"",""2128""
","
","""event"",""trial"",""time""
""focus"",""0"",""1""
","""event"",""trial"",""time""
""fullscreenenter"",""1"",""2128""
","
","","","745","","","17","3036","2284","l","elianto","#3366ff99"," "," ","1","+10","[1600]","1","2","","","3036","39","1","1","win","go","0"
"pit-trial","113","945687","0.0-44.0","battery-v0.2","","""event"",""trial"",""time""
""focus"",""0"",""1""
""fullscreenenter"",""1"",""2128""
","
","""event"",""trial"",""time""
""focus"",""0"",""1""
","""event"",""trial"",""time""
""fullscreenenter"",""1"",""2128""
","
","","","-1","","","17","3036","2284","a","elianto","#f73b6a7A","-1","-1","1","-10","[]","0","2","","","3036","40","2","4","lose","no-go","1"
"pit-trial","114","950544","0.0-45.0","battery-v0.2","","""event"",""trial"",""time""
""focus"",""0"",""1""
""fullscreenenter"",""1"",""2128""
","
","""event"",""trial"",""time""
""focus"",""0"",""1""
","""event"",""trial"",""time""
""fullscreenenter"",""1"",""2128""
","
","","","-1","","","17","3036","2284","a","elianto","#f73b6a7A","-1","-1","1","0","[]","0","2","","","3036","41","2","4","lose","no-go","0"
"pit-trial","115","955418","0.0-46.0","battery-v0.2","","""event"",""trial"",""time""
""focus"",""0"",""1""
""fullscreenenter"",""1"",""2128""
","
","""event"",""trial"",""time""
""focus"",""0"",""1""
","""event"",""trial"",""time""
""fullscreenenter"",""1"",""2128""
","
","","","-1","","","17","3036","2284","u","elianto","#f73b6a7A","-1","-1","1","0","[]","0","2","","","3036","42","0","4","lose","no-go","0"
"pit-trial","116","960289","0.0-47.0","battery-v0.2","","""event"",""trial"",""time""
""focus"",""0"",""1""
""fullscreenenter"",""1"",""2128""
","
","""event"",""trial"",""time""
""focus"",""0"",""1""
","""event"",""trial"",""time""
""fullscreenenter"",""1"",""2128""
","
","","","-1","","","17","3036","2284","g","elianto","#f73b6a7A"," ","-1","0","-10","[]","0","2","","","3036","43","3","3","lose","go","0"
"pit-trial","117","963890","0.0-48.0","battery-v0.2","","""event"",""trial"",""time""
""focus"",""0"",""1""
""fullscreenenter"",""1"",""2128""
","
","""event"",""trial"",""time""
""focus"",""0"",""1""
","""event"",""trial"",""time""
""fullscreenenter"",""1"",""2128""
","
","","","740","","","17","3036","2284","l","elianto","#3366ff99"," "," ","1","0","[1594]","1","2","","","3036","44","1","1","win","go","1"
"pit-trial","118","968753","0.0-49.0","battery-v0.2","","""event"",""trial"",""time""
""focus"",""0"",""1""
""fullscreenenter"",""1"",""2128""
","
","""event"",""trial"",""time""
""focus"",""0"",""1""
","""event"",""trial"",""time""
""fullscreenenter"",""1"",""2128""
","
","","","-1","","","17","3036","2284","a","elianto","#f73b6a7A","-1","-1","1","0","[]","0","2","","","3036","45","2","4","lose","no-go","0"
"pit-trial","119","972367","0.0-50.0","battery-v0.2","","""event"",""trial"",""time""
""focus"",""0"",""1""
""fullscreenenter"",""1"",""2128""
","
","""event"",""trial"",""time""
""focus"",""0"",""1""
","""event"",""trial"",""time""
""fullscreenenter"",""1"",""2128""
","
","","","743","","","17","3036","2284","g","elianto","#f73b6a7A"," "," ","1","0","[1599]","1","2","","","3036","46","3","3","lose","go","0"
"pit-trial","120","977242","0.0-51.0","battery-v0.2","","""event"",""trial"",""time""
""focus"",""0"",""1""
""fullscreenenter"",""1"",""2128""
","
","""event"",""trial"",""time""
""focus"",""0"",""1""
","""event"",""trial"",""time""
""fullscreenenter"",""1"",""2128""
","
","","","-1","","","17","3036","2284","u","elianto","#f73b6a7A","-1","-1","1","0","[]","0","2","","","3036","47","0","4","lose","no-go","0"
"pit-trial","121","982101","0.0-52.0","battery-v0.2","","""event"",""trial"",""time""
""focus"",""0"",""1""
""fullscreenenter"",""1"",""2128""
","
","""event"",""trial"",""time""
""focus"",""0"",""1""
","""event"",""trial"",""time""
""fullscreenenter"",""1"",""2128""
","
","","","-1","","","17","3036","2284","p","elianto","#3366ff99","-1","-1","1","+10","[]","0","2","","","3036","48","4","2","win","no-go","0"
"pit-trial","122","986971","0.0-53.0","battery-v0.2","","""event"",""trial"",""time""
""focus"",""0"",""1""
""fullscreenenter"",""1"",""2128""
","
","""event"",""trial"",""time""
""focus"",""0"",""1""
","""event"",""trial"",""time""
""fullscreenenter"",""1"",""2128""
","
","","","-1","","","17","3036","2284","p","elianto","#3366ff99","-1","-1","1","+10","[]","0","2","","","3036","49","4","2","win","no-go","0"
"pit-trial","123","990844","0.0-54.0","battery-v0.2","","""event"",""trial"",""time""
""focus"",""0"",""1""
""fullscreenenter"",""1"",""2128""
","
","""event"",""trial"",""time""
""focus"",""0"",""1""
","""event"",""trial"",""time""
""fullscreenenter"",""1"",""2128""
","
","","","1007","","","17","3036","2284","g","elianto","#f73b6a7A"," "," ","1","0","[1863]","1","2","","","3036","50","3","3","lose","go","0"
"pit-trial","124","994477","0.0-55.0","battery-v0.2","","""event"",""trial"",""time""
""focus"",""0"",""1""
""fullscreenenter"",""1"",""2128""
","
","""event"",""trial"",""time""
""focus"",""0"",""1""
","""event"",""trial"",""time""
""fullscreenenter"",""1"",""2128""
","
","","","777","","","17","3036","2284","l","elianto","#3366ff99"," "," ","1","+10","[1630]","1","2","","","3036","51","1","1","win","go","0"
"pit-trial","125","999350","0.0-56.0","battery-v0.2","","""event"",""trial"",""time""
""focus"",""0"",""1""
""fullscreenenter"",""1"",""2128""
","
","""event"",""trial"",""time""
""focus"",""0"",""1""
","""event"",""trial"",""time""
""fullscreenenter"",""1"",""2128""
","
","","","-1","","","17","3036","2284","u","elianto","#f73b6a7A","-1","-1","1","0","[]","0","2","","","3036","52","0","4","lose","no-go","0"
"pit-trial","126","1004213","0.0-57.0","battery-v0.2","","""event"",""trial"",""time""
""focus"",""0"",""1""
""fullscreenenter"",""1"",""2128""
","
","""event"",""trial"",""time""
""focus"",""0"",""1""
","""event"",""trial"",""time""
""fullscreenenter"",""1"",""2128""
","
","","","-1","","","17","3036","2284","a","elianto","#f73b6a7A","-1","-1","1","0","[]","0","2","","","3036","53","2","4","lose","no-go","0"
"pit-trial","127","1007591","0.0-58.0","battery-v0.2","","""event"",""trial"",""time""
""focus"",""0"",""1""
""fullscreenenter"",""1"",""2128""
","
","""event"",""trial"",""time""
""focus"",""0"",""1""
","""event"",""trial"",""time""
""fullscreenenter"",""1"",""2128""
","
","","","507","","","17","3036","2284","l","elianto","#3366ff99"," "," ","1","+10","[1365]","1","2","","","3036","54","1","1","win","go","0"
"pit-trial","128","1011264","0.0-59.0","battery-v0.2","","""event"",""trial"",""time""
""focus"",""0"",""1""
""fullscreenenter"",""1"",""2128""
","
","""event"",""trial"",""time""
""focus"",""0"",""1""
","""event"",""trial"",""time""
""fullscreenenter"",""1"",""2128""
","
","","","806","","","17","3036","2284","p","elianto","#3366ff99","-1"," ","0","+10","[1659]","1","2","","","3036","55","4","2","win","no-go","1"
"pit-trial","129","1016119","0.0-60.0","battery-v0.2","","""event"",""trial"",""time""
""focus"",""0"",""1""
""fullscreenenter"",""1"",""2128""
","
","""event"",""trial"",""time""
""focus"",""0"",""1""
","""event"",""trial"",""time""
""fullscreenenter"",""1"",""2128""
","
","","","-1","","","17","3036","2284","u","elianto","#f73b6a7A","-1","-1","1","0","[]","0","2","","","3036","56","0","4","lose","no-go","0"
"pit-trial","130","1019676","0.0-61.0","battery-v0.2","","""event"",""trial"",""time""
""focus"",""0"",""1""
""fullscreenenter"",""1"",""2128""
","
","""event"",""trial"",""time""
""focus"",""0"",""1""
","""event"",""trial"",""time""
""fullscreenenter"",""1"",""2128""
","
","","","678","","","17","3036","2284","l","elianto","#3366ff99"," "," ","1","0","[1543]","1","2","","","3036","57","1","1","win","go","1"
"pit-trial","131","1023428","0.0-62.0","battery-v0.2","","""event"",""trial"",""time""
""focus"",""0"",""1""
""fullscreenenter"",""1"",""2128""
","
","""event"",""trial"",""time""
""focus"",""0"",""1""
","""event"",""trial"",""time""
""fullscreenenter"",""1"",""2128""
","
","","","886","","","17","3036","2284","p","elianto","#3366ff99","-1"," ","0","0","[1740]","1","2","","","3036","58","4","2","win","no-go","0"
"pit-trial","132","1027129","0.0-63.0","battery-v0.2","","""event"",""trial"",""time""
""focus"",""0"",""1""
""fullscreenenter"",""1"",""2128""
","
","""event"",""trial"",""time""
""focus"",""0"",""1""
","""event"",""trial"",""time""
""fullscreenenter"",""1"",""2128""
","
","","","840","","","17","3036","2284","g","elianto","#f73b6a7A"," "," ","1","0","[1695]","1","2","","","3036","59","3","3","lose","go","0"
"pit-trial","133","1031998","0.0-64.0","battery-v0.2","","""event"",""trial"",""time""
""focus"",""0"",""1""
""fullscreenenter"",""1"",""2128""
","
","""event"",""trial"",""time""
""focus"",""0"",""1""
","""event"",""trial"",""time""
""fullscreenenter"",""1"",""2128""
","
","","","-1","","","17","3036","2284","u","elianto","#f73b6a7A","-1","-1","1","0","[]","0","2","","","3036","60","0","4","lose","no-go","0"
"pit-trial","134","1036871","0.0-65.0","battery-v0.2","","""event"",""trial"",""time""
""focus"",""0"",""1""
""fullscreenenter"",""1"",""2128""
","
","""event"",""trial"",""time""
""focus"",""0"",""1""
","""event"",""trial"",""time""
""fullscreenenter"",""1"",""2128""
","
","","","-1","","","17","3036","2284","a","elianto","#f73b6a7A","-1","-1","1","0","[]","0","2","","","3036","61","2","4","lose","no-go","0"
"pit-trial","135","1040469","0.0-66.0","battery-v0.2","","""event"",""trial"",""time""
""focus"",""0"",""1""
""fullscreenenter"",""1"",""2128""
","
","""event"",""trial"",""time""
""focus"",""0"",""1""
","""event"",""trial"",""time""
""fullscreenenter"",""1"",""2128""
","
","","","732","","","17","3036","2284","p","elianto","#3366ff99","-1"," ","0","0","[1584]","1","2","","","3036","62","4","2","win","no-go","0"
"pit-trial","136","1044150","0.0-67.0","battery-v0.2","","""event"",""trial"",""time""
""focus"",""0"",""1""
""fullscreenenter"",""1"",""2128""
","
","""event"",""trial"",""time""
""focus"",""0"",""1""
","""event"",""trial"",""time""
""fullscreenenter"",""1"",""2128""
","
","","","820","","","17","3036","2284","g","elianto","#f73b6a7A"," "," ","1","0","[1670]","1","2","","","3036","63","3","3","lose","go","0"
"pit-trial","137","1047463","0.0-68.0","battery-v0.2","","""event"",""trial"",""time""
""focus"",""0"",""1""
""fullscreenenter"",""1"",""2128""
","
","""event"",""trial"",""time""
""focus"",""0"",""1""
","""event"",""trial"",""time""
""fullscreenenter"",""1"",""2128""
","
","","","450","","","17","3036","2284","l","elianto","#3366ff99"," "," ","1","+10","[1308]","1","2","","","3036","64","1","1","win","go","0"
"pit-trial","138","1050780","0.0-69.0","battery-v0.2","","""event"",""trial"",""time""
""focus"",""0"",""1""
""fullscreenenter"",""1"",""2128""
","
","""event"",""trial"",""time""
""focus"",""0"",""1""
","""event"",""trial"",""time""
""fullscreenenter"",""1"",""2128""
","
","","","447","","","17","3036","2284","p","elianto","#3366ff99","-1"," ","0","+10","[1302]","1","2","","","3036","65","4","2","win","no-go","1"
"pit-trial","139","1054205","0.0-70.0","battery-v0.2","","""event"",""trial"",""time""
""focus"",""0"",""1""
""fullscreenenter"",""1"",""2128""
","
","""event"",""trial"",""time""
""focus"",""0"",""1""
","""event"",""trial"",""time""
""fullscreenenter"",""1"",""2128""
","
","","","562","","","17","3036","2284","l","elianto","#3366ff99"," "," ","1","+10","[1418]","1","2","","","3036","66","1","1","win","go","0"
"pit-trial","140","1057775","0.0-71.0","battery-v0.2","","""event"",""trial"",""time""
""focus"",""0"",""1""
""fullscreenenter"",""1"",""2128""
","
","""event"",""trial"",""time""
""focus"",""0"",""1""
","""event"",""trial"",""time""
""fullscreenenter"",""1"",""2128""
","
","","","710","","","17","3036","2284","g","elianto","#f73b6a7A"," "," ","1","0","[1565]","1","2","","","3036","67","3","3","lose","go","0"
"pit-trial","141","1062634","0.0-72.0","battery-v0.2","","""event"",""trial"",""time""
""focus"",""0"",""1""
""fullscreenenter"",""1"",""2128""
","
","""event"",""trial"",""time""
""focus"",""0"",""1""
","""event"",""trial"",""time""
""fullscreenenter"",""1"",""2128""
","
","","","-1","","","17","3036","2284","a","elianto","#f73b6a7A","-1","-1","1","0","[]","0","2","","","3036","68","2","4","lose","no-go","0"
"pit-trial","142","1066141","0.0-73.0","battery-v0.2","","""event"",""trial"",""time""
""focus"",""0"",""1""
""fullscreenenter"",""1"",""2128""
","
","""event"",""trial"",""time""
""focus"",""0"",""1""
","""event"",""trial"",""time""
""fullscreenenter"",""1"",""2128""
","
","","","645","","","17","3036","2284","p","elianto","#3366ff99","-1"," ","0","0","[1501]","1","2","","","3036","69","4","2","win","no-go","0"
"pit-trial","143","1071004","0.0-74.0","battery-v0.2","","""event"",""trial"",""time""
""focus"",""0"",""1""
""fullscreenenter"",""1"",""2128""
","
","""event"",""trial"",""time""
""focus"",""0"",""1""
","""event"",""trial"",""time""
""fullscreenenter"",""1"",""2128""
","
","","","-1","","","17","3036","2284","s","elianto","#3366ff99"," ","-1","0","0","[]","0","2","","","3036","70","5","1","win","go","0"
"pit-trial","144","1074695","0.0-75.0","battery-v0.2","","""event"",""trial"",""time""
""focus"",""0"",""1""
""fullscreenenter"",""1"",""2128""
","
","""event"",""trial"",""time""
""focus"",""0"",""1""
","""event"",""trial"",""time""
""fullscreenenter"",""1"",""2128""
","
","","","823","","","17","3036","2284","g","elianto","#f73b6a7A"," "," ","1","0","[1677]","1","2","","","3036","71","3","3","lose","go","0"
"pit-trial","145","1078214","0.0-76.0","battery-v0.2","","""event"",""trial"",""time""
""focus"",""0"",""1""
""fullscreenenter"",""1"",""2128""
","
","""event"",""trial"",""time""
""focus"",""0"",""1""
","""event"",""trial"",""time""
""fullscreenenter"",""1"",""2128""
","
","","","659","","","17","3036","2284","l","elianto","#3366ff99"," "," ","1","+10","[1513]","1","2","","","3036","72","1","1","win","go","0"
"pit-trial","146","1081883","0.0-77.0","battery-v0.2","","""event"",""trial"",""time""
""focus"",""0"",""1""
""fullscreenenter"",""1"",""2128""
","
","""event"",""trial"",""time""
""focus"",""0"",""1""
","""event"",""trial"",""time""
""fullscreenenter"",""1"",""2128""
","
","","","805","","","17","3036","2284","p","elianto","#3366ff99","-1"," ","0","+10","[1659]","1","2","","","3036","73","4","2","win","no-go","1"
"pit-trial","147","1085176","0.0-78.0","battery-v0.2","","""event"",""trial"",""time""
""focus"",""0"",""1""
""fullscreenenter"",""1"",""2128""
","
","""event"",""trial"",""time""
""focus"",""0"",""1""
","""event"",""trial"",""time""
""fullscreenenter"",""1"",""2128""
","
","","","431","","","17","3036","2284","s","elianto","#3366ff99"," "," ","1","0","[1283]","1","2","","","3036","74","5","1","win","go","1"
"pit-trial","148","1088682","0.0-79.0","battery-v0.2","","""event"",""trial"",""time""
""focus"",""0"",""1""
""fullscreenenter"",""1"",""2128""
","
","""event"",""trial"",""time""
""focus"",""0"",""1""
","""event"",""trial"",""time""
""fullscreenenter"",""1"",""2128""
","
","","","640","","","17","3036","2284","g","elianto","#f73b6a7A"," "," ","1","-10","[1493]","1","2","","","3036","75","3","3","lose","go","1"
"pit-trial","149","1092247","0.0-80.0","battery-v0.2","","""event"",""trial"",""time""
""focus"",""0"",""1""
""fullscreenenter"",""1"",""2128""
","
","""event"",""trial"",""time""
""focus"",""0"",""1""
","""event"",""trial"",""time""
""fullscreenenter"",""1"",""2128""
","
","","","706","","","17","3036","2284","l","elianto","#3366ff99"," "," ","1","0","[1563]","1","2","","","3036","76","1","1","win","go","1"
"pit-trial","150","1095863","0.0-81.0","battery-v0.2","","""event"",""trial"",""time""
""focus"",""0"",""1""
""fullscreenenter"",""1"",""2128""
","
","""event"",""trial"",""time""
""focus"",""0"",""1""
","""event"",""trial"",""time""
""fullscreenenter"",""1"",""2128""
","
","","","760","","","17","3036","2284","g","elianto","#f73b6a7A"," "," ","1","0","[1612]","1","2","","","3036","77","3","3","lose","go","0"
"pit-trial","151","1099483","0.0-82.0","battery-v0.2","","""event"",""trial"",""time""
""focus"",""0"",""1""
""fullscreenenter"",""1"",""2128""
","
","""event"",""trial"",""time""
""focus"",""0"",""1""
","""event"",""trial"",""time""
""fullscreenenter"",""1"",""2128""
","
","","","761","","","17","3036","2284","p","elianto","#3366ff99","-1"," ","0","0","[1614]","1","2","","","3036","78","4","2","win","no-go","0"
"pit-trial","152","1104341","0.0-83.0","battery-v0.2","","""event"",""trial"",""time""
""focus"",""0"",""1""
""fullscreenenter"",""1"",""2128""
","
","""event"",""trial"",""time""
""focus"",""0"",""1""
","""event"",""trial"",""time""
""fullscreenenter"",""1"",""2128""
","
","","","-1","","","17","3036","2284","w","elianto","#f73b6a7A","-1","-1","1","0","[]","0","2","","","3036","79","6","4","lose","no-go","0"
"pit-trial","153","1109195","0.0-84.0","battery-v0.2","","""event"",""trial"",""time""
""focus"",""0"",""1""
""fullscreenenter"",""1"",""2128""
","
","""event"",""trial"",""time""
""focus"",""0"",""1""
","""event"",""trial"",""time""
""fullscreenenter"",""1"",""2128""
","
","","","-1","","","17","3036","2284","s","elianto","#3366ff99"," ","-1","0","0","[]","0","2","","","3036","80","5","1","win","go","0"
"pit-trial","154","1112834","0.0-85.0","battery-v0.2","","""event"",""trial"",""time""
""focus"",""0"",""1""
""fullscreenenter"",""1"",""2128""
","
","""event"",""trial"",""time""
""focus"",""0"",""1""
","""event"",""trial"",""time""
""fullscreenenter"",""1"",""2128""
","
","","","773","","","17","3036","2284","s","elianto","#3366ff99"," "," ","1","+10","[1625]","1","2","","","3036","81","5","1","win","go","0"
"pit-trial","155","1117703","0.0-86.0","battery-v0.2","","""event"",""trial"",""time""
""focus"",""0"",""1""
""fullscreenenter"",""1"",""2128""
","
","""event"",""trial"",""time""
""focus"",""0"",""1""
","""event"",""trial"",""time""
""fullscreenenter"",""1"",""2128""
","
","","","-1","","","17","3036","2284","w","elianto","#f73b6a7A","-1","-1","1","0","[]","0","2","","","3036","82","6","4","lose","no-go","0"
"pit-trial","156","1122562","0.0-87.0","battery-v0.2","","""event"",""trial"",""time""
""focus"",""0"",""1""
""fullscreenenter"",""1"",""2128""
","
","""event"",""trial"",""time""
""focus"",""0"",""1""
","""event"",""trial"",""time""
""fullscreenenter"",""1"",""2128""
","
","","","-1","","","17","3036","2284","e","elianto","#f73b6a7A"," ","-1","0","-10","[]","0","2","","","3036","83","7","3","lose","go","0"
"pit-trial","157","1126381","0.0-88.0","battery-v0.2","","""event"",""trial"",""time""
""focus"",""0"",""1""
""fullscreenenter"",""1"",""2128""
","
","""event"",""trial"",""time""
""focus"",""0"",""1""
","""event"",""trial"",""time""
""fullscreenenter"",""1"",""2128""
","
","","","951","","","17","3036","2284","p","elianto","#3366ff99","-1"," ","0","0","[1807]","1","2","","","3036","84","4","2","win","no-go","0"
"pit-trial","158","1131250","0.0-89.0","battery-v0.2","","""event"",""trial"",""time""
""focus"",""0"",""1""
""fullscreenenter"",""1"",""2128""
","
","""event"",""trial"",""time""
""focus"",""0"",""1""
","""event"",""trial"",""time""
""fullscreenenter"",""1"",""2128""
","
","","","-1","","","17","3036","2284","w","elianto","#f73b6a7A","-1","-1","1","0","[]","0","2","","","3036","85","6","4","lose","no-go","0"
"pit-trial","159","1135647","0.0-90.0","battery-v0.2","","""event"",""trial"",""time""
""focus"",""0"",""1""
""fullscreenenter"",""1"",""2128""
","
","""event"",""trial"",""time""
""focus"",""0"",""1""
","""event"",""trial"",""time""
""fullscreenenter"",""1"",""2128""
","
","","","1540","","","17","3036","2284","s","elianto","#3366ff99"," "," ","1","+10","[2392]","1","2","","","3036","86","5","1","win","go","0"
"pit-trial","160","1140525","0.0-91.0","battery-v0.2","","""event"",""trial"",""time""
""focus"",""0"",""1""
""fullscreenenter"",""1"",""2128""
","
","""event"",""trial"",""time""
""focus"",""0"",""1""
","""event"",""trial"",""time""
""fullscreenenter"",""1"",""2128""
","
","","","-1","","","17","3036","2284","e","elianto","#f73b6a7A"," ","-1","0","-10","[3553]","1","2","","","3036","87","7","3","lose","go","0"
"pit-trial","161","1144081","0.0-92.0","battery-v0.2","","""event"",""trial"",""time""
""focus"",""0"",""1""
""fullscreenenter"",""1"",""2128""
","
","""event"",""trial"",""time""
""focus"",""0"",""1""
","""event"",""trial"",""time""
""fullscreenenter"",""1"",""2128""
","
","","","700","","","17","3036","2284","p","elianto","#3366ff99","-1"," ","0","0","[1553]","1","2","","","3036","88","4","2","win","no-go","0"
"pit-trial","162","1148938","0.0-93.0","battery-v0.2","","""event"",""trial"",""time""
""focus"",""0"",""1""
""fullscreenenter"",""1"",""2128""
","
","""event"",""trial"",""time""
""focus"",""0"",""1""
","""event"",""trial"",""time""
""fullscreenenter"",""1"",""2128""
","
","","","-1","","","17","3036","2284","w","elianto","#f73b6a7A","-1","-1","1","0","[]","0","2","","","3036","89","6","4","lose","no-go","0"
"pit-trial","163","1152769","0.0-94.0","battery-v0.2","","""event"",""trial"",""time""
""focus"",""0"",""1""
""fullscreenenter"",""1"",""2128""
","
","""event"",""trial"",""time""
""focus"",""0"",""1""
","""event"",""trial"",""time""
""fullscreenenter"",""1"",""2128""
","
","","","963","","","17","3036","2284","s","elianto","#3366ff99"," "," ","1","+10","[1814]","1","2","","","3036","90","5","1","win","go","0"
"pit-trial","164","1157646","0.0-95.0","battery-v0.2","","""event"",""trial"",""time""
""focus"",""0"",""1""
""fullscreenenter"",""1"",""2128""
","
","""event"",""trial"",""time""
""focus"",""0"",""1""
","""event"",""trial"",""time""
""fullscreenenter"",""1"",""2128""
","
","","","-1","","","17","3036","2284","p","elianto","#3366ff99","-1","-1","1","+10","[]","0","2","","","3036","91","4","2","win","no-go","0"
"pit-trial","165","1162511","0.0-96.0","battery-v0.2","","""event"",""trial"",""time""
""focus"",""0"",""1""
""fullscreenenter"",""1"",""2128""
","
","""event"",""trial"",""time""
""focus"",""0"",""1""
","""event"",""trial"",""time""
""fullscreenenter"",""1"",""2128""
","
","","","-1","","","17","3036","2284","e","elianto","#f73b6a7A"," ","-1","0","-10","[]","0","2","","","3036","92","7","3","lose","go","0"
"pit-trial","166","1167371","0.0-97.0","battery-v0.2","","""event"",""trial"",""time""
""focus"",""0"",""1""
""fullscreenenter"",""1"",""2128""
","
","""event"",""trial"",""time""
""focus"",""0"",""1""
","""event"",""trial"",""time""
""fullscreenenter"",""1"",""2128""
","
","","","-1","","","17","3036","2284","w","elianto","#f73b6a7A","-1","-1","1","0","[]","0","2","","","3036","93","6","4","lose","no-go","0"
"pit-trial","167","1171259","0.0-98.0","battery-v0.2","","""event"",""trial"",""time""
""focus"",""0"",""1""
""fullscreenenter"",""1"",""2128""
","
","""event"",""trial"",""time""
""focus"",""0"",""1""
","""event"",""trial"",""time""
""fullscreenenter"",""1"",""2128""
","
","","","1019","","","17","3036","2284","s","elianto","#3366ff99"," "," ","1","+10","[1871]","1","2","","","3036","94","5","1","win","go","0"
"pit-trial","168","1174561","0.0-99.0","battery-v0.2","","""event"",""trial"",""time""
""focus"",""0"",""1""
""fullscreenenter"",""1"",""2128""
","
","""event"",""trial"",""time""
""focus"",""0"",""1""
","""event"",""trial"",""time""
""fullscreenenter"",""1"",""2128""
","
","","","437","","","17","3036","2284","e","elianto","#f73b6a7A"," "," ","1","-10","[1292]","1","2","","","3036","95","7","3","lose","go","1"
"pit-trial","169","1178672","0.0-100.0","battery-v0.2","","""event"",""trial"",""time""
""focus"",""0"",""1""
""fullscreenenter"",""1"",""2128""
","
","""event"",""trial"",""time""
""focus"",""0"",""1""
","""event"",""trial"",""time""
""fullscreenenter"",""1"",""2128""
","
","","","1255","","","17","3036","2284","d","elianto","#3366ff99","-1"," ","0","0","[2111]","1","2","","","3036","96","8","2","win","no-go","0"
"pit-trial","170","1183543","0.0-101.0","battery-v0.2","","""event"",""trial"",""time""
""focus"",""0"",""1""
""fullscreenenter"",""1"",""2128""
","
","""event"",""trial"",""time""
""focus"",""0"",""1""
","""event"",""trial"",""time""
""fullscreenenter"",""1"",""2128""
","
","","","2000","","","17","3036","2284","e","elianto","#f73b6a7A"," "," ","1","0","[2854]","1","2","","","3036","97","7","3","lose","go","0"
"pit-trial","171","1187066","0.0-102.0","battery-v0.2","","""event"",""trial"",""time""
""focus"",""0"",""1""
""fullscreenenter"",""1"",""2128""
","
","""event"",""trial"",""time""
""focus"",""0"",""1""
","""event"",""trial"",""time""
""fullscreenenter"",""1"",""2128""
","
","","","657","","","17","3036","2284","s","elianto","#3366ff99"," "," ","1","+10","[1509]","1","2","","","3036","98","5","1","win","go","0"
"pit-trial","172","1191932","0.0-103.0","battery-v0.2","","""event"",""trial"",""time""
""focus"",""0"",""1""
""fullscreenenter"",""1"",""2128""
","
","""event"",""trial"",""time""
""focus"",""0"",""1""
","""event"",""trial"",""time""
""fullscreenenter"",""1"",""2128""
","
","","","-1","","","17","3036","2284","d","elianto","#3366ff99","-1","-1","1","+10","[]","0","2","","","3036","99","8","2","win","no-go","0"
"pit-trial","173","1196804","0.0-104.0","battery-v0.2","","""event"",""trial"",""time""
""focus"",""0"",""1""
""fullscreenenter"",""1"",""2128""
","
","""event"",""trial"",""time""
""focus"",""0"",""1""
","""event"",""trial"",""time""
""fullscreenenter"",""1"",""2128""
","
","","","-1","","","17","3036","2284","w","elianto","#f73b6a7A","-1","-1","1","0","[]","0","2","","","3036","100","6","4","lose","no-go","0"
"pit-trial","174","1200763","0.0-105.0","battery-v0.2","","""event"",""trial"",""time""
""focus"",""0"",""1""
""fullscreenenter"",""1"",""2128""
","
","""event"",""trial"",""time""
""focus"",""0"",""1""
","""event"",""trial"",""time""
""fullscreenenter"",""1"",""2128""
","
","","","1085","","","17","3036","2284","j","elianto","#3366ff99","-1"," ","0","+10","[1941]","1","2","","","3036","101","9","2","win","no-go","1"
"pit-trial","175","1205638","0.0-106.0","battery-v0.2","","""event"",""trial"",""time""
""focus"",""0"",""1""
""fullscreenenter"",""1"",""2128""
","
","""event"",""trial"",""time""
""focus"",""0"",""1""
","""event"",""trial"",""time""
""fullscreenenter"",""1"",""2128""
","
","","","-1","","","17","3036","2284","d","elianto","#3366ff99","-1","-1","1","0","[]","0","2","","","3036","102","8","2","win","no-go","1"
"pit-trial","176","1209203","0.0-107.0","battery-v0.2","","""event"",""trial"",""time""
""focus"",""0"",""1""
""fullscreenenter"",""1"",""2128""
","
","""event"",""trial"",""time""
""focus"",""0"",""1""
","""event"",""trial"",""time""
""fullscreenenter"",""1"",""2128""
","
","","","697","","","17","3036","2284","s","elianto","#3366ff99"," "," ","1","+10","[1550]","1","2","","","3036","103","5","1","win","go","0"
"pit-trial","177","1214072","0.0-108.0","battery-v0.2","","""event"",""trial"",""time""
""focus"",""0"",""1""
""fullscreenenter"",""1"",""2128""
","
","""event"",""trial"",""time""
""focus"",""0"",""1""
","""event"",""trial"",""time""
""fullscreenenter"",""1"",""2128""
","
","","","-1","","","17","3036","2284","w","elianto","#f73b6a7A","-1","-1","1","0","[]","0","2","","","3036","104","6","4","lose","no-go","0"
"pit-trial","178","1217612","0.0-109.0","battery-v0.2","","""event"",""trial"",""time""
""focus"",""0"",""1""
""fullscreenenter"",""1"",""2128""
","
","""event"",""trial"",""time""
""focus"",""0"",""1""
","""event"",""trial"",""time""
""fullscreenenter"",""1"",""2128""
","
","","","685","","","17","3036","2284","s","elianto","#3366ff99"," "," ","1","+10","[1537]","1","2","","","3036","105","5","1","win","go","0"
"pit-trial","179","1222472","0.0-110.0","battery-v0.2","","""event"",""trial"",""time""
""focus"",""0"",""1""
""fullscreenenter"",""1"",""2128""
","
","""event"",""trial"",""time""
""focus"",""0"",""1""
","""event"",""trial"",""time""
""fullscreenenter"",""1"",""2128""
","
","","","-1","","","17","3036","2284","w","elianto","#f73b6a7A","-1","-1","1","0","[]","0","2","","","3036","106","6","4","lose","no-go","0"
"pit-trial","180","1226156","0.0-111.0","battery-v0.2","","""event"",""trial"",""time""
""focus"",""0"",""1""
""fullscreenenter"",""1"",""2128""
","
","""event"",""trial"",""time""
""focus"",""0"",""1""
","""event"",""trial"",""time""
""fullscreenenter"",""1"",""2128""
","
","","","831","","","17","3036","2284","j","elianto","#3366ff99","-1"," ","0","0","[1681]","1","2","","","3036","107","9","2","win","no-go","0"
"pit-trial","181","1230268","0.0-112.0","battery-v0.2","","""event"",""trial"",""time""
""focus"",""0"",""1""
""fullscreenenter"",""1"",""2128""
","
","""event"",""trial"",""time""
""focus"",""0"",""1""
","""event"",""trial"",""time""
""fullscreenenter"",""1"",""2128""
","
","","","1252","","","17","3036","2284","d","elianto","#3366ff99","-1"," ","0","0","[2109]","1","2","","","3036","108","8","2","win","no-go","0"
"pit-trial","182","1234382","0.0-113.0","battery-v0.2","","""event"",""trial"",""time""
""focus"",""0"",""1""
""fullscreenenter"",""1"",""2128""
","
","""event"",""trial"",""time""
""focus"",""0"",""1""
","""event"",""trial"",""time""
""fullscreenenter"",""1"",""2128""
","
","","","1249","","","17","3036","2284","d","elianto","#3366ff99","-1"," ","0","+10","[2106]","1","2","","","3036","109","8","2","win","no-go","1"
"pit-trial","183","1237968","0.0-114.0","battery-v0.2","","""event"",""trial"",""time""
""focus"",""0"",""1""
""fullscreenenter"",""1"",""2128""
","
","""event"",""trial"",""time""
""focus"",""0"",""1""
","""event"",""trial"",""time""
""fullscreenenter"",""1"",""2128""
","
","","","723","","","17","3036","2284","s","elianto","#3366ff99"," "," ","1","+10","[1573]","1","2","","","3036","110","5","1","win","go","0"
"pit-trial","184","1242841","0.0-115.0","battery-v0.2","","""event"",""trial"",""time""
""focus"",""0"",""1""
""fullscreenenter"",""1"",""2128""
","
","""event"",""trial"",""time""
""focus"",""0"",""1""
","""event"",""trial"",""time""
""fullscreenenter"",""1"",""2128""
","
","","","-1","","","17","3036","2284","w","elianto","#f73b6a7A","-1","-1","1","0","[]","0","2","","","3036","111","6","4","lose","no-go","0"
"pit-trial","185","1246503","0.0-116.0","battery-v0.2","","""event"",""trial"",""time""
""focus"",""0"",""1""
""fullscreenenter"",""1"",""2128""
","
","""event"",""trial"",""time""
""focus"",""0"",""1""
","""event"",""trial"",""time""
""fullscreenenter"",""1"",""2128""
","
","","","793","","","17","3036","2284","j","elianto","#3366ff99","-1"," ","0","0","[1645]","1","2","","","3036","112","9","2","win","no-go","0"
"pit-trial","186","1250420","0.0-117.0","battery-v0.2","","""event"",""trial"",""time""
""focus"",""0"",""1""
""fullscreenenter"",""1"",""2128""
","
","""event"",""trial"",""time""
""focus"",""0"",""1""
","""event"",""trial"",""time""
""fullscreenenter"",""1"",""2128""
","
","","","1046","","","17","3036","2284","d","elianto","#3366ff99","-1"," ","0","0","[1904]","1","2","","","3036","113","8","2","win","no-go","0"
"pit-trial","187","1253886","0.0-118.0","battery-v0.2","","""event"",""trial"",""time""
""focus"",""0"",""1""
""fullscreenenter"",""1"",""2128""
","
","""event"",""trial"",""time""
""focus"",""0"",""1""
","""event"",""trial"",""time""
""fullscreenenter"",""1"",""2128""
","
","","","600","","","17","3036","2284","s","elianto","#3366ff99"," "," ","1","+10","[1459]","1","2","","","3036","114","5","1","win","go","0"
"pit-trial","188","1258756","0.0-119.0","battery-v0.2","","""event"",""trial"",""time""
""focus"",""0"",""1""
""fullscreenenter"",""1"",""2128""
","
","""event"",""trial"",""time""
""focus"",""0"",""1""
","""event"",""trial"",""time""
""fullscreenenter"",""1"",""2128""
","
","","","-1","","","17","3036","2284","j","elianto","#3366ff99","-1","-1","1","+10","[]","0","2","","","3036","115","9","2","win","no-go","0"
"pit-trial","189","1263631","0.0-120.0","battery-v0.2","","""event"",""trial"",""time""
""focus"",""0"",""1""
""fullscreenenter"",""1"",""2128""
","
","""event"",""trial"",""time""
""focus"",""0"",""1""
","""event"",""trial"",""time""
""fullscreenenter"",""1"",""2128""
","
","","","-1","","","17","3036","2284","e","elianto","#f73b6a7A"," ","-1","0","-10","[3766]","1","2","","","3036","116","7","3","lose","go","0"
"pit-trial","190","1268507","0.0-121.0","battery-v0.2","","""event"",""trial"",""time""
""focus"",""0"",""1""
""fullscreenenter"",""1"",""2128""
","
","""event"",""trial"",""time""
""focus"",""0"",""1""
","""event"",""trial"",""time""
""fullscreenenter"",""1"",""2128""
","
","","","-1","","","17","3036","2284","d","elianto","#3366ff99","-1","-1","1","0","[]","0","2","","","3036","117","8","2","win","no-go","1"
"pit-trial","191","1272232","0.0-122.0","battery-v0.2","","""event"",""trial"",""time""
""focus"",""0"",""1""
""fullscreenenter"",""1"",""2128""
","
","""event"",""trial"",""time""
""focus"",""0"",""1""
","""event"",""trial"",""time""
""fullscreenenter"",""1"",""2128""
","
","","","866","","","17","3036","2284","j","elianto","#3366ff99","-1"," ","0","0","[1720]","1","2","","","3036","118","9","2","win","no-go","0"
"pit-trial","192","1277095","0.0-123.0","battery-v0.2","","""event"",""trial"",""time""
""focus"",""0"",""1""
""fullscreenenter"",""1"",""2128""
","
","""event"",""trial"",""time""
""focus"",""0"",""1""
","""event"",""trial"",""time""
""fullscreenenter"",""1"",""2128""
","
","","","-1","","","17","3036","2284","w","elianto","#f73b6a7A","-1","-1","1","0","[]","0","2","","","3036","119","6","4","lose","no-go","0"
"pit-trial","193","1280952","0.0-124.0","battery-v0.2","","""event"",""trial"",""time""
""focus"",""0"",""1""
""fullscreenenter"",""1"",""2128""
","
","""event"",""trial"",""time""
""focus"",""0"",""1""
","""event"",""trial"",""time""
""fullscreenenter"",""1"",""2128""
","
","","","993","","","17","3036","2284","s","elianto","#3366ff99"," "," ","1","+10","[1850]","1","2","","","3036","120","5","1","win","go","0"
"pit-trial","194","1284541","0.0-125.0","battery-v0.2","","""event"",""trial"",""time""
""focus"",""0"",""1""
""fullscreenenter"",""1"",""2128""
","
","""event"",""trial"",""time""
""focus"",""0"",""1""
","""event"",""trial"",""time""
""fullscreenenter"",""1"",""2128""
","
","","","720","","","17","3036","2284","s","elianto","#3366ff99"," "," ","1","0","[1574]","1","2","","","3036","121","5","1","win","go","1"
"pit-trial","195","1288418","0.0-126.0","battery-v0.2","","""event"",""trial"",""time""
""focus"",""0"",""1""
""fullscreenenter"",""1"",""2128""
","
","""event"",""trial"",""time""
""focus"",""0"",""1""
","""event"",""trial"",""time""
""fullscreenenter"",""1"",""2128""
","
","","","1018","","","17","3036","2284","e","elianto","#f73b6a7A"," "," ","1","0","[1875]","1","2","","","3036","122","7","3","lose","go","0"
"pit-trial","196","1293279","0.0-127.0","battery-v0.2","","""event"",""trial"",""time""
""focus"",""0"",""1""
""fullscreenenter"",""1"",""2128""
","
","""event"",""trial"",""time""
""focus"",""0"",""1""
","""event"",""trial"",""time""
""fullscreenenter"",""1"",""2128""
","
","","","-1","","","17","3036","2284","d","elianto","#3366ff99","-1","-1","1","+10","[]","0","2","","","3036","123","8","2","win","no-go","0"
"pit-trial","197","1298148","0.0-128.0","battery-v0.2","","""event"",""trial"",""time""
""focus"",""0"",""1""
""fullscreenenter"",""1"",""2128""
","
","""event"",""trial"",""time""
""focus"",""0"",""1""
","""event"",""trial"",""time""
""fullscreenenter"",""1"",""2128""
","
","","","-1","","","17","3036","2284","j","elianto","#3366ff99","-1","-1","1","0","[]","0","2","","","3036","124","9","2","win","no-go","1"
"pit-trial","198","1303018","0.0-129.0","battery-v0.2","","""event"",""trial"",""time""
""focus"",""0"",""1""
""fullscreenenter"",""1"",""2128""
","
","""event"",""trial"",""time""
""focus"",""0"",""1""
","""event"",""trial"",""time""
""fullscreenenter"",""1"",""2128""
","
","","","-1","","","17","3036","2284","d","elianto","#3366ff99","-1","-1","1","+10","[]","0","2","","","3036","125","8","2","win","no-go","0"
"pit-trial","199","1307886","0.0-130.0","battery-v0.2","","""event"",""trial"",""time""
""focus"",""0"",""1""
""fullscreenenter"",""1"",""2128""
","
","""event"",""trial"",""time""
""focus"",""0"",""1""
","""event"",""trial"",""time""
""fullscreenenter"",""1"",""2128""
","
","","","-1","","","17","3036","2284","w","elianto","#f73b6a7A","-1","-1","1","0","[]","0","2","","","3036","126","6","4","lose","no-go","0"
"pit-trial","200","1312754","0.0-131.0","battery-v0.2","","""event"",""trial"",""time""
""focus"",""0"",""1""
""fullscreenenter"",""1"",""2128""
","
","""event"",""trial"",""time""
""focus"",""0"",""1""
","""event"",""trial"",""time""
""fullscreenenter"",""1"",""2128""
","
","","","-1","","","17","3036","2284","j","elianto","#3366ff99","-1","-1","1","+10","[]","0","2","","","3036","127","9","2","win","no-go","0"
"pit-trial","201","1316348","0.0-132.0","battery-v0.2","","""event"",""trial"",""time""
""focus"",""0"",""1""
""fullscreenenter"",""1"",""2128""
","
","""event"",""trial"",""time""
""focus"",""0"",""1""
","""event"",""trial"",""time""
""fullscreenenter"",""1"",""2128""
","
","","","726","","","17","3036","2284","e","elianto","#f73b6a7A"," "," ","1","-10","[1582]","1","2","","","3036","128","7","3","lose","go","1"
"pit-trial","202","1321217","0.0-133.0","battery-v0.2","","""event"",""trial"",""time""
""focus"",""0"",""1""
""fullscreenenter"",""1"",""2128""
","
","""event"",""trial"",""time""
""focus"",""0"",""1""
","""event"",""trial"",""time""
""fullscreenenter"",""1"",""2128""
","
","","","-1","","","17","3036","2284","w","elianto","#f73b6a7A","-1","-1","1","0","[]","0","2","","","3036","129","6","4","lose","no-go","0"
"pit-trial","203","1325068","0.0-134.0","battery-v0.2","","""event"",""trial"",""time""
""focus"",""0"",""1""
""fullscreenenter"",""1"",""2128""
","
","""event"",""trial"",""time""
""focus"",""0"",""1""
","""event"",""trial"",""time""
""fullscreenenter"",""1"",""2128""
","
","","","995","","","17","3036","2284","e","elianto","#f73b6a7A"," "," ","1","0","[1851]","1","2","","","3036","130","7","3","lose","go","0"
"pit-trial","204","1329947","0.0-135.0","battery-v0.2","","""event"",""trial"",""time""
""focus"",""0"",""1""
""fullscreenenter"",""1"",""2128""
","
","""event"",""trial"",""time""
""focus"",""0"",""1""
","""event"",""trial"",""time""
""fullscreenenter"",""1"",""2128""
","
","","","-1","","","17","3036","2284","d","elianto","#3366ff99","-1","-1","1","+10","[]","0","2","","","3036","131","8","2","win","no-go","0"
"pit-trial","205","1334823","0.0-136.0","battery-v0.2","","""event"",""trial"",""time""
""focus"",""0"",""1""
""fullscreenenter"",""1"",""2128""
","
","""event"",""trial"",""time""
""focus"",""0"",""1""
","""event"",""trial"",""time""
""fullscreenenter"",""1"",""2128""
","
","","","-1","","","17","3036","2284","j","elianto","#3366ff99","-1","-1","1","+10","[]","0","2","","","3036","132","9","2","win","no-go","0"
"pit-trial","206","1339680","0.0-137.0","battery-v0.2","","""event"",""trial"",""time""
""focus"",""0"",""1""
""fullscreenenter"",""1"",""2128""
","
","""event"",""trial"",""time""
""focus"",""0"",""1""
","""event"",""trial"",""time""
""fullscreenenter"",""1"",""2128""
","
","","","-1","","","17","3036","2284","j","elianto","#3366ff99","-1","-1","1","+10","[]","0","2","","","3036","133","9","2","win","no-go","0"
"pit-trial","207","1343376","0.0-138.0","battery-v0.2","","""event"",""trial"",""time""
""focus"",""0"",""1""
""fullscreenenter"",""1"",""2128""
","
","""event"",""trial"",""time""
""focus"",""0"",""1""
","""event"",""trial"",""time""
""fullscreenenter"",""1"",""2128""
","
","","","838","","","17","3036","2284","e","elianto","#f73b6a7A"," "," ","1","0","[1690]","1","2","","","3036","134","7","3","lose","go","0"
"pit-trial","208","1348238","0.0-139.0","battery-v0.2","","""event"",""trial"",""time""
""focus"",""0"",""1""
""fullscreenenter"",""1"",""2128""
","
","""event"",""trial"",""time""
""focus"",""0"",""1""
","""event"",""trial"",""time""
""fullscreenenter"",""1"",""2128""
","
","","","-1","","","17","3036","2284","d","elianto","#3366ff99","-1","-1","1","+10","[]","0","2","","","3036","135","8","2","win","no-go","0"
"pit-trial","209","1353103","0.0-140.0","battery-v0.2","","""event"",""trial"",""time""
""focus"",""0"",""1""
""fullscreenenter"",""1"",""2128""
","
","""event"",""trial"",""time""
""focus"",""0"",""1""
","""event"",""trial"",""time""
""fullscreenenter"",""1"",""2128""
","
","","","-1","","","17","3036","2284","w","elianto","#f73b6a7A","-1","-1","1","0","[]","0","2","","","3036","136","6","4","lose","no-go","0"
"pit-trial","210","1357967","0.0-141.0","battery-v0.2","","""event"",""trial"",""time""
""focus"",""0"",""1""
""fullscreenenter"",""1"",""2128""
","
","""event"",""trial"",""time""
""focus"",""0"",""1""
","""event"",""trial"",""time""
""fullscreenenter"",""1"",""2128""
","
","","","-1","","","17","3036","2284","w","elianto","#f73b6a7A","-1","-1","1","-10","[]","0","2","","","3036","137","6","4","lose","no-go","1"
"pit-trial","211","1362836","0.0-142.0","battery-v0.2","","""event"",""trial"",""time""
""focus"",""0"",""1""
""fullscreenenter"",""1"",""2128""
","
","""event"",""trial"",""time""
""focus"",""0"",""1""
","""event"",""trial"",""time""
""fullscreenenter"",""1"",""2128""
","
","","","-1","","","17","3036","2284","j","elianto","#3366ff99","-1","-1","1","0","[]","0","2","","","3036","138","9","2","win","no-go","1"
"pit-trial","212","1367705","0.0-143.0","battery-v0.2","","""event"",""trial"",""time""
""focus"",""0"",""1""
""fullscreenenter"",""1"",""2128""
","
","""event"",""trial"",""time""
""focus"",""0"",""1""
","""event"",""trial"",""time""
""fullscreenenter"",""1"",""2128""
","
","","","-1","","","17","3036","2284","d","elianto","#3366ff99","-1","-1","1","0","[]","0","2","","","3036","139","8","2","win","no-go","1"
"pit-trial","213","1372294","0.0-144.0","battery-v0.2","","""event"",""trial"",""time""
""focus"",""0"",""1""
""fullscreenenter"",""1"",""2128""
","
","""event"",""trial"",""time""
""focus"",""0"",""1""
","""event"",""trial"",""time""
""fullscreenenter"",""1"",""2128""
","
","","","1717","","","17","3036","2284","e","elianto","#f73b6a7A"," "," ","1","0","[2573]","1","2","","","3036","140","7","3","lose","go","0"
"pit-instructions","214","1397914","0.0-145.0","battery-v0.2","","""event"",""trial"",""time""
""focus"",""0"",""1""
""fullscreenenter"",""1"",""2128""
","
","""event"",""trial"",""time""
""focus"",""0"",""1""
","""event"",""trial"",""time""
""fullscreenenter"",""1"",""2128""
","
","","[{""page_index"":0,""viewing_time"":16563},{""page_index"":1,""viewing_time"":9055}]","25618","","","","","","","","","","","","","","","","","","","","","","","",""
"pit-trial","215","1401533","0.0-146.0","battery-v0.2","","""event"",""trial"",""time""
""focus"",""0"",""1""
""fullscreenenter"",""1"",""2128""
","
","""event"",""trial"",""time""
""focus"",""0"",""1""
","""event"",""trial"",""time""
""fullscreenenter"",""1"",""2128""
","
","","","762","","","17","3036","2284","t","elianto","#f73b6a7A"," "," ","1","0","[1616]","1","3","","","3036","141","2","3","lose","go","0"
"pit-trial","216","1405227","0.0-147.0","battery-v0.2","","""event"",""trial"",""time""
""focus"",""0"",""1""
""fullscreenenter"",""1"",""2128""
","
","""event"",""trial"",""time""
""focus"",""0"",""1""
","""event"",""trial"",""time""
""fullscreenenter"",""1"",""2128""
","
","","","823","","","17","3036","2284","f","elianto","#3366ff99","-1"," ","0","0","[1678]","1","3","","","3036","142","1","2","win","no-go","0"
"pit-trial","217","1408905","0.0-148.0","battery-v0.2","","""event"",""trial"",""time""
""focus"",""0"",""1""
""fullscreenenter"",""1"",""2128""
","
","""event"",""trial"",""time""
""focus"",""0"",""1""
","""event"",""trial"",""time""
""fullscreenenter"",""1"",""2128""
","
","","","817","","","17","3036","2284","n","elianto","#f73b6a7A"," "," ","1","0","[1669]","1","3","","","3036","143","0","3","lose","go","0"
"pit-trial","218","1412649","0.0-149.0","battery-v0.2","","""event"",""trial"",""time""
""focus"",""0"",""1""
""fullscreenenter"",""1"",""2128""
","
","""event"",""trial"",""time""
""focus"",""0"",""1""
","""event"",""trial"",""time""
""fullscreenenter"",""1"",""2128""
","
","","","881","","","17","3036","2284","b","elianto","#f73b6a7A","-1"," ","0","-10","[1732]","1","3","","","3036","144","3","4","lose","no-go","0"
"pit-trial","219","1417515","0.0-150.0","battery-v0.2","","""event"",""trial"",""time""
""focus"",""0"",""1""
""fullscreenenter"",""1"",""2128""
","
","""event"",""trial"",""time""
""focus"",""0"",""1""
","""event"",""trial"",""time""
""fullscreenenter"",""1"",""2128""
","
","","","-1","","","17","3036","2284","b","elianto","#f73b6a7A","-1","-1","1","-10","[]","0","3","","","3036","145","3","4","lose","no-go","1"
"pit-trial","220","1421011","0.0-151.0","battery-v0.2","","""event"",""trial"",""time""
""focus"",""0"",""1""
""fullscreenenter"",""1"",""2128""
","
","""event"",""trial"",""time""
""focus"",""0"",""1""
","""event"",""trial"",""time""
""fullscreenenter"",""1"",""2128""
","
","","","628","","","17","3036","2284","n","elianto","#f73b6a7A"," "," ","1","-10","[1482]","1","3","","","3036","146","0","3","lose","go","1"
"pit-trial","221","1424958","0.0-152.0","battery-v0.2","","""event"",""trial"",""time""
""focus"",""0"",""1""
""fullscreenenter"",""1"",""2128""
","
","""event"",""trial"",""time""
""focus"",""0"",""1""
","""event"",""trial"",""time""
""fullscreenenter"",""1"",""2128""
","
","","","1081","","","17","3036","2284","t","elianto","#f73b6a7A"," "," ","1","0","[1935]","1","3","","","3036","147","2","3","lose","go","0"
"pit-trial","222","1429833","0.0-153.0","battery-v0.2","","""event"",""trial"",""time""
""focus"",""0"",""1""
""fullscreenenter"",""1"",""2128""
","
","""event"",""trial"",""time""
""focus"",""0"",""1""
","""event"",""trial"",""time""
""fullscreenenter"",""1"",""2128""
","
","","","-1","","","17","3036","2284","f","elianto","#3366ff99","-1","-1","1","0","[]","0","3","","","3036","148","1","2","win","no-go","1"
"pit-trial","223","1433626","0.0-154.0","battery-v0.2","","""event"",""trial"",""time""
""focus"",""0"",""1""
""fullscreenenter"",""1"",""2128""
","
","""event"",""trial"",""time""
""focus"",""0"",""1""
","""event"",""trial"",""time""
""fullscreenenter"",""1"",""2128""
","
","","","931","","","17","3036","2284","f","elianto","#3366ff99","-1"," ","0","0","[1785]","1","3","","","3036","149","1","2","win","no-go","0"
"pit-trial","224","1438078","0.0-155.0","battery-v0.2","","""event"",""trial"",""time""
""focus"",""0"",""1""
""fullscreenenter"",""1"",""2128""
","
","""event"",""trial"",""time""
""focus"",""0"",""1""
","""event"",""trial"",""time""
""fullscreenenter"",""1"",""2128""
","
","","","1584","","","17","3036","2284","t","elianto","#f73b6a7A"," "," ","1","0","[2441]","1","3","","","3036","150","2","3","lose","go","0"
"pit-trial","225","1442952","0.0-156.0","battery-v0.2","","""event"",""trial"",""time""
""focus"",""0"",""1""
""fullscreenenter"",""1"",""2128""
","
","""event"",""trial"",""time""
""focus"",""0"",""1""
","""event"",""trial"",""time""
""fullscreenenter"",""1"",""2128""
","
","","","-1","","","17","3036","2284","b","elianto","#f73b6a7A","-1","-1","1","0","[]","0","3","","","3036","151","3","4","lose","no-go","0"
"pit-trial","226","1447362","0.0-157.0","battery-v0.2","","""event"",""trial"",""time""
""focus"",""0"",""1""
""fullscreenenter"",""1"",""2128""
","
","""event"",""trial"",""time""
""focus"",""0"",""1""
","""event"",""trial"",""time""
""fullscreenenter"",""1"",""2128""
","
","","","1551","","","17","3036","2284","n","elianto","#f73b6a7A"," "," ","1","0","[2407]","1","3","","","3036","152","0","3","lose","go","0"
"pit-trial","227","1452232","0.0-158.0","battery-v0.2","","""event"",""trial"",""time""
""focus"",""0"",""1""
""fullscreenenter"",""1"",""2128""
","
","""event"",""trial"",""time""
""focus"",""0"",""1""
","""event"",""trial"",""time""
""fullscreenenter"",""1"",""2128""
","
","","","-1","","","17","3036","2284","b","elianto","#f73b6a7A","-1","-1","1","0","[]","0","3","","","3036","153","3","4","lose","no-go","0"
"pit-trial","228","1457088","0.0-159.0","battery-v0.2","","""event"",""trial"",""time""
""focus"",""0"",""1""
""fullscreenenter"",""1"",""2128""
","
","""event"",""trial"",""time""
""focus"",""0"",""1""
","""event"",""trial"",""time""
""fullscreenenter"",""1"",""2128""
","
","","","-1","","","17","3036","2284","f","elianto","#3366ff99","-1","-1","1","+10","[3077]","1","3","","","3036","154","1","2","win","no-go","0"
"pit-trial","229","1461391","0.0-160.0","battery-v0.2","","""event"",""trial"",""time""
""focus"",""0"",""1""
""fullscreenenter"",""1"",""2128""
","
","""event"",""trial"",""time""
""focus"",""0"",""1""
","""event"",""trial"",""time""
""fullscreenenter"",""1"",""2128""
","
","","","1439","","","17","3036","2284","n","elianto","#f73b6a7A"," "," ","1","-10","[2295]","1","3","","","3036","155","0","3","lose","go","1"
"pit-trial","230","1465464","0.0-161.0","battery-v0.2","","""event"",""trial"",""time""
""focus"",""0"",""1""
""fullscreenenter"",""1"",""2128""
","
","""event"",""trial"",""time""
""focus"",""0"",""1""
","""event"",""trial"",""time""
