"trial_type","trial_index","time_elapsed","internal_node_id","task_version","subject_id","interactions","blur_events","focus_events","fullscreenenter_events","fullscreenexit_events","success","view_history","rt","responses","num_errors","age","subject","participantId","rune","rune_set","hex","correct","choice","accuracy","outcome","keys","total_keys","block","practice","value","sub","trial","stimulus","robot","valence","action","sham"
"pavlovia","0","5","0.0-0.0","battery-v0.2","","""event"",""trial"",""time""
""fullscreenenter"",""1"",""6458""
","
","
","""event"",""trial"",""time""
""fullscreenenter"",""1"",""6458""
","
","","","","","","","","","","","","","","","","","","","","","","","","","","",""
"fullscreen","1","7441","0.0-1.0","battery-v0.2","","""event"",""trial"",""time""
""fullscreenenter"",""1"",""6458""
""blur"",""2"",""19195""
""fullscreenexit"",""2"",""341513""
""focus"",""2"",""1466085""
","""event"",""trial"",""time""
""blur"",""2"",""19195""
","""event"",""trial"",""time""
""focus"",""2"",""1466085""
","""event"",""trial"",""time""
""fullscreenenter"",""1"",""6458""
","""event"",""trial"",""time""
""fullscreenexit"",""2"",""341513""
","true","","","","","","","","","","","","","","","","","","","","","","","","","",""
"pit-instructions","2","1466156","0.0-2.0-0.0","battery-v0.2","","""event"",""trial"",""time""
""fullscreenenter"",""1"",""6458""
""blur"",""2"",""19195""
""fullscreenexit"",""2"",""341513""
""focus"",""2"",""1466085""
","""event"",""trial"",""time""
""blur"",""2"",""19195""
","""event"",""trial"",""time""
""focus"",""2"",""1466085""
","""event"",""trial"",""time""
""fullscreenenter"",""1"",""6458""
","""event"",""trial"",""time""
""fullscreenexit"",""2"",""341513""
","","[{""page_index"":0,""viewing_time"":1458740.900000006}]","1458741.600000009","","","","","","","","","","","","","","","","","","","","","","","",""
"pit-comprehension","3","1469591","0.0-2.0-1.0-0.0","battery-v0.2","","""event"",""trial"",""time""
""fullscreenenter"",""1"",""6458""
""blur"",""2"",""19195""
""fullscreenexit"",""2"",""341513""
""focus"",""2"",""1466085""
""blur"",""4"",""1475507""
""focus"",""4"",""1724773""
""blur"",""4"",""1727303""
""focus"",""4"",""1968270""
""blur"",""4"",""1969251""
""focus"",""4"",""2038873""
""blur"",""4"",""2039748""
""focus"",""4"",""2476266""
""blur"",""4"",""2490159""
""focus"",""4"",""3164945""
","""event"",""trial"",""time""
""blur"",""2"",""19195""
""blur"",""4"",""1475507""
""blur"",""4"",""1727303""
""blur"",""4"",""1969251""
""blur"",""4"",""2039748""
""blur"",""4"",""2490159""
","""event"",""trial"",""time""
""focus"",""2"",""1466085""
""focus"",""4"",""1724773""
""focus"",""4"",""1968270""
""focus"",""4"",""2038873""
""focus"",""4"",""2476266""
""focus"",""4"",""3164945""
","""event"",""trial"",""time""
""fullscreenenter"",""1"",""6458""
","""event"",""trial"",""time""
""fullscreenexit"",""2"",""341513""
","","","3426.9000000059605","[""turtle""]","1","21","13375","5801","","","","","","","","","","","","","","","","","","",""
"pit-instructions","4","3166509","0.0-2.0-1.0-1.0","battery-v0.2","","""event"",""trial"",""time""
""fullscreenenter"",""1"",""6458""
""blur"",""2"",""19195""
""fullscreenexit"",""2"",""341513""
""focus"",""2"",""1466085""
""blur"",""4"",""1475507""
""focus"",""4"",""1724773""
""blur"",""4"",""1727303""
""focus"",""4"",""1968270""
""blur"",""4"",""1969251""
""focus"",""4"",""2038873""
""blur"",""4"",""2039748""
""focus"",""4"",""2476266""
""blur"",""4"",""2490159""
""focus"",""4"",""3164945""
","""event"",""trial"",""time""
""blur"",""2"",""19195""
""blur"",""4"",""1475507""
""blur"",""4"",""1727303""
""blur"",""4"",""1969251""
""blur"",""4"",""2039748""
""blur"",""4"",""2490159""
","""event"",""trial"",""time""
""focus"",""2"",""1466085""
""focus"",""4"",""1724773""
""focus"",""4"",""1968270""
""focus"",""4"",""2038873""
""focus"",""4"",""2476266""
""focus"",""4"",""3164945""
","""event"",""trial"",""time""
""fullscreenenter"",""1"",""6458""
","""event"",""trial"",""time""
""fullscreenexit"",""2"",""341513""
","","[{""page_index"":0,""viewing_time"":1696944.299999997}]","1696944.900000006","","","","","","","","","","","","","","","","","","","","","","","",""
"pit-instructions","5","3171726","0.0-2.0-1.0-2.0-0.0","battery-v0.2","","""event"",""trial"",""time""
""fullscreenenter"",""1"",""6458""
""blur"",""2"",""19195""
""fullscreenexit"",""2"",""341513""
""focus"",""2"",""1466085""
""blur"",""4"",""1475507""
""focus"",""4"",""1724773""
""blur"",""4"",""1727303""
""focus"",""4"",""1968270""
""blur"",""4"",""1969251""
""focus"",""4"",""2038873""
""blur"",""4"",""2039748""
""focus"",""4"",""2476266""
""blur"",""4"",""2490159""
""focus"",""4"",""3164945""
","""event"",""trial"",""time""
""blur"",""2"",""19195""
""blur"",""4"",""1475507""
""blur"",""4"",""1727303""
""blur"",""4"",""1969251""
""blur"",""4"",""2039748""
""blur"",""4"",""2490159""
","""event"",""trial"",""time""
""focus"",""2"",""1466085""
""focus"",""4"",""1724773""
""focus"",""4"",""1968270""
""focus"",""4"",""2038873""
""focus"",""4"",""2476266""
""focus"",""4"",""3164945""
","""event"",""trial"",""time""
""fullscreenenter"",""1"",""6458""
","""event"",""trial"",""time""
""fullscreenexit"",""2"",""341513""
","","[{""page_index"":0,""viewing_time"":5210.600000008941}]","5211.100000008941","","","","","","","","","","","","","","","","","","","","","","","",""
"pit-comprehension","6","3174209","0.0-2.0-1.1-0.1","battery-v0.2","","""event"",""trial"",""time""
""fullscreenenter"",""1"",""6458""
""blur"",""2"",""19195""
""fullscreenexit"",""2"",""341513""
""focus"",""2"",""1466085""
""blur"",""4"",""1475507""
""focus"",""4"",""1724773""
""blur"",""4"",""1727303""
""focus"",""4"",""1968270""
""blur"",""4"",""1969251""
""focus"",""4"",""2038873""
""blur"",""4"",""2039748""
""focus"",""4"",""2476266""
""blur"",""4"",""2490159""
""focus"",""4"",""3164945""
""blur"",""7"",""3175606""
""focus"",""7"",""3479470""
","""event"",""trial"",""time""
""blur"",""2"",""19195""
""blur"",""4"",""1475507""
""blur"",""4"",""1727303""
""blur"",""4"",""1969251""
""blur"",""4"",""2039748""
""blur"",""4"",""2490159""
""blur"",""7"",""3175606""
","""event"",""trial"",""time""
""focus"",""2"",""1466085""
""focus"",""4"",""1724773""
""focus"",""4"",""1968270""
""focus"",""4"",""2038873""
""focus"",""4"",""2476266""
""focus"",""4"",""3164945""
""focus"",""7"",""3479470""
","""event"",""trial"",""time""
""fullscreenenter"",""1"",""6458""
","""event"",""trial"",""time""
""fullscreenexit"",""2"",""341513""
","","","2475.699999988079","[""shark""]","0","21","13375","5801","","","","","","","","","","","","","","","","","","",""
"pit-instructions","7","3480434","0.0-2.0-1.1-1.1","battery-v0.2","","""event"",""trial"",""time""
""fullscreenenter"",""1"",""6458""
""blur"",""2"",""19195""
""fullscreenexit"",""2"",""341513""
""focus"",""2"",""1466085""
""blur"",""4"",""1475507""
""focus"",""4"",""1724773""
""blur"",""4"",""1727303""
""focus"",""4"",""1968270""
""blur"",""4"",""1969251""
""focus"",""4"",""2038873""
""blur"",""4"",""2039748""
""focus"",""4"",""2476266""
""blur"",""4"",""2490159""
""focus"",""4"",""3164945""
""blur"",""7"",""3175606""
""focus"",""7"",""3479470""
","""event"",""trial"",""time""
""blur"",""2"",""19195""
""blur"",""4"",""1475507""
""blur"",""4"",""1727303""
""blur"",""4"",""1969251""
""blur"",""4"",""2039748""
""blur"",""4"",""2490159""
""blur"",""7"",""3175606""
","""event"",""trial"",""time""
""focus"",""2"",""1466085""
""focus"",""4"",""1724773""
""focus"",""4"",""1968270""
""focus"",""4"",""2038873""
""focus"",""4"",""2476266""
""focus"",""4"",""3164945""
""focus"",""7"",""3479470""
","""event"",""trial"",""time""
""fullscreenenter"",""1"",""6458""
","""event"",""trial"",""time""
""fullscreenexit"",""2"",""341513""
","","[{""page_index"":0,""viewing_time"":306218.799999997}]","306219.299999997","","","","","","","","","","","","","","","","","","","","","","","",""
"pit-comprehension","8","3483021","0.0-2.0-2.0-0.0","battery-v0.2","","""event"",""trial"",""time""
""fullscreenenter"",""1"",""6458""
""blur"",""2"",""19195""
""fullscreenexit"",""2"",""341513""
""focus"",""2"",""1466085""
""blur"",""4"",""1475507""
""focus"",""4"",""1724773""
""blur"",""4"",""1727303""
""focus"",""4"",""1968270""
""blur"",""4"",""1969251""
""focus"",""4"",""2038873""
""blur"",""4"",""2039748""
""focus"",""4"",""2476266""
""blur"",""4"",""2490159""
""focus"",""4"",""3164945""
""blur"",""7"",""3175606""
""focus"",""7"",""3479470""
","""event"",""trial"",""time""
""blur"",""2"",""19195""
""blur"",""4"",""1475507""
""blur"",""4"",""1727303""
""blur"",""4"",""1969251""
""blur"",""4"",""2039748""
""blur"",""4"",""2490159""
""blur"",""7"",""3175606""
","""event"",""trial"",""time""
""focus"",""2"",""1466085""
""focus"",""4"",""1724773""
""focus"",""4"",""1968270""
""focus"",""4"",""2038873""
""focus"",""4"",""2476266""
""focus"",""4"",""3164945""
""focus"",""7"",""3479470""
","""event"",""trial"",""time""
""fullscreenenter"",""1"",""6458""
","""event"",""trial"",""time""
""fullscreenexit"",""2"",""341513""
","","","2576.199999988079","[""tiger""]","0","21","13375","5801","","","","","","","","","","","","","","","","","","",""
"pit-instructions","9","3484737","0.0-2.0-2.0-1.0","battery-v0.2","","""event"",""trial"",""time""
""fullscreenenter"",""1"",""6458""
""blur"",""2"",""19195""
""fullscreenexit"",""2"",""341513""
""focus"",""2"",""1466085""
""blur"",""4"",""1475507""
""focus"",""4"",""1724773""
""blur"",""4"",""1727303""
""focus"",""4"",""1968270""
""blur"",""4"",""1969251""
""focus"",""4"",""2038873""
""blur"",""4"",""2039748""
""focus"",""4"",""2476266""
""blur"",""4"",""2490159""
""focus"",""4"",""3164945""
""blur"",""7"",""3175606""
""focus"",""7"",""3479470""
""blur"",""10"",""3489566""
""focus"",""10"",""3494828""
""blur"",""10"",""3497566""
""focus"",""10"",""3503479""
""blur"",""10"",""3513568""
""focus"",""10"",""3516764""
""blur"",""10"",""3519789""
""focus"",""10"",""3526079""
""blur"",""10"",""3526231""
""focus"",""10"",""3526303""
""blur"",""10"",""3531603""
""focus"",""10"",""3537126""
""blur"",""10"",""3541586""
""focus"",""10"",""4866906""
""blur"",""10"",""4870381""
""focus"",""10"",""5118655""
""blur"",""10"",""5120151""
""focus"",""10"",""5135952""
""blur"",""10"",""5158403""
""focus"",""10"",""5390778""
","""event"",""trial"",""time""
""blur"",""2"",""19195""
""blur"",""4"",""1475507""
""blur"",""4"",""1727303""
""blur"",""4"",""1969251""
""blur"",""4"",""2039748""
""blur"",""4"",""2490159""
""blur"",""7"",""3175606""
""blur"",""10"",""3489566""
""blur"",""10"",""3497566""
""blur"",""10"",""3513568""
""blur"",""10"",""3519789""
""blur"",""10"",""3526231""
""blur"",""10"",""3531603""
""blur"",""10"",""3541586""
""blur"",""10"",""4870381""
""blur"",""10"",""5120151""
""blur"",""10"",""5158403""
","""event"",""trial"",""time""
""focus"",""2"",""1466085""
""focus"",""4"",""1724773""
""focus"",""4"",""1968270""
""focus"",""4"",""2038873""
""focus"",""4"",""2476266""
""focus"",""4"",""3164945""
""focus"",""7"",""3479470""
""focus"",""10"",""3494828""
""focus"",""10"",""3503479""
""focus"",""10"",""3516764""
""focus"",""10"",""3526079""
""focus"",""10"",""3526303""
""focus"",""10"",""3537126""
""focus"",""10"",""4866906""
""focus"",""10"",""5118655""
""focus"",""10"",""5135952""
""focus"",""10"",""5390778""
","""event"",""trial"",""time""
""fullscreenenter"",""1"",""6458""
","""event"",""trial"",""time""
""fullscreenexit"",""2"",""341513""
","","[{""page_index"":0,""viewing_time"":1709.2999999970198}]","1709.699999988079","","","","","","","","","","","","","","","","","","","","","","","",""
"pit-instructions","10","5403001","0.0-2.0-3.0","battery-v0.2","","""event"",""trial"",""time""
""fullscreenenter"",""1"",""6458""
""blur"",""2"",""19195""
""fullscreenexit"",""2"",""341513""
""focus"",""2"",""1466085""
""blur"",""4"",""1475507""
""focus"",""4"",""1724773""
""blur"",""4"",""1727303""
""focus"",""4"",""1968270""
""blur"",""4"",""1969251""
""focus"",""4"",""2038873""
""blur"",""4"",""2039748""
""focus"",""4"",""2476266""
""blur"",""4"",""2490159""
""focus"",""4"",""3164945""
""blur"",""7"",""3175606""
""focus"",""7"",""3479470""
""blur"",""10"",""3489566""
""focus"",""10"",""3494828""
""blur"",""10"",""3497566""
""focus"",""10"",""3503479""
""blur"",""10"",""3513568""
""focus"",""10"",""3516764""
""blur"",""10"",""3519789""
""focus"",""10"",""3526079""
""blur"",""10"",""3526231""
""focus"",""10"",""3526303""
""blur"",""10"",""3531603""
""focus"",""10"",""3537126""
""blur"",""10"",""3541586""
""focus"",""10"",""4866906""
""blur"",""10"",""4870381""
""focus"",""10"",""5118655""
""blur"",""10"",""5120151""
""focus"",""10"",""5135952""
""blur"",""10"",""5158403""
""focus"",""10"",""5390778""
","""event"",""trial"",""time""
""blur"",""2"",""19195""
""blur"",""4"",""1475507""
""blur"",""4"",""1727303""
""blur"",""4"",""1969251""
""blur"",""4"",""2039748""
""blur"",""4"",""2490159""
""blur"",""7"",""3175606""
""blur"",""10"",""3489566""
""blur"",""10"",""3497566""
""blur"",""10"",""3513568""
""blur"",""10"",""3519789""
""blur"",""10"",""3526231""
""blur"",""10"",""3531603""
""blur"",""10"",""3541586""
""blur"",""10"",""4870381""
""blur"",""10"",""5120151""
""blur"",""10"",""5158403""
","""event"",""trial"",""time""
""focus"",""2"",""1466085""
""focus"",""4"",""1724773""
""focus"",""4"",""1968270""
""focus"",""4"",""2038873""
""focus"",""4"",""2476266""
""focus"",""4"",""3164945""
""focus"",""7"",""3479470""
""focus"",""10"",""3494828""
""focus"",""10"",""3503479""
""focus"",""10"",""3516764""
""focus"",""10"",""3526079""
""focus"",""10"",""3526303""
""focus"",""10"",""3537126""
""focus"",""10"",""4866906""
""focus"",""10"",""5118655""
""focus"",""10"",""5135952""
""focus"",""10"",""5390778""
","""event"",""trial"",""time""
""fullscreenenter"",""1"",""6458""
","""event"",""trial"",""time""
""fullscreenexit"",""2"",""341513""
","","[{""page_index"":0,""viewing_time"":11038.20000000298},{""page_index"":1,""viewing_time"":8468.09999999404},{""page_index"":2,""viewing_time"":6250.4000000059605},{""page_index"":3,""viewing_time"":7145},{""page_index"":4,""viewing_time"":11390.59999999404},{""page_index"":5,""viewing_time"":8964.800000011921},{""page_index"":6,""viewing_time"":1330369.299999997},{""page_index"":7,""viewing_time"":251326.89999999106},{""page_index"":8,""viewing_time"":17318.20000000298},{""page_index"":9,""viewing_time"":8680.90000000596},{""page_index"":10,""viewing_time"":7017.0999999940395},{""page_index"":11,""viewing_time"":239191.10000000894},{""page_index"":12,""viewing_time"":6050.0999999940395},{""page_index"":13,""viewing_time"":5166.70000000298}]","1918378.200000003","","","","","","","","","","","","","","","","","","","","","","","",""
"pit-trial","11","5406404","0.0-2.0-4.0-0.0","battery-v0.2","","""event"",""trial"",""time""
""fullscreenenter"",""1"",""6458""
""blur"",""2"",""19195""
""fullscreenexit"",""2"",""341513""
""focus"",""2"",""1466085""
""blur"",""4"",""1475507""
""focus"",""4"",""1724773""
""blur"",""4"",""1727303""
""focus"",""4"",""1968270""
""blur"",""4"",""1969251""
""focus"",""4"",""2038873""
""blur"",""4"",""2039748""
""focus"",""4"",""2476266""
""blur"",""4"",""2490159""
""focus"",""4"",""3164945""
""blur"",""7"",""3175606""
""focus"",""7"",""3479470""
""blur"",""10"",""3489566""
""focus"",""10"",""3494828""
""blur"",""10"",""3497566""
""focus"",""10"",""3503479""
""blur"",""10"",""3513568""
""focus"",""10"",""3516764""
""blur"",""10"",""3519789""
""focus"",""10"",""3526079""
""blur"",""10"",""3526231""
""focus"",""10"",""3526303""
""blur"",""10"",""3531603""
""focus"",""10"",""3537126""
""blur"",""10"",""3541586""
""focus"",""10"",""4866906""
""blur"",""10"",""4870381""
""focus"",""10"",""5118655""
""blur"",""10"",""5120151""
""focus"",""10"",""5135952""
""blur"",""10"",""5158403""
""focus"",""10"",""5390778""
""blur"",""12"",""5409435""
","""event"",""trial"",""time""
""blur"",""2"",""19195""
""blur"",""4"",""1475507""
""blur"",""4"",""1727303""
""blur"",""4"",""1969251""
""blur"",""4"",""2039748""
""blur"",""4"",""2490159""
""blur"",""7"",""3175606""
""blur"",""10"",""3489566""
""blur"",""10"",""3497566""
""blur"",""10"",""3513568""
""blur"",""10"",""3519789""
""blur"",""10"",""3526231""
""blur"",""10"",""3531603""
""blur"",""10"",""3541586""
""blur"",""10"",""4870381""
""blur"",""10"",""5120151""
""blur"",""10"",""5158403""
""blur"",""12"",""5409435""
","""event"",""trial"",""time""
""focus"",""2"",""1466085""
""focus"",""4"",""1724773""
""focus"",""4"",""1968270""
""focus"",""4"",""2038873""
""focus"",""4"",""2476266""
""focus"",""4"",""3164945""
""focus"",""7"",""3479470""
""focus"",""10"",""3494828""
""focus"",""10"",""3503479""
""focus"",""10"",""3516764""
""focus"",""10"",""3526079""
""focus"",""10"",""3526303""
""focus"",""10"",""3537126""
""focus"",""10"",""4866906""
""focus"",""10"",""5118655""
""focus"",""10"",""5135952""
""focus"",""10"",""5390778""
","""event"",""trial"",""time""
""fullscreenenter"",""1"",""6458""
","""event"",""trial"",""time""
""fullscreenexit"",""2"",""341513""
","","","542.6999999880791","","","21","13375","5801","&#9784;","elianto","#FFFFF080"," "," ","1","&#10004","[479.20000000298023,1393.9000000059605]","2","0","0","","","","","","","",""
"pit-trial","12","5409880","0.0-2.0-4.1-0.1","battery-v0.2","","""event"",""trial"",""time""
""fullscreenenter"",""1"",""6458""
""blur"",""2"",""19195""
""fullscreenexit"",""2"",""341513""
""focus"",""2"",""1466085""
""blur"",""4"",""1475507""
""focus"",""4"",""1724773""
""blur"",""4"",""1727303""
""focus"",""4"",""1968270""
""blur"",""4"",""1969251""
""focus"",""4"",""2038873""
""blur"",""4"",""2039748""
""focus"",""4"",""2476266""
""blur"",""4"",""2490159""
""focus"",""4"",""3164945""
""blur"",""7"",""3175606""
""focus"",""7"",""3479470""
""blur"",""10"",""3489566""
""focus"",""10"",""3494828""
""blur"",""10"",""3497566""
""focus"",""10"",""3503479""
""blur"",""10"",""3513568""
""focus"",""10"",""3516764""
""blur"",""10"",""3519789""
""focus"",""10"",""3526079""
""blur"",""10"",""3526231""
""focus"",""10"",""3526303""
""blur"",""10"",""3531603""
""focus"",""10"",""3537126""
""blur"",""10"",""3541586""
""focus"",""10"",""4866906""
""blur"",""10"",""4870381""
""focus"",""10"",""5118655""
""blur"",""10"",""5120151""
""focus"",""10"",""5135952""
""blur"",""10"",""5158403""
""focus"",""10"",""5390778""
""blur"",""12"",""5409435""
""focus"",""13"",""5411581""
","""event"",""trial"",""time""
""blur"",""2"",""19195""
""blur"",""4"",""1475507""
""blur"",""4"",""1727303""
""blur"",""4"",""1969251""
""blur"",""4"",""2039748""
""blur"",""4"",""2490159""
""blur"",""7"",""3175606""
""blur"",""10"",""3489566""
""blur"",""10"",""3497566""
""blur"",""10"",""3513568""
""blur"",""10"",""3519789""
""blur"",""10"",""3526231""
""blur"",""10"",""3531603""
""blur"",""10"",""3541586""
""blur"",""10"",""4870381""
""blur"",""10"",""5120151""
""blur"",""10"",""5158403""
""blur"",""12"",""5409435""
","""event"",""trial"",""time""
""focus"",""2"",""1466085""
""focus"",""4"",""1724773""
""focus"",""4"",""1968270""
""focus"",""4"",""2038873""
""focus"",""4"",""2476266""
""focus"",""4"",""3164945""
""focus"",""7"",""3479470""
""focus"",""10"",""3494828""
""focus"",""10"",""3503479""
""focus"",""10"",""3516764""
""focus"",""10"",""3526079""
""focus"",""10"",""3526303""
""focus"",""10"",""3537126""
""focus"",""10"",""4866906""
""focus"",""10"",""5118655""
""focus"",""10"",""5135952""
""focus"",""10"",""5390778""
""focus"",""13"",""5411581""
","""event"",""trial"",""time""
""fullscreenenter"",""1"",""6458""
","""event"",""trial"",""time""
""fullscreenexit"",""2"",""341513""
","","","618.7999999970198","","","21","13375","5801","&#9784;","elianto","#FFFFF080"," "," ","1","&#10004","[1469.5]","1","0","0","","","","","","","",""
"pit-trial","13","5414262","0.0-2.0-4.2-0.2","battery-v0.2","","""event"",""trial"",""time""
""fullscreenenter"",""1"",""6458""
""blur"",""2"",""19195""
""fullscreenexit"",""2"",""341513""
""focus"",""2"",""1466085""
""blur"",""4"",""1475507""
""focus"",""4"",""1724773""
""blur"",""4"",""1727303""
""focus"",""4"",""1968270""
""blur"",""4"",""1969251""
""focus"",""4"",""2038873""
""blur"",""4"",""2039748""
""focus"",""4"",""2476266""
""blur"",""4"",""2490159""
""focus"",""4"",""3164945""
""blur"",""7"",""3175606""
""focus"",""7"",""3479470""
""blur"",""10"",""3489566""
""focus"",""10"",""3494828""
""blur"",""10"",""3497566""
""focus"",""10"",""3503479""
""blur"",""10"",""3513568""
""focus"",""10"",""3516764""
""blur"",""10"",""3519789""
""focus"",""10"",""3526079""
""blur"",""10"",""3526231""
""focus"",""10"",""3526303""
""blur"",""10"",""3531603""
""focus"",""10"",""3537126""
""blur"",""10"",""3541586""
""focus"",""10"",""4866906""
""blur"",""10"",""4870381""
""focus"",""10"",""5118655""
""blur"",""10"",""5120151""
""focus"",""10"",""5135952""
""blur"",""10"",""5158403""
""focus"",""10"",""5390778""
""blur"",""12"",""5409435""
""focus"",""13"",""5411581""
","""event"",""trial"",""time""
""blur"",""2"",""19195""
""blur"",""4"",""1475507""
""blur"",""4"",""1727303""
""blur"",""4"",""1969251""
""blur"",""4"",""2039748""
""blur"",""4"",""2490159""
""blur"",""7"",""3175606""
""blur"",""10"",""3489566""
""blur"",""10"",""3497566""
""blur"",""10"",""3513568""
""blur"",""10"",""3519789""
""blur"",""10"",""3526231""
""blur"",""10"",""3531603""
""blur"",""10"",""3541586""
""blur"",""10"",""4870381""
""blur"",""10"",""5120151""
""blur"",""10"",""5158403""
""blur"",""12"",""5409435""
","""event"",""trial"",""time""
""focus"",""2"",""1466085""
""focus"",""4"",""1724773""
""focus"",""4"",""1968270""
""focus"",""4"",""2038873""
""focus"",""4"",""2476266""
""focus"",""4"",""3164945""
""focus"",""7"",""3479470""
""focus"",""10"",""3494828""
""focus"",""10"",""3503479""
""focus"",""10"",""3516764""
""focus"",""10"",""3526079""
""focus"",""10"",""3526303""
""focus"",""10"",""3537126""
""focus"",""10"",""4866906""
""focus"",""10"",""5118655""
""focus"",""10"",""5135952""
""focus"",""10"",""5390778""
""focus"",""13"",""5411581""
","""event"",""trial"",""time""
""fullscreenenter"",""1"",""6458""
","""event"",""trial"",""time""
""fullscreenexit"",""2"",""341513""
","","","1524","","","21","13375","5801","&#9784;","elianto","#FFFFF080"," "," ","1","&#10004","[2375.5999999940395]","1","0","0","","","","","","","",""
"pit-trial","14","5418037","0.0-2.0-4.3-0.3","battery-v0.2","","""event"",""trial"",""time""
""fullscreenenter"",""1"",""6458""
""blur"",""2"",""19195""
""fullscreenexit"",""2"",""341513""
""focus"",""2"",""1466085""
""blur"",""4"",""1475507""
""focus"",""4"",""1724773""
""blur"",""4"",""1727303""
""focus"",""4"",""1968270""
""blur"",""4"",""1969251""
""focus"",""4"",""2038873""
""blur"",""4"",""2039748""
""focus"",""4"",""2476266""
""blur"",""4"",""2490159""
""focus"",""4"",""3164945""
""blur"",""7"",""3175606""
""focus"",""7"",""3479470""
""blur"",""10"",""3489566""
""focus"",""10"",""3494828""
""blur"",""10"",""3497566""
""focus"",""10"",""3503479""
""blur"",""10"",""3513568""
""focus"",""10"",""3516764""
""blur"",""10"",""3519789""
""focus"",""10"",""3526079""
""blur"",""10"",""3526231""
""focus"",""10"",""3526303""
""blur"",""10"",""3531603""
""focus"",""10"",""3537126""
""blur"",""10"",""3541586""
""focus"",""10"",""4866906""
""blur"",""10"",""4870381""
""focus"",""10"",""5118655""
""blur"",""10"",""5120151""
""focus"",""10"",""5135952""
""blur"",""10"",""5158403""
""focus"",""10"",""5390778""
""blur"",""12"",""5409435""
""focus"",""13"",""5411581""
","""event"",""trial"",""time""
""blur"",""2"",""19195""
""blur"",""4"",""1475507""
""blur"",""4"",""1727303""
""blur"",""4"",""1969251""
""blur"",""4"",""2039748""
""blur"",""4"",""2490159""
""blur"",""7"",""3175606""
""blur"",""10"",""3489566""
""blur"",""10"",""3497566""
""blur"",""10"",""3513568""
""blur"",""10"",""3519789""
""blur"",""10"",""3526231""
""blur"",""10"",""3531603""
""blur"",""10"",""3541586""
""blur"",""10"",""4870381""
""blur"",""10"",""5120151""
""blur"",""10"",""5158403""
""blur"",""12"",""5409435""
","""event"",""trial"",""time""
""focus"",""2"",""1466085""
""focus"",""4"",""1724773""
""focus"",""4"",""1968270""
""focus"",""4"",""2038873""
""focus"",""4"",""2476266""
""focus"",""4"",""3164945""
""focus"",""7"",""3479470""
""focus"",""10"",""3494828""
""focus"",""10"",""3503479""
""focus"",""10"",""3516764""
""focus"",""10"",""3526079""
""focus"",""10"",""3526303""
""focus"",""10"",""3537126""
""focus"",""10"",""4866906""
""focus"",""10"",""5118655""
""focus"",""10"",""5135952""
""focus"",""10"",""5390778""
""focus"",""13"",""5411581""
","""event"",""trial"",""time""
""fullscreenenter"",""1"",""6458""
","""event"",""trial"",""time""
""fullscreenexit"",""2"",""341513""
","","","919.0999999940395","","","21","13375","5801","&#9784;","elianto","#FFFFF080"," "," ","1","&#10004","[1770.3999999910593]","1","0","0","","","","","","","",""
"pit-trial","15","5421368","0.0-2.0-4.4-0.4","battery-v0.2","","""event"",""trial"",""time""
""fullscreenenter"",""1"",""6458""
""blur"",""2"",""19195""
""fullscreenexit"",""2"",""341513""
""focus"",""2"",""1466085""
""blur"",""4"",""1475507""
""focus"",""4"",""1724773""
""blur"",""4"",""1727303""
""focus"",""4"",""1968270""
""blur"",""4"",""1969251""
""focus"",""4"",""2038873""
""blur"",""4"",""2039748""
""focus"",""4"",""2476266""
""blur"",""4"",""2490159""
""focus"",""4"",""3164945""
""blur"",""7"",""3175606""
""focus"",""7"",""3479470""
""blur"",""10"",""3489566""
""focus"",""10"",""3494828""
""blur"",""10"",""3497566""
""focus"",""10"",""3503479""
""blur"",""10"",""3513568""
""focus"",""10"",""3516764""
""blur"",""10"",""3519789""
""focus"",""10"",""3526079""
""blur"",""10"",""3526231""
""focus"",""10"",""3526303""
""blur"",""10"",""3531603""
""focus"",""10"",""3537126""
""blur"",""10"",""3541586""
""focus"",""10"",""4866906""
""blur"",""10"",""4870381""
""focus"",""10"",""5118655""
""blur"",""10"",""5120151""
""focus"",""10"",""5135952""
""blur"",""10"",""5158403""
""focus"",""10"",""5390778""
""blur"",""12"",""5409435""
""focus"",""13"",""5411581""
""blur"",""16"",""5423833""
""focus"",""16"",""5512840""
""blur"",""16"",""5516401""
""focus"",""16"",""5517970""
""blur"",""16"",""5522201""
""focus"",""16"",""5527450""
""blur"",""16"",""5530033""
""focus"",""16"",""5540755""
","""event"",""trial"",""time""
""blur"",""2"",""19195""
""blur"",""4"",""1475507""
""blur"",""4"",""1727303""
""blur"",""4"",""1969251""
""blur"",""4"",""2039748""
""blur"",""4"",""2490159""
""blur"",""7"",""3175606""
""blur"",""10"",""3489566""
""blur"",""10"",""3497566""
""blur"",""10"",""3513568""
""blur"",""10"",""3519789""
""blur"",""10"",""3526231""
""blur"",""10"",""3531603""
""blur"",""10"",""3541586""
""blur"",""10"",""4870381""
""blur"",""10"",""5120151""
""blur"",""10"",""5158403""
""blur"",""12"",""5409435""
""blur"",""16"",""5423833""
""blur"",""16"",""5516401""
""blur"",""16"",""5522201""
""blur"",""16"",""5530033""
","""event"",""trial"",""time""
""focus"",""2"",""1466085""
""focus"",""4"",""1724773""
""focus"",""4"",""1968270""
""focus"",""4"",""2038873""
""focus"",""4"",""2476266""
""focus"",""4"",""3164945""
""focus"",""7"",""3479470""
""focus"",""10"",""3494828""
""focus"",""10"",""3503479""
""focus"",""10"",""3516764""
""focus"",""10"",""3526079""
""focus"",""10"",""3526303""
""focus"",""10"",""3537126""
""focus"",""10"",""4866906""
""focus"",""10"",""5118655""
""focus"",""10"",""5135952""
""focus"",""10"",""5390778""
""focus"",""13"",""5411581""
""focus"",""16"",""5512840""
""focus"",""16"",""5517970""
""focus"",""16"",""5527450""
""focus"",""16"",""5540755""
","""event"",""trial"",""time""
""fullscreenenter"",""1"",""6458""
","""event"",""trial"",""time""
""fullscreenexit"",""2"",""341513""
","","","474.1000000089407","","","21","13375","5801","&#9784;","elianto","#FFFFF080"," "," ","1","&#10004","[1325.7000000029802]","1","0","0","","","","","","","",""
"pit-instructions","16","5541499","0.0-2.0-5.0","battery-v0.2","","""event"",""trial"",""time""
""fullscreenenter"",""1"",""6458""
""blur"",""2"",""19195""
""fullscreenexit"",""2"",""341513""
""focus"",""2"",""1466085""
""blur"",""4"",""1475507""
""focus"",""4"",""1724773""
""blur"",""4"",""1727303""
""focus"",""4"",""1968270""
""blur"",""4"",""1969251""
""focus"",""4"",""2038873""
""blur"",""4"",""2039748""
""focus"",""4"",""2476266""
""blur"",""4"",""2490159""
""focus"",""4"",""3164945""
""blur"",""7"",""3175606""
""focus"",""7"",""3479470""
""blur"",""10"",""3489566""
""focus"",""10"",""3494828""
""blur"",""10"",""3497566""
""focus"",""10"",""3503479""
""blur"",""10"",""3513568""
""focus"",""10"",""3516764""
""blur"",""10"",""3519789""
""focus"",""10"",""3526079""
""blur"",""10"",""3526231""
""focus"",""10"",""3526303""
""blur"",""10"",""3531603""
""focus"",""10"",""3537126""
""blur"",""10"",""3541586""
""focus"",""10"",""4866906""
""blur"",""10"",""4870381""
""focus"",""10"",""5118655""
""blur"",""10"",""5120151""
""focus"",""10"",""5135952""
""blur"",""10"",""5158403""
""focus"",""10"",""5390778""
""blur"",""12"",""5409435""
""focus"",""13"",""5411581""
""blur"",""16"",""5423833""
""focus"",""16"",""5512840""
""blur"",""16"",""5516401""
""focus"",""16"",""5517970""
""blur"",""16"",""5522201""
""focus"",""16"",""5527450""
""blur"",""16"",""5530033""
""focus"",""16"",""5540755""
","""event"",""trial"",""time""
""blur"",""2"",""19195""
""blur"",""4"",""1475507""
""blur"",""4"",""1727303""
""blur"",""4"",""1969251""
""blur"",""4"",""2039748""
""blur"",""4"",""2490159""
""blur"",""7"",""3175606""
""blur"",""10"",""3489566""
""blur"",""10"",""3497566""
""blur"",""10"",""3513568""
""blur"",""10"",""3519789""
""blur"",""10"",""3526231""
""blur"",""10"",""3531603""
""blur"",""10"",""3541586""
""blur"",""10"",""4870381""
""blur"",""10"",""5120151""
""blur"",""10"",""5158403""
""blur"",""12"",""5409435""
""blur"",""16"",""5423833""
""blur"",""16"",""5516401""
""blur"",""16"",""5522201""
""blur"",""16"",""5530033""
","""event"",""trial"",""time""
""focus"",""2"",""1466085""
""focus"",""4"",""1724773""
""focus"",""4"",""1968270""
""focus"",""4"",""2038873""
""focus"",""4"",""2476266""
""focus"",""4"",""3164945""
""focus"",""7"",""3479470""
""focus"",""10"",""3494828""
""focus"",""10"",""3503479""
""focus"",""10"",""3516764""
""focus"",""10"",""3526079""
""focus"",""10"",""3526303""
""focus"",""10"",""3537126""
""focus"",""10"",""4866906""
""focus"",""10"",""5118655""
""focus"",""10"",""5135952""
""focus"",""10"",""5390778""
""focus"",""13"",""5411581""
""focus"",""16"",""5512840""
""focus"",""16"",""5517970""
""focus"",""16"",""5527450""
""focus"",""16"",""5540755""
","""event"",""trial"",""time""
""fullscreenenter"",""1"",""6458""
","""event"",""trial"",""time""
""fullscreenexit"",""2"",""341513""
","","[{""page_index"":0,""viewing_time"":92913.20000000298},{""page_index"":1,""viewing_time"":5450.79999999702},{""page_index"":2,""viewing_time"":8499.89999999106},{""page_index"":3,""viewing_time"":13267.800000011921}]","120132.89999999106","","","","","","","","","","","","","","","","","","","","","","","",""
"pit-trial","17","5546357","0.0-2.0-6.0-0.0","battery-v0.2","","""event"",""trial"",""time""
""fullscreenenter"",""1"",""6458""
""blur"",""2"",""19195""
""fullscreenexit"",""2"",""341513""
""focus"",""2"",""1466085""
""blur"",""4"",""1475507""
""focus"",""4"",""1724773""
""blur"",""4"",""1727303""
""focus"",""4"",""1968270""
""blur"",""4"",""1969251""
""focus"",""4"",""2038873""
""blur"",""4"",""2039748""
""focus"",""4"",""2476266""
""blur"",""4"",""2490159""
""focus"",""4"",""3164945""
""blur"",""7"",""3175606""
""focus"",""7"",""3479470""
""blur"",""10"",""3489566""
""focus"",""10"",""3494828""
""blur"",""10"",""3497566""
""focus"",""10"",""3503479""
""blur"",""10"",""3513568""
""focus"",""10"",""3516764""
""blur"",""10"",""3519789""
""focus"",""10"",""3526079""
""blur"",""10"",""3526231""
""focus"",""10"",""3526303""
""blur"",""10"",""3531603""
""focus"",""10"",""3537126""
""blur"",""10"",""3541586""
""focus"",""10"",""4866906""
""blur"",""10"",""4870381""
""focus"",""10"",""5118655""
""blur"",""10"",""5120151""
""focus"",""10"",""5135952""
""blur"",""10"",""5158403""
""focus"",""10"",""5390778""
""blur"",""12"",""5409435""
""focus"",""13"",""5411581""
""blur"",""16"",""5423833""
""focus"",""16"",""5512840""
""blur"",""16"",""5516401""
""focus"",""16"",""5517970""
""blur"",""16"",""5522201""
""focus"",""16"",""5527450""
""blur"",""16"",""5530033""
""focus"",""16"",""5540755""
""blur"",""18"",""5546367""
","""event"",""trial"",""time""
""blur"",""2"",""19195""
""blur"",""4"",""1475507""
""blur"",""4"",""1727303""
""blur"",""4"",""1969251""
""blur"",""4"",""2039748""
""blur"",""4"",""2490159""
""blur"",""7"",""3175606""
""blur"",""10"",""3489566""
""blur"",""10"",""3497566""
""blur"",""10"",""3513568""
""blur"",""10"",""3519789""
""blur"",""10"",""3526231""
""blur"",""10"",""3531603""
""blur"",""10"",""3541586""
""blur"",""10"",""4870381""
""blur"",""10"",""5120151""
""blur"",""10"",""5158403""
""blur"",""12"",""5409435""
""blur"",""16"",""5423833""
""blur"",""16"",""5516401""
""blur"",""16"",""5522201""
""blur"",""16"",""5530033""
""blur"",""18"",""5546367""
","""event"",""trial"",""time""
""focus"",""2"",""1466085""
""focus"",""4"",""1724773""
""focus"",""4"",""1968270""
""focus"",""4"",""2038873""
""focus"",""4"",""2476266""
""focus"",""4"",""3164945""
""focus"",""7"",""3479470""
""focus"",""10"",""3494828""
""focus"",""10"",""3503479""
""focus"",""10"",""3516764""
""focus"",""10"",""3526079""
""focus"",""10"",""3526303""
""focus"",""10"",""3537126""
""focus"",""10"",""4866906""
""focus"",""10"",""5118655""
""focus"",""10"",""5135952""
""focus"",""10"",""5390778""
""focus"",""13"",""5411581""
""focus"",""16"",""5512840""
""focus"",""16"",""5517970""
""focus"",""16"",""5527450""
""focus"",""16"",""5540755""
","""event"",""trial"",""time""
""fullscreenenter"",""1"",""6458""
","""event"",""trial"",""time""
""fullscreenexit"",""2"",""341513""
","","","-1","","","21","13375","5801","&#9854;","elianto","#FFFFF080","-1","-1","1","&#10004","[]","0","0","1","","","","","","","",""
"pit-trial","18","5551218","0.0-2.0-6.1-0.1","battery-v0.2","","""event"",""trial"",""time""
""fullscreenenter"",""1"",""6458""
""blur"",""2"",""19195""
""fullscreenexit"",""2"",""341513""
""focus"",""2"",""1466085""
""blur"",""4"",""1475507""
""focus"",""4"",""1724773""
""blur"",""4"",""1727303""
""focus"",""4"",""1968270""
""blur"",""4"",""1969251""
""focus"",""4"",""2038873""
""blur"",""4"",""2039748""
""focus"",""4"",""2476266""
""blur"",""4"",""2490159""
""focus"",""4"",""3164945""
""blur"",""7"",""3175606""
""focus"",""7"",""3479470""
""blur"",""10"",""3489566""
""focus"",""10"",""3494828""
""blur"",""10"",""3497566""
""focus"",""10"",""3503479""
""blur"",""10"",""3513568""
""focus"",""10"",""3516764""
""blur"",""10"",""3519789""
""focus"",""10"",""3526079""
""blur"",""10"",""3526231""
""focus"",""10"",""3526303""
""blur"",""10"",""3531603""
""focus"",""10"",""3537126""
""blur"",""10"",""3541586""
""focus"",""10"",""4866906""
""blur"",""10"",""4870381""
""focus"",""10"",""5118655""
""blur"",""10"",""5120151""
""focus"",""10"",""5135952""
""blur"",""10"",""5158403""
""focus"",""10"",""5390778""
""blur"",""12"",""5409435""
""focus"",""13"",""5411581""
""blur"",""16"",""5423833""
""focus"",""16"",""5512840""
""blur"",""16"",""5516401""
""focus"",""16"",""5517970""
""blur"",""16"",""5522201""
""focus"",""16"",""5527450""
""blur"",""16"",""5530033""
""focus"",""16"",""5540755""
""blur"",""18"",""5546367""
","""event"",""trial"",""time""
""blur"",""2"",""19195""
""blur"",""4"",""1475507""
""blur"",""4"",""1727303""
""blur"",""4"",""1969251""
""blur"",""4"",""2039748""
""blur"",""4"",""2490159""
""blur"",""7"",""3175606""
""blur"",""10"",""3489566""
""blur"",""10"",""3497566""
""blur"",""10"",""3513568""
""blur"",""10"",""3519789""
""blur"",""10"",""3526231""
""blur"",""10"",""3531603""
""blur"",""10"",""3541586""
""blur"",""10"",""4870381""
""blur"",""10"",""5120151""
""blur"",""10"",""5158403""
""blur"",""12"",""5409435""
""blur"",""16"",""5423833""
""blur"",""16"",""5516401""
""blur"",""16"",""5522201""
""blur"",""16"",""5530033""
""blur"",""18"",""5546367""
","""event"",""trial"",""time""
""focus"",""2"",""1466085""
""focus"",""4"",""1724773""
""focus"",""4"",""1968270""
""focus"",""4"",""2038873""
""focus"",""4"",""2476266""
""focus"",""4"",""3164945""
""focus"",""7"",""3479470""
""focus"",""10"",""3494828""
""focus"",""10"",""3503479""
""focus"",""10"",""3516764""
""focus"",""10"",""3526079""
""focus"",""10"",""3526303""
""focus"",""10"",""3537126""
""focus"",""10"",""4866906""
""focus"",""10"",""5118655""
""focus"",""10"",""5135952""
""focus"",""10"",""5390778""
""focus"",""13"",""5411581""
""focus"",""16"",""5512840""
""focus"",""16"",""5517970""
""focus"",""16"",""5527450""
""focus"",""16"",""5540755""
","""event"",""trial"",""time""
""fullscreenenter"",""1"",""6458""
","""event"",""trial"",""time""
""fullscreenexit"",""2"",""341513""
","","","-1","","","21","13375","5801","&#9854;","elianto","#FFFFF080","-1","-1","1","&#10004","[]","0","0","1","","","","","","","",""
"pit-trial","19","5556074","0.0-2.0-6.2-0.2","battery-v0.2","","""event"",""trial"",""time""
""fullscreenenter"",""1"",""6458""
""blur"",""2"",""19195""
""fullscreenexit"",""2"",""341513""
""focus"",""2"",""1466085""
""blur"",""4"",""1475507""
""focus"",""4"",""1724773""
""blur"",""4"",""1727303""
""focus"",""4"",""1968270""
""blur"",""4"",""1969251""
""focus"",""4"",""2038873""
""blur"",""4"",""2039748""
""focus"",""4"",""2476266""
""blur"",""4"",""2490159""
""focus"",""4"",""3164945""
""blur"",""7"",""3175606""
""focus"",""7"",""3479470""
""blur"",""10"",""3489566""
""focus"",""10"",""3494828""
""blur"",""10"",""3497566""
""focus"",""10"",""3503479""
""blur"",""10"",""3513568""
""focus"",""10"",""3516764""
""blur"",""10"",""3519789""
""focus"",""10"",""3526079""
""blur"",""10"",""3526231""
""focus"",""10"",""3526303""
""blur"",""10"",""3531603""
""focus"",""10"",""3537126""
""blur"",""10"",""3541586""
""focus"",""10"",""4866906""
""blur"",""10"",""4870381""
""focus"",""10"",""5118655""
""blur"",""10"",""5120151""
""focus"",""10"",""5135952""
""blur"",""10"",""5158403""
""focus"",""10"",""5390778""
""blur"",""12"",""5409435""
""focus"",""13"",""5411581""
""blur"",""16"",""5423833""
""focus"",""16"",""5512840""
""blur"",""16"",""5516401""
""focus"",""16"",""5517970""
""blur"",""16"",""5522201""
""focus"",""16"",""5527450""
""blur"",""16"",""5530033""
""focus"",""16"",""5540755""
""blur"",""18"",""5546367""
","""event"",""trial"",""time""
""blur"",""2"",""19195""
""blur"",""4"",""1475507""
""blur"",""4"",""1727303""
""blur"",""4"",""1969251""
""blur"",""4"",""2039748""
""blur"",""4"",""2490159""
""blur"",""7"",""3175606""
""blur"",""10"",""3489566""
""blur"",""10"",""3497566""
""blur"",""10"",""3513568""
""blur"",""10"",""3519789""
""blur"",""10"",""3526231""
""blur"",""10"",""3531603""
""blur"",""10"",""3541586""
""blur"",""10"",""4870381""
""blur"",""10"",""5120151""
""blur"",""10"",""5158403""
""blur"",""12"",""5409435""
""blur"",""16"",""5423833""
""blur"",""16"",""5516401""
""blur"",""16"",""5522201""
""blur"",""16"",""5530033""
""blur"",""18"",""5546367""
","""event"",""trial"",""time""
""focus"",""2"",""1466085""
""focus"",""4"",""1724773""
""focus"",""4"",""1968270""
""focus"",""4"",""2038873""
""focus"",""4"",""2476266""
""focus"",""4"",""3164945""
""focus"",""7"",""3479470""
""focus"",""10"",""3494828""
""focus"",""10"",""3503479""
""focus"",""10"",""3516764""
""focus"",""10"",""3526079""
""focus"",""10"",""3526303""
""focus"",""10"",""3537126""
""focus"",""10"",""4866906""
""focus"",""10"",""5118655""
""focus"",""10"",""5135952""
""focus"",""10"",""5390778""
""focus"",""13"",""5411581""
""focus"",""16"",""5512840""
""focus"",""16"",""5517970""
""focus"",""16"",""5527450""
""focus"",""16"",""5540755""
","""event"",""trial"",""time""
""fullscreenenter"",""1"",""6458""
","""event"",""trial"",""time""
""fullscreenexit"",""2"",""341513""
","","","-1","","","21","13375","5801","&#9854;","elianto","#FFFFF080","-1","-1","1","&#10004","[]","0","0","1","","","","","","","",""
"pit-trial","20","5560933","0.0-2.0-6.3-0.3","battery-v0.2","","""event"",""trial"",""time""
""fullscreenenter"",""1"",""6458""
""blur"",""2"",""19195""
""fullscreenexit"",""2"",""341513""
""focus"",""2"",""1466085""
""blur"",""4"",""1475507""
""focus"",""4"",""1724773""
""blur"",""4"",""1727303""
""focus"",""4"",""1968270""
""blur"",""4"",""1969251""
""focus"",""4"",""2038873""
""blur"",""4"",""2039748""
""focus"",""4"",""2476266""
""blur"",""4"",""2490159""
""focus"",""4"",""3164945""
""blur"",""7"",""3175606""
""focus"",""7"",""3479470""
""blur"",""10"",""3489566""
""focus"",""10"",""3494828""
""blur"",""10"",""3497566""
""focus"",""10"",""3503479""
""blur"",""10"",""3513568""
""focus"",""10"",""3516764""
""blur"",""10"",""3519789""
""focus"",""10"",""3526079""
""blur"",""10"",""3526231""
""focus"",""10"",""3526303""
""blur"",""10"",""3531603""
""focus"",""10"",""3537126""
""blur"",""10"",""3541586""
""focus"",""10"",""4866906""
""blur"",""10"",""4870381""
""focus"",""10"",""5118655""
""blur"",""10"",""5120151""
""focus"",""10"",""5135952""
""blur"",""10"",""5158403""
""focus"",""10"",""5390778""
""blur"",""12"",""5409435""
""focus"",""13"",""5411581""
""blur"",""16"",""5423833""
""focus"",""16"",""5512840""
""blur"",""16"",""5516401""
""focus"",""16"",""5517970""
""blur"",""16"",""5522201""
""focus"",""16"",""5527450""
""blur"",""16"",""5530033""
""focus"",""16"",""5540755""
""blur"",""18"",""5546367""
","""event"",""trial"",""time""
""blur"",""2"",""19195""
""blur"",""4"",""1475507""
""blur"",""4"",""1727303""
""blur"",""4"",""1969251""
""blur"",""4"",""2039748""
""blur"",""4"",""2490159""
""blur"",""7"",""3175606""
""blur"",""10"",""3489566""
""blur"",""10"",""3497566""
""blur"",""10"",""3513568""
""blur"",""10"",""3519789""
""blur"",""10"",""3526231""
""blur"",""10"",""3531603""
""blur"",""10"",""3541586""
""blur"",""10"",""4870381""
""blur"",""10"",""5120151""
""blur"",""10"",""5158403""
""blur"",""12"",""5409435""
""blur"",""16"",""5423833""
""blur"",""16"",""5516401""
""blur"",""16"",""5522201""
""blur"",""16"",""5530033""
""blur"",""18"",""5546367""
","""event"",""trial"",""time""
""focus"",""2"",""1466085""
""focus"",""4"",""1724773""
""focus"",""4"",""1968270""
""focus"",""4"",""2038873""
""focus"",""4"",""2476266""
""focus"",""4"",""3164945""
""focus"",""7"",""3479470""
""focus"",""10"",""3494828""
""focus"",""10"",""3503479""
""focus"",""10"",""3516764""
""focus"",""10"",""3526079""
""focus"",""10"",""3526303""
""focus"",""10"",""3537126""
""focus"",""10"",""4866906""
""focus"",""10"",""5118655""
""focus"",""10"",""5135952""
""focus"",""10"",""5390778""
""focus"",""13"",""5411581""
""focus"",""16"",""5512840""
""focus"",""16"",""5517970""
""focus"",""16"",""5527450""
""focus"",""16"",""5540755""
","""event"",""trial"",""time""
""fullscreenenter"",""1"",""6458""
","""event"",""trial"",""time""
""fullscreenexit"",""2"",""341513""
","","","-1","","","21","13375","5801","&#9854;","elianto","#FFFFF080","-1","-1","1","&#10004","[]","0","0","1","","","","","","","",""
"pit-trial","21","5565792","0.0-2.0-6.4-0.4","battery-v0.2","","""event"",""trial"",""time""
""fullscreenenter"",""1"",""6458""
""blur"",""2"",""19195""
""fullscreenexit"",""2"",""341513""
""focus"",""2"",""1466085""
""blur"",""4"",""1475507""
""focus"",""4"",""1724773""
""blur"",""4"",""1727303""
""focus"",""4"",""1968270""
""blur"",""4"",""1969251""
""focus"",""4"",""2038873""
""blur"",""4"",""2039748""
""focus"",""4"",""2476266""
""blur"",""4"",""2490159""
""focus"",""4"",""3164945""
""blur"",""7"",""3175606""
""focus"",""7"",""3479470""
""blur"",""10"",""3489566""
""focus"",""10"",""3494828""
""blur"",""10"",""3497566""
""focus"",""10"",""3503479""
""blur"",""10"",""3513568""
""focus"",""10"",""3516764""
""blur"",""10"",""3519789""
""focus"",""10"",""3526079""
""blur"",""10"",""3526231""
""focus"",""10"",""3526303""
""blur"",""10"",""3531603""
""focus"",""10"",""3537126""
""blur"",""10"",""3541586""
""focus"",""10"",""4866906""
""blur"",""10"",""4870381""
""focus"",""10"",""5118655""
""blur"",""10"",""5120151""
""focus"",""10"",""5135952""
""blur"",""10"",""5158403""
""focus"",""10"",""5390778""
""blur"",""12"",""5409435""
""focus"",""13"",""5411581""
""blur"",""16"",""5423833""
""focus"",""16"",""5512840""
""blur"",""16"",""5516401""
""focus"",""16"",""5517970""
""blur"",""16"",""5522201""
""focus"",""16"",""5527450""
""blur"",""16"",""5530033""
""focus"",""16"",""5540755""
""blur"",""18"",""5546367""
""focus"",""22"",""5567021""
""blur"",""22"",""5568880""
""focus"",""22"",""5978121""
""blur"",""22"",""5982661""
""focus"",""22"",""5989232""
""blur"",""22"",""5992030""
""focus"",""22"",""5997252""
""blur"",""22"",""5999510""
""focus"",""22"",""6010875""
""blur"",""22"",""6014267""
""focus"",""22"",""6131539""
""blur"",""22"",""6140569""
""focus"",""22"",""6144420""
""blur"",""22"",""6147183""
""focus"",""22"",""6196019""
""blur"",""22"",""6200096""
""focus"",""22"",""6208982""
""blur"",""22"",""6213141""
""focus"",""22"",""6230645""
""blur"",""22"",""6240702""
""focus"",""22"",""6244089""
""blur"",""22"",""6247232""
""focus"",""22"",""6253446""
""blur"",""22"",""6258801""
""focus"",""22"",""7939523""
""blur"",""22"",""7942460""
""focus"",""22"",""7950130""
""blur"",""22"",""7952525""
""focus"",""22"",""8056229""
""blur"",""22"",""8066092""
""focus"",""22"",""8078670""
","""event"",""trial"",""time""
""blur"",""2"",""19195""
""blur"",""4"",""1475507""
""blur"",""4"",""1727303""
""blur"",""4"",""1969251""
""blur"",""4"",""2039748""
""blur"",""4"",""2490159""
""blur"",""7"",""3175606""
""blur"",""10"",""3489566""
""blur"",""10"",""3497566""
""blur"",""10"",""3513568""
""blur"",""10"",""3519789""
""blur"",""10"",""3526231""
""blur"",""10"",""3531603""
""blur"",""10"",""3541586""
""blur"",""10"",""4870381""
""blur"",""10"",""5120151""
""blur"",""10"",""5158403""
""blur"",""12"",""5409435""
""blur"",""16"",""5423833""
""blur"",""16"",""5516401""
""blur"",""16"",""5522201""
""blur"",""16"",""5530033""
""blur"",""18"",""5546367""
""blur"",""22"",""5568880""
""blur"",""22"",""5982661""
""blur"",""22"",""5992030""
""blur"",""22"",""5999510""
""blur"",""22"",""6014267""
""blur"",""22"",""6140569""
""blur"",""22"",""6147183""
""blur"",""22"",""6200096""
""blur"",""22"",""6213141""
""blur"",""22"",""6240702""
""blur"",""22"",""6247232""
""blur"",""22"",""6258801""
""blur"",""22"",""7942460""
""blur"",""22"",""7952525""
""blur"",""22"",""8066092""
","""event"",""trial"",""time""
""focus"",""2"",""1466085""
""focus"",""4"",""1724773""
""focus"",""4"",""1968270""
""focus"",""4"",""2038873""
""focus"",""4"",""2476266""
""focus"",""4"",""3164945""
""focus"",""7"",""3479470""
""focus"",""10"",""3494828""
""focus"",""10"",""3503479""
""focus"",""10"",""3516764""
""focus"",""10"",""3526079""
""focus"",""10"",""3526303""
""focus"",""10"",""3537126""
""focus"",""10"",""4866906""
""focus"",""10"",""5118655""
""focus"",""10"",""5135952""
""focus"",""10"",""5390778""
""focus"",""13"",""5411581""
""focus"",""16"",""5512840""
""focus"",""16"",""5517970""
""focus"",""16"",""5527450""
""focus"",""16"",""5540755""
""focus"",""22"",""5567021""
""focus"",""22"",""5978121""
""focus"",""22"",""5989232""
""focus"",""22"",""5997252""
""focus"",""22"",""6010875""
""focus"",""22"",""6131539""
""focus"",""22"",""6144420""
""focus"",""22"",""6196019""
""focus"",""22"",""6208982""
""focus"",""22"",""6230645""
""focus"",""22"",""6244089""
""focus"",""22"",""6253446""
""focus"",""22"",""7939523""
""focus"",""22"",""7950130""
""focus"",""22"",""8056229""
""focus"",""22"",""8078670""
","""event"",""trial"",""time""
""fullscreenenter"",""1"",""6458""
","""event"",""trial"",""time""
""fullscreenexit"",""2"",""341513""
","","","-1","","","21","13375","5801","&#9854;","elianto","#FFFFF080","-1","-1","1","&#10004","[]","0","0","1","","","","","","","",""
"pit-instructions","22","8079791","0.0-2.0-7.0","battery-v0.2","","""event"",""trial"",""time""
""fullscreenenter"",""1"",""6458""
""blur"",""2"",""19195""
""fullscreenexit"",""2"",""341513""
""focus"",""2"",""1466085""
""blur"",""4"",""1475507""
""focus"",""4"",""1724773""
""blur"",""4"",""1727303""
""focus"",""4"",""1968270""
""blur"",""4"",""1969251""
""focus"",""4"",""2038873""
""blur"",""4"",""2039748""
""focus"",""4"",""2476266""
""blur"",""4"",""2490159""
""focus"",""4"",""3164945""
""blur"",""7"",""3175606""
""focus"",""7"",""3479470""
""blur"",""10"",""3489566""
""focus"",""10"",""3494828""
""blur"",""10"",""3497566""
""focus"",""10"",""3503479""
""blur"",""10"",""3513568""
""focus"",""10"",""3516764""
""blur"",""10"",""3519789""
""focus"",""10"",""3526079""
""blur"",""10"",""3526231""
""focus"",""10"",""3526303""
""blur"",""10"",""3531603""
""focus"",""10"",""3537126""
""blur"",""10"",""3541586""
""focus"",""10"",""4866906""
""blur"",""10"",""4870381""
""focus"",""10"",""5118655""
""blur"",""10"",""5120151""
""focus"",""10"",""5135952""
""blur"",""10"",""5158403""
""focus"",""10"",""5390778""
""blur"",""12"",""5409435""
""focus"",""13"",""5411581""
""blur"",""16"",""5423833""
""focus"",""16"",""5512840""
""blur"",""16"",""5516401""
""focus"",""16"",""5517970""
""blur"",""16"",""5522201""
""focus"",""16"",""5527450""
""blur"",""16"",""5530033""
""focus"",""16"",""5540755""
""blur"",""18"",""5546367""
""focus"",""22"",""5567021""
""blur"",""22"",""5568880""
""focus"",""22"",""5978121""
""blur"",""22"",""5982661""
""focus"",""22"",""5989232""
""blur"",""22"",""5992030""
""focus"",""22"",""5997252""
""blur"",""22"",""5999510""
""focus"",""22"",""6010875""
""blur"",""22"",""6014267""
""focus"",""22"",""6131539""
""blur"",""22"",""6140569""
""focus"",""22"",""6144420""
""blur"",""22"",""6147183""
""focus"",""22"",""6196019""
""blur"",""22"",""6200096""
""focus"",""22"",""6208982""
""blur"",""22"",""6213141""
""focus"",""22"",""6230645""
""blur"",""22"",""6240702""
""focus"",""22"",""6244089""
""blur"",""22"",""6247232""
""focus"",""22"",""6253446""
""blur"",""22"",""6258801""
""focus"",""22"",""7939523""
""blur"",""22"",""7942460""
""focus"",""22"",""7950130""
""blur"",""22"",""7952525""
""focus"",""22"",""8056229""
""blur"",""22"",""8066092""
""focus"",""22"",""8078670""
","""event"",""trial"",""time""
""blur"",""2"",""19195""
""blur"",""4"",""1475507""
""blur"",""4"",""1727303""
""blur"",""4"",""1969251""
""blur"",""4"",""2039748""
""blur"",""4"",""2490159""
""blur"",""7"",""3175606""
""blur"",""10"",""3489566""
""blur"",""10"",""3497566""
""blur"",""10"",""3513568""
""blur"",""10"",""3519789""
""blur"",""10"",""3526231""
""blur"",""10"",""3531603""
""blur"",""10"",""3541586""
""blur"",""10"",""4870381""
""blur"",""10"",""5120151""
""blur"",""10"",""5158403""
""blur"",""12"",""5409435""
""blur"",""16"",""5423833""
""blur"",""16"",""5516401""
""blur"",""16"",""5522201""
""blur"",""16"",""5530033""
""blur"",""18"",""5546367""
""blur"",""22"",""5568880""
""blur"",""22"",""5982661""
""blur"",""22"",""5992030""
""blur"",""22"",""5999510""
""blur"",""22"",""6014267""
""blur"",""22"",""6140569""
""blur"",""22"",""6147183""
""blur"",""22"",""6200096""
""blur"",""22"",""6213141""
""blur"",""22"",""6240702""
""blur"",""22"",""6247232""
""blur"",""22"",""6258801""
""blur"",""22"",""7942460""
""blur"",""22"",""7952525""
""blur"",""22"",""8066092""
","""event"",""trial"",""time""
""focus"",""2"",""1466085""
""focus"",""4"",""1724773""
""focus"",""4"",""1968270""
""focus"",""4"",""2038873""
""focus"",""4"",""2476266""
""focus"",""4"",""3164945""
""focus"",""7"",""3479470""
""focus"",""10"",""3494828""
""focus"",""10"",""3503479""
""focus"",""10"",""3516764""
""focus"",""10"",""3526079""
""focus"",""10"",""3526303""
""focus"",""10"",""3537126""
""focus"",""10"",""4866906""
""focus"",""10"",""5118655""
""focus"",""10"",""5135952""
""focus"",""10"",""5390778""
""focus"",""13"",""5411581""
""focus"",""16"",""5512840""
""focus"",""16"",""5517970""
""focus"",""16"",""5527450""
""focus"",""16"",""5540755""
""focus"",""22"",""5567021""
""focus"",""22"",""5978121""
""focus"",""22"",""5989232""
""focus"",""22"",""5997252""
""focus"",""22"",""6010875""
""focus"",""22"",""6131539""
""focus"",""22"",""6144420""
""focus"",""22"",""6196019""
""focus"",""22"",""6208982""
""focus"",""22"",""6230645""
""focus"",""22"",""6244089""
""focus"",""22"",""6253446""
""focus"",""22"",""7939523""
""focus"",""22"",""7950130""
""focus"",""22"",""8056229""
""focus"",""22"",""8078670""
","""event"",""trial"",""time""
""fullscreenenter"",""1"",""6458""
","""event"",""trial"",""time""
""fullscreenexit"",""2"",""341513""
","","[{""page_index"":0,""viewing_time"":414483.10000000894},{""page_index"":1,""viewing_time"":9765.79999999702},{""page_index"":2,""viewing_time"":8067.4000000059605},{""page_index"":3,""viewing_time"":14216.89999999106},{""page_index"":4,""viewing_time"":120289.40000000596},{""page_index"":5,""viewing_time"":5315.899999991059},{""page_index"":6,""viewing_time"":7583.5},{""page_index"":7,""viewing_time"":51770.30000001192},{""page_index"":8,""viewing_time"":12949.89999999106},{""page_index"":9,""viewing_time"":21401.60000000894},{""page_index"":10,""viewing_time"":6282.699999988079},{""page_index"":11,""viewing_time"":7066.5},{""page_index"":12,""viewing_time"":9365.5},{""page_index"":13,""viewing_time"":1686543.5},{""page_index"":14,""viewing_time"":10182.60000000894},{""page_index"":15,""viewing_time"":106522.20000000298},{""page_index"":16,""viewing_time"":6017.0999999940395},{""page_index"":17,""viewing_time"":16233.90000000596}]","2514059.100000009","","","","","","","","","","","","","","","","","","","","","","","",""
"pit-trial","23","8083560","0.0-2.0-8.0-0.0","battery-v0.2","","""event"",""trial"",""time""
""fullscreenenter"",""1"",""6458""
""blur"",""2"",""19195""
""fullscreenexit"",""2"",""341513""
""focus"",""2"",""1466085""
""blur"",""4"",""1475507""
""focus"",""4"",""1724773""
""blur"",""4"",""1727303""
""focus"",""4"",""1968270""
""blur"",""4"",""1969251""
""focus"",""4"",""2038873""
""blur"",""4"",""2039748""
""focus"",""4"",""2476266""
""blur"",""4"",""2490159""
""focus"",""4"",""3164945""
""blur"",""7"",""3175606""
""focus"",""7"",""3479470""
""blur"",""10"",""3489566""
""focus"",""10"",""3494828""
""blur"",""10"",""3497566""
""focus"",""10"",""3503479""
""blur"",""10"",""3513568""
""focus"",""10"",""3516764""
""blur"",""10"",""3519789""
""focus"",""10"",""3526079""
""blur"",""10"",""3526231""
""focus"",""10"",""3526303""
""blur"",""10"",""3531603""
""focus"",""10"",""3537126""
""blur"",""10"",""3541586""
""focus"",""10"",""4866906""
""blur"",""10"",""4870381""
""focus"",""10"",""5118655""
""blur"",""10"",""5120151""
""focus"",""10"",""5135952""
""blur"",""10"",""5158403""
""focus"",""10"",""5390778""
""blur"",""12"",""5409435""
""focus"",""13"",""5411581""
""blur"",""16"",""5423833""
""focus"",""16"",""5512840""
""blur"",""16"",""5516401""
""focus"",""16"",""5517970""
""blur"",""16"",""5522201""
""focus"",""16"",""5527450""
""blur"",""16"",""5530033""
""focus"",""16"",""5540755""
""blur"",""18"",""5546367""
""focus"",""22"",""5567021""
""blur"",""22"",""5568880""
""focus"",""22"",""5978121""
""blur"",""22"",""5982661""
""focus"",""22"",""5989232""
""blur"",""22"",""5992030""
""focus"",""22"",""5997252""
""blur"",""22"",""5999510""
""focus"",""22"",""6010875""
""blur"",""22"",""6014267""
""focus"",""22"",""6131539""
""blur"",""22"",""6140569""
""focus"",""22"",""6144420""
""blur"",""22"",""6147183""
""focus"",""22"",""6196019""
""blur"",""22"",""6200096""
""focus"",""22"",""6208982""
""blur"",""22"",""6213141""
""focus"",""22"",""6230645""
""blur"",""22"",""6240702""
""focus"",""22"",""6244089""
""blur"",""22"",""6247232""
""focus"",""22"",""6253446""
""blur"",""22"",""6258801""
""focus"",""22"",""7939523""
""blur"",""22"",""7942460""
""focus"",""22"",""7950130""
""blur"",""22"",""7952525""
""focus"",""22"",""8056229""
""blur"",""22"",""8066092""
""focus"",""22"",""8078670""
""blur"",""24"",""8086364""
","""event"",""trial"",""time""
""blur"",""2"",""19195""
""blur"",""4"",""1475507""
""blur"",""4"",""1727303""
""blur"",""4"",""1969251""
""blur"",""4"",""2039748""
""blur"",""4"",""2490159""
""blur"",""7"",""3175606""
""blur"",""10"",""3489566""
""blur"",""10"",""3497566""
""blur"",""10"",""3513568""
""blur"",""10"",""3519789""
""blur"",""10"",""3526231""
""blur"",""10"",""3531603""
""blur"",""10"",""3541586""
""blur"",""10"",""4870381""
""blur"",""10"",""5120151""
""blur"",""10"",""5158403""
""blur"",""12"",""5409435""
""blur"",""16"",""5423833""
""blur"",""16"",""5516401""
""blur"",""16"",""5522201""
""blur"",""16"",""5530033""
""blur"",""18"",""5546367""
""blur"",""22"",""5568880""
""blur"",""22"",""5982661""
""blur"",""22"",""5992030""
""blur"",""22"",""5999510""
""blur"",""22"",""6014267""
""blur"",""22"",""6140569""
""blur"",""22"",""6147183""
""blur"",""22"",""6200096""
""blur"",""22"",""6213141""
""blur"",""22"",""6240702""
""blur"",""22"",""6247232""
""blur"",""22"",""6258801""
""blur"",""22"",""7942460""
""blur"",""22"",""7952525""
""blur"",""22"",""8066092""
""blur"",""24"",""8086364""
","""event"",""trial"",""time""
""focus"",""2"",""1466085""
""focus"",""4"",""1724773""
""focus"",""4"",""1968270""
""focus"",""4"",""2038873""
""focus"",""4"",""2476266""
""focus"",""4"",""3164945""
""focus"",""7"",""3479470""
""focus"",""10"",""3494828""
""focus"",""10"",""3503479""
""focus"",""10"",""3516764""
""focus"",""10"",""3526079""
""focus"",""10"",""3526303""
""focus"",""10"",""3537126""
""focus"",""10"",""4866906""
""focus"",""10"",""5118655""
""focus"",""10"",""5135952""
""focus"",""10"",""5390778""
""focus"",""13"",""5411581""
""focus"",""16"",""5512840""
""focus"",""16"",""5517970""
""focus"",""16"",""5527450""
""focus"",""16"",""5540755""
""focus"",""22"",""5567021""
""focus"",""22"",""5978121""
""focus"",""22"",""5989232""
""focus"",""22"",""5997252""
""focus"",""22"",""6010875""
""focus"",""22"",""6131539""
""focus"",""22"",""6144420""
""focus"",""22"",""6196019""
""focus"",""22"",""6208982""
""focus"",""22"",""6230645""
""focus"",""22"",""6244089""
""focus"",""22"",""6253446""
""focus"",""22"",""7939523""
""focus"",""22"",""7950130""
""focus"",""22"",""8056229""
""focus"",""22"",""8078670""
","""event"",""trial"",""time""
""fullscreenenter"",""1"",""6458""
","""event"",""trial"",""time""
""fullscreenexit"",""2"",""341513""
","","","910.7999999970198","","","21","13375","5801","&#9776;","elianto","#3366ff99"," "," ","1","+10","[1761.699999988079]","1","0","1","","","","","","","",""
"pit-trial","24","8086925","0.0-2.0-8.0-1.0","battery-v0.2","","""event"",""trial"",""time""
""fullscreenenter"",""1"",""6458""
""blur"",""2"",""19195""
""fullscreenexit"",""2"",""341513""
""focus"",""2"",""1466085""
""blur"",""4"",""1475507""
""focus"",""4"",""1724773""
""blur"",""4"",""1727303""
""focus"",""4"",""1968270""
""blur"",""4"",""1969251""
""focus"",""4"",""2038873""
""blur"",""4"",""2039748""
""focus"",""4"",""2476266""
""blur"",""4"",""2490159""
""focus"",""4"",""3164945""
""blur"",""7"",""3175606""
""focus"",""7"",""3479470""
""blur"",""10"",""3489566""
""focus"",""10"",""3494828""
""blur"",""10"",""3497566""
""focus"",""10"",""3503479""
""blur"",""10"",""3513568""
""focus"",""10"",""3516764""
""blur"",""10"",""3519789""
""focus"",""10"",""3526079""
""blur"",""10"",""3526231""
""focus"",""10"",""3526303""
""blur"",""10"",""3531603""
""focus"",""10"",""3537126""
""blur"",""10"",""3541586""
""focus"",""10"",""4866906""
""blur"",""10"",""4870381""
""focus"",""10"",""5118655""
""blur"",""10"",""5120151""
""focus"",""10"",""5135952""
""blur"",""10"",""5158403""
""focus"",""10"",""5390778""
""blur"",""12"",""5409435""
""focus"",""13"",""5411581""
""blur"",""16"",""5423833""
""focus"",""16"",""5512840""
""blur"",""16"",""5516401""
""focus"",""16"",""5517970""
""blur"",""16"",""5522201""
""focus"",""16"",""5527450""
""blur"",""16"",""5530033""
""focus"",""16"",""5540755""
""blur"",""18"",""5546367""
""focus"",""22"",""5567021""
""blur"",""22"",""5568880""
""focus"",""22"",""5978121""
""blur"",""22"",""5982661""
""focus"",""22"",""5989232""
""blur"",""22"",""5992030""
""focus"",""22"",""5997252""
""blur"",""22"",""5999510""
""focus"",""22"",""6010875""
""blur"",""22"",""6014267""
""focus"",""22"",""6131539""
""blur"",""22"",""6140569""
""focus"",""22"",""6144420""
""blur"",""22"",""6147183""
""focus"",""22"",""6196019""
""blur"",""22"",""6200096""
""focus"",""22"",""6208982""
""blur"",""22"",""6213141""
""focus"",""22"",""6230645""
""blur"",""22"",""6240702""
""focus"",""22"",""6244089""
""blur"",""22"",""6247232""
""focus"",""22"",""6253446""
""blur"",""22"",""6258801""
""focus"",""22"",""7939523""
""blur"",""22"",""7942460""
""focus"",""22"",""7950130""
""blur"",""22"",""7952525""
""focus"",""22"",""8056229""
""blur"",""22"",""8066092""
""focus"",""22"",""8078670""
""blur"",""24"",""8086364""
""focus"",""25"",""8089364""
""blur"",""25"",""8090512""
","""event"",""trial"",""time""
""blur"",""2"",""19195""
""blur"",""4"",""1475507""
""blur"",""4"",""1727303""
""blur"",""4"",""1969251""
""blur"",""4"",""2039748""
""blur"",""4"",""2490159""
""blur"",""7"",""3175606""
""blur"",""10"",""3489566""
""blur"",""10"",""3497566""
""blur"",""10"",""3513568""
""blur"",""10"",""3519789""
""blur"",""10"",""3526231""
""blur"",""10"",""3531603""
""blur"",""10"",""3541586""
""blur"",""10"",""4870381""
""blur"",""10"",""5120151""
""blur"",""10"",""5158403""
""blur"",""12"",""5409435""
""blur"",""16"",""5423833""
""blur"",""16"",""5516401""
""blur"",""16"",""5522201""
""blur"",""16"",""5530033""
""blur"",""18"",""5546367""
""blur"",""22"",""5568880""
""blur"",""22"",""5982661""
""blur"",""22"",""5992030""
""blur"",""22"",""5999510""
""blur"",""22"",""6014267""
""blur"",""22"",""6140569""
""blur"",""22"",""6147183""
""blur"",""22"",""6200096""
""blur"",""22"",""6213141""
""blur"",""22"",""6240702""
""blur"",""22"",""6247232""
""blur"",""22"",""6258801""
""blur"",""22"",""7942460""
""blur"",""22"",""7952525""
""blur"",""22"",""8066092""
""blur"",""24"",""8086364""
""blur"",""25"",""8090512""
","""event"",""trial"",""time""
""focus"",""2"",""1466085""
""focus"",""4"",""1724773""
""focus"",""4"",""1968270""
""focus"",""4"",""2038873""
""focus"",""4"",""2476266""
""focus"",""4"",""3164945""
""focus"",""7"",""3479470""
""focus"",""10"",""3494828""
""focus"",""10"",""3503479""
""focus"",""10"",""3516764""
""focus"",""10"",""3526079""
""focus"",""10"",""3526303""
""focus"",""10"",""3537126""
""focus"",""10"",""4866906""
""focus"",""10"",""5118655""
""focus"",""10"",""5135952""
""focus"",""10"",""5390778""
""focus"",""13"",""5411581""
""focus"",""16"",""5512840""
""focus"",""16"",""5517970""
""focus"",""16"",""5527450""
""focus"",""16"",""5540755""
""focus"",""22"",""5567021""
""focus"",""22"",""5978121""
""focus"",""22"",""5989232""
""focus"",""22"",""5997252""
""focus"",""22"",""6010875""
""focus"",""22"",""6131539""
""focus"",""22"",""6144420""
""focus"",""22"",""6196019""
""focus"",""22"",""6208982""
""focus"",""22"",""6230645""
""focus"",""22"",""6244089""
""focus"",""22"",""6253446""
""focus"",""22"",""7939523""
""focus"",""22"",""7950130""
""focus"",""22"",""8056229""
""focus"",""22"",""8078670""
""focus"",""25"",""8089364""
","""event"",""trial"",""time""
""fullscreenenter"",""1"",""6458""
","""event"",""trial"",""time""
""fullscreenexit"",""2"",""341513""
","","","506.3999999910593","","","21","13375","5801","&#9776;","elianto","#3366ff99"," "," ","1","+10","[1360.7999999970198]","1","0","1","","","","","","","",""
"pit-trial","25","8091570","0.0-2.0-8.0-2.0","battery-v0.2","","""event"",""trial"",""time""
""fullscreenenter"",""1"",""6458""
""blur"",""2"",""19195""
""fullscreenexit"",""2"",""341513""
""focus"",""2"",""1466085""
""blur"",""4"",""1475507""
""focus"",""4"",""1724773""
""blur"",""4"",""1727303""
""focus"",""4"",""1968270""
""blur"",""4"",""1969251""
""focus"",""4"",""2038873""
""blur"",""4"",""2039748""
""focus"",""4"",""2476266""
""blur"",""4"",""2490159""
""focus"",""4"",""3164945""
""blur"",""7"",""3175606""
""focus"",""7"",""3479470""
""blur"",""10"",""3489566""
""focus"",""10"",""3494828""
""blur"",""10"",""3497566""
""focus"",""10"",""3503479""
""blur"",""10"",""3513568""
""focus"",""10"",""3516764""
""blur"",""10"",""3519789""
""focus"",""10"",""3526079""
""blur"",""10"",""3526231""
""focus"",""10"",""3526303""
""blur"",""10"",""3531603""
""focus"",""10"",""3537126""
""blur"",""10"",""3541586""
""focus"",""10"",""4866906""
""blur"",""10"",""4870381""
""focus"",""10"",""5118655""
""blur"",""10"",""5120151""
""focus"",""10"",""5135952""
""blur"",""10"",""5158403""
""focus"",""10"",""5390778""
""blur"",""12"",""5409435""
""focus"",""13"",""5411581""
""blur"",""16"",""5423833""
""focus"",""16"",""5512840""
""blur"",""16"",""5516401""
""focus"",""16"",""5517970""
""blur"",""16"",""5522201""
""focus"",""16"",""5527450""
""blur"",""16"",""5530033""
""focus"",""16"",""5540755""
""blur"",""18"",""5546367""
""focus"",""22"",""5567021""
""blur"",""22"",""5568880""
""focus"",""22"",""5978121""
""blur"",""22"",""5982661""
""focus"",""22"",""5989232""
""blur"",""22"",""5992030""
""focus"",""22"",""5997252""
""blur"",""22"",""5999510""
""focus"",""22"",""6010875""
""blur"",""22"",""6014267""
""focus"",""22"",""6131539""
""blur"",""22"",""6140569""
""focus"",""22"",""6144420""
""blur"",""22"",""6147183""
""focus"",""22"",""6196019""
""blur"",""22"",""6200096""
""focus"",""22"",""6208982""
""blur"",""22"",""6213141""
""focus"",""22"",""6230645""
""blur"",""22"",""6240702""
""focus"",""22"",""6244089""
""blur"",""22"",""6247232""
""focus"",""22"",""6253446""
""blur"",""22"",""6258801""
""focus"",""22"",""7939523""
""blur"",""22"",""7942460""
""focus"",""22"",""7950130""
""blur"",""22"",""7952525""
""focus"",""22"",""8056229""
""blur"",""22"",""8066092""
""focus"",""22"",""8078670""
""blur"",""24"",""8086364""
""focus"",""25"",""8089364""
""blur"",""25"",""8090512""
""focus"",""26"",""8093378""
""blur"",""26"",""8094429""
","""event"",""trial"",""time""
""blur"",""2"",""19195""
""blur"",""4"",""1475507""
""blur"",""4"",""1727303""
""blur"",""4"",""1969251""
""blur"",""4"",""2039748""
""blur"",""4"",""2490159""
""blur"",""7"",""3175606""
""blur"",""10"",""3489566""
""blur"",""10"",""3497566""
""blur"",""10"",""3513568""
""blur"",""10"",""3519789""
""blur"",""10"",""3526231""
""blur"",""10"",""3531603""
""blur"",""10"",""3541586""
""blur"",""10"",""4870381""
""blur"",""10"",""5120151""
""blur"",""10"",""5158403""
""blur"",""12"",""5409435""
""blur"",""16"",""5423833""
""blur"",""16"",""5516401""
""blur"",""16"",""5522201""
""blur"",""16"",""5530033""
""blur"",""18"",""5546367""
""blur"",""22"",""5568880""
""blur"",""22"",""5982661""
""blur"",""22"",""5992030""
""blur"",""22"",""5999510""
""blur"",""22"",""6014267""
""blur"",""22"",""6140569""
""blur"",""22"",""6147183""
""blur"",""22"",""6200096""
""blur"",""22"",""6213141""
""blur"",""22"",""6240702""
""blur"",""22"",""6247232""
""blur"",""22"",""6258801""
""blur"",""22"",""7942460""
""blur"",""22"",""7952525""
""blur"",""22"",""8066092""
""blur"",""24"",""8086364""
""blur"",""25"",""8090512""
""blur"",""26"",""8094429""
","""event"",""trial"",""time""
""focus"",""2"",""1466085""
""focus"",""4"",""1724773""
""focus"",""4"",""1968270""
""focus"",""4"",""2038873""
""focus"",""4"",""2476266""
""focus"",""4"",""3164945""
""focus"",""7"",""3479470""
""focus"",""10"",""3494828""
""focus"",""10"",""3503479""
""focus"",""10"",""3516764""
""focus"",""10"",""3526079""
""focus"",""10"",""3526303""
""focus"",""10"",""3537126""
""focus"",""10"",""4866906""
""focus"",""10"",""5118655""
""focus"",""10"",""5135952""
""focus"",""10"",""5390778""
""focus"",""13"",""5411581""
""focus"",""16"",""5512840""
""focus"",""16"",""5517970""
""focus"",""16"",""5527450""
""focus"",""16"",""5540755""
""focus"",""22"",""5567021""
""focus"",""22"",""5978121""
""focus"",""22"",""5989232""
""focus"",""22"",""5997252""
""focus"",""22"",""6010875""
""focus"",""22"",""6131539""
""focus"",""22"",""6144420""
""focus"",""22"",""6196019""
""focus"",""22"",""6208982""
""focus"",""22"",""6230645""
""focus"",""22"",""6244089""
""focus"",""22"",""6253446""
""focus"",""22"",""7939523""
""focus"",""22"",""7950130""
""focus"",""22"",""8056229""
""focus"",""22"",""8078670""
""focus"",""25"",""8089364""
""focus"",""26"",""8093378""
","""event"",""trial"",""time""
""fullscreenenter"",""1"",""6458""
","""event"",""trial"",""time""
""fullscreenexit"",""2"",""341513""
","","","1788.9000000059605","","","21","13375","5801","&#9776;","elianto","#3366ff99"," "," ","1","+10","[2639.9000000059605]","1","0","1","","","","","","","",""
"pit-trial","26","8095539","0.0-2.0-8.0-3.0","battery-v0.2","","""event"",""trial"",""time""
""fullscreenenter"",""1"",""6458""
""blur"",""2"",""19195""
""fullscreenexit"",""2"",""341513""
""focus"",""2"",""1466085""
""blur"",""4"",""1475507""
""focus"",""4"",""1724773""
""blur"",""4"",""1727303""
""focus"",""4"",""1968270""
""blur"",""4"",""1969251""
""focus"",""4"",""2038873""
""blur"",""4"",""2039748""
""focus"",""4"",""2476266""
""blur"",""4"",""2490159""
""focus"",""4"",""3164945""
""blur"",""7"",""3175606""
""focus"",""7"",""3479470""
""blur"",""10"",""3489566""
""focus"",""10"",""3494828""
""blur"",""10"",""3497566""
""focus"",""10"",""3503479""
""blur"",""10"",""3513568""
""focus"",""10"",""3516764""
""blur"",""10"",""3519789""
""focus"",""10"",""3526079""
""blur"",""10"",""3526231""
""focus"",""10"",""3526303""
""blur"",""10"",""3531603""
""focus"",""10"",""3537126""
""blur"",""10"",""3541586""
""focus"",""10"",""4866906""
""blur"",""10"",""4870381""
""focus"",""10"",""5118655""
""blur"",""10"",""5120151""
""focus"",""10"",""5135952""
""blur"",""10"",""5158403""
""focus"",""10"",""5390778""
""blur"",""12"",""5409435""
""focus"",""13"",""5411581""
""blur"",""16"",""5423833""
""focus"",""16"",""5512840""
""blur"",""16"",""5516401""
""focus"",""16"",""5517970""
""blur"",""16"",""5522201""
""focus"",""16"",""5527450""
""blur"",""16"",""5530033""
""focus"",""16"",""5540755""
""blur"",""18"",""5546367""
""focus"",""22"",""5567021""
""blur"",""22"",""5568880""
""focus"",""22"",""5978121""
""blur"",""22"",""5982661""
""focus"",""22"",""5989232""
""blur"",""22"",""5992030""
""focus"",""22"",""5997252""
""blur"",""22"",""5999510""
""focus"",""22"",""6010875""
""blur"",""22"",""6014267""
""focus"",""22"",""6131539""
""blur"",""22"",""6140569""
""focus"",""22"",""6144420""
""blur"",""22"",""6147183""
""focus"",""22"",""6196019""
""blur"",""22"",""6200096""
""focus"",""22"",""6208982""
""blur"",""22"",""6213141""
""focus"",""22"",""6230645""
""blur"",""22"",""6240702""
""focus"",""22"",""6244089""
""blur"",""22"",""6247232""
""focus"",""22"",""6253446""
""blur"",""22"",""6258801""
""focus"",""22"",""7939523""
""blur"",""22"",""7942460""
""focus"",""22"",""7950130""
""blur"",""22"",""7952525""
""focus"",""22"",""8056229""
""blur"",""22"",""8066092""
""focus"",""22"",""8078670""
""blur"",""24"",""8086364""
""focus"",""25"",""8089364""
""blur"",""25"",""8090512""
""focus"",""26"",""8093378""
""blur"",""26"",""8094429""
""focus"",""27"",""8097132""
","""event"",""trial"",""time""
""blur"",""2"",""19195""
""blur"",""4"",""1475507""
""blur"",""4"",""1727303""
""blur"",""4"",""1969251""
""blur"",""4"",""2039748""
""blur"",""4"",""2490159""
""blur"",""7"",""3175606""
""blur"",""10"",""3489566""
""blur"",""10"",""3497566""
""blur"",""10"",""3513568""
""blur"",""10"",""3519789""
""blur"",""10"",""3526231""
""blur"",""10"",""3531603""
""blur"",""10"",""3541586""
""blur"",""10"",""4870381""
""blur"",""10"",""5120151""
""blur"",""10"",""5158403""
""blur"",""12"",""5409435""
""blur"",""16"",""5423833""
""blur"",""16"",""5516401""
""blur"",""16"",""5522201""
""blur"",""16"",""5530033""
""blur"",""18"",""5546367""
""blur"",""22"",""5568880""
""blur"",""22"",""5982661""
""blur"",""22"",""5992030""
""blur"",""22"",""5999510""
""blur"",""22"",""6014267""
""blur"",""22"",""6140569""
""blur"",""22"",""6147183""
""blur"",""22"",""6200096""
""blur"",""22"",""6213141""
""blur"",""22"",""6240702""
""blur"",""22"",""6247232""
""blur"",""22"",""6258801""
""blur"",""22"",""7942460""
""blur"",""22"",""7952525""
""blur"",""22"",""8066092""
""blur"",""24"",""8086364""
""blur"",""25"",""8090512""
""blur"",""26"",""8094429""
","""event"",""trial"",""time""
""focus"",""2"",""1466085""
""focus"",""4"",""1724773""
""focus"",""4"",""1968270""
""focus"",""4"",""2038873""
""focus"",""4"",""2476266""
""focus"",""4"",""3164945""
""focus"",""7"",""3479470""
""focus"",""10"",""3494828""
""focus"",""10"",""3503479""
""focus"",""10"",""3516764""
""focus"",""10"",""3526079""
""focus"",""10"",""3526303""
""focus"",""10"",""3537126""
""focus"",""10"",""4866906""
""focus"",""10"",""5118655""
""focus"",""10"",""5135952""
""focus"",""10"",""5390778""
""focus"",""13"",""5411581""
""focus"",""16"",""5512840""
""focus"",""16"",""5517970""
""focus"",""16"",""5527450""
""focus"",""16"",""5540755""
""focus"",""22"",""5567021""
""focus"",""22"",""5978121""
""focus"",""22"",""5989232""
""focus"",""22"",""5997252""
""focus"",""22"",""6010875""
""focus"",""22"",""6131539""
""focus"",""22"",""6144420""
""focus"",""22"",""6196019""
""focus"",""22"",""6208982""
""focus"",""22"",""6230645""
""focus"",""22"",""6244089""
""focus"",""22"",""6253446""
""focus"",""22"",""7939523""
""focus"",""22"",""7950130""
""focus"",""22"",""8056229""
""focus"",""22"",""8078670""
""focus"",""25"",""8089364""
""focus"",""26"",""8093378""
""focus"",""27"",""8097132""
","""event"",""trial"",""time""
""fullscreenenter"",""1"",""6458""
","""event"",""trial"",""time""
""fullscreenexit"",""2"",""341513""
","","","1113.9000000059605","","","21","13375","5801","&#9776;","elianto","#3366ff99"," "," ","1","0","[1964]","1","0","1","","","","","","","",""
"pit-trial","27","8099357","0.0-2.0-8.0-4.0","battery-v0.2","","""event"",""trial"",""time""
""fullscreenenter"",""1"",""6458""
""blur"",""2"",""19195""
""fullscreenexit"",""2"",""341513""
""focus"",""2"",""1466085""
""blur"",""4"",""1475507""
""focus"",""4"",""1724773""
""blur"",""4"",""1727303""
""focus"",""4"",""1968270""
""blur"",""4"",""1969251""
""focus"",""4"",""2038873""
""blur"",""4"",""2039748""
""focus"",""4"",""2476266""
""blur"",""4"",""2490159""
""focus"",""4"",""3164945""
""blur"",""7"",""3175606""
""focus"",""7"",""3479470""
""blur"",""10"",""3489566""
""focus"",""10"",""3494828""
""blur"",""10"",""3497566""
""focus"",""10"",""3503479""
""blur"",""10"",""3513568""
""focus"",""10"",""3516764""
""blur"",""10"",""3519789""
""focus"",""10"",""3526079""
""blur"",""10"",""3526231""
""focus"",""10"",""3526303""
""blur"",""10"",""3531603""
""focus"",""10"",""3537126""
""blur"",""10"",""3541586""
""focus"",""10"",""4866906""
""blur"",""10"",""4870381""
""focus"",""10"",""5118655""
""blur"",""10"",""5120151""
""focus"",""10"",""5135952""
""blur"",""10"",""5158403""
""focus"",""10"",""5390778""
""blur"",""12"",""5409435""
""focus"",""13"",""5411581""
""blur"",""16"",""5423833""
""focus"",""16"",""5512840""
""blur"",""16"",""5516401""
""focus"",""16"",""5517970""
""blur"",""16"",""5522201""
""focus"",""16"",""5527450""
""blur"",""16"",""5530033""
""focus"",""16"",""5540755""
""blur"",""18"",""5546367""
""focus"",""22"",""5567021""
""blur"",""22"",""5568880""
""focus"",""22"",""5978121""
""blur"",""22"",""5982661""
""focus"",""22"",""5989232""
""blur"",""22"",""5992030""
""focus"",""22"",""5997252""
""blur"",""22"",""5999510""
""focus"",""22"",""6010875""
""blur"",""22"",""6014267""
""focus"",""22"",""6131539""
""blur"",""22"",""6140569""
""focus"",""22"",""6144420""
""blur"",""22"",""6147183""
""focus"",""22"",""6196019""
""blur"",""22"",""6200096""
""focus"",""22"",""6208982""
""blur"",""22"",""6213141""
""focus"",""22"",""6230645""
""blur"",""22"",""6240702""
""focus"",""22"",""6244089""
""blur"",""22"",""6247232""
""focus"",""22"",""6253446""
""blur"",""22"",""6258801""
""focus"",""22"",""7939523""
""blur"",""22"",""7942460""
""focus"",""22"",""7950130""
""blur"",""22"",""7952525""
""focus"",""22"",""8056229""
""blur"",""22"",""8066092""
""focus"",""22"",""8078670""
""blur"",""24"",""8086364""
""focus"",""25"",""8089364""
""blur"",""25"",""8090512""
""focus"",""26"",""8093378""
""blur"",""26"",""8094429""
""focus"",""27"",""8097132""
","""event"",""trial"",""time""
""blur"",""2"",""19195""
""blur"",""4"",""1475507""
""blur"",""4"",""1727303""
""blur"",""4"",""1969251""
""blur"",""4"",""2039748""
""blur"",""4"",""2490159""
""blur"",""7"",""3175606""
""blur"",""10"",""3489566""
""blur"",""10"",""3497566""
""blur"",""10"",""3513568""
""blur"",""10"",""3519789""
""blur"",""10"",""3526231""
""blur"",""10"",""3531603""
""blur"",""10"",""3541586""
""blur"",""10"",""4870381""
""blur"",""10"",""5120151""
""blur"",""10"",""5158403""
""blur"",""12"",""5409435""
""blur"",""16"",""5423833""
""blur"",""16"",""5516401""
""blur"",""16"",""5522201""
""blur"",""16"",""5530033""
""blur"",""18"",""5546367""
""blur"",""22"",""5568880""
""blur"",""22"",""5982661""
""blur"",""22"",""5992030""
""blur"",""22"",""5999510""
""blur"",""22"",""6014267""
""blur"",""22"",""6140569""
""blur"",""22"",""6147183""
""blur"",""22"",""6200096""
""blur"",""22"",""6213141""
""blur"",""22"",""6240702""
""blur"",""22"",""6247232""
""blur"",""22"",""6258801""
""blur"",""22"",""7942460""
""blur"",""22"",""7952525""
""blur"",""22"",""8066092""
""blur"",""24"",""8086364""
""blur"",""25"",""8090512""
""blur"",""26"",""8094429""
","""event"",""trial"",""time""
""focus"",""2"",""1466085""
""focus"",""4"",""1724773""
""focus"",""4"",""1968270""
""focus"",""4"",""2038873""
""focus"",""4"",""2476266""
""focus"",""4"",""3164945""
""focus"",""7"",""3479470""
""focus"",""10"",""3494828""
""focus"",""10"",""3503479""
""focus"",""10"",""3516764""
""focus"",""10"",""3526079""
""focus"",""10"",""3526303""
""focus"",""10"",""3537126""
""focus"",""10"",""4866906""
""focus"",""10"",""5118655""
""focus"",""10"",""5135952""
""focus"",""10"",""5390778""
""focus"",""13"",""5411581""
""focus"",""16"",""5512840""
""focus"",""16"",""5517970""
""focus"",""16"",""5527450""
""focus"",""16"",""5540755""
""focus"",""22"",""5567021""
""focus"",""22"",""5978121""
""focus"",""22"",""5989232""
""focus"",""22"",""5997252""
""focus"",""22"",""6010875""
""focus"",""22"",""6131539""
""focus"",""22"",""6144420""
""focus"",""22"",""6196019""
""focus"",""22"",""6208982""
""focus"",""22"",""6230645""
""focus"",""22"",""6244089""
""focus"",""22"",""6253446""
""focus"",""22"",""7939523""
""focus"",""22"",""7950130""
""focus"",""22"",""8056229""
""focus"",""22"",""8078670""
""focus"",""25"",""8089364""
""focus"",""26"",""8093378""
""focus"",""27"",""8097132""
","""event"",""trial"",""time""
""fullscreenenter"",""1"",""6458""
","""event"",""trial"",""time""
""fullscreenexit"",""2"",""341513""
","","","956.1000000089407","","","21","13375","5801","&#9776;","elianto","#3366ff99"," "," ","1","+10","[1807.2000000029802]","1","0","1","","","","","","","",""
"pit-trial","28","8102976","0.0-2.0-8.1-0.1","battery-v0.2","","""event"",""trial"",""time""
""fullscreenenter"",""1"",""6458""
""blur"",""2"",""19195""
""fullscreenexit"",""2"",""341513""
""focus"",""2"",""1466085""
""blur"",""4"",""1475507""
""focus"",""4"",""1724773""
""blur"",""4"",""1727303""
""focus"",""4"",""1968270""
""blur"",""4"",""1969251""
""focus"",""4"",""2038873""
""blur"",""4"",""2039748""
""focus"",""4"",""2476266""
""blur"",""4"",""2490159""
""focus"",""4"",""3164945""
""blur"",""7"",""3175606""
""focus"",""7"",""3479470""
""blur"",""10"",""3489566""
""focus"",""10"",""3494828""
""blur"",""10"",""3497566""
""focus"",""10"",""3503479""
""blur"",""10"",""3513568""
""focus"",""10"",""3516764""
""blur"",""10"",""3519789""
""focus"",""10"",""3526079""
""blur"",""10"",""3526231""
""focus"",""10"",""3526303""
""blur"",""10"",""3531603""
""focus"",""10"",""3537126""
""blur"",""10"",""3541586""
""focus"",""10"",""4866906""
""blur"",""10"",""4870381""
""focus"",""10"",""5118655""
""blur"",""10"",""5120151""
""focus"",""10"",""5135952""
""blur"",""10"",""5158403""
""focus"",""10"",""5390778""
""blur"",""12"",""5409435""
""focus"",""13"",""5411581""
""blur"",""16"",""5423833""
""focus"",""16"",""5512840""
""blur"",""16"",""5516401""
""focus"",""16"",""5517970""
""blur"",""16"",""5522201""
""focus"",""16"",""5527450""
""blur"",""16"",""5530033""
""focus"",""16"",""5540755""
""blur"",""18"",""5546367""
""focus"",""22"",""5567021""
""blur"",""22"",""5568880""
""focus"",""22"",""5978121""
""blur"",""22"",""5982661""
""focus"",""22"",""5989232""
""blur"",""22"",""5992030""
""focus"",""22"",""5997252""
""blur"",""22"",""5999510""
""focus"",""22"",""6010875""
""blur"",""22"",""6014267""
""focus"",""22"",""6131539""
""blur"",""22"",""6140569""
""focus"",""22"",""6144420""
""blur"",""22"",""6147183""
""focus"",""22"",""6196019""
""blur"",""22"",""6200096""
""focus"",""22"",""6208982""
""blur"",""22"",""6213141""
""focus"",""22"",""6230645""
""blur"",""22"",""6240702""
""focus"",""22"",""6244089""
""blur"",""22"",""6247232""
""focus"",""22"",""6253446""
""blur"",""22"",""6258801""
""focus"",""22"",""7939523""
""blur"",""22"",""7942460""
""focus"",""22"",""7950130""
""blur"",""22"",""7952525""
""focus"",""22"",""8056229""
""blur"",""22"",""8066092""
""focus"",""22"",""8078670""
""blur"",""24"",""8086364""
""focus"",""25"",""8089364""
""blur"",""25"",""8090512""
""focus"",""26"",""8093378""
""blur"",""26"",""8094429""
""focus"",""27"",""8097132""
","""event"",""trial"",""time""
""blur"",""2"",""19195""
""blur"",""4"",""1475507""
""blur"",""4"",""1727303""
""blur"",""4"",""1969251""
""blur"",""4"",""2039748""
""blur"",""4"",""2490159""
""blur"",""7"",""3175606""
""blur"",""10"",""3489566""
""blur"",""10"",""3497566""
""blur"",""10"",""3513568""
""blur"",""10"",""3519789""
""blur"",""10"",""3526231""
""blur"",""10"",""3531603""
""blur"",""10"",""3541586""
""blur"",""10"",""4870381""
""blur"",""10"",""5120151""
""blur"",""10"",""5158403""
""blur"",""12"",""5409435""
""blur"",""16"",""5423833""
""blur"",""16"",""5516401""
""blur"",""16"",""5522201""
""blur"",""16"",""5530033""
""blur"",""18"",""5546367""
""blur"",""22"",""5568880""
""blur"",""22"",""5982661""
""blur"",""22"",""5992030""
""blur"",""22"",""5999510""
""blur"",""22"",""6014267""
""blur"",""22"",""6140569""
""blur"",""22"",""6147183""
""blur"",""22"",""6200096""
""blur"",""22"",""6213141""
""blur"",""22"",""6240702""
""blur"",""22"",""6247232""
""blur"",""22"",""6258801""
""blur"",""22"",""7942460""
""blur"",""22"",""7952525""
""blur"",""22"",""8066092""
""blur"",""24"",""8086364""
""blur"",""25"",""8090512""
""blur"",""26"",""8094429""
","""event"",""trial"",""time""
""focus"",""2"",""1466085""
""focus"",""4"",""1724773""
""focus"",""4"",""1968270""
""focus"",""4"",""2038873""
""focus"",""4"",""2476266""
""focus"",""4"",""3164945""
""focus"",""7"",""3479470""
""focus"",""10"",""3494828""
""focus"",""10"",""3503479""
""focus"",""10"",""3516764""
""focus"",""10"",""3526079""
""focus"",""10"",""3526303""
""focus"",""10"",""3537126""
""focus"",""10"",""4866906""
""focus"",""10"",""5118655""
""focus"",""10"",""5135952""
""focus"",""10"",""5390778""
""focus"",""13"",""5411581""
""focus"",""16"",""5512840""
""focus"",""16"",""5517970""
""focus"",""16"",""5527450""
""focus"",""16"",""5540755""
""focus"",""22"",""5567021""
""focus"",""22"",""5978121""
""focus"",""22"",""5989232""
""focus"",""22"",""5997252""
""focus"",""22"",""6010875""
""focus"",""22"",""6131539""
""focus"",""22"",""6144420""
""focus"",""22"",""6196019""
""focus"",""22"",""6208982""
""focus"",""22"",""6230645""
""focus"",""22"",""6244089""
""focus"",""22"",""6253446""
""focus"",""22"",""7939523""
""focus"",""22"",""7950130""
""focus"",""22"",""8056229""
""focus"",""22"",""8078670""
""focus"",""25"",""8089364""
""focus"",""26"",""8093378""
""focus"",""27"",""8097132""
","""event"",""trial"",""time""
""fullscreenenter"",""1"",""6458""
","""event"",""trial"",""time""
""fullscreenexit"",""2"",""341513""
","","","763","","","21","13375","5801","&#9776;","elianto","#3366ff99"," "," ","1","+10","[1613.7999999970198]","1","0","1","","","","","","","",""
"pit-trial","29","8106275","0.0-2.0-8.1-1.1","battery-v0.2","","""event"",""trial"",""time""
""fullscreenenter"",""1"",""6458""
""blur"",""2"",""19195""
""fullscreenexit"",""2"",""341513""
""focus"",""2"",""1466085""
""blur"",""4"",""1475507""
""focus"",""4"",""1724773""
""blur"",""4"",""1727303""
""focus"",""4"",""1968270""
""blur"",""4"",""1969251""
""focus"",""4"",""2038873""
""blur"",""4"",""2039748""
""focus"",""4"",""2476266""
""blur"",""4"",""2490159""
""focus"",""4"",""3164945""
""blur"",""7"",""3175606""
""focus"",""7"",""3479470""
""blur"",""10"",""3489566""
""focus"",""10"",""3494828""
""blur"",""10"",""3497566""
""focus"",""10"",""3503479""
""blur"",""10"",""3513568""
""focus"",""10"",""3516764""
""blur"",""10"",""3519789""
""focus"",""10"",""3526079""
""blur"",""10"",""3526231""
""focus"",""10"",""3526303""
""blur"",""10"",""3531603""
""focus"",""10"",""3537126""
""blur"",""10"",""3541586""
""focus"",""10"",""4866906""
""blur"",""10"",""4870381""
""focus"",""10"",""5118655""
""blur"",""10"",""5120151""
""focus"",""10"",""5135952""
""blur"",""10"",""5158403""
""focus"",""10"",""5390778""
""blur"",""12"",""5409435""
""focus"",""13"",""5411581""
""blur"",""16"",""5423833""
""focus"",""16"",""5512840""
""blur"",""16"",""5516401""
""focus"",""16"",""5517970""
""blur"",""16"",""5522201""
""focus"",""16"",""5527450""
""blur"",""16"",""5530033""
""focus"",""16"",""5540755""
""blur"",""18"",""5546367""
""focus"",""22"",""5567021""
""blur"",""22"",""5568880""
""focus"",""22"",""5978121""
""blur"",""22"",""5982661""
""focus"",""22"",""5989232""
""blur"",""22"",""5992030""
""focus"",""22"",""5997252""
""blur"",""22"",""5999510""
""focus"",""22"",""6010875""
""blur"",""22"",""6014267""
""focus"",""22"",""6131539""
""blur"",""22"",""6140569""
""focus"",""22"",""6144420""
""blur"",""22"",""6147183""
""focus"",""22"",""6196019""
""blur"",""22"",""6200096""
""focus"",""22"",""6208982""
""blur"",""22"",""6213141""
""focus"",""22"",""6230645""
""blur"",""22"",""6240702""
""focus"",""22"",""6244089""
""blur"",""22"",""6247232""
""focus"",""22"",""6253446""
""blur"",""22"",""6258801""
""focus"",""22"",""7939523""
""blur"",""22"",""7942460""
""focus"",""22"",""7950130""
""blur"",""22"",""7952525""
""focus"",""22"",""8056229""
""blur"",""22"",""8066092""
""focus"",""22"",""8078670""
""blur"",""24"",""8086364""
""focus"",""25"",""8089364""
""blur"",""25"",""8090512""
""focus"",""26"",""8093378""
""blur"",""26"",""8094429""
""focus"",""27"",""8097132""
","""event"",""trial"",""time""
""blur"",""2"",""19195""
""blur"",""4"",""1475507""
""blur"",""4"",""1727303""
""blur"",""4"",""1969251""
""blur"",""4"",""2039748""
""blur"",""4"",""2490159""
""blur"",""7"",""3175606""
""blur"",""10"",""3489566""
""blur"",""10"",""3497566""
""blur"",""10"",""3513568""
""blur"",""10"",""3519789""
""blur"",""10"",""3526231""
""blur"",""10"",""3531603""
""blur"",""10"",""3541586""
""blur"",""10"",""4870381""
""blur"",""10"",""5120151""
""blur"",""10"",""5158403""
""blur"",""12"",""5409435""
""blur"",""16"",""5423833""
""blur"",""16"",""5516401""
""blur"",""16"",""5522201""
""blur"",""16"",""5530033""
""blur"",""18"",""5546367""
""blur"",""22"",""5568880""
""blur"",""22"",""5982661""
""blur"",""22"",""5992030""
""blur"",""22"",""5999510""
""blur"",""22"",""6014267""
""blur"",""22"",""6140569""
""blur"",""22"",""6147183""
""blur"",""22"",""6200096""
""blur"",""22"",""6213141""
""blur"",""22"",""6240702""
""blur"",""22"",""6247232""
""blur"",""22"",""6258801""
""blur"",""22"",""7942460""
""blur"",""22"",""7952525""
""blur"",""22"",""8066092""
""blur"",""24"",""8086364""
""blur"",""25"",""8090512""
""blur"",""26"",""8094429""
","""event"",""trial"",""time""
""focus"",""2"",""1466085""
""focus"",""4"",""1724773""
""focus"",""4"",""1968270""
""focus"",""4"",""2038873""
""focus"",""4"",""2476266""
""focus"",""4"",""3164945""
""focus"",""7"",""3479470""
""focus"",""10"",""3494828""
""focus"",""10"",""3503479""
""focus"",""10"",""3516764""
""focus"",""10"",""3526079""
""focus"",""10"",""3526303""
""focus"",""10"",""3537126""
""focus"",""10"",""4866906""
""focus"",""10"",""5118655""
""focus"",""10"",""5135952""
""focus"",""10"",""5390778""
""focus"",""13"",""5411581""
""focus"",""16"",""5512840""
""focus"",""16"",""5517970""
""focus"",""16"",""5527450""
""focus"",""16"",""5540755""
""focus"",""22"",""5567021""
""focus"",""22"",""5978121""
""focus"",""22"",""5989232""
""focus"",""22"",""5997252""
""focus"",""22"",""6010875""
""focus"",""22"",""6131539""
""focus"",""22"",""6144420""
""focus"",""22"",""6196019""
""focus"",""22"",""6208982""
""focus"",""22"",""6230645""
""focus"",""22"",""6244089""
""focus"",""22"",""6253446""
""focus"",""22"",""7939523""
""focus"",""22"",""7950130""
""focus"",""22"",""8056229""
""focus"",""22"",""8078670""
""focus"",""25"",""8089364""
""focus"",""26"",""8093378""
""focus"",""27"",""8097132""
","""event"",""trial"",""time""
""fullscreenenter"",""1"",""6458""
","""event"",""trial"",""time""
""fullscreenexit"",""2"",""341513""
","","","444.5","","","21","13375","5801","&#9776;","elianto","#3366ff99"," "," ","1","+10","[1294.8999999910593]","1","0","1","","","","","","","",""
"pit-trial","30","8109607","0.0-2.0-8.1-2.1","battery-v0.2","","""event"",""trial"",""time""
""fullscreenenter"",""1"",""6458""
""blur"",""2"",""19195""
""fullscreenexit"",""2"",""341513""
""focus"",""2"",""1466085""
""blur"",""4"",""1475507""
""focus"",""4"",""1724773""
""blur"",""4"",""1727303""
""focus"",""4"",""1968270""
""blur"",""4"",""1969251""
""focus"",""4"",""2038873""
""blur"",""4"",""2039748""
""focus"",""4"",""2476266""
""blur"",""4"",""2490159""
""focus"",""4"",""3164945""
""blur"",""7"",""3175606""
""focus"",""7"",""3479470""
""blur"",""10"",""3489566""
""focus"",""10"",""3494828""
""blur"",""10"",""3497566""
""focus"",""10"",""3503479""
""blur"",""10"",""3513568""
""focus"",""10"",""3516764""
""blur"",""10"",""3519789""
""focus"",""10"",""3526079""
""blur"",""10"",""3526231""
""focus"",""10"",""3526303""
""blur"",""10"",""3531603""
""focus"",""10"",""3537126""
""blur"",""10"",""3541586""
""focus"",""10"",""4866906""
""blur"",""10"",""4870381""
""focus"",""10"",""5118655""
""blur"",""10"",""5120151""
""focus"",""10"",""5135952""
""blur"",""10"",""5158403""
""focus"",""10"",""5390778""
""blur"",""12"",""5409435""
""focus"",""13"",""5411581""
""blur"",""16"",""5423833""
""focus"",""16"",""5512840""
""blur"",""16"",""5516401""
""focus"",""16"",""5517970""
""blur"",""16"",""5522201""
""focus"",""16"",""5527450""
""blur"",""16"",""5530033""
""focus"",""16"",""5540755""
""blur"",""18"",""5546367""
""focus"",""22"",""5567021""
""blur"",""22"",""5568880""
""focus"",""22"",""5978121""
""blur"",""22"",""5982661""
""focus"",""22"",""5989232""
""blur"",""22"",""5992030""
""focus"",""22"",""5997252""
""blur"",""22"",""5999510""
""focus"",""22"",""6010875""
""blur"",""22"",""6014267""
""focus"",""22"",""6131539""
""blur"",""22"",""6140569""
""focus"",""22"",""6144420""
""blur"",""22"",""6147183""
""focus"",""22"",""6196019""
""blur"",""22"",""6200096""
""focus"",""22"",""6208982""
""blur"",""22"",""6213141""
""focus"",""22"",""6230645""
""blur"",""22"",""6240702""
""focus"",""22"",""6244089""
""blur"",""22"",""6247232""
""focus"",""22"",""6253446""
""blur"",""22"",""6258801""
""focus"",""22"",""7939523""
""blur"",""22"",""7942460""
""focus"",""22"",""7950130""
""blur"",""22"",""7952525""
""focus"",""22"",""8056229""
""blur"",""22"",""8066092""
""focus"",""22"",""8078670""
""blur"",""24"",""8086364""
""focus"",""25"",""8089364""
""blur"",""25"",""8090512""
""focus"",""26"",""8093378""
""blur"",""26"",""8094429""
""focus"",""27"",""8097132""
","""event"",""trial"",""time""
""blur"",""2"",""19195""
""blur"",""4"",""1475507""
""blur"",""4"",""1727303""
""blur"",""4"",""1969251""
""blur"",""4"",""2039748""
""blur"",""4"",""2490159""
""blur"",""7"",""3175606""
""blur"",""10"",""3489566""
""blur"",""10"",""3497566""
""blur"",""10"",""3513568""
""blur"",""10"",""3519789""
""blur"",""10"",""3526231""
""blur"",""10"",""3531603""
""blur"",""10"",""3541586""
""blur"",""10"",""4870381""
""blur"",""10"",""5120151""
""blur"",""10"",""5158403""
""blur"",""12"",""5409435""
""blur"",""16"",""5423833""
""blur"",""16"",""5516401""
""blur"",""16"",""5522201""
""blur"",""16"",""5530033""
""blur"",""18"",""5546367""
""blur"",""22"",""5568880""
""blur"",""22"",""5982661""
""blur"",""22"",""5992030""
""blur"",""22"",""5999510""
""blur"",""22"",""6014267""
""blur"",""22"",""6140569""
""blur"",""22"",""6147183""
""blur"",""22"",""6200096""
""blur"",""22"",""6213141""
""blur"",""22"",""6240702""
""blur"",""22"",""6247232""
""blur"",""22"",""6258801""
""blur"",""22"",""7942460""
""blur"",""22"",""7952525""
""blur"",""22"",""8066092""
""blur"",""24"",""8086364""
""blur"",""25"",""8090512""
""blur"",""26"",""8094429""
","""event"",""trial"",""time""
""focus"",""2"",""1466085""
""focus"",""4"",""1724773""
""focus"",""4"",""1968270""
""focus"",""4"",""2038873""
""focus"",""4"",""2476266""
""focus"",""4"",""3164945""
""focus"",""7"",""3479470""
""focus"",""10"",""3494828""
""focus"",""10"",""3503479""
""focus"",""10"",""3516764""
""focus"",""10"",""3526079""
""focus"",""10"",""3526303""
""focus"",""10"",""3537126""
""focus"",""10"",""4866906""
""focus"",""10"",""5118655""
""focus"",""10"",""5135952""
""focus"",""10"",""5390778""
""focus"",""13"",""5411581""
""focus"",""16"",""5512840""
""focus"",""16"",""5517970""
""focus"",""16"",""5527450""
""focus"",""16"",""5540755""
""focus"",""22"",""5567021""
""focus"",""22"",""5978121""
""focus"",""22"",""5989232""
""focus"",""22"",""5997252""
""focus"",""22"",""6010875""
""focus"",""22"",""6131539""
""focus"",""22"",""6144420""
""focus"",""22"",""6196019""
""focus"",""22"",""6208982""
""focus"",""22"",""6230645""
""focus"",""22"",""6244089""
""focus"",""22"",""6253446""
""focus"",""22"",""7939523""
""focus"",""22"",""7950130""
""focus"",""22"",""8056229""
""focus"",""22"",""8078670""
""focus"",""25"",""8089364""
""focus"",""26"",""8093378""
""focus"",""27"",""8097132""
","""event"",""trial"",""time""
""fullscreenenter"",""1"",""6458""
","""event"",""trial"",""time""
""fullscreenexit"",""2"",""341513""
","","","474.79999999701977","","","21","13375","5801","&#9776;","elianto","#3366ff99"," "," ","1","+10","[1325.5999999940395]","1","0","1","","","","","","","",""
"pit-trial","31","8113546","0.0-2.0-8.1-3.1","battery-v0.2","","""event"",""trial"",""time""
""fullscreenenter"",""1"",""6458""
""blur"",""2"",""19195""
""fullscreenexit"",""2"",""341513""
""focus"",""2"",""1466085""
""blur"",""4"",""1475507""
""focus"",""4"",""1724773""
""blur"",""4"",""1727303""
""focus"",""4"",""1968270""
""blur"",""4"",""1969251""
""focus"",""4"",""2038873""
""blur"",""4"",""2039748""
""focus"",""4"",""2476266""
""blur"",""4"",""2490159""
""focus"",""4"",""3164945""
""blur"",""7"",""3175606""
""focus"",""7"",""3479470""
""blur"",""10"",""3489566""
""focus"",""10"",""3494828""
""blur"",""10"",""3497566""
""focus"",""10"",""3503479""
""blur"",""10"",""3513568""
""focus"",""10"",""3516764""
""blur"",""10"",""3519789""
""focus"",""10"",""3526079""
""blur"",""10"",""3526231""
""focus"",""10"",""3526303""
""blur"",""10"",""3531603""
""focus"",""10"",""3537126""
""blur"",""10"",""3541586""
""focus"",""10"",""4866906""
""blur"",""10"",""4870381""
""focus"",""10"",""5118655""
""blur"",""10"",""5120151""
""focus"",""10"",""5135952""
""blur"",""10"",""5158403""
""focus"",""10"",""5390778""
""blur"",""12"",""5409435""
""focus"",""13"",""5411581""
""blur"",""16"",""5423833""
""focus"",""16"",""5512840""
""blur"",""16"",""5516401""
""focus"",""16"",""5517970""
""blur"",""16"",""5522201""
""focus"",""16"",""5527450""
""blur"",""16"",""5530033""
""focus"",""16"",""5540755""
""blur"",""18"",""5546367""
""focus"",""22"",""5567021""
""blur"",""22"",""5568880""
""focus"",""22"",""5978121""
""blur"",""22"",""5982661""
""focus"",""22"",""5989232""
""blur"",""22"",""5992030""
""focus"",""22"",""5997252""
""blur"",""22"",""5999510""
""focus"",""22"",""6010875""
""blur"",""22"",""6014267""
""focus"",""22"",""6131539""
""blur"",""22"",""6140569""
""focus"",""22"",""6144420""
""blur"",""22"",""6147183""
""focus"",""22"",""6196019""
""blur"",""22"",""6200096""
""focus"",""22"",""6208982""
""blur"",""22"",""6213141""
""focus"",""22"",""6230645""
""blur"",""22"",""6240702""
""focus"",""22"",""6244089""
""blur"",""22"",""6247232""
""focus"",""22"",""6253446""
""blur"",""22"",""6258801""
""focus"",""22"",""7939523""
""blur"",""22"",""7942460""
""focus"",""22"",""7950130""
""blur"",""22"",""7952525""
""focus"",""22"",""8056229""
""blur"",""22"",""8066092""
""focus"",""22"",""8078670""
""blur"",""24"",""8086364""
""focus"",""25"",""8089364""
""blur"",""25"",""8090512""
