"trial_type","trial_index","time_elapsed","internal_node_id","task_version","subject_id","interactions","blur_events","focus_events","fullscreenenter_events","fullscreenexit_events","success","view_history","rt","responses","num_errors","age","subject","participantId","rune","rune_set","hex","correct","choice","accuracy","outcome","keys","total_keys","block","practice","value","sub","trial","stimulus","robot","valence","action","sham"
"pavlovia","0","6","0.0-0.0","battery-v0.2","","""event"",""trial"",""time""
""fullscreenenter"",""1"",""1536""
","
","
","""event"",""trial"",""time""
""fullscreenenter"",""1"",""1536""
","
","","","","","","","","","","","","","","","","","","","","","","","","","","",""
"fullscreen","1","2527","0.0-1.0","battery-v0.2","","""event"",""trial"",""time""
""fullscreenenter"",""1"",""1536""
","
","
","""event"",""trial"",""time""
""fullscreenenter"",""1"",""1536""
","
","true","","","","","","","","","","","","","","","","","","","","","","","","","",""
"pit-instructions","2","8280","0.0-2.0-0.0","battery-v0.2","","""event"",""trial"",""time""
""fullscreenenter"",""1"",""1536""
","
","
","""event"",""trial"",""time""
""fullscreenenter"",""1"",""1536""
","
","","[{""page_index"":0,""viewing_time"":5748.5}]","5748.599999904633","","","","","","","","","","","","","","","","","","","","","","","",""
"pit-comprehension","3","11201","0.0-2.0-1.0-0.0","battery-v0.2","","""event"",""trial"",""time""
""fullscreenenter"",""1"",""1536""
","
","
","""event"",""trial"",""time""
""fullscreenenter"",""1"",""1536""
","
","","","2918.7999999523163","[""shark""]","0","22","9970","4666","","","","","","","","","","","","","","","","","","",""
"pit-instructions","4","13563","0.0-2.0-1.0-1.0","battery-v0.2","","""event"",""trial"",""time""
""fullscreenenter"",""1"",""1536""
","
","
","""event"",""trial"",""time""
""fullscreenenter"",""1"",""1536""
","
","","[{""page_index"":0,""viewing_time"":2358.5999999046326}]","2358.699999809265","","","","","","","","","","","","","","","","","","","","","","","",""
"pit-comprehension","5","16944","0.0-2.0-2.0-0.0","battery-v0.2","","""event"",""trial"",""time""
""fullscreenenter"",""1"",""1536""
","
","
","""event"",""trial"",""time""
""fullscreenenter"",""1"",""1536""
","
","","","3380.0999999046326","[""tiger""]","0","22","9970","4666","","","","","","","","","","","","","","","","","","",""
"pit-instructions","6","18490","0.0-2.0-2.0-1.0","battery-v0.2","","""event"",""trial"",""time""
""fullscreenenter"",""1"",""1536""
","
","
","""event"",""trial"",""time""
""fullscreenenter"",""1"",""1536""
","
","","[{""page_index"":0,""viewing_time"":1543.8000001907349}]","1543.9000000953674","","","","","","","","","","","","","","","","","","","","","","","",""
"pit-instructions","7","125101","0.0-2.0-3.0","battery-v0.2","","""event"",""trial"",""time""
""fullscreenenter"",""1"",""1536""
","
","
","""event"",""trial"",""time""
""fullscreenenter"",""1"",""1536""
","
","","[{""page_index"":0,""viewing_time"":9950.900000095367},{""page_index"":1,""viewing_time"":8486.899999856949},{""page_index"":2,""viewing_time"":8059.200000047684},{""page_index"":3,""viewing_time"":6370.700000047684},{""page_index"":4,""viewing_time"":6297.900000095367},{""page_index"":5,""viewing_time"":7848.699999809265},{""page_index"":6,""viewing_time"":9117.900000095367},{""page_index"":7,""viewing_time"":7824.299999952316},{""page_index"":8,""viewing_time"":7415.200000047684},{""page_index"":9,""viewing_time"":9882.099999904633},{""page_index"":10,""viewing_time"":7477.5},{""page_index"":11,""viewing_time"":5178.100000143051},{""page_index"":12,""viewing_time"":6390.799999952316},{""page_index"":13,""viewing_time"":6297.900000095367}]","106598.5","","","","","","","","","","","","","","","","","","","","","","","",""
"pit-trial","8","128497","0.0-2.0-4.0-0.0","battery-v0.2","","""event"",""trial"",""time""
""fullscreenenter"",""1"",""1536""
","
","
","""event"",""trial"",""time""
""fullscreenenter"",""1"",""1536""
","
","","","534.6000001430511","","","22","9970","4666","&#9784;","elianto","#FFFFF080"," "," ","1","&#10004","[485.7999999523163,1391.3999998569489,2274.5]","3","0","0","","","","","","","",""
"pit-trial","9","131774","0.0-2.0-4.1-0.1","battery-v0.2","","""event"",""trial"",""time""
""fullscreenenter"",""1"",""1536""
","
","
","""event"",""trial"",""time""
""fullscreenenter"",""1"",""1536""
","
","","","405.40000009536743","","","22","9970","4666","&#9784;","elianto","#FFFFF080"," "," ","1","&#10004","[593.5999999046326,1263.5999999046326]","2","0","0","","","","","","","",""
"pit-trial","10","134731","0.0-2.0-4.2-0.2","battery-v0.2","","""event"",""trial"",""time""
""fullscreenenter"",""1"",""1536""
","
","
","""event"",""trial"",""time""
""fullscreenenter"",""1"",""1536""
","
","","","93.29999995231628","","","22","9970","4666","&#9784;","elianto","#FFFFF080"," "," ","1","&#10004","[944.4000000953674]","1","0","0","","","","","","","",""
"pit-trial","11","137805","0.0-2.0-4.3-0.3","battery-v0.2","","""event"",""trial"",""time""
""fullscreenenter"",""1"",""1536""
","
","
","""event"",""trial"",""time""
""fullscreenenter"",""1"",""1536""
","
","","","198.70000004768372","","","22","9970","4666","&#9784;","elianto","#FFFFF080"," "," ","1","&#10004","[1057.9000000953674]","1","0","0","","","","","","","",""
"pit-trial","12","140777","0.0-2.0-4.4-0.4","battery-v0.2","","""event"",""trial"",""time""
""fullscreenenter"",""1"",""1536""
","
","
","""event"",""trial"",""time""
""fullscreenenter"",""1"",""1536""
","
","","","107","","","22","9970","4666","&#9784;","elianto","#FFFFF080"," "," ","1","&#10004","[959.9000000953674]","1","0","0","","","","","","","",""
"pit-instructions","13","318774","0.0-2.0-5.0","battery-v0.2","","""event"",""trial"",""time""
""fullscreenenter"",""1"",""1536""
","
","
","""event"",""trial"",""time""
""fullscreenenter"",""1"",""1536""
","
","","[{""page_index"":0,""viewing_time"":5331.599999904633},{""page_index"":1,""viewing_time"":162662.70000004768},{""page_index"":2,""viewing_time"":4732.5},{""page_index"":3,""viewing_time"":5267.400000095367}]","177994.29999995232","","","","","","","","","","","","","","","","","","","","","","","",""
"pit-trial","14","323644","0.0-2.0-6.0-0.0","battery-v0.2","","""event"",""trial"",""time""
""fullscreenenter"",""1"",""1536""
","
","
","""event"",""trial"",""time""
""fullscreenenter"",""1"",""1536""
","
","","","-1","","","22","9970","4666","&#9854;","elianto","#FFFFF080","-1","-1","1","&#10004","[]","0","0","1","","","","","","","",""
"pit-trial","15","328512","0.0-2.0-6.1-0.1","battery-v0.2","","""event"",""trial"",""time""
""fullscreenenter"",""1"",""1536""
","
","
","""event"",""trial"",""time""
""fullscreenenter"",""1"",""1536""
","
","","","-1","","","22","9970","4666","&#9854;","elianto","#FFFFF080","-1","-1","1","&#10004","[]","0","0","1","","","","","","","",""
"pit-trial","16","333380","0.0-2.0-6.2-0.2","battery-v0.2","","""event"",""trial"",""time""
""fullscreenenter"",""1"",""1536""
","
","
","""event"",""trial"",""time""
""fullscreenenter"",""1"",""1536""
","
","","","-1","","","22","9970","4666","&#9854;","elianto","#FFFFF080","-1","-1","1","&#10004","[]","0","0","1","","","","","","","",""
"pit-trial","17","338247","0.0-2.0-6.3-0.3","battery-v0.2","","""event"",""trial"",""time""
""fullscreenenter"",""1"",""1536""
","
","
","""event"",""trial"",""time""
""fullscreenenter"",""1"",""1536""
","
","","","-1","","","22","9970","4666","&#9854;","elianto","#FFFFF080","-1","-1","1","&#10004","[]","0","0","1","","","","","","","",""
"pit-trial","18","343111","0.0-2.0-6.4-0.4","battery-v0.2","","""event"",""trial"",""time""
""fullscreenenter"",""1"",""1536""
","
","
","""event"",""trial"",""time""
""fullscreenenter"",""1"",""1536""
","
","","","-1","","","22","9970","4666","&#9854;","elianto","#FFFFF080","-1","-1","1","&#10004","[]","0","0","1","","","","","","","",""
"pit-instructions","19","559491","0.0-2.0-7.0","battery-v0.2","","""event"",""trial"",""time""
""fullscreenenter"",""1"",""1536""
","
","
","""event"",""trial"",""time""
""fullscreenenter"",""1"",""1536""
","
","","[{""page_index"":0,""viewing_time"":7273.599999904633},{""page_index"":1,""viewing_time"":8238},{""page_index"":2,""viewing_time"":7159.800000190735},{""page_index"":3,""viewing_time"":84773},{""page_index"":4,""viewing_time"":7949.299999952316},{""page_index"":5,""viewing_time"":10660.599999904633},{""page_index"":6,""viewing_time"":5375.600000143051},{""page_index"":7,""viewing_time"":8610.799999952316},{""page_index"":8,""viewing_time"":7050.099999904633},{""page_index"":9,""viewing_time"":8800.299999952316},{""page_index"":10,""viewing_time"":6800.100000143051},{""page_index"":11,""viewing_time"":5300.099999904633},{""page_index"":12,""viewing_time"":8723},{""page_index"":13,""viewing_time"":8053.400000095367},{""page_index"":14,""viewing_time"":8828},{""page_index"":15,""viewing_time"":6881.200000047684},{""page_index"":16,""viewing_time"":8036.699999809265},{""page_index"":17,""viewing_time"":7866.700000047684}]","216380.40000009537","","","","","","","","","","","","","","","","","","","","","","","",""
"pit-trial","20","564362","0.0-2.0-8.0-0.0","battery-v0.2","","""event"",""trial"",""time""
""fullscreenenter"",""1"",""1536""
","
","
","""event"",""trial"",""time""
""fullscreenenter"",""1"",""1536""
","
","","","-1","","","22","9970","4666","&#9776;","elianto","#3366ff99"," ","-1","0","0","[]","0","0","1","","","","","","","",""
"pit-trial","21","567424","0.0-2.0-8.0-1.0","battery-v0.2","","""event"",""trial"",""time""
""fullscreenenter"",""1"",""1536""
","
","
","""event"",""trial"",""time""
""fullscreenenter"",""1"",""1536""
","
","","","191.79999995231628","","","22","9970","4666","&#9776;","elianto","#3366ff99"," "," ","1","+10","[1047.7000000476837]","1","0","1","","","","","","","",""
"pit-trial","22","570742","0.0-2.0-8.0-2.0","battery-v0.2","","""event"",""trial"",""time""
""fullscreenenter"",""1"",""1536""
","
","
","""event"",""trial"",""time""
""fullscreenenter"",""1"",""1536""
","
","","","448.59999990463257","","","22","9970","4666","&#9776;","elianto","#3366ff99"," "," ","1","+10","[1309.0999999046326]","1","0","1","","","","","","","",""
"pit-trial","23","574018","0.0-2.0-8.0-3.0","battery-v0.2","","""event"",""trial"",""time""
""fullscreenenter"",""1"",""1536""
","
","
","""event"",""trial"",""time""
""fullscreenenter"",""1"",""1536""
","
","","","412","","","22","9970","4666","&#9776;","elianto","#3366ff99"," "," ","1","0","[1264.7999999523163]","1","0","1","","","","","","","",""
"pit-trial","24","578890","0.0-2.0-8.0-4.0","battery-v0.2","","""event"",""trial"",""time""
""fullscreenenter"",""1"",""1536""
","
","
","""event"",""trial"",""time""
""fullscreenenter"",""1"",""1536""
","
","","","-1","","","22","9970","4666","&#9776;","elianto","#3366ff99"," ","-1","0","0","[]","0","0","1","","","","","","","",""
"pit-trial","25","581830","0.0-2.0-8.1-0.1","battery-v0.2","","""event"",""trial"",""time""
""fullscreenenter"",""1"",""1536""
","
","
","""event"",""trial"",""time""
""fullscreenenter"",""1"",""1536""
","
","","","73.30000019073486","","","22","9970","4666","&#9776;","elianto","#3366ff99"," "," ","1","+10","[932.2000000476837]","1","0","1","","","","","","","",""
"pit-trial","26","585088","0.0-2.0-8.1-1.1","battery-v0.2","","""event"",""trial"",""time""
""fullscreenenter"",""1"",""1536""
","
","
","""event"",""trial"",""time""
""fullscreenenter"",""1"",""1536""
","
","","","385.5","","","22","9970","4666","&#9776;","elianto","#3366ff99"," "," ","1","+10","[1243.2999999523163]","1","0","1","","","","","","","",""
"pit-trial","27","588279","0.0-2.0-8.1-2.1","battery-v0.2","","""event"",""trial"",""time""
""fullscreenenter"",""1"",""1536""
","
","
","""event"",""trial"",""time""
""fullscreenenter"",""1"",""1536""
","
","","","335.10000014305115","","","22","9970","4666","&#9776;","elianto","#3366ff99"," "," ","1","+10","[1185.4000000953674]","1","0","1","","","","","","","",""
"pit-trial","28","593142","0.0-2.0-8.1-3.1","battery-v0.2","","""event"",""trial"",""time""
""fullscreenenter"",""1"",""1536""
","
","
","""event"",""trial"",""time""
""fullscreenenter"",""1"",""1536""
","
","","","-1","","","22","9970","4666","&#9776;","elianto","#3366ff99"," ","-1","0","+10","[]","0","0","1","","","","","","","",""
"pit-trial","29","596262","0.0-2.0-8.1-4.1","battery-v0.2","","""event"",""trial"",""time""
""fullscreenenter"",""1"",""1536""
","
","
","""event"",""trial"",""time""
""fullscreenenter"",""1"",""1536""
","
","","","255","","","22","9970","4666","&#9776;","elianto","#3366ff99"," "," ","1","+10","[1110.2000000476837]","1","0","1","","","","","","","",""
"pit-trial","30","599878","0.0-2.0-8.2-0.2","battery-v0.2","","""event"",""trial"",""time""
""fullscreenenter"",""1"",""1536""
","
","
","""event"",""trial"",""time""
""fullscreenenter"",""1"",""1536""
","
","","","748.4000000953674","","","22","9970","4666","&#9776;","elianto","#3366ff99"," "," ","1","+10","[1603.5]","1","0","1","","","","","","","",""
"pit-trial","31","604742","0.0-2.0-8.2-1.2","battery-v0.2","","""event"",""trial"",""time""
""fullscreenenter"",""1"",""1536""
","
","
","""event"",""trial"",""time""
""fullscreenenter"",""1"",""1536""
","
","","","-1","","","22","9970","4666","&#9776;","elianto","#3366ff99"," ","-1","0","0","[]","0","0","1","","","","","","","",""
"pit-trial","32","609605","0.0-2.0-8.2-2.2","battery-v0.2","","""event"",""trial"",""time""
""fullscreenenter"",""1"",""1536""
","
","
","""event"",""trial"",""time""
""fullscreenenter"",""1"",""1536""
","
","","","-1","","","22","9970","4666","&#9776;","elianto","#3366ff99"," ","-1","0","0","[]","0","0","1","","","","","","","",""
"pit-trial","33","613126","0.0-2.0-8.2-3.2","battery-v0.2","","""event"",""trial"",""time""
""fullscreenenter"",""1"",""1536""
","
","
","""event"",""trial"",""time""
""fullscreenenter"",""1"",""1536""
","
","","","655.9000000953674","","","22","9970","4666","&#9776;","elianto","#3366ff99"," "," ","1","0","[713.0999999046326,1511.3999998569489]","2","0","1","","","","","","","",""
"pit-trial","34","616006","0.0-2.0-8.2-4.2","battery-v0.2","","""event"",""trial"",""time""
""fullscreenenter"",""1"",""1536""
","
","
","""event"",""trial"",""time""
""fullscreenenter"",""1"",""1536""
","
","","","15.899999856948853","","","22","9970","4666","&#9776;","elianto","#3366ff99"," "," ","1","+10","[870.7000000476837]","1","0","1","","","","","","","",""
"call-function","35","616009","0.0-2.0-9.0","battery-v0.2","","""event"",""trial"",""time""
""fullscreenenter"",""1"",""1536""
","
","
","""event"",""trial"",""time""
""fullscreenenter"",""1"",""1536""
","
","","","","","","","","","","","","","","","","","","","","","","","","","","",""
"pit-instructions","36","663376","0.0-2.0-10.0","battery-v0.2","","""event"",""trial"",""time""
""fullscreenenter"",""1"",""1536""
","
","
","""event"",""trial"",""time""
""fullscreenenter"",""1"",""1536""
","
","","[{""page_index"":0,""viewing_time"":6532.799999952316},{""page_index"":1,""viewing_time"":8053.5},{""page_index"":2,""viewing_time"":10115.599999904633},{""page_index"":3,""viewing_time"":15108.600000143051},{""page_index"":4,""viewing_time"":7556.299999952316}]","47366.89999985695","","","","","","","","","","","","","","","","","","","","","","","",""
"pit-trial","37","666973","0.0-2.0-11.0-0.0","battery-v0.2","","""event"",""trial"",""time""
""fullscreenenter"",""1"",""1536""
","
","
","""event"",""trial"",""time""
""fullscreenenter"",""1"",""1536""
","
","","","732.5","","","22","9970","4666","&#9761;","elianto","#3366ff99","-1"," ","0","0","[1588.0999999046326]","1","0","2","","","","","","","",""
"pit-trial","38","670109","0.0-2.0-11.0-1.0","battery-v0.2","","""event"",""trial"",""time""
""fullscreenenter"",""1"",""1536""
","
","
","""event"",""trial"",""time""
""fullscreenenter"",""1"",""1536""
","
","","","271.2999999523163","","","22","9970","4666","&#9761;","elianto","#3366ff99","-1"," ","0","0","[1125.7999999523163]","1","0","2","","","","","","","",""
"pit-trial","39","674976","0.0-2.0-11.0-2.0","battery-v0.2","","""event"",""trial"",""time""
""fullscreenenter"",""1"",""1536""
","
","
","""event"",""trial"",""time""
""fullscreenenter"",""1"",""1536""
","
","","","-1","","","22","9970","4666","&#9761;","elianto","#3366ff99","-1","-1","1","+10","[]","0","0","2","","","","","","","",""
"pit-trial","40","678633","0.0-2.0-11.0-3.0","battery-v0.2","","""event"",""trial"",""time""
""fullscreenenter"",""1"",""1536""
","
","
","""event"",""trial"",""time""
""fullscreenenter"",""1"",""1536""
","
","","","787.4000000953674","","","22","9970","4666","&#9761;","elianto","#3366ff99","-1"," ","0","+10","[705.2000000476837,1645.2000000476837]","2","0","2","","","","","","","",""
"pit-trial","41","683505","0.0-2.0-11.0-4.0","battery-v0.2","","""event"",""trial"",""time""
""fullscreenenter"",""1"",""1536""
","
","
","""event"",""trial"",""time""
""fullscreenenter"",""1"",""1536""
","
","","","-1","","","22","9970","4666","&#9761;","elianto","#3366ff99","-1","-1","1","+10","[]","0","0","2","","","","","","","",""
"pit-trial","42","687045","0.0-2.0-11.1-0.1","battery-v0.2","","""event"",""trial"",""time""
""fullscreenenter"",""1"",""1536""
","
","
","""event"",""trial"",""time""
""fullscreenenter"",""1"",""1536""
","
","","","675.3000001907349","","","22","9970","4666","&#9761;","elianto","#3366ff99","-1"," ","0","0","[718.5999999046326,1531.7000000476837]","2","0","2","","","","","","","",""
"pit-trial","43","690073","0.0-2.0-11.1-1.1","battery-v0.2","","""event"",""trial"",""time""
""fullscreenenter"",""1"",""1536""
","
","
","""event"",""trial"",""time""
""fullscreenenter"",""1"",""1536""
","
","","","161.29999995231628","","","22","9970","4666","&#9761;","elianto","#3366ff99","-1"," ","0","0","[1016.5999999046326]","1","0","2","","","","","","","",""
"pit-trial","44","693119","0.0-2.0-11.1-2.1","battery-v0.2","","""event"",""trial"",""time""
""fullscreenenter"",""1"",""1536""
","
","
","""event"",""trial"",""time""
""fullscreenenter"",""1"",""1536""
","
","","","175.5","","","22","9970","4666","&#9761;","elianto","#3366ff99","-1"," ","0","0","[1035.3999998569489]","1","0","2","","","","","","","",""
"pit-trial","45","696736","0.0-2.0-11.1-3.1","battery-v0.2","","""event"",""trial"",""time""
""fullscreenenter"",""1"",""1536""
","
","
","""event"",""trial"",""time""
""fullscreenenter"",""1"",""1536""
","
","","","744.3000001907349","","","22","9970","4666","&#9761;","elianto","#3366ff99","-1"," ","0","+10","[1605]","1","0","2","","","","","","","",""
"pit-trial","46","699968","0.0-2.0-11.1-4.1","battery-v0.2","","""event"",""trial"",""time""
""fullscreenenter"",""1"",""1536""
","
","
","""event"",""trial"",""time""
""fullscreenenter"",""1"",""1536""
","
","","","366.5","","","22","9970","4666","&#9761;","elianto","#3366ff99","-1"," ","0","0","[1217.5]","1","0","2","","","","","","","",""
"pit-trial","47","704837","0.0-2.0-11.2-0.2","battery-v0.2","","""event"",""trial"",""time""
""fullscreenenter"",""1"",""1536""
","
","
","""event"",""trial"",""time""
""fullscreenenter"",""1"",""1536""
","
","","","-1","","","22","9970","4666","&#9761;","elianto","#3366ff99","-1","-1","1","+10","[]","0","0","2","","","","","","","",""
"pit-trial","48","709704","0.0-2.0-11.2-1.2","battery-v0.2","","""event"",""trial"",""time""
""fullscreenenter"",""1"",""1536""
","
","
","""event"",""trial"",""time""
""fullscreenenter"",""1"",""1536""
","
","","","-1","","","22","9970","4666","&#9761;","elianto","#3366ff99","-1","-1","1","+10","[]","0","0","2","","","","","","","",""
"pit-trial","49","714575","0.0-2.0-11.2-2.2","battery-v0.2","","""event"",""trial"",""time""
""fullscreenenter"",""1"",""1536""
","
","
","""event"",""trial"",""time""
""fullscreenenter"",""1"",""1536""
","
","","","-1","","","22","9970","4666","&#9761;","elianto","#3366ff99","-1","-1","1","+10","[]","0","0","2","","","","","","","",""
"pit-trial","50","717733","0.0-2.0-11.2-3.2","battery-v0.2","","""event"",""trial"",""time""
""fullscreenenter"",""1"",""1536""
","
","
","""event"",""trial"",""time""
""fullscreenenter"",""1"",""1536""
","
","","","285.2999999523163","","","22","9970","4666","&#9761;","elianto","#3366ff99","-1"," ","0","+10","[1145.4000000953674]","1","0","2","","","","","","","",""
"pit-trial","51","721727","0.0-2.0-11.2-4.2","battery-v0.2","","""event"",""trial"",""time""
""fullscreenenter"",""1"",""1536""
","
","
","""event"",""trial"",""time""
""fullscreenenter"",""1"",""1536""
","
","","","1129.6000001430511","","","22","9970","4666","&#9761;","elianto","#3366ff99","-1"," ","0","0","[1980]","1","0","2","","","","","","","",""
"pit-trial","52","725070","0.0-2.0-11.3-0.3","battery-v0.2","","""event"",""trial"",""time""
""fullscreenenter"",""1"",""1536""
","
","
","""event"",""trial"",""time""
""fullscreenenter"",""1"",""1536""
","
","","","474.5","","","22","9970","4666","&#9761;","elianto","#3366ff99","-1"," ","0","0","[1332.7999999523163]","1","0","2","","","","","","","",""
"pit-trial","53","728085","0.0-2.0-11.3-1.3","battery-v0.2","","""event"",""trial"",""time""
""fullscreenenter"",""1"",""1536""
","
","
","""event"",""trial"",""time""
""fullscreenenter"",""1"",""1536""
","
","","","157","","","22","9970","4666","&#9761;","elianto","#3366ff99","-1"," ","0","0","[1007.0999999046326]","1","0","2","","","","","","","",""
"pit-trial","54","732949","0.0-2.0-11.3-2.3","battery-v0.2","","""event"",""trial"",""time""
""fullscreenenter"",""1"",""1536""
","
","
","""event"",""trial"",""time""
""fullscreenenter"",""1"",""1536""
","
","","","-1","","","22","9970","4666","&#9761;","elianto","#3366ff99","-1","-1","1","+10","[]","0","0","2","","","","","","","",""
"pit-trial","55","735813","0.0-2.0-11.3-3.3","battery-v0.2","","""event"",""trial"",""time""
""fullscreenenter"",""1"",""1536""
","
","
","""event"",""trial"",""time""
""fullscreenenter"",""1"",""1536""
","
","","","4.700000047683716","","","22","9970","4666","&#9761;","elianto","#3366ff99","-1"," ","0","+10","[858.2999999523163]","1","0","2","","","","","","","",""
"pit-trial","56","739061","0.0-2.0-11.3-4.3","battery-v0.2","","""event"",""trial"",""time""
""fullscreenenter"",""1"",""1536""
","
","
","""event"",""trial"",""time""
""fullscreenenter"",""1"",""1536""
","
","","","385.59999990463257","","","22","9970","4666","&#9761;","elianto","#3366ff99","-1"," ","0","0","[1241.0999999046326]","1","0","2","","","","","","","",""
"call-function","57","739064","0.0-2.0-12.0","battery-v0.2","","""event"",""trial"",""time""
""fullscreenenter"",""1"",""1536""
","
","
","""event"",""trial"",""time""
""fullscreenenter"",""1"",""1536""
","
","","","","","","","","","","","","","","","","","","","","","","","","","","",""
"pit-instructions","58","780897","0.0-2.0-13.0","battery-v0.2","","""event"",""trial"",""time""
""fullscreenenter"",""1"",""1536""
","
","
","""event"",""trial"",""time""
""fullscreenenter"",""1"",""1536""
","
","","[{""page_index"":0,""viewing_time"":5719.800000190735},{""page_index"":1,""viewing_time"":13973.799999952316},{""page_index"":2,""viewing_time"":5581.5},{""page_index"":3,""viewing_time"":11111.799999952316},{""page_index"":4,""viewing_time"":5446.200000047684}]","41833.300000190735","","","","","","","","","","","","","","","","","","","","","","","",""
"pit-trial","59","783888","0.0-2.0-14.0-0.0","battery-v0.2","","""event"",""trial"",""time""
""fullscreenenter"",""1"",""1536""
","
","
","""event"",""trial"",""time""
""fullscreenenter"",""1"",""1536""
","
","","","127.30000019073486","","","22","9970","4666","&#9826;","elianto","#f73b6a7A","-1"," ","0","-10","[982.8000001907349]","1","0","3","","","","","","","",""
"pit-trial","60","788757","0.0-2.0-14.0-1.0","battery-v0.2","","""event"",""trial"",""time""
""fullscreenenter"",""1"",""1536""
","
","
","""event"",""trial"",""time""
""fullscreenenter"",""1"",""1536""
","
","","","-1","","","22","9970","4666","&#9826;","elianto","#f73b6a7A","-1","-1","1","0","[]","0","0","3","","","","","","","",""
"pit-trial","61","793620","0.0-2.0-14.0-2.0","battery-v0.2","","""event"",""trial"",""time""
""fullscreenenter"",""1"",""1536""
","
","
","""event"",""trial"",""time""
""fullscreenenter"",""1"",""1536""
","
","","","-1","","","22","9970","4666","&#9826;","elianto","#f73b6a7A","-1","-1","1","0","[]","0","0","3","","","","","","","",""
"pit-trial","62","798489","0.0-2.0-14.0-3.0","battery-v0.2","","""event"",""trial"",""time""
""fullscreenenter"",""1"",""1536""
","
","
","""event"",""trial"",""time""
""fullscreenenter"",""1"",""1536""
","
","","","-1","","","22","9970","4666","&#9826;","elianto","#f73b6a7A","-1","-1","1","-10","[]","0","0","3","","","","","","","",""
"pit-trial","63","801854","0.0-2.0-14.0-4.0","battery-v0.2","","""event"",""trial"",""time""
""fullscreenenter"",""1"",""1536""
","
","
","""event"",""trial"",""time""
""fullscreenenter"",""1"",""1536""
","
","","","493.09999990463257","","","22","9970","4666","&#9826;","elianto","#f73b6a7A","-1"," ","0","-10","[1352.8999998569489]","1","0","3","","","","","","","",""
"pit-trial","64","806724","0.0-2.0-14.1-0.1","battery-v0.2","","""event"",""trial"",""time""
""fullscreenenter"",""1"",""1536""
""blur"",""65"",""811527""
","""event"",""trial"",""time""
""blur"",""65"",""811527""
","
","""event"",""trial"",""time""
""fullscreenenter"",""1"",""1536""
","
","","","-1","","","22","9970","4666","&#9826;","elianto","#f73b6a7A","-1","-1","1","0","[]","0","0","3","","","","","","","",""
"pit-trial","65","811589","0.0-2.0-14.1-1.1","battery-v0.2","","""event"",""trial"",""time""
""fullscreenenter"",""1"",""1536""
""blur"",""65"",""811527""
""focus"",""66"",""815176""
","""event"",""trial"",""time""
""blur"",""65"",""811527""
","""event"",""trial"",""time""
""focus"",""66"",""815176""
","""event"",""trial"",""time""
""fullscreenenter"",""1"",""1536""
","
","","","-1","","","22","9970","4666","&#9826;","elianto","#f73b6a7A","-1","-1","1","0","[]","0","0","3","","","","","","","",""
"pit-trial","66","817120","0.0-2.0-14.1-2.1","battery-v0.2","","""event"",""trial"",""time""
""fullscreenenter"",""1"",""1536""
""blur"",""65"",""811527""
""focus"",""66"",""815176""
","""event"",""trial"",""time""
""blur"",""65"",""811527""
","""event"",""trial"",""time""
""focus"",""66"",""815176""
","""event"",""trial"",""time""
""fullscreenenter"",""1"",""1536""
","
","","","-1","","","22","9970","4666","&#9826;","elianto","#f73b6a7A","-1","-1","1","0","[]","0","0","3","","","","","","","",""
"pit-trial","67","821989","0.0-2.0-14.1-3.1","battery-v0.2","","""event"",""trial"",""time""
""fullscreenenter"",""1"",""1536""
""blur"",""65"",""811527""
""focus"",""66"",""815176""
","""event"",""trial"",""time""
""blur"",""65"",""811527""
","""event"",""trial"",""time""
""focus"",""66"",""815176""
","""event"",""trial"",""time""
""fullscreenenter"",""1"",""1536""
","
","","","-1","","","22","9970","4666","&#9826;","elianto","#f73b6a7A","-1","-1","1","-10","[]","0","0","3","","","","","","","",""
"pit-trial","68","826853","0.0-2.0-14.1-4.1","battery-v0.2","","""event"",""trial"",""time""
""fullscreenenter"",""1"",""1536""
""blur"",""65"",""811527""
""focus"",""66"",""815176""
","""event"",""trial"",""time""
""blur"",""65"",""811527""
","""event"",""trial"",""time""
""focus"",""66"",""815176""
","""event"",""trial"",""time""
""fullscreenenter"",""1"",""1536""
","
","","","-1","","","22","9970","4666","&#9826;","elianto","#f73b6a7A","-1","-1","1","0","[]","0","0","3","","","","","","","",""
"pit-trial","69","831717","0.0-2.0-14.2-0.2","battery-v0.2","","""event"",""trial"",""time""
""fullscreenenter"",""1"",""1536""
""blur"",""65"",""811527""
""focus"",""66"",""815176""
","""event"",""trial"",""time""
""blur"",""65"",""811527""
","""event"",""trial"",""time""
""focus"",""66"",""815176""
","""event"",""trial"",""time""
""fullscreenenter"",""1"",""1536""
","
","","","-1","","","22","9970","4666","&#9826;","elianto","#f73b6a7A","-1","-1","1","0","[]","0","0","3","","","","","","","",""
"pit-trial","70","836581","0.0-2.0-14.2-1.2","battery-v0.2","","""event"",""trial"",""time""
""fullscreenenter"",""1"",""1536""
""blur"",""65"",""811527""
""focus"",""66"",""815176""
","""event"",""trial"",""time""
""blur"",""65"",""811527""
","""event"",""trial"",""time""
""focus"",""66"",""815176""
","""event"",""trial"",""time""
""fullscreenenter"",""1"",""1536""
","
","","","-1","","","22","9970","4666","&#9826;","elianto","#f73b6a7A","-1","-1","1","0","[]","0","0","3","","","","","","","",""
"pit-trial","71","841445","0.0-2.0-14.2-2.2","battery-v0.2","","""event"",""trial"",""time""
""fullscreenenter"",""1"",""1536""
""blur"",""65"",""811527""
""focus"",""66"",""815176""
","""event"",""trial"",""time""
""blur"",""65"",""811527""
","""event"",""trial"",""time""
""focus"",""66"",""815176""
","""event"",""trial"",""time""
""fullscreenenter"",""1"",""1536""
","
","","","-1","","","22","9970","4666","&#9826;","elianto","#f73b6a7A","-1","-1","1","0","[]","0","0","3","","","","","","","",""
"pit-trial","72","846309","0.0-2.0-14.2-3.2","battery-v0.2","","""event"",""trial"",""time""
""fullscreenenter"",""1"",""1536""
""blur"",""65"",""811527""
""focus"",""66"",""815176""
","""event"",""trial"",""time""
""blur"",""65"",""811527""
","""event"",""trial"",""time""
""focus"",""66"",""815176""
","""event"",""trial"",""time""
""fullscreenenter"",""1"",""1536""
","
","","","-1","","","22","9970","4666","&#9826;","elianto","#f73b6a7A","-1","-1","1","-10","[]","0","0","3","","","","","","","",""
"pit-trial","73","851183","0.0-2.0-14.2-4.2","battery-v0.2","","""event"",""trial"",""time""
""fullscreenenter"",""1"",""1536""
""blur"",""65"",""811527""
""focus"",""66"",""815176""
","""event"",""trial"",""time""
""blur"",""65"",""811527""
","""event"",""trial"",""time""
""focus"",""66"",""815176""
","""event"",""trial"",""time""
""fullscreenenter"",""1"",""1536""
","
","","","-1","","","22","9970","4666","&#9826;","elianto","#f73b6a7A","-1","-1","1","0","[]","0","0","3","","","","","","","",""
"pit-trial","74","856053","0.0-2.0-14.3-0.3","battery-v0.2","","""event"",""trial"",""time""
""fullscreenenter"",""1"",""1536""
""blur"",""65"",""811527""
""focus"",""66"",""815176""
","""event"",""trial"",""time""
""blur"",""65"",""811527""
","""event"",""trial"",""time""
""focus"",""66"",""815176""
","""event"",""trial"",""time""
""fullscreenenter"",""1"",""1536""
","
","","","-1","","","22","9970","4666","&#9826;","elianto","#f73b6a7A","-1","-1","1","0","[]","0","0","3","","","","","","","",""
"pit-trial","75","860917","0.0-2.0-14.3-1.3","battery-v0.2","","""event"",""trial"",""time""
""fullscreenenter"",""1"",""1536""
""blur"",""65"",""811527""
""focus"",""66"",""815176""
","""event"",""trial"",""time""
""blur"",""65"",""811527""
","""event"",""trial"",""time""
""focus"",""66"",""815176""
","""event"",""trial"",""time""
""fullscreenenter"",""1"",""1536""
","
","","","-1","","","22","9970","4666","&#9826;","elianto","#f73b6a7A","-1","-1","1","0","[]","0","0","3","","","","","","","",""
"pit-trial","76","865792","0.0-2.0-14.3-2.3","battery-v0.2","","""event"",""trial"",""time""
""fullscreenenter"",""1"",""1536""
""blur"",""65"",""811527""
""focus"",""66"",""815176""
","""event"",""trial"",""time""
""blur"",""65"",""811527""
","""event"",""trial"",""time""
""focus"",""66"",""815176""
","""event"",""trial"",""time""
""fullscreenenter"",""1"",""1536""
","
","","","-1","","","22","9970","4666","&#9826;","elianto","#f73b6a7A","-1","-1","1","0","[]","0","0","3","","","","","","","",""
"pit-trial","77","870661","0.0-2.0-14.3-3.3","battery-v0.2","","""event"",""trial"",""time""
""fullscreenenter"",""1"",""1536""
""blur"",""65"",""811527""
""focus"",""66"",""815176""
","""event"",""trial"",""time""
""blur"",""65"",""811527""
","""event"",""trial"",""time""
""focus"",""66"",""815176""
","""event"",""trial"",""time""
""fullscreenenter"",""1"",""1536""
","
","","","-1","","","22","9970","4666","&#9826;","elianto","#f73b6a7A","-1","-1","1","-10","[]","0","0","3","","","","","","","",""
"pit-trial","78","875525","0.0-2.0-14.3-4.3","battery-v0.2","","""event"",""trial"",""time""
""fullscreenenter"",""1"",""1536""
""blur"",""65"",""811527""
""focus"",""66"",""815176""
","""event"",""trial"",""time""
""blur"",""65"",""811527""
","""event"",""trial"",""time""
""focus"",""66"",""815176""
","""event"",""trial"",""time""
""fullscreenenter"",""1"",""1536""
","
","","","-1","","","22","9970","4666","&#9826;","elianto","#f73b6a7A","-1","-1","1","0","[]","0","0","3","","","","","","","",""
"call-function","79","875530","0.0-2.0-15.0","battery-v0.2","","""event"",""trial"",""time""
""fullscreenenter"",""1"",""1536""
""blur"",""65"",""811527""
""focus"",""66"",""815176""
","""event"",""trial"",""time""
""blur"",""65"",""811527""
","""event"",""trial"",""time""
""focus"",""66"",""815176""
","""event"",""trial"",""time""
""fullscreenenter"",""1"",""1536""
","
","","","","","","","","","","","","","","","","","","","","","","","","","","",""
"pit-instructions","80","1396755","0.0-2.0-16.0","battery-v0.2","","""event"",""trial"",""time""
""fullscreenenter"",""1"",""1536""
""blur"",""65"",""811527""
""focus"",""66"",""815176""
","""event"",""trial"",""time""
""blur"",""65"",""811527""
","""event"",""trial"",""time""
""focus"",""66"",""815176""
","""event"",""trial"",""time""
""fullscreenenter"",""1"",""1536""
","
","","[{""page_index"":0,""viewing_time"":498974.2000000477},{""page_index"":1,""viewing_time"":10337.399999856949},{""page_index"":2,""viewing_time"":4991.5},{""page_index"":3,""viewing_time"":6925.100000143051}]","521228.2999999523","","","","","","","","","","","","","","","","","","","","","","","",""
"pit-trial","81","1401619","0.0-2.0-17.0-0.0","battery-v0.2","","""event"",""trial"",""time""
""fullscreenenter"",""1"",""1536""
""blur"",""65"",""811527""
""focus"",""66"",""815176""
","""event"",""trial"",""time""
""blur"",""65"",""811527""
","""event"",""trial"",""time""
""focus"",""66"",""815176""
","""event"",""trial"",""time""
""fullscreenenter"",""1"",""1536""
","
","","","-1","","","22","9970","4666","&#9789;","elianto","#f73b6a7A"," ","-1","0","-10","[]","0","0","4","","","","","","","",""
"pit-trial","82","1405588","0.0-2.0-17.0-1.0","battery-v0.2","","""event"",""trial"",""time""
""fullscreenenter"",""1"",""1536""
""blur"",""65"",""811527""
""focus"",""66"",""815176""
","""event"",""trial"",""time""
""blur"",""65"",""811527""
","""event"",""trial"",""time""
""focus"",""66"",""815176""
","""event"",""trial"",""time""
""fullscreenenter"",""1"",""1536""
","
","","","1099.2000000476837","","","22","9970","4666","&#9789;","elianto","#f73b6a7A"," "," ","1","0","[1956.2999999523163]","1","0","4","","","","","","","",""
"pit-trial","83","1410455","0.0-2.0-17.0-2.0","battery-v0.2","","""event"",""trial"",""time""
""fullscreenenter"",""1"",""1536""
""blur"",""65"",""811527""
""focus"",""66"",""815176""
","""event"",""trial"",""time""
""blur"",""65"",""811527""
","""event"",""trial"",""time""
""focus"",""66"",""815176""
","""event"",""trial"",""time""
""fullscreenenter"",""1"",""1536""
","
","","","-1","","","22","9970","4666","&#9789;","elianto","#f73b6a7A"," ","-1","0","-10","[]","0","0","4","","","","","","","",""
"pit-trial","84","1415321","0.0-2.0-17.0-3.0","battery-v0.2","","""event"",""trial"",""time""
""fullscreenenter"",""1"",""1536""
""blur"",""65"",""811527""
""focus"",""66"",""815176""
","""event"",""trial"",""time""
""blur"",""65"",""811527""
","""event"",""trial"",""time""
""focus"",""66"",""815176""
","""event"",""trial"",""time""
""fullscreenenter"",""1"",""1536""
","
","","","-1","","","22","9970","4666","&#9789;","elianto","#f73b6a7A"," ","-1","0","0","[]","0","0","4","","","","","","","",""
"pit-trial","85","1420192","0.0-2.0-17.0-4.0","battery-v0.2","","""event"",""trial"",""time""
""fullscreenenter"",""1"",""1536""
""blur"",""65"",""811527""
""focus"",""66"",""815176""
","""event"",""trial"",""time""
""blur"",""65"",""811527""
","""event"",""trial"",""time""
""focus"",""66"",""815176""
","""event"",""trial"",""time""
""fullscreenenter"",""1"",""1536""
","
","","","-1","","","22","9970","4666","&#9789;","elianto","#f73b6a7A"," ","-1","0","-10","[]","0","0","4","","","","","","","",""
"pit-trial","86","1425057","0.0-2.0-17.1-0.1","battery-v0.2","","""event"",""trial"",""time""
""fullscreenenter"",""1"",""1536""
""blur"",""65"",""811527""
""focus"",""66"",""815176""
","""event"",""trial"",""time""
""blur"",""65"",""811527""
","""event"",""trial"",""time""
""focus"",""66"",""815176""
","""event"",""trial"",""time""
""fullscreenenter"",""1"",""1536""
","
","","","-1","","","22","9970","4666","&#9789;","elianto","#f73b6a7A"," ","-1","0","-10","[]","0","0","4","","","","","","","",""
"pit-trial","87","1429921","0.0-2.0-17.1-1.1","battery-v0.2","","""event"",""trial"",""time""
""fullscreenenter"",""1"",""1536""
""blur"",""65"",""811527""
""focus"",""66"",""815176""
","""event"",""trial"",""time""
""blur"",""65"",""811527""
","""event"",""trial"",""time""
""focus"",""66"",""815176""
","""event"",""trial"",""time""
""fullscreenenter"",""1"",""1536""
","
","","","-1","","","22","9970","4666","&#9789;","elianto","#f73b6a7A"," ","-1","0","-10","[]","0","0","4","","","","","","","",""
"pit-trial","88","1434793","0.0-2.0-17.1-2.1","battery-v0.2","","""event"",""trial"",""time""
""fullscreenenter"",""1"",""1536""
""blur"",""65"",""811527""
""focus"",""66"",""815176""
","""event"",""trial"",""time""
""blur"",""65"",""811527""
","""event"",""trial"",""time""
""focus"",""66"",""815176""
","""event"",""trial"",""time""
""fullscreenenter"",""1"",""1536""
","
","","","-1","","","22","9970","4666","&#9789;","elianto","#f73b6a7A"," ","-1","0","-10","[]","0","0","4","","","","","","","",""
"pit-trial","89","1439665","0.0-2.0-17.1-3.1","battery-v0.2","","""event"",""trial"",""time""
""fullscreenenter"",""1"",""1536""
""blur"",""65"",""811527""
""focus"",""66"",""815176""
","""event"",""trial"",""time""
""blur"",""65"",""811527""
","""event"",""trial"",""time""
""focus"",""66"",""815176""
","""event"",""trial"",""time""
""fullscreenenter"",""1"",""1536""
","
","","","-1","","","22","9970","4666","&#9789;","elianto","#f73b6a7A"," ","-1","0","0","[]","0","0","4","","","","","","","",""
"pit-trial","90","1444529","0.0-2.0-17.1-4.1","battery-v0.2","","""event"",""trial"",""time""
""fullscreenenter"",""1"",""1536""
""blur"",""65"",""811527""
""focus"",""66"",""815176""
","""event"",""trial"",""time""
""blur"",""65"",""811527""
","""event"",""trial"",""time""
""focus"",""66"",""815176""
","""event"",""trial"",""time""
""fullscreenenter"",""1"",""1536""
","
","","","-1","","","22","9970","4666","&#9789;","elianto","#f73b6a7A"," ","-1","0","-10","[]","0","0","4","","","","","","","",""
"pit-trial","91","1449404","0.0-2.0-17.2-0.2","battery-v0.2","","""event"",""trial"",""time""
""fullscreenenter"",""1"",""1536""
""blur"",""65"",""811527""
""focus"",""66"",""815176""
","""event"",""trial"",""time""
""blur"",""65"",""811527""
","""event"",""trial"",""time""
""focus"",""66"",""815176""
","""event"",""trial"",""time""
""fullscreenenter"",""1"",""1536""
","
","","","-1","","","22","9970","4666","&#9789;","elianto","#f73b6a7A"," ","-1","0","-10","[]","0","0","4","","","","","","","",""
"pit-trial","92","1454273","0.0-2.0-17.2-1.2","battery-v0.2","","""event"",""trial"",""time""
""fullscreenenter"",""1"",""1536""
""blur"",""65"",""811527""
""focus"",""66"",""815176""
","""event"",""trial"",""time""
""blur"",""65"",""811527""
","""event"",""trial"",""time""
""focus"",""66"",""815176""
","""event"",""trial"",""time""
""fullscreenenter"",""1"",""1536""
","
","","","-1","","","22","9970","4666","&#9789;","elianto","#f73b6a7A"," ","-1","0","-10","[]","0","0","4","","","","","","","",""
"pit-trial","93","1459144","0.0-2.0-17.2-2.2","battery-v0.2","","""event"",""trial"",""time""
""fullscreenenter"",""1"",""1536""
""blur"",""65"",""811527""
""focus"",""66"",""815176""
","""event"",""trial"",""time""
""blur"",""65"",""811527""
","""event"",""trial"",""time""
""focus"",""66"",""815176""
","""event"",""trial"",""time""
""fullscreenenter"",""1"",""1536""
","
","","","-1","","","22","9970","4666","&#9789;","elianto","#f73b6a7A"," ","-1","0","-10","[]","0","0","4","","","","","","","",""
"pit-trial","94","1464012","0.0-2.0-17.2-3.2","battery-v0.2","","""event"",""trial"",""time""
""fullscreenenter"",""1"",""1536""
""blur"",""65"",""811527""
""focus"",""66"",""815176""
","""event"",""trial"",""time""
""blur"",""65"",""811527""
","""event"",""trial"",""time""
""focus"",""66"",""815176""
","""event"",""trial"",""time""
""fullscreenenter"",""1"",""1536""
","
","","","-1","","","22","9970","4666","&#9789;","elianto","#f73b6a7A"," ","-1","0","0","[]","0","0","4","","","","","","","",""
"pit-trial","95","1468881","0.0-2.0-17.2-4.2","battery-v0.2","","""event"",""trial"",""time""
""fullscreenenter"",""1"",""1536""
""blur"",""65"",""811527""
""focus"",""66"",""815176""
","""event"",""trial"",""time""
""blur"",""65"",""811527""
","""event"",""trial"",""time""
""focus"",""66"",""815176""
","""event"",""trial"",""time""
""fullscreenenter"",""1"",""1536""
","
","","","-1","","","22","9970","4666","&#9789;","elianto","#f73b6a7A"," ","-1","0","-10","[]","0","0","4","","","","","","","",""
"pit-trial","96","1472130","0.0-2.0-17.3-0.3","battery-v0.2","","""event"",""trial"",""time""
""fullscreenenter"",""1"",""1536""
""blur"",""65"",""811527""
""focus"",""66"",""815176""
","""event"",""trial"",""time""
""blur"",""65"",""811527""
","""event"",""trial"",""time""
""focus"",""66"",""815176""
","""event"",""trial"",""time""
""fullscreenenter"",""1"",""1536""
","
","","","375.30000019073486","","","22","9970","4666","&#9789;","elianto","#f73b6a7A"," "," ","1","0","[1235.1000001430511]","1","0","4","","","","","","","",""
"pit-trial","97","1477002","0.0-2.0-17.3-1.3","battery-v0.2","","""event"",""trial"",""time""
""fullscreenenter"",""1"",""1536""
""blur"",""65"",""811527""
""focus"",""66"",""815176""
","""event"",""trial"",""time""
""blur"",""65"",""811527""
","""event"",""trial"",""time""
""focus"",""66"",""815176""
","""event"",""trial"",""time""
""fullscreenenter"",""1"",""1536""
","
","","","-1","","","22","9970","4666","&#9789;","elianto","#f73b6a7A"," ","-1","0","-10","[]","0","0","4","","","","","","","",""
"pit-trial","98","1481873","0.0-2.0-17.3-2.3","battery-v0.2","","""event"",""trial"",""time""
""fullscreenenter"",""1"",""1536""
""blur"",""65"",""811527""
""focus"",""66"",""815176""
""fullscreenexit"",""99"",""1484196""
""blur"",""99"",""1485728""
","""event"",""trial"",""time""
""blur"",""65"",""811527""
""blur"",""99"",""1485728""
","""event"",""trial"",""time""
""focus"",""66"",""815176""
","""event"",""trial"",""time""
""fullscreenenter"",""1"",""1536""
","""event"",""trial"",""time""
""fullscreenexit"",""99"",""1484196""
","","","-1","","","22","9970","4666","&#9789;","elianto","#f73b6a7A"," ","-1","0","-10","[]","0","0","4","","","","","","","",""
"pit-trial","99","1487120","0.0-2.0-17.3-3.3","battery-v0.2","","""event"",""trial"",""time""
""fullscreenenter"",""1"",""1536""
""blur"",""65"",""811527""
""focus"",""66"",""815176""
""fullscreenexit"",""99"",""1484196""
""blur"",""99"",""1485728""
","""event"",""trial"",""time""
""blur"",""65"",""811527""
""blur"",""99"",""1485728""
","""event"",""trial"",""time""
""focus"",""66"",""815176""
","""event"",""trial"",""time""
""fullscreenenter"",""1"",""1536""
","""event"",""trial"",""time""
""fullscreenexit"",""99"",""1484196""
","","","-1","","","22","9970","4666","&#9789;","elianto","#f73b6a7A"," ","-1","0","0","[]","0","0","4","","","","","","","",""
"pit-trial","100","1493355","0.0-2.0-17.3-4.3","battery-v0.2","","""event"",""trial"",""time""
""fullscreenenter"",""1"",""1536""
""blur"",""65"",""811527""
""focus"",""66"",""815176""
""fullscreenexit"",""99"",""1484196""
""blur"",""99"",""1485728""
","""event"",""trial"",""time""
""blur"",""65"",""811527""
""blur"",""99"",""1485728""
","""event"",""trial"",""time""
""focus"",""66"",""815176""
","""event"",""trial"",""time""
""fullscreenenter"",""1"",""1536""
","""event"",""trial"",""time""
""fullscreenexit"",""99"",""1484196""
","","","-1","","","22","9970","4666","&#9789;","elianto","#f73b6a7A"," ","-1","0","-10","[]","0","0","4","","","","","","","",""
"call-function","101","1493356","0.0-2.0-18.0","battery-v0.2","","""event"",""trial"",""time""
""fullscreenenter"",""1"",""1536""
""blur"",""65"",""811527""
""focus"",""66"",""815176""
""fullscreenexit"",""99"",""1484196""
""blur"",""99"",""1485728""
""focus"",""102"",""1565792""
""blur"",""102"",""1571717""
""focus"",""102"",""1575583""
""blur"",""102"",""1625046""
""focus"",""102"",""1631224""
","""event"",""trial"",""time""
""blur"",""65"",""811527""
""blur"",""99"",""1485728""
""blur"",""102"",""1571717""
""blur"",""102"",""1625046""
","""event"",""trial"",""time""
""focus"",""66"",""815176""
""focus"",""102"",""1565792""
""focus"",""102"",""1575583""
""focus"",""102"",""1631224""
","""event"",""trial"",""time""
""fullscreenenter"",""1"",""1536""
","""event"",""trial"",""time""
""fullscreenexit"",""99"",""1484196""
","","","","","","","","","","","","","","","","","","","","","","","","","","",""
"pit-instructions","102","1648540","0.0-2.0-19.0","battery-v0.2","","""event"",""trial"",""time""
""fullscreenenter"",""1"",""1536""
""blur"",""65"",""811527""
""focus"",""66"",""815176""
""fullscreenexit"",""99"",""1484196""
""blur"",""99"",""1485728""
""focus"",""102"",""1565792""
""blur"",""102"",""1571717""
""focus"",""102"",""1575583""
""blur"",""102"",""1625046""
""focus"",""102"",""1631224""
","""event"",""trial"",""time""
""blur"",""65"",""811527""
""blur"",""99"",""1485728""
""blur"",""102"",""1571717""
""blur"",""102"",""1625046""
","""event"",""trial"",""time""
""focus"",""66"",""815176""
""focus"",""102"",""1565792""
""focus"",""102"",""1575583""
""focus"",""102"",""1631224""
","""event"",""trial"",""time""
""fullscreenenter"",""1"",""1536""
","""event"",""trial"",""time""
""fullscreenexit"",""99"",""1484196""
","","[{""page_index"":0,""viewing_time"":74085.59999990463},{""page_index"":1,""viewing_time"":10657.700000047684},{""page_index"":2,""viewing_time"":14533.400000095367},{""page_index"":3,""viewing_time"":8617.899999856949},{""page_index"":4,""viewing_time"":9933.100000143051},{""page_index"":5,""viewing_time"":10162.700000047684},{""page_index"":6,""viewing_time"":12215.299999952316},{""page_index"":7,""viewing_time"":6930.799999952316},{""page_index"":8,""viewing_time"":8048.299999952316}]","155185","","","","","","","","","","","","","","","","","","","","","","","",""
"pit-comprehension","103","1653212","0.0-2.0-20.0-0.0","battery-v0.2","","""event"",""trial"",""time""
""fullscreenenter"",""1"",""1536""
""blur"",""65"",""811527""
""focus"",""66"",""815176""
""fullscreenexit"",""99"",""1484196""
""blur"",""99"",""1485728""
""focus"",""102"",""1565792""
""blur"",""102"",""1571717""
""focus"",""102"",""1575583""
""blur"",""102"",""1625046""
""focus"",""102"",""1631224""
","""event"",""trial"",""time""
""blur"",""65"",""811527""
""blur"",""99"",""1485728""
""blur"",""102"",""1571717""
""blur"",""102"",""1625046""
","""event"",""trial"",""time""
""focus"",""66"",""815176""
""focus"",""102"",""1565792""
""focus"",""102"",""1575583""
""focus"",""102"",""1631224""
","""event"",""trial"",""time""
""fullscreenenter"",""1"",""1536""
","""event"",""trial"",""time""
""fullscreenexit"",""99"",""1484196""
","","","4670.200000047684","[""SPACE""]","0","22","9970","4666","","","","","","","","","","","","","","","","","","",""
"pit-instructions","104","1656345","0.0-2.0-20.0-1.0","battery-v0.2","","""event"",""trial"",""time""
""fullscreenenter"",""1"",""1536""
""blur"",""65"",""811527""
""focus"",""66"",""815176""
""fullscreenexit"",""99"",""1484196""
""blur"",""99"",""1485728""
""focus"",""102"",""1565792""
""blur"",""102"",""1571717""
""focus"",""102"",""1575583""
""blur"",""102"",""1625046""
""focus"",""102"",""1631224""
","""event"",""trial"",""time""
""blur"",""65"",""811527""
""blur"",""99"",""1485728""
""blur"",""102"",""1571717""
""blur"",""102"",""1625046""
","""event"",""trial"",""time""
""focus"",""66"",""815176""
""focus"",""102"",""1565792""
""focus"",""102"",""1575583""
""focus"",""102"",""1631224""
","""event"",""trial"",""time""
""fullscreenenter"",""1"",""1536""
","""event"",""trial"",""time""
""fullscreenexit"",""99"",""1484196""
","","[{""page_index"":0,""viewing_time"":3117.7000000476837}]","3117.9000000953674","","","","","","","","","","","","","","","","","","","","","","","",""
"pit-comprehension","105","1661253","0.0-2.0-21.0-0.0","battery-v0.2","","""event"",""trial"",""time""
""fullscreenenter"",""1"",""1536""
""blur"",""65"",""811527""
""focus"",""66"",""815176""
""fullscreenexit"",""99"",""1484196""
""blur"",""99"",""1485728""
""focus"",""102"",""1565792""
""blur"",""102"",""1571717""
""focus"",""102"",""1575583""
""blur"",""102"",""1625046""
""focus"",""102"",""1631224""
","""event"",""trial"",""time""
""blur"",""65"",""811527""
""blur"",""99"",""1485728""
""blur"",""102"",""1571717""
""blur"",""102"",""1625046""
","""event"",""trial"",""time""
""focus"",""66"",""815176""
""focus"",""102"",""1565792""
""focus"",""102"",""1575583""
""focus"",""102"",""1631224""
","""event"",""trial"",""time""
""fullscreenenter"",""1"",""1536""
","""event"",""trial"",""time""
""fullscreenexit"",""99"",""1484196""
","","","4905.799999952316","[""10""]","0","22","9970","4666","","","","","","","","","","","","","","","","","","",""
"pit-instructions","106","1665757","0.0-2.0-21.0-1.0","battery-v0.2","","""event"",""trial"",""time""
""fullscreenenter"",""1"",""1536""
""blur"",""65"",""811527""
""focus"",""66"",""815176""
""fullscreenexit"",""99"",""1484196""
""blur"",""99"",""1485728""
""focus"",""102"",""1565792""
""blur"",""102"",""1571717""
""focus"",""102"",""1575583""
""blur"",""102"",""1625046""
""focus"",""102"",""1631224""
","""event"",""trial"",""time""
""blur"",""65"",""811527""
""blur"",""99"",""1485728""
""blur"",""102"",""1571717""
""blur"",""102"",""1625046""
","""event"",""trial"",""time""
""focus"",""66"",""815176""
""focus"",""102"",""1565792""
""focus"",""102"",""1575583""
""focus"",""102"",""1631224""
","""event"",""trial"",""time""
""fullscreenenter"",""1"",""1536""
","""event"",""trial"",""time""
""fullscreenexit"",""99"",""1484196""
","","[{""page_index"":0,""viewing_time"":4489.5}]","4489.700000047684","","","","","","","","","","","","","","","","","","","","","","","",""
"pit-comprehension","107","1672423","0.0-2.0-22.0-0.0","battery-v0.2","","""event"",""trial"",""time""
""fullscreenenter"",""1"",""1536""
""blur"",""65"",""811527""
""focus"",""66"",""815176""
""fullscreenexit"",""99"",""1484196""
""blur"",""99"",""1485728""
""focus"",""102"",""1565792""
""blur"",""102"",""1571717""
""focus"",""102"",""1575583""
""blur"",""102"",""1625046""
""focus"",""102"",""1631224""
","""event"",""trial"",""time""
""blur"",""65"",""811527""
""blur"",""99"",""1485728""
""blur"",""102"",""1571717""
""blur"",""102"",""1625046""
","""event"",""trial"",""time""
""focus"",""66"",""815176""
""focus"",""102"",""1565792""
""focus"",""102"",""1575583""
""focus"",""102"",""1631224""
","""event"",""trial"",""time""
""fullscreenenter"",""1"",""1536""
","""event"",""trial"",""time""
""fullscreenexit"",""99"",""1484196""
","","","6663.800000190735","[""0""]","0","22","9970","4666","","","","","","","","","","","","","","","","","","",""
"pit-instructions","108","1678674","0.0-2.0-22.0-1.0","battery-v0.2","","""event"",""trial"",""time""
""fullscreenenter"",""1"",""1536""
""blur"",""65"",""811527""
""focus"",""66"",""815176""
""fullscreenexit"",""99"",""1484196""
""blur"",""99"",""1485728""
""focus"",""102"",""1565792""
""blur"",""102"",""1571717""
""focus"",""102"",""1575583""
""blur"",""102"",""1625046""
""focus"",""102"",""1631224""
","""event"",""trial"",""time""
""blur"",""65"",""811527""
""blur"",""99"",""1485728""
""blur"",""102"",""1571717""
""blur"",""102"",""1625046""
","""event"",""trial"",""time""
""focus"",""66"",""815176""
""focus"",""102"",""1565792""
""focus"",""102"",""1575583""
""focus"",""102"",""1631224""
","""event"",""trial"",""time""
""fullscreenenter"",""1"",""1536""
","""event"",""trial"",""time""
""fullscreenexit"",""99"",""1484196""
","","[{""page_index"":0,""viewing_time"":6235.400000095367}]","6235.5","","","","","","","","","","","","","","","","","","","","","","","",""
"pit-comprehension","109","1688901","0.0-2.0-23.0-0.0","battery-v0.2","","""event"",""trial"",""time""
""fullscreenenter"",""1"",""1536""
""blur"",""65"",""811527""
""focus"",""66"",""815176""
""fullscreenexit"",""99"",""1484196""
""blur"",""99"",""1485728""
""focus"",""102"",""1565792""
""blur"",""102"",""1571717""
""focus"",""102"",""1575583""
""blur"",""102"",""1625046""
""focus"",""102"",""1631224""
","""event"",""trial"",""time""
""blur"",""65"",""811527""
""blur"",""99"",""1485728""
""blur"",""102"",""1571717""
""blur"",""102"",""1625046""
","""event"",""trial"",""time""
""focus"",""66"",""815176""
""focus"",""102"",""1565792""
""focus"",""102"",""1575583""
""focus"",""102"",""1631224""
","""event"",""trial"",""time""
""fullscreenenter"",""1"",""1536""
","""event"",""trial"",""time""
""fullscreenexit"",""99"",""1484196""
","","","10225.599999904633","[""False""]","1","22","9970","4666","","","","","","","","","","","","","","","","","","",""
"pit-instructions","110","1696383","0.0-2.0-23.0-1.0","battery-v0.2","","""event"",""trial"",""time""
""fullscreenenter"",""1"",""1536""
""blur"",""65"",""811527""
""focus"",""66"",""815176""
""fullscreenexit"",""99"",""1484196""
""blur"",""99"",""1485728""
""focus"",""102"",""1565792""
""blur"",""102"",""1571717""
""focus"",""102"",""1575583""
""blur"",""102"",""1625046""
""focus"",""102"",""1631224""
","""event"",""trial"",""time""
""blur"",""65"",""811527""
""blur"",""99"",""1485728""
""blur"",""102"",""1571717""
""blur"",""102"",""1625046""
","""event"",""trial"",""time""
""focus"",""66"",""815176""
""focus"",""102"",""1565792""
""focus"",""102"",""1575583""
""focus"",""102"",""1631224""
","""event"",""trial"",""time""
""fullscreenenter"",""1"",""1536""
","""event"",""trial"",""time""
""fullscreenexit"",""99"",""1484196""
","","[{""page_index"":0,""viewing_time"":7467.5}]","7467.599999904633","","","","","","","","","","","","","","","","","","","","","","","",""
"pit-instructions","111","1698424","0.0-2.0-23.0-2.0-0.0","battery-v0.2","","""event"",""trial"",""time""
""fullscreenenter"",""1"",""1536""
""blur"",""65"",""811527""
""focus"",""66"",""815176""
""fullscreenexit"",""99"",""1484196""
""blur"",""99"",""1485728""
""focus"",""102"",""1565792""
""blur"",""102"",""1571717""
""focus"",""102"",""1575583""
""blur"",""102"",""1625046""
""focus"",""102"",""1631224""
","""event"",""trial"",""time""
""blur"",""65"",""811527""
""blur"",""99"",""1485728""
""blur"",""102"",""1571717""
""blur"",""102"",""1625046""
","""event"",""trial"",""time""
""focus"",""66"",""815176""
""focus"",""102"",""1565792""
""focus"",""102"",""1575583""
""focus"",""102"",""1631224""
","""event"",""trial"",""time""
""fullscreenenter"",""1"",""1536""
","""event"",""trial"",""time""
""fullscreenexit"",""99"",""1484196""
","","[{""page_index"":0,""viewing_time"":2039.5999999046326}]","2039.7000000476837","","","","","","","","","","","","","","","","","","","","","","","",""
"pit-comprehension","112","1707409","0.0-2.0-23.1-0.1","battery-v0.2","","""event"",""trial"",""time""
""fullscreenenter"",""1"",""1536""
""blur"",""65"",""811527""
""focus"",""66"",""815176""
""fullscreenexit"",""99"",""1484196""
""blur"",""99"",""1485728""
""focus"",""102"",""1565792""
""blur"",""102"",""1571717""
""focus"",""102"",""1575583""
""blur"",""102"",""1625046""
""focus"",""102"",""1631224""
","""event"",""trial"",""time""
""blur"",""65"",""811527""
""blur"",""99"",""1485728""
""blur"",""102"",""1571717""
""blur"",""102"",""1625046""
","""event"",""trial"",""time""
""focus"",""66"",""815176""
""focus"",""102"",""1565792""
""focus"",""102"",""1575583""
""focus"",""102"",""1631224""
","""event"",""trial"",""time""
""fullscreenenter"",""1"",""1536""
","""event"",""trial"",""time""
""fullscreenexit"",""99"",""1484196""
","","","8984.600000143051","[""True""]","0","22","9970","4666","","","","","","","","","","","","","","","","","","",""
"pit-instructions","113","1709303","0.0-2.0-23.1-1.1","battery-v0.2","","""event"",""trial"",""time""
""fullscreenenter"",""1"",""1536""
""blur"",""65"",""811527""
""focus"",""66"",""815176""
""fullscreenexit"",""99"",""1484196""
""blur"",""99"",""1485728""
""focus"",""102"",""1565792""
""blur"",""102"",""1571717""
""focus"",""102"",""1575583""
""blur"",""102"",""1625046""
""focus"",""102"",""1631224""
","""event"",""trial"",""time""
""blur"",""65"",""811527""
""blur"",""99"",""1485728""
""blur"",""102"",""1571717""
""blur"",""102"",""1625046""
","""event"",""trial"",""time""
""focus"",""66"",""815176""
""focus"",""102"",""1565792""
""focus"",""102"",""1575583""
""focus"",""102"",""1631224""
","""event"",""trial"",""time""
""fullscreenenter"",""1"",""1536""
","""event"",""trial"",""time""
""fullscreenexit"",""99"",""1484196""
","","[{""page_index"":0,""viewing_time"":1878.1000001430511}]","1878.3000001907349","","","","","","","","","","","","","","","","","","","","","","","",""
"pit-comprehension","114","1717276","0.0-2.0-24.0-0.0","battery-v0.2","","""event"",""trial"",""time""
""fullscreenenter"",""1"",""1536""
""blur"",""65"",""811527""
""focus"",""66"",""815176""
""fullscreenexit"",""99"",""1484196""
""blur"",""99"",""1485728""
""focus"",""102"",""1565792""
""blur"",""102"",""1571717""
""focus"",""102"",""1575583""
""blur"",""102"",""1625046""
""focus"",""102"",""1631224""
","""event"",""trial"",""time""
""blur"",""65"",""811527""
""blur"",""99"",""1485728""
""blur"",""102"",""1571717""
""blur"",""102"",""1625046""
","""event"",""trial"",""time""
""focus"",""66"",""815176""
""focus"",""102"",""1565792""
""focus"",""102"",""1575583""
""focus"",""102"",""1631224""
","""event"",""trial"",""time""
""fullscreenenter"",""1"",""1536""
","""event"",""trial"",""time""
""fullscreenexit"",""99"",""1484196""
","","","7971.400000095367","[""True""]","0","22","9970","4666","","","","","","","","","","","","","","","","","","",""
"pit-instructions","115","1720119","0.0-2.0-24.0-1.0","battery-v0.2","","""event"",""trial"",""time""
""fullscreenenter"",""1"",""1536""
""blur"",""65"",""811527""
""focus"",""66"",""815176""
""fullscreenexit"",""99"",""1484196""
""blur"",""99"",""1485728""
""focus"",""102"",""1565792""
""blur"",""102"",""1571717""
""focus"",""102"",""1575583""
""blur"",""102"",""1625046""
""focus"",""102"",""1631224""
","""event"",""trial"",""time""
""blur"",""65"",""811527""
""blur"",""99"",""1485728""
""blur"",""102"",""1571717""
""blur"",""102"",""1625046""
","""event"",""trial"",""time""
""focus"",""66"",""815176""
""focus"",""102"",""1565792""
""focus"",""102"",""1575583""
""focus"",""102"",""1631224""
","""event"",""trial"",""time""
""fullscreenenter"",""1"",""1536""
","""event"",""trial"",""time""
""fullscreenexit"",""99"",""1484196""
","","[{""page_index"":0,""viewing_time"":2828}]","2828.2000000476837","","","","","","","","","","","","","","","","","","","","","","","",""
"pit-comprehension","116","1726750","0.0-2.0-25.0-0.0","battery-v0.2","","""event"",""trial"",""time""
""fullscreenenter"",""1"",""1536""
""blur"",""65"",""811527""
""focus"",""66"",""815176""
""fullscreenexit"",""99"",""1484196""
""blur"",""99"",""1485728""
""focus"",""102"",""1565792""
""blur"",""102"",""1571717""
""focus"",""102"",""1575583""
""blur"",""102"",""1625046""
""focus"",""102"",""1631224""
","""event"",""trial"",""time""
""blur"",""65"",""811527""
""blur"",""99"",""1485728""
""blur"",""102"",""1571717""
""blur"",""102"",""1625046""
","""event"",""trial"",""time""
""focus"",""66"",""815176""
""focus"",""102"",""1565792""
""focus"",""102"",""1575583""
""focus"",""102"",""1631224""
","""event"",""trial"",""time""
""fullscreenenter"",""1"",""1536""
","""event"",""trial"",""time""
""fullscreenexit"",""99"",""1484196""
","","","6630","[""True""]","0","22","9970","4666","","","","","","","","","","","","","","","","","","",""
"pit-instructions","117","1728069","0.0-2.0-25.0-1.0","battery-v0.2","","""event"",""trial"",""time""
""fullscreenenter"",""1"",""1536""
""blur"",""65"",""811527""
""focus"",""66"",""815176""
""fullscreenexit"",""99"",""1484196""
""blur"",""99"",""1485728""
""focus"",""102"",""1565792""
""blur"",""102"",""1571717""
""focus"",""102"",""1575583""
""blur"",""102"",""1625046""
""focus"",""102"",""1631224""
","""event"",""trial"",""time""
""blur"",""65"",""811527""
""blur"",""99"",""1485728""
""blur"",""102"",""1571717""
""blur"",""102"",""1625046""
","""event"",""trial"",""time""
""focus"",""66"",""815176""
""focus"",""102"",""1565792""
""focus"",""102"",""1575583""
""focus"",""102"",""1631224""
","""event"",""trial"",""time""
""fullscreenenter"",""1"",""1536""
","""event"",""trial"",""time""
""fullscreenexit"",""99"",""1484196""
","","[{""page_index"":0,""viewing_time"":1302.5}]","1302.6000001430511","","","","","","","","","","","","","","","","","","","","","","","",""
"pit-comprehension","118","1735317","0.0-2.0-26.0-0.0","battery-v0.2","","""event"",""trial"",""time""
""fullscreenenter"",""1"",""1536""
""blur"",""65"",""811527""
""focus"",""66"",""815176""
""fullscreenexit"",""99"",""1484196""
""blur"",""99"",""1485728""
""focus"",""102"",""1565792""
""blur"",""102"",""1571717""
""focus"",""102"",""1575583""
""blur"",""102"",""1625046""
""focus"",""102"",""1631224""
","""event"",""trial"",""time""
""blur"",""65"",""811527""
""blur"",""99"",""1485728""
""blur"",""102"",""1571717""
""blur"",""102"",""1625046""
","""event"",""trial"",""time""
""focus"",""66"",""815176""
""focus"",""102"",""1565792""
""focus"",""102"",""1575583""
""focus"",""102"",""1631224""
","""event"",""trial"",""time""
""fullscreenenter"",""1"",""1536""
","""event"",""trial"",""time""
""fullscreenexit"",""99"",""1484196""
","","","7237.299999952316","[""True""]","1","22","9970","4666","","","","","","","","","","","","","","","","","","",""
"pit-instructions","119","1741149","0.0-2.0-26.0-1.0","battery-v0.2","","""event"",""trial"",""time""
""fullscreenenter"",""1"",""1536""
""blur"",""65"",""811527""
""focus"",""66"",""815176""
""fullscreenexit"",""99"",""1484196""
""blur"",""99"",""1485728""
""focus"",""102"",""1565792""
""blur"",""102"",""1571717""
""focus"",""102"",""1575583""
""blur"",""102"",""1625046""
""focus"",""102"",""1631224""
","""event"",""trial"",""time""
""blur"",""65"",""811527""
""blur"",""99"",""1485728""
""blur"",""102"",""1571717""
""blur"",""102"",""1625046""
","""event"",""trial"",""time""
""focus"",""66"",""815176""
""focus"",""102"",""1565792""
""focus"",""102"",""1575583""
""focus"",""102"",""1631224""
","""event"",""trial"",""time""
""fullscreenenter"",""1"",""1536""
","""event"",""trial"",""time""
""fullscreenexit"",""99"",""1484196""
","","[{""page_index"":0,""viewing_time"":5806.299999952316}]","5806.299999952316","","","","","","","","","","","","","","","","","","","","","","","",""
"pit-instructions","120","1742227","0.0-2.0-26.0-2.0-0.0","battery-v0.2","","""event"",""trial"",""time""
""fullscreenenter"",""1"",""1536""
""blur"",""65"",""811527""
""focus"",""66"",""815176""
""fullscreenexit"",""99"",""1484196""
""blur"",""99"",""1485728""
""focus"",""102"",""1565792""
""blur"",""102"",""1571717""
""focus"",""102"",""1575583""
""blur"",""102"",""1625046""
""focus"",""102"",""1631224""
","""event"",""trial"",""time""
""blur"",""65"",""811527""
""blur"",""99"",""1485728""
""blur"",""102"",""1571717""
""blur"",""102"",""1625046""
","""event"",""trial"",""time""
""focus"",""66"",""815176""
""focus"",""102"",""1565792""
""focus"",""102"",""1575583""
""focus"",""102"",""1631224""
","""event"",""trial"",""time""
""fullscreenenter"",""1"",""1536""
","""event"",""trial"",""time""
""fullscreenexit"",""99"",""1484196""
","","[{""page_index"":0,""viewing_time"":1076.4000000953674}]","1076.5","","","","","","","","","","","","","","","","","","","","","","","",""
"pit-comprehension","121","1747366","0.0-2.0-26.1-0.1","battery-v0.2","","""event"",""trial"",""time""
""fullscreenenter"",""1"",""1536""
""blur"",""65"",""811527""
""focus"",""66"",""815176""
""fullscreenexit"",""99"",""1484196""
""blur"",""99"",""1485728""
""focus"",""102"",""1565792""
""blur"",""102"",""1571717""
""focus"",""102"",""1575583""
""blur"",""102"",""1625046""
""focus"",""102"",""1631224""
","""event"",""trial"",""time""
""blur"",""65"",""811527""
""blur"",""99"",""1485728""
""blur"",""102"",""1571717""
""blur"",""102"",""1625046""
","""event"",""trial"",""time""
""focus"",""66"",""815176""
""focus"",""102"",""1565792""
""focus"",""102"",""1575583""
""focus"",""102"",""1631224""
","""event"",""trial"",""time""
""fullscreenenter"",""1"",""1536""
","""event"",""trial"",""time""
""fullscreenexit"",""99"",""1484196""
","","","5132.699999809265","[""False""]","0","22","9970","4666","","","","","","","","","","","","","","","","","","",""
"pit-instructions","122","1749351","0.0-2.0-26.1-1.1","battery-v0.2","","""event"",""trial"",""time""
""fullscreenenter"",""1"",""1536""
""blur"",""65"",""811527""
""focus"",""66"",""815176""
""fullscreenexit"",""99"",""1484196""
""blur"",""99"",""1485728""
""focus"",""102"",""1565792""
""blur"",""102"",""1571717""
""focus"",""102"",""1575583""
""blur"",""102"",""1625046""
""focus"",""102"",""1631224""
","""event"",""trial"",""time""
""blur"",""65"",""811527""
""blur"",""99"",""1485728""
""blur"",""102"",""1571717""
""blur"",""102"",""1625046""
","""event"",""trial"",""time""
""focus"",""66"",""815176""
""focus"",""102"",""1565792""
""focus"",""102"",""1575583""
""focus"",""102"",""1631224""
","""event"",""trial"",""time""
""fullscreenenter"",""1"",""1536""
","""event"",""trial"",""time""
""fullscreenexit"",""99"",""1484196""
","","[{""page_index"":0,""viewing_time"":1967}]","1967.0999999046326","","","","","","","","","","","","","","","","","","","","","","","",""
"pit-instructions","123","1766776","0.0-3.0","battery-v0.2","","""event"",""trial"",""time""
""fullscreenenter"",""1"",""1536""
""blur"",""65"",""811527""
""focus"",""66"",""815176""
""fullscreenexit"",""99"",""1484196""
""blur"",""99"",""1485728""
""focus"",""102"",""1565792""
""blur"",""102"",""1571717""
""focus"",""102"",""1575583""
""blur"",""102"",""1625046""
""focus"",""102"",""1631224""
","""event"",""trial"",""time""
""blur"",""65"",""811527""
""blur"",""99"",""1485728""
""blur"",""102"",""1571717""
""blur"",""102"",""1625046""
","""event"",""trial"",""time""
""focus"",""66"",""815176""
""focus"",""102"",""1565792""
""focus"",""102"",""1575583""
""focus"",""102"",""1631224""
","""event"",""trial"",""time""
""fullscreenenter"",""1"",""1536""
","""event"",""trial"",""time""
""fullscreenexit"",""99"",""1484196""
","","[{""page_index"":0,""viewing_time"":4274.700000047684},{""page_index"":1,""viewing_time"":5256.5},{""page_index"":2,""viewing_time"":7886.5}]","17417.800000190735","","","","","","","","","","","","","","","","","","","","","","","",""
"pit-trial","124","1770638","0.0-4.0","battery-v0.2","","""event"",""trial"",""time""
""fullscreenenter"",""1"",""1536""
""blur"",""65"",""811527""
""focus"",""66"",""815176""
""fullscreenexit"",""99"",""1484196""
""blur"",""99"",""1485728""
""focus"",""102"",""1565792""
""blur"",""102"",""1571717""
""focus"",""102"",""1575583""
""blur"",""102"",""1625046""
""focus"",""102"",""1631224""
","""event"",""trial"",""time""
""blur"",""65"",""811527""
""blur"",""99"",""1485728""
""blur"",""102"",""1571717""
""blur"",""102"",""1625046""
","""event"",""trial"",""time""
""focus"",""66"",""815176""
""focus"",""102"",""1565792""
""focus"",""102"",""1575583""
""focus"",""102"",""1631224""
","""event"",""trial"",""time""
""fullscreenenter"",""1"",""1536""
","""event"",""trial"",""time""
""fullscreenexit"",""99"",""1484196""
","","","995.4000000953674","","","22","9970","4666","&#9733;","elianto","#3366ff99","-1"," ","0","0","[1852.6000001430511]","1","1","","","9970","1","2","2","win","no-go","0"
"pit-trial","125","1774289","0.0-5.0","battery-v0.2","","""event"",""trial"",""time""
""fullscreenenter"",""1"",""1536""
""blur"",""65"",""811527""
""focus"",""66"",""815176""
""fullscreenexit"",""99"",""1484196""
""blur"",""99"",""1485728""
""focus"",""102"",""1565792""
""blur"",""102"",""1571717""
""focus"",""102"",""1575583""
""blur"",""102"",""1625046""
""focus"",""102"",""1631224""
","""event"",""trial"",""time""
""blur"",""65"",""811527""
""blur"",""99"",""1485728""
""blur"",""102"",""1571717""
""blur"",""102"",""1625046""
","""event"",""trial"",""time""
""focus"",""66"",""815176""
""focus"",""102"",""1565792""
""focus"",""102"",""1575583""
""focus"",""102"",""1631224""
","""event"",""trial"",""time""
""fullscreenenter"",""1"",""1536""
","""event"",""trial"",""time""
""fullscreenexit"",""99"",""1484196""
","","","777.7000000476837","","","22","9970","4666","&#9752;","elianto","#f73b6a7A"," "," ","1","-10","[1639.4000000953674]","1","1","","","9970","2","3","3","lose","go","1"
"pit-trial","126","1777593","0.0-6.0","battery-v0.2","","""event"",""trial"",""time""
""fullscreenenter"",""1"",""1536""
""blur"",""65"",""811527""
""focus"",""66"",""815176""
""fullscreenexit"",""99"",""1484196""
""blur"",""99"",""1485728""
""focus"",""102"",""1565792""
""blur"",""102"",""1571717""
""focus"",""102"",""1575583""
""blur"",""102"",""1625046""
""focus"",""102"",""1631224""
","""event"",""trial"",""time""
""blur"",""65"",""811527""
""blur"",""99"",""1485728""
""blur"",""102"",""1571717""
""blur"",""102"",""1625046""
","""event"",""trial"",""time""
""focus"",""66"",""815176""
""focus"",""102"",""1565792""
""focus"",""102"",""1575583""
""focus"",""102"",""1631224""
","""event"",""trial"",""time""
""fullscreenenter"",""1"",""1536""
","""event"",""trial"",""time""
""fullscreenexit"",""99"",""1484196""
","","","432.2999999523163","","","22","9970","4666","&#9730;","elianto","#3366ff99"," "," ","1","+10","[1289.2999999523163]","1","1","","","9970","3","1","1","win","go","0"
"pit-trial","127","1782462","0.0-7.0","battery-v0.2","","""event"",""trial"",""time""
""fullscreenenter"",""1"",""1536""
""blur"",""65"",""811527""
""focus"",""66"",""815176""
""fullscreenexit"",""99"",""1484196""
""blur"",""99"",""1485728""
""focus"",""102"",""1565792""
""blur"",""102"",""1571717""
""focus"",""102"",""1575583""
""blur"",""102"",""1625046""
""focus"",""102"",""1631224""
","""event"",""trial"",""time""
""blur"",""65"",""811527""
""blur"",""99"",""1485728""
""blur"",""102"",""1571717""
""blur"",""102"",""1625046""
","""event"",""trial"",""time""
""focus"",""66"",""815176""
""focus"",""102"",""1565792""
""focus"",""102"",""1575583""
""focus"",""102"",""1631224""
","""event"",""trial"",""time""
""fullscreenenter"",""1"",""1536""
","""event"",""trial"",""time""
""fullscreenexit"",""99"",""1484196""
","","","-1","","","22","9970","4666","&#9728;","elianto","#f73b6a7A","-1","-1","1","0","[]","0","1","","","9970","4","0","4","lose","no-go","0"
"pit-trial","128","1787327","0.0-8.0","battery-v0.2","","""event"",""trial"",""time""
""fullscreenenter"",""1"",""1536""
""blur"",""65"",""811527""
""focus"",""66"",""815176""
""fullscreenexit"",""99"",""1484196""
""blur"",""99"",""1485728""
""focus"",""102"",""1565792""
""blur"",""102"",""1571717""
""focus"",""102"",""1575583""
""blur"",""102"",""1625046""
""focus"",""102"",""1631224""
","""event"",""trial"",""time""
""blur"",""65"",""811527""
""blur"",""99"",""1485728""
""blur"",""102"",""1571717""
""blur"",""102"",""1625046""
","""event"",""trial"",""time""
""focus"",""66"",""815176""
""focus"",""102"",""1565792""
""focus"",""102"",""1575583""
""focus"",""102"",""1631224""
","""event"",""trial"",""time""
""fullscreenenter"",""1"",""1536""
","""event"",""trial"",""time""
""fullscreenexit"",""99"",""1484196""
","","","-1","","","22","9970","4666","&#9728;","elianto","#f73b6a7A","-1","-1","1","0","[]","0","1","","","9970","5","0","4","lose","no-go","0"
"pit-trial","129","1792190","0.0-9.0","battery-v0.2","","""event"",""trial"",""time""
""fullscreenenter"",""1"",""1536""
""blur"",""65"",""811527""
""focus"",""66"",""815176""
""fullscreenexit"",""99"",""1484196""
""blur"",""99"",""1485728""
""focus"",""102"",""1565792""
""blur"",""102"",""1571717""
""focus"",""102"",""1575583""
""blur"",""102"",""1625046""
""focus"",""102"",""1631224""
","""event"",""trial"",""time""
""blur"",""65"",""811527""
""blur"",""99"",""1485728""
""blur"",""102"",""1571717""
""blur"",""102"",""1625046""
","""event"",""trial"",""time""
""focus"",""66"",""815176""
""focus"",""102"",""1565792""
""focus"",""102"",""1575583""
""focus"",""102"",""1631224""
","""event"",""trial"",""time""
""fullscreenenter"",""1"",""1536""
","""event"",""trial"",""time""
""fullscreenexit"",""99"",""1484196""
","","","-1","","","22","9970","4666","&#9752;","elianto","#f73b6a7A"," ","-1","0","0","[]","0","1","","","9970","6","3","3","lose","go","1"
"pit-trial","130","1795522","0.0-10.0","battery-v0.2","","""event"",""trial"",""time""
""fullscreenenter"",""1"",""1536""
""blur"",""65"",""811527""
""focus"",""66"",""815176""
""fullscreenexit"",""99"",""1484196""
""blur"",""99"",""1485728""
""focus"",""102"",""1565792""
""blur"",""102"",""1571717""
""focus"",""102"",""1575583""
""blur"",""102"",""1625046""
""focus"",""102"",""1631224""
","""event"",""trial"",""time""
""blur"",""65"",""811527""
""blur"",""99"",""1485728""
""blur"",""102"",""1571717""
""blur"",""102"",""1625046""
","""event"",""trial"",""time""
""focus"",""66"",""815176""
""focus"",""102"",""1565792""
""focus"",""102"",""1575583""
""focus"",""102"",""1631224""
","""event"",""trial"",""time""
""fullscreenenter"",""1"",""1536""
","""event"",""trial"",""time""
""fullscreenexit"",""99"",""1484196""
","","","473.30000019073486","","","22","9970","4666","&#9733;","elianto","#3366ff99","-1"," ","0","0","[1323.8999998569489]","1","1","","","9970","7","2","2","win","no-go","0"
"pit-trial","131","1798926","0.0-11.0","battery-v0.2","","""event"",""trial"",""time""
""fullscreenenter"",""1"",""1536""
""blur"",""65"",""811527""
""focus"",""66"",""815176""
""fullscreenexit"",""99"",""1484196""
""blur"",""99"",""1485728""
""focus"",""102"",""1565792""
""blur"",""102"",""1571717""
""focus"",""102"",""1575583""
""blur"",""102"",""1625046""
""focus"",""102"",""1631224""
","""event"",""trial"",""time""
""blur"",""65"",""811527""
""blur"",""99"",""1485728""
""blur"",""102"",""1571717""
""blur"",""102"",""1625046""
","""event"",""trial"",""time""
""focus"",""66"",""815176""
""focus"",""102"",""1565792""
""focus"",""102"",""1575583""
""focus"",""102"",""1631224""
","""event"",""trial"",""time""
""fullscreenenter"",""1"",""1536""
","""event"",""trial"",""time""
""fullscreenexit"",""99"",""1484196""
","","","539.2000000476837","","","22","9970","4666","&#9730;","elianto","#3366ff99"," "," ","1","0","[1394.6000001430511]","1","1","","","9970","8","1","1","win","go","1"
"pit-trial","132","1802361","0.0-12.0","battery-v0.2","","""event"",""trial"",""time""
""fullscreenenter"",""1"",""1536""
""blur"",""65"",""811527""
""focus"",""66"",""815176""
""fullscreenexit"",""99"",""1484196""
""blur"",""99"",""1485728""
""focus"",""102"",""1565792""
""blur"",""102"",""1571717""
""focus"",""102"",""1575583""
""blur"",""102"",""1625046""
""focus"",""102"",""1631224""
","""event"",""trial"",""time""
""blur"",""65"",""811527""
""blur"",""99"",""1485728""
""blur"",""102"",""1571717""
""blur"",""102"",""1625046""
","""event"",""trial"",""time""
""focus"",""66"",""815176""
""focus"",""102"",""1565792""
""focus"",""102"",""1575583""
""focus"",""102"",""1631224""
","""event"",""trial"",""time""
""fullscreenenter"",""1"",""1536""
","""event"",""trial"",""time""
""fullscreenexit"",""99"",""1484196""
","","","569.6999998092651","","","22","9970","4666","&#9728;","elianto","#f73b6a7A","-1"," ","0","-10","[1424.4000000953674]","1","1","","","9970","9","0","4","lose","no-go","0"
"pit-trial","133","1805662","0.0-13.0","battery-v0.2","","""event"",""trial"",""time""
""fullscreenenter"",""1"",""1536""
""blur"",""65"",""811527""
""focus"",""66"",""815176""
""fullscreenexit"",""99"",""1484196""
""blur"",""99"",""1485728""
""focus"",""102"",""1565792""
""blur"",""102"",""1571717""
""focus"",""102"",""1575583""
""blur"",""102"",""1625046""
""focus"",""102"",""1631224""
","""event"",""trial"",""time""
""blur"",""65"",""811527""
""blur"",""99"",""1485728""
""blur"",""102"",""1571717""
""blur"",""102"",""1625046""
","""event"",""trial"",""time""
""focus"",""66"",""815176""
""focus"",""102"",""1565792""
""focus"",""102"",""1575583""
""focus"",""102"",""1631224""
","""event"",""trial"",""time""
""fullscreenenter"",""1"",""1536""
","""event"",""trial"",""time""
""fullscreenexit"",""99"",""1484196""
","","","432.19999980926514","","","22","9970","4666","&#9733;","elianto","#3366ff99","-1"," ","0","0","[1292]","1","1","","","9970","10","2","2","win","no-go","0"
"pit-trial","134","1808985","0.0-14.0","battery-v0.2","","""event"",""trial"",""time""
""fullscreenenter"",""1"",""1536""
""blur"",""65"",""811527""
""focus"",""66"",""815176""
""fullscreenexit"",""99"",""1484196""
""blur"",""99"",""1485728""
""focus"",""102"",""1565792""
""blur"",""102"",""1571717""
""focus"",""102"",""1575583""
""blur"",""102"",""1625046""
""focus"",""102"",""1631224""
","""event"",""trial"",""time""
""blur"",""65"",""811527""
""blur"",""99"",""1485728""
""blur"",""102"",""1571717""
""blur"",""102"",""1625046""
","""event"",""trial"",""time""
""focus"",""66"",""815176""
""focus"",""102"",""1565792""
""focus"",""102"",""1575583""
""focus"",""102"",""1631224""
","""event"",""trial"",""time""
""fullscreenenter"",""1"",""1536""
","""event"",""trial"",""time""
""fullscreenexit"",""99"",""1484196""
","","","457.59999990463257","","","22","9970","4666","&#9730;","elianto","#3366ff99"," "," ","1","+10","[1313.2999999523163]","1","1","","","9970","11","1","1","win","go","0"
"pit-trial","135","1813854","0.0-15.0","battery-v0.2","","""event"",""trial"",""time""
""fullscreenenter"",""1"",""1536""
""blur"",""65"",""811527""
""focus"",""66"",""815176""
""fullscreenexit"",""99"",""1484196""
""blur"",""99"",""1485728""
""focus"",""102"",""1565792""
""blur"",""102"",""1571717""
""focus"",""102"",""1575583""
""blur"",""102"",""1625046""
""focus"",""102"",""1631224""
","""event"",""trial"",""time""
""blur"",""65"",""811527""
""blur"",""99"",""1485728""
""blur"",""102"",""1571717""
""blur"",""102"",""1625046""
","""event"",""trial"",""time""
""focus"",""66"",""815176""
""focus"",""102"",""1565792""
""focus"",""102"",""1575583""
""focus"",""102"",""1631224""
","""event"",""trial"",""time""
""fullscreenenter"",""1"",""1536""
","""event"",""trial"",""time""
""fullscreenexit"",""99"",""1484196""
","","","-1","","","22","9970","4666","&#9752;","elianto","#f73b6a7A"," ","-1","0","-10","[]","0","1","","","9970","12","3","3","lose","go","0"
"pit-trial","136","1818718","0.0-16.0","battery-v0.2","","""event"",""trial"",""time""
""fullscreenenter"",""1"",""1536""
""blur"",""65"",""811527""
""focus"",""66"",""815176""
""fullscreenexit"",""99"",""1484196""
""blur"",""99"",""1485728""
""focus"",""102"",""1565792""
""blur"",""102"",""1571717""
""focus"",""102"",""1575583""
""blur"",""102"",""1625046""
""focus"",""102"",""1631224""
","""event"",""trial"",""time""
""blur"",""65"",""811527""
""blur"",""99"",""1485728""
""blur"",""102"",""1571717""
""blur"",""102"",""1625046""
","""event"",""trial"",""time""
""focus"",""66"",""815176""
""focus"",""102"",""1565792""
""focus"",""102"",""1575583""
""focus"",""102"",""1631224""
","""event"",""trial"",""time""
""fullscreenenter"",""1"",""1536""
","""event"",""trial"",""time""
""fullscreenexit"",""99"",""1484196""
","","","-1","","","22","9970","4666","&#9728;","elianto","#f73b6a7A","-1","-1","1","-10","[]","0","1","","","9970","13","0","4","lose","no-go","1"
"pit-trial","137","1823582","0.0-17.0","battery-v0.2","","""event"",""trial"",""time""
""fullscreenenter"",""1"",""1536""
""blur"",""65"",""811527""
""focus"",""66"",""815176""
""fullscreenexit"",""99"",""1484196""
""blur"",""99"",""1485728""
""focus"",""102"",""1565792""
""blur"",""102"",""1571717""
""focus"",""102"",""1575583""
""blur"",""102"",""1625046""
""focus"",""102"",""1631224""
","""event"",""trial"",""time""
""blur"",""65"",""811527""
""blur"",""99"",""1485728""
""blur"",""102"",""1571717""
""blur"",""102"",""1625046""
","""event"",""trial"",""time""
""focus"",""66"",""815176""
""focus"",""102"",""1565792""
""focus"",""102"",""1575583""
""focus"",""102"",""1631224""
","""event"",""trial"",""time""
""fullscreenenter"",""1"",""1536""
","""event"",""trial"",""time""
""fullscreenexit"",""99"",""1484196""
","","","-1","","","22","9970","4666","&#9752;","elianto","#f73b6a7A"," ","-1","0","-10","[]","0","1","","","9970","14","3","3","lose","go","0"
"pit-trial","138","1826610","0.0-18.0","battery-v0.2","","""event"",""trial"",""time""
""fullscreenenter"",""1"",""1536""
""blur"",""65"",""811527""
""focus"",""66"",""815176""
""fullscreenexit"",""99"",""1484196""
""blur"",""99"",""1485728""
""focus"",""102"",""1565792""
""blur"",""102"",""1571717""
""focus"",""102"",""1575583""
""blur"",""102"",""1625046""
""focus"",""102"",""1631224""
","""event"",""trial"",""time""
""blur"",""65"",""811527""
""blur"",""99"",""1485728""
""blur"",""102"",""1571717""
""blur"",""102"",""1625046""
","""event"",""trial"",""time""
""focus"",""66"",""815176""
""focus"",""102"",""1565792""
""focus"",""102"",""1575583""
""focus"",""102"",""1631224""
","""event"",""trial"",""time""
""fullscreenenter"",""1"",""1536""
","""event"",""trial"",""time""
""fullscreenexit"",""99"",""1484196""
","","","156.10000014305115","","","22","9970","4666","&#9733;","elianto","#3366ff99","-1"," ","0","0","[1011.8000001907349]","1","1","","","9970","15","2","2","win","no-go","0"
"pit-trial","139","1830446","0.0-19.0","battery-v0.2","","""event"",""trial"",""time""
""fullscreenenter"",""1"",""1536""
""blur"",""65"",""811527""
""focus"",""66"",""815176""
""fullscreenexit"",""99"",""1484196""
""blur"",""99"",""1485728""
""focus"",""102"",""1565792""
""blur"",""102"",""1571717""
""focus"",""102"",""1575583""
""blur"",""102"",""1625046""
""focus"",""102"",""1631224""
","""event"",""trial"",""time""
""blur"",""65"",""811527""
""blur"",""99"",""1485728""
""blur"",""102"",""1571717""
""blur"",""102"",""1625046""
","""event"",""trial"",""time""
""focus"",""66"",""815176""
""focus"",""102"",""1565792""
""focus"",""102"",""1575583""
""focus"",""102"",""1631224""
","""event"",""trial"",""time""
""fullscreenenter"",""1"",""1536""
","""event"",""trial"",""time""
""fullscreenexit"",""99"",""1484196""
","","","969.3000001907349","","","22","9970","4666","&#9730;","elianto","#3366ff99"," "," ","1","+10","[1828.8000001907349]","1","1","","","9970","16","1","1","win","go","0"
"pit-trial","140","1834078","0.0-20.0","battery-v0.2","","""event"",""trial"",""time""
""fullscreenenter"",""1"",""1536""
""blur"",""65"",""811527""
""focus"",""66"",""815176""
""fullscreenexit"",""99"",""1484196""
""blur"",""99"",""1485728""
""focus"",""102"",""1565792""
""blur"",""102"",""1571717""
""focus"",""102"",""1575583""
""blur"",""102"",""1625046""
""focus"",""102"",""1631224""
","""event"",""trial"",""time""
""blur"",""65"",""811527""
""blur"",""99"",""1485728""
""blur"",""102"",""1571717""
""blur"",""102"",""1625046""
","""event"",""trial"",""time""
""focus"",""66"",""815176""
""focus"",""102"",""1565792""
""focus"",""102"",""1575583""
""focus"",""102"",""1631224""
","""event"",""trial"",""time""
""fullscreenenter"",""1"",""1536""
","""event"",""trial"",""time""
""fullscreenexit"",""99"",""1484196""
","","","765.1999998092651","","","22","9970","4666","&#9730;","elianto","#3366ff99"," "," ","1","+10","[1621.1999998092651]","1","1","","","9970","17","1","1","win","go","0"
"pit-trial","141","1837513","0.0-21.0","battery-v0.2","","""event"",""trial"",""time""
""fullscreenenter"",""1"",""1536""
""blur"",""65"",""811527""
""focus"",""66"",""815176""
""fullscreenexit"",""99"",""1484196""
""blur"",""99"",""1485728""
""focus"",""102"",""1565792""
""blur"",""102"",""1571717""
""focus"",""102"",""1575583""
""blur"",""102"",""1625046""
""focus"",""102"",""1631224""
","""event"",""trial"",""time""
""blur"",""65"",""811527""
""blur"",""99"",""1485728""
""blur"",""102"",""1571717""
""blur"",""102"",""1625046""
","""event"",""trial"",""time""
""focus"",""66"",""815176""
""focus"",""102"",""1565792""
""focus"",""102"",""1575583""
""focus"",""102"",""1631224""
","""event"",""trial"",""time""
""fullscreenenter"",""1"",""1536""
","""event"",""trial"",""time""
""fullscreenexit"",""99"",""1484196""
","","","566.9000000953674","","","22","9970","4666","&#9733;","elianto","#3366ff99","-1"," ","0","0","[1421.6000001430511,2424.2999999523163]","2","1","","","9970","18","2","2","win","no-go","0"
"pit-trial","142","1842382","0.0-22.0","battery-v0.2","","""event"",""trial"",""time""
""fullscreenenter"",""1"",""1536""
""blur"",""65"",""811527""
""focus"",""66"",""815176""
""fullscreenexit"",""99"",""1484196""
""blur"",""99"",""1485728""
""focus"",""102"",""1565792""
""blur"",""102"",""1571717""
""focus"",""102"",""1575583""
""blur"",""102"",""1625046""
""focus"",""102"",""1631224""
","""event"",""trial"",""time""
""blur"",""65"",""811527""
""blur"",""99"",""1485728""
""blur"",""102"",""1571717""
""blur"",""102"",""1625046""
","""event"",""trial"",""time""
""focus"",""66"",""815176""
""focus"",""102"",""1565792""
""focus"",""102"",""1575583""
""focus"",""102"",""1631224""
","""event"",""trial"",""time""
""fullscreenenter"",""1"",""1536""
","""event"",""trial"",""time""
""fullscreenexit"",""99"",""1484196""
","","","-1","","","22","9970","4666","&#9728;","elianto","#f73b6a7A","-1","-1","1","0","[182.79999995231628]","1","1","","","9970","19","0","4","lose","no-go","0"
"pit-trial","143","1847246","0.0-23.0","battery-v0.2","","""event"",""trial"",""time""
""fullscreenenter"",""1"",""1536""
""blur"",""65"",""811527""
""focus"",""66"",""815176""
""fullscreenexit"",""99"",""1484196""
""blur"",""99"",""1485728""
""focus"",""102"",""1565792""
""blur"",""102"",""1571717""
""focus"",""102"",""1575583""
""blur"",""102"",""1625046""
""focus"",""102"",""1631224""
""blur"",""144"",""2042740""
""focus"",""144"",""2073749""
","""event"",""trial"",""time""
""blur"",""65"",""811527""
""blur"",""99"",""1485728""
""blur"",""102"",""1571717""
""blur"",""102"",""1625046""
""blur"",""144"",""2042740""
","""event"",""trial"",""time""
""focus"",""66"",""815176""
""focus"",""102"",""1565792""
""focus"",""102"",""1575583""
""focus"",""102"",""1631224""
""focus"",""144"",""2073749""
","""event"",""trial"",""time""
""fullscreenenter"",""1"",""1536""
","""event"",""trial"",""time""
""fullscreenexit"",""99"",""1484196""
","","","-1","","","22","9970","4666","&#9752;","elianto","#f73b6a7A"," ","-1","0","-10","[]","0","1","","","9970","20","3","3","lose","go","0"
"pit-instructions","144","2121551","0.0-24.0","battery-v0.2","","""event"",""trial"",""time""
""fullscreenenter"",""1"",""1536""
""blur"",""65"",""811527""
""focus"",""66"",""815176""
""fullscreenexit"",""99"",""1484196""
""blur"",""99"",""1485728""
""focus"",""102"",""1565792""
""blur"",""102"",""1571717""
""focus"",""102"",""1575583""
""blur"",""102"",""1625046""
""focus"",""102"",""1631224""
""blur"",""144"",""2042740""
""focus"",""144"",""2073749""
","""event"",""trial"",""time""
""blur"",""65"",""811527""
""blur"",""99"",""1485728""
""blur"",""102"",""1571717""
""blur"",""102"",""1625046""
""blur"",""144"",""2042740""
","""event"",""trial"",""time""
""focus"",""66"",""815176""
""focus"",""102"",""1565792""
""focus"",""102"",""1575583""
""focus"",""102"",""1631224""
""focus"",""144"",""2073749""
","""event"",""trial"",""time""
""fullscreenenter"",""1"",""1536""
","""event"",""trial"",""time""
""fullscreenexit"",""99"",""1484196""
","","[{""page_index"":0,""viewing_time"":266315.5},{""page_index"":1,""viewing_time"":7985.099999904633}]","274300.69999980927","","","","","","","","","","","","","","","","","","","","","","","",""
"pit-trial","145","2126419","0.0-25.0","battery-v0.2","","""event"",""trial"",""time""
""fullscreenenter"",""1"",""1536""
""blur"",""65"",""811527""
""focus"",""66"",""815176""
""fullscreenexit"",""99"",""1484196""
""blur"",""99"",""1485728""
""focus"",""102"",""1565792""
""blur"",""102"",""1571717""
""focus"",""102"",""1575583""
""blur"",""102"",""1625046""
""focus"",""102"",""1631224""
""blur"",""144"",""2042740""
""focus"",""144"",""2073749""
","""event"",""trial"",""time""
""blur"",""65"",""811527""
""blur"",""99"",""1485728""
""blur"",""102"",""1571717""
""blur"",""102"",""1625046""
""blur"",""144"",""2042740""
","""event"",""trial"",""time""
""focus"",""66"",""815176""
""focus"",""102"",""1565792""
""focus"",""102"",""1575583""
""focus"",""102"",""1631224""
""focus"",""144"",""2073749""
","""event"",""trial"",""time""
""fullscreenenter"",""1"",""1536""
","""event"",""trial"",""time""
""fullscreenexit"",""99"",""1484196""
","","","-1","","","22","9970","4666","g","elianto","#f73b6a7A","-1","-1","1","0","[]","0","2","","","9970","21","3","4","lose","no-go","0"
"pit-trial","146","2129719","0.0-26.0","battery-v0.2","","""event"",""trial"",""time""
""fullscreenenter"",""1"",""1536""
""blur"",""65"",""811527""
""focus"",""66"",""815176""
""fullscreenexit"",""99"",""1484196""
""blur"",""99"",""1485728""
""focus"",""102"",""1565792""
""blur"",""102"",""1571717""
""focus"",""102"",""1575583""
""blur"",""102"",""1625046""
""focus"",""102"",""1631224""
""blur"",""144"",""2042740""
""focus"",""144"",""2073749""
","""event"",""trial"",""time""
""blur"",""65"",""811527""
""blur"",""99"",""1485728""
""blur"",""102"",""1571717""
""blur"",""102"",""1625046""
""blur"",""144"",""2042740""
","""event"",""trial"",""time""
""focus"",""66"",""815176""
""focus"",""102"",""1565792""
""focus"",""102"",""1575583""
""focus"",""102"",""1631224""
""focus"",""144"",""2073749""
","""event"",""trial"",""time""
""fullscreenenter"",""1"",""1536""
","""event"",""trial"",""time""
""fullscreenexit"",""99"",""1484196""
","","","438.2000000476837","","","22","9970","4666","l","elianto","#3366ff99","-1"," ","0","0","[1288.2000000476837]","1","2","","","9970","22","1","2","win","no-go","0"
"pit-trial","147","2134586","0.0-27.0","battery-v0.2","","""event"",""trial"",""time""
""fullscreenenter"",""1"",""1536""
""blur"",""65"",""811527""
""focus"",""66"",""815176""
""fullscreenexit"",""99"",""1484196""
""blur"",""99"",""1485728""
""focus"",""102"",""1565792""
""blur"",""102"",""1571717""
""focus"",""102"",""1575583""
""blur"",""102"",""1625046""
""focus"",""102"",""1631224""
""blur"",""144"",""2042740""
""focus"",""144"",""2073749""
","""event"",""trial"",""time""
""blur"",""65"",""811527""
""blur"",""99"",""1485728""
""blur"",""102"",""1571717""
""blur"",""102"",""1625046""
""blur"",""144"",""2042740""
","""event"",""trial"",""time""
""focus"",""66"",""815176""
""focus"",""102"",""1565792""
""focus"",""102"",""1575583""
""focus"",""102"",""1631224""
""focus"",""144"",""2073749""
","""event"",""trial"",""time""
""fullscreenenter"",""1"",""1536""
","""event"",""trial"",""time""
""fullscreenexit"",""99"",""1484196""
","","","-1","","","22","9970","4666","a","elianto","#f73b6a7A"," ","-1","0","-10","[]","0","2","","","9970","23","2","3","lose","go","0"
"pit-trial","148","2139459","0.0-28.0","battery-v0.2","","""event"",""trial"",""time""
""fullscreenenter"",""1"",""1536""
""blur"",""65"",""811527""
""focus"",""66"",""815176""
""fullscreenexit"",""99"",""1484196""
""blur"",""99"",""1485728""
""focus"",""102"",""1565792""
""blur"",""102"",""1571717""
""focus"",""102"",""1575583""
""blur"",""102"",""1625046""
""focus"",""102"",""1631224""
""blur"",""144"",""2042740""
""focus"",""144"",""2073749""
","""event"",""trial"",""time""
""blur"",""65"",""811527""
""blur"",""99"",""1485728""
""blur"",""102"",""1571717""
""blur"",""102"",""1625046""
""blur"",""144"",""2042740""
","""event"",""trial"",""time""
""focus"",""66"",""815176""
""focus"",""102"",""1565792""
""focus"",""102"",""1575583""
""focus"",""102"",""1631224""
""focus"",""144"",""2073749""
","""event"",""trial"",""time""
""fullscreenenter"",""1"",""1536""
","""event"",""trial"",""time""
""fullscreenexit"",""99"",""1484196""
","","","-1","","","22","9970","4666","u","elianto","#f73b6a7A"," ","-1","0","-10","[]","0","2","","","9970","24","0","3","lose","go","0"
"pit-trial","149","2144329","0.0-29.0","battery-v0.2","","""event"",""trial"",""time""
""fullscreenenter"",""1"",""1536""
""blur"",""65"",""811527""
""focus"",""66"",""815176""
""fullscreenexit"",""99"",""1484196""
""blur"",""99"",""1485728""
""focus"",""102"",""1565792""
""blur"",""102"",""1571717""
""focus"",""102"",""1575583""
""blur"",""102"",""1625046""
""focus"",""102"",""1631224""
""blur"",""144"",""2042740""
""focus"",""144"",""2073749""
","""event"",""trial"",""time""
""blur"",""65"",""811527""
""blur"",""99"",""1485728""
""blur"",""102"",""1571717""
""blur"",""102"",""1625046""
""blur"",""144"",""2042740""
","""event"",""trial"",""time""
""focus"",""66"",""815176""
""focus"",""102"",""1565792""
""focus"",""102"",""1575583""
""focus"",""102"",""1631224""
""focus"",""144"",""2073749""
","""event"",""trial"",""time""
""fullscreenenter"",""1"",""1536""
","""event"",""trial"",""time""
""fullscreenexit"",""99"",""1484196""
","","","-1","","","22","9970","4666","a","elianto","#f73b6a7A"," ","-1","0","-10","[]","0","2","","","9970","25","2","3","lose","go","0"
"pit-trial","150","2149203","0.0-30.0","battery-v0.2","","""event"",""trial"",""time""
""fullscreenenter"",""1"",""1536""
""blur"",""65"",""811527""
""focus"",""66"",""815176""
""fullscreenexit"",""99"",""1484196""
""blur"",""99"",""1485728""
""focus"",""102"",""1565792""
""blur"",""102"",""1571717""
""focus"",""102"",""1575583""
""blur"",""102"",""1625046""
""focus"",""102"",""1631224""
""blur"",""144"",""2042740""
""focus"",""144"",""2073749""
","""event"",""trial"",""time""
""blur"",""65"",""811527""
""blur"",""99"",""1485728""
""blur"",""102"",""1571717""
""blur"",""102"",""1625046""
""blur"",""144"",""2042740""
","""event"",""trial"",""time""
""focus"",""66"",""815176""
""focus"",""102"",""1565792""
""focus"",""102"",""1575583""
""focus"",""102"",""1631224""
""focus"",""144"",""2073749""
","""event"",""trial"",""time""
""fullscreenenter"",""1"",""1536""
","""event"",""trial"",""time""
""fullscreenexit"",""99"",""1484196""
","","","-1","","","22","9970","4666","g","elianto","#f73b6a7A","-1","-1","1","0","[]","0","2","","","9970","26","3","4","lose","no-go","0"
"pit-trial","151","2152712","0.0-31.0","battery-v0.2","","""event"",""trial"",""time""
""fullscreenenter"",""1"",""1536""
""blur"",""65"",""811527""
""focus"",""66"",""815176""
""fullscreenexit"",""99"",""1484196""
""blur"",""99"",""1485728""
""focus"",""102"",""1565792""
""blur"",""102"",""1571717""
""focus"",""102"",""1575583""
""blur"",""102"",""1625046""
""focus"",""102"",""1631224""
""blur"",""144"",""2042740""
""focus"",""144"",""2073749""
","""event"",""trial"",""time""
""blur"",""65"",""811527""
""blur"",""99"",""1485728""
""blur"",""102"",""1571717""
""blur"",""102"",""1625046""
""blur"",""144"",""2042740""
","""event"",""trial"",""time""
""focus"",""66"",""815176""
""focus"",""102"",""1565792""
""focus"",""102"",""1575583""
""focus"",""102"",""1631224""
""focus"",""144"",""2073749""
","""event"",""trial"",""time""
""fullscreenenter"",""1"",""1536""
","""event"",""trial"",""time""
""fullscreenexit"",""99"",""1484196""
","","","644.2999999523163","","","22","9970","4666","l","elianto","#3366ff99","-1"," ","0","0","[1500.7999999523163]","1","2","","","9970","27","1","2","win","no-go","0"
"pit-trial","152","2157576","0.0-32.0","battery-v0.2","","""event"",""trial"",""time""
""fullscreenenter"",""1"",""1536""
""blur"",""65"",""811527""
""focus"",""66"",""815176""
""fullscreenexit"",""99"",""1484196""
""blur"",""99"",""1485728""
""focus"",""102"",""1565792""
""blur"",""102"",""1571717""
""focus"",""102"",""1575583""
""blur"",""102"",""1625046""
""focus"",""102"",""1631224""
""blur"",""144"",""2042740""
""focus"",""144"",""2073749""
","""event"",""trial"",""time""
""blur"",""65"",""811527""
""blur"",""99"",""1485728""
""blur"",""102"",""1571717""
""blur"",""102"",""1625046""
""blur"",""144"",""2042740""
","""event"",""trial"",""time""
""focus"",""66"",""815176""
""focus"",""102"",""1565792""
""focus"",""102"",""1575583""
""focus"",""102"",""1631224""
""focus"",""144"",""2073749""
","""event"",""trial"",""time""
""fullscreenenter"",""1"",""1536""
","""event"",""trial"",""time""
""fullscreenexit"",""99"",""1484196""
","","","-1","","","22","9970","4666","u","elianto","#f73b6a7A"," ","-1","0","-10","[]","0","2","","","9970","28","0","3","lose","go","0"
"pit-trial","153","2162440","0.0-33.0","battery-v0.2","","""event"",""trial"",""time""
""fullscreenenter"",""1"",""1536""
""blur"",""65"",""811527""
""focus"",""66"",""815176""
""fullscreenexit"",""99"",""1484196""
""blur"",""99"",""1485728""
""focus"",""102"",""1565792""
""blur"",""102"",""1571717""
""focus"",""102"",""1575583""
""blur"",""102"",""1625046""
""focus"",""102"",""1631224""
""blur"",""144"",""2042740""
""focus"",""144"",""2073749""
","""event"",""trial"",""time""
""blur"",""65"",""811527""
""blur"",""99"",""1485728""
""blur"",""102"",""1571717""
""blur"",""102"",""1625046""
""blur"",""144"",""2042740""
","""event"",""trial"",""time""
""focus"",""66"",""815176""
""focus"",""102"",""1565792""
""focus"",""102"",""1575583""
