"trial_type","trial_index","time_elapsed","internal_node_id","task_version","subject_id","interactions","blur_events","focus_events","fullscreenenter_events","fullscreenexit_events","success","view_history","rt","responses","num_errors","age","subject","participantId","rune","rune_set","hex","correct","choice","accuracy","outcome","keys","total_keys","block","practice","value","sub","trial","stimulus","robot","valence","action","sham"
"pavlovia","0","19","0.0-0.0","battery-v0.2","","""event"",""trial"",""time""
""fullscreenenter"",""1"",""1875""
","
","
","""event"",""trial"",""time""
""fullscreenenter"",""1"",""1875""
","
","","","","","","","","","","","","","","","","","","","","","","","","","","",""
"fullscreen","1","2854","0.0-1.0","battery-v0.2","","""event"",""trial"",""time""
""fullscreenenter"",""1"",""1875""
","
","
","""event"",""trial"",""time""
""fullscreenenter"",""1"",""1875""
","
","true","","","","","","","","","","","","","","","","","","","","","","","","","",""
"pit-instructions","2","7130","0.0-2.0-0.0","battery-v0.2","","""event"",""trial"",""time""
""fullscreenenter"",""1"",""1875""
","
","
","""event"",""trial"",""time""
""fullscreenenter"",""1"",""1875""
","
","","[{""page_index"":0,""viewing_time"":4272.599999904633}]","4273.199999809265","","","","","","","","","","","","","","","","","","","","","","","",""
"pit-comprehension","3","10053","0.0-2.0-1.0-0.0","battery-v0.2","","""event"",""trial"",""time""
""fullscreenenter"",""1"",""1875""
","
","
","""event"",""trial"",""time""
""fullscreenenter"",""1"",""1875""
","
","","","2918.600000143051","[""shark""]","0","14","3039","2761","","","","","","","","","","","","","","","","","","",""
"pit-instructions","4","11252","0.0-2.0-1.0-1.0","battery-v0.2","","""event"",""trial"",""time""
""fullscreenenter"",""1"",""1875""
","
","
","""event"",""trial"",""time""
""fullscreenenter"",""1"",""1875""
","
","","[{""page_index"":0,""viewing_time"":1180.2000000476837}]","1180.5","","","","","","","","","","","","","","","","","","","","","","","",""
"pit-comprehension","5","13568","0.0-2.0-2.0-0.0","battery-v0.2","","""event"",""trial"",""time""
""fullscreenenter"",""1"",""1875""
","
","
","""event"",""trial"",""time""
""fullscreenenter"",""1"",""1875""
","
","","","2311.899999856949","[""tiger""]","0","14","3039","2761","","","","","","","","","","","","","","","","","","",""
"pit-instructions","6","14589","0.0-2.0-2.0-1.0","battery-v0.2","","""event"",""trial"",""time""
""fullscreenenter"",""1"",""1875""
","
","
","""event"",""trial"",""time""
""fullscreenenter"",""1"",""1875""
","
","","[{""page_index"":0,""viewing_time"":1018.5}]","1018.7999999523163","","","","","","","","","","","","","","","","","","","","","","","",""
"pit-instructions","7","136289","0.0-2.0-3.0","battery-v0.2","","""event"",""trial"",""time""
""fullscreenenter"",""1"",""1875""
","
","
","""event"",""trial"",""time""
""fullscreenenter"",""1"",""1875""
","
","","[{""page_index"":0,""viewing_time"":11614.799999952316},{""page_index"":1,""viewing_time"":5920.400000095367},{""page_index"":2,""viewing_time"":27577.200000047684},{""page_index"":3,""viewing_time"":6879.200000047684},{""page_index"":4,""viewing_time"":6329.699999809265},{""page_index"":5,""viewing_time"":6033.800000190735},{""page_index"":6,""viewing_time"":7003.299999952316},{""page_index"":7,""viewing_time"":7550.399999856949},{""page_index"":8,""viewing_time"":6139.400000095367},{""page_index"":9,""viewing_time"":8282.700000047684},{""page_index"":10,""viewing_time"":7090.899999856949},{""page_index"":11,""viewing_time"":8169.700000047684},{""page_index"":12,""viewing_time"":7512.299999952316},{""page_index"":13,""viewing_time"":5592.300000190735}]","121696.40000009537","","","","","","","","","","","","","","","","","","","","","","","",""
"pit-trial","8","139645","0.0-2.0-4.0-0.0","battery-v0.2","","""event"",""trial"",""time""
""fullscreenenter"",""1"",""1875""
","
","
","""event"",""trial"",""time""
""fullscreenenter"",""1"",""1875""
","
","","","500.7999999523163","","","14","3039","2761","&#9784;","elianto","#FFFFF080"," "," ","1","&#10004","[1351.5]","1","0","0","","","","","","","",""
"pit-trial","9","142936","0.0-2.0-4.1-0.1","battery-v0.2","","""event"",""trial"",""time""
""fullscreenenter"",""1"",""1875""
","
","
","""event"",""trial"",""time""
""fullscreenenter"",""1"",""1875""
","
","","","431.2999999523163","","","14","3039","2761","&#9784;","elianto","#FFFFF080"," "," ","1","&#10004","[1282.2999999523163]","1","0","0","","","","","","","",""
"pit-trial","10","146226","0.0-2.0-4.2-0.2","battery-v0.2","","""event"",""trial"",""time""
""fullscreenenter"",""1"",""1875""
","
","
","""event"",""trial"",""time""
""fullscreenenter"",""1"",""1875""
","
","","","431.90000009536743","","","14","3039","2761","&#9784;","elianto","#FFFFF080"," "," ","1","&#10004","[1283.5]","1","0","0","","","","","","","",""
"pit-trial","11","149524","0.0-2.0-4.3-0.3","battery-v0.2","","""event"",""trial"",""time""
""fullscreenenter"",""1"",""1875""
","
","
","""event"",""trial"",""time""
""fullscreenenter"",""1"",""1875""
","
","","","441.89999985694885","","","14","3039","2761","&#9784;","elianto","#FFFFF080"," "," ","1","&#10004","[1292.7999999523163]","1","0","0","","","","","","","",""
"pit-trial","12","152812","0.0-2.0-4.4-0.4","battery-v0.2","","""event"",""trial"",""time""
""fullscreenenter"",""1"",""1875""
","
","
","""event"",""trial"",""time""
""fullscreenenter"",""1"",""1875""
","
","","","430.2999999523163","","","14","3039","2761","&#9784;","elianto","#FFFFF080"," "," ","1","&#10004","[1280.5999999046326]","1","0","0","","","","","","","",""
"pit-instructions","13","196469","0.0-2.0-5.0","battery-v0.2","","""event"",""trial"",""time""
""fullscreenenter"",""1"",""1875""
","
","
","""event"",""trial"",""time""
""fullscreenenter"",""1"",""1875""
","
","","[{""page_index"":0,""viewing_time"":14926.599999904633},{""page_index"":1,""viewing_time"":17463.60000014305},{""page_index"":2,""viewing_time"":5863.599999904633},{""page_index"":3,""viewing_time"":5398.700000047684}]","43652.799999952316","","","","","","","","","","","","","","","","","","","","","","","",""
"pit-trial","14","201330","0.0-2.0-6.0-0.0","battery-v0.2","","""event"",""trial"",""time""
""fullscreenenter"",""1"",""1875""
","
","
","""event"",""trial"",""time""
""fullscreenenter"",""1"",""1875""
","
","","","-1","","","14","3039","2761","&#9854;","elianto","#FFFFF080","-1","-1","1","&#10004","[]","0","0","1","","","","","","","",""
"pit-trial","15","206186","0.0-2.0-6.1-0.1","battery-v0.2","","""event"",""trial"",""time""
""fullscreenenter"",""1"",""1875""
","
","
","""event"",""trial"",""time""
""fullscreenenter"",""1"",""1875""
","
","","","-1","","","14","3039","2761","&#9854;","elianto","#FFFFF080","-1","-1","1","&#10004","[]","0","0","1","","","","","","","",""
"pit-trial","16","211046","0.0-2.0-6.2-0.2","battery-v0.2","","""event"",""trial"",""time""
""fullscreenenter"",""1"",""1875""
","
","
","""event"",""trial"",""time""
""fullscreenenter"",""1"",""1875""
","
","","","-1","","","14","3039","2761","&#9854;","elianto","#FFFFF080","-1","-1","1","&#10004","[]","0","0","1","","","","","","","",""
"pit-trial","17","215903","0.0-2.0-6.3-0.3","battery-v0.2","","""event"",""trial"",""time""
""fullscreenenter"",""1"",""1875""
","
","
","""event"",""trial"",""time""
""fullscreenenter"",""1"",""1875""
","
","","","-1","","","14","3039","2761","&#9854;","elianto","#FFFFF080","-1","-1","1","&#10004","[]","0","0","1","","","","","","","",""
"pit-trial","18","220762","0.0-2.0-6.4-0.4","battery-v0.2","","""event"",""trial"",""time""
""fullscreenenter"",""1"",""1875""
","
","
","""event"",""trial"",""time""
""fullscreenenter"",""1"",""1875""
","
","","","-1","","","14","3039","2761","&#9854;","elianto","#FFFFF080","-1","-1","1","&#10004","[]","0","0","1","","","","","","","",""
"pit-instructions","19","335689","0.0-2.0-7.0","battery-v0.2","","""event"",""trial"",""time""
""fullscreenenter"",""1"",""1875""
","
","
","""event"",""trial"",""time""
""fullscreenenter"",""1"",""1875""
","
","","[{""page_index"":0,""viewing_time"":7981.299999952316},{""page_index"":1,""viewing_time"":7532.400000095367},{""page_index"":2,""viewing_time"":6324.699999809265},{""page_index"":3,""viewing_time"":6086.700000047684},{""page_index"":4,""viewing_time"":5136.900000095367},{""page_index"":5,""viewing_time"":5755.200000047684},{""page_index"":6,""viewing_time"":4370},{""page_index"":7,""viewing_time"":7300},{""page_index"":8,""viewing_time"":6939.299999952316},{""page_index"":9,""viewing_time"":5490.5},{""page_index"":10,""viewing_time"":6134.299999952316},{""page_index"":11,""viewing_time"":4192.099999904633},{""page_index"":12,""viewing_time"":6631.600000143051},{""page_index"":13,""viewing_time"":7348.899999856949},{""page_index"":14,""viewing_time"":7147.600000143051},{""page_index"":15,""viewing_time"":7145.299999952316},{""page_index"":16,""viewing_time"":6291},{""page_index"":17,""viewing_time"":7114.200000047684}]","114923.29999995232","","","","","","","","","","","","","","","","","","","","","","","",""
"pit-trial","20","338966","0.0-2.0-8.0-0.0","battery-v0.2","","""event"",""trial"",""time""
""fullscreenenter"",""1"",""1875""
","
","
","""event"",""trial"",""time""
""fullscreenenter"",""1"",""1875""
","
","","","411.80000019073486","","","14","3039","2761","&#9776;","elianto","#3366ff99"," "," ","1","+10","[1263.7000000476837]","1","0","1","","","","","","","",""
"pit-trial","21","342256","0.0-2.0-8.0-1.0","battery-v0.2","","""event"",""trial"",""time""
""fullscreenenter"",""1"",""1875""
","
","
","""event"",""trial"",""time""
""fullscreenenter"",""1"",""1875""
","
","","","435.39999985694885","","","14","3039","2761","&#9776;","elianto","#3366ff99"," "," ","1","+10","[1287.9000000953674]","1","0","1","","","","","","","",""
"pit-trial","22","345313","0.0-2.0-8.0-2.0","battery-v0.2","","""event"",""trial"",""time""
""fullscreenenter"",""1"",""1875""
","
","
","""event"",""trial"",""time""
""fullscreenenter"",""1"",""1875""
","
","","","201.20000004768372","","","14","3039","2761","&#9776;","elianto","#3366ff99"," "," ","1","+10","[1051.4000000953674]","1","0","1","","","","","","","",""
"pit-trial","23","348341","0.0-2.0-8.0-3.0","battery-v0.2","","""event"",""trial"",""time""
""fullscreenenter"",""1"",""1875""
","
","
","""event"",""trial"",""time""
""fullscreenenter"",""1"",""1875""
","
","","","174.69999980926514","","","14","3039","2761","&#9776;","elianto","#3366ff99"," "," ","1","0","[1024.7000000476837]","1","0","1","","","","","","","",""
"pit-trial","24","351449","0.0-2.0-8.0-4.0","battery-v0.2","","""event"",""trial"",""time""
""fullscreenenter"",""1"",""1875""
","
","
","""event"",""trial"",""time""
""fullscreenenter"",""1"",""1875""
","
","","","253.09999990463257","","","14","3039","2761","&#9776;","elianto","#3366ff99"," "," ","1","+10","[1103.2000000476837]","1","0","1","","","","","","","",""
"call-function","25","351451","0.0-2.0-9.0","battery-v0.2","","""event"",""trial"",""time""
""fullscreenenter"",""1"",""1875""
","
","
","""event"",""trial"",""time""
""fullscreenenter"",""1"",""1875""
","
","","","","","","","","","","","","","","","","","","","","","","","","","","",""
"pit-instructions","26","391459","0.0-2.0-10.0","battery-v0.2","","""event"",""trial"",""time""
""fullscreenenter"",""1"",""1875""
","
","
","""event"",""trial"",""time""
""fullscreenenter"",""1"",""1875""
","
","","[{""page_index"":0,""viewing_time"":6349.5},{""page_index"":1,""viewing_time"":7109.5},{""page_index"":2,""viewing_time"":9379.299999952316},{""page_index"":3,""viewing_time"":9629.700000047684},{""page_index"":4,""viewing_time"":7539.700000047684}]","40007.89999985695","","","","","","","","","","","","","","","","","","","","","","","",""
"pit-trial","27","394549","0.0-2.0-11.0-0.0","battery-v0.2","","""event"",""trial"",""time""
""fullscreenenter"",""1"",""1875""
","
","
","""event"",""trial"",""time""
""fullscreenenter"",""1"",""1875""
","
","","","235.30000019073486","","","14","3039","2761","&#9761;","elianto","#3366ff99","-1"," ","0","0","[1086.7000000476837]","1","0","2","","","","","","","",""
"pit-trial","28","399411","0.0-2.0-11.0-1.0","battery-v0.2","","""event"",""trial"",""time""
""fullscreenenter"",""1"",""1875""
","
","
","""event"",""trial"",""time""
""fullscreenenter"",""1"",""1875""
","
","","","-1","","","14","3039","2761","&#9761;","elianto","#3366ff99","-1","-1","1","+10","[]","0","0","2","","","","","","","",""
"pit-trial","29","404269","0.0-2.0-11.0-2.0","battery-v0.2","","""event"",""trial"",""time""
""fullscreenenter"",""1"",""1875""
","
","
","""event"",""trial"",""time""
""fullscreenenter"",""1"",""1875""
","
","","","-1","","","14","3039","2761","&#9761;","elianto","#3366ff99","-1","-1","1","+10","[]","0","0","2","","","","","","","",""
"pit-trial","30","409127","0.0-2.0-11.0-3.0","battery-v0.2","","""event"",""trial"",""time""
""fullscreenenter"",""1"",""1875""
","
","
","""event"",""trial"",""time""
""fullscreenenter"",""1"",""1875""
","
","","","-1","","","14","3039","2761","&#9761;","elianto","#3366ff99","-1","-1","1","0","[]","0","0","2","","","","","","","",""
"pit-trial","31","413985","0.0-2.0-11.0-4.0","battery-v0.2","","""event"",""trial"",""time""
""fullscreenenter"",""1"",""1875""
","
","
","""event"",""trial"",""time""
""fullscreenenter"",""1"",""1875""
","
","","","-1","","","14","3039","2761","&#9761;","elianto","#3366ff99","-1","-1","1","+10","[]","0","0","2","","","","","","","",""
"call-function","32","413988","0.0-2.0-12.0","battery-v0.2","","""event"",""trial"",""time""
""fullscreenenter"",""1"",""1875""
","
","
","""event"",""trial"",""time""
""fullscreenenter"",""1"",""1875""
","
","","","","","","","","","","","","","","","","","","","","","","","","","","",""
"pit-instructions","33","446096","0.0-2.0-13.0","battery-v0.2","","""event"",""trial"",""time""
""fullscreenenter"",""1"",""1875""
","
","
","""event"",""trial"",""time""
""fullscreenenter"",""1"",""1875""
","
","","[{""page_index"":0,""viewing_time"":4828.900000095367},{""page_index"":1,""viewing_time"":7121.799999952316},{""page_index"":2,""viewing_time"":3467.9000000953674},{""page_index"":3,""viewing_time"":11661.299999952316},{""page_index"":4,""viewing_time"":5027.099999904633}]","32107.200000047684","","","","","","","","","","","","","","","","","","","","","","","",""
"pit-trial","34","450957","0.0-2.0-14.0-0.0","battery-v0.2","","""event"",""trial"",""time""
""fullscreenenter"",""1"",""1875""
","
","
","""event"",""trial"",""time""
""fullscreenenter"",""1"",""1875""
","
","","","-1","","","14","3039","2761","&#9826;","elianto","#f73b6a7A","-1","-1","1","0","[]","0","0","3","","","","","","","",""
"pit-trial","35","455815","0.0-2.0-14.0-1.0","battery-v0.2","","""event"",""trial"",""time""
""fullscreenenter"",""1"",""1875""
","
","
","""event"",""trial"",""time""
""fullscreenenter"",""1"",""1875""
","
","","","-1","","","14","3039","2761","&#9826;","elianto","#f73b6a7A","-1","-1","1","0","[]","0","0","3","","","","","","","",""
"pit-trial","36","460676","0.0-2.0-14.0-2.0","battery-v0.2","","""event"",""trial"",""time""
""fullscreenenter"",""1"",""1875""
","
","
","""event"",""trial"",""time""
""fullscreenenter"",""1"",""1875""
","
","","","-1","","","14","3039","2761","&#9826;","elianto","#f73b6a7A","-1","-1","1","0","[]","0","0","3","","","","","","","",""
"pit-trial","37","465535","0.0-2.0-14.0-3.0","battery-v0.2","","""event"",""trial"",""time""
""fullscreenenter"",""1"",""1875""
","
","
","""event"",""trial"",""time""
""fullscreenenter"",""1"",""1875""
","
","","","-1","","","14","3039","2761","&#9826;","elianto","#f73b6a7A","-1","-1","1","-10","[]","0","0","3","","","","","","","",""
"pit-trial","38","470395","0.0-2.0-14.0-4.0","battery-v0.2","","""event"",""trial"",""time""
""fullscreenenter"",""1"",""1875""
","
","
","""event"",""trial"",""time""
""fullscreenenter"",""1"",""1875""
","
","","","-1","","","14","3039","2761","&#9826;","elianto","#f73b6a7A","-1","-1","1","0","[]","0","0","3","","","","","","","",""
"call-function","39","470397","0.0-2.0-15.0","battery-v0.2","","""event"",""trial"",""time""
""fullscreenenter"",""1"",""1875""
","
","
","""event"",""trial"",""time""
""fullscreenenter"",""1"",""1875""
","
","","","","","","","","","","","","","","","","","","","","","","","","","","",""
"pit-instructions","40","495903","0.0-2.0-16.0","battery-v0.2","","""event"",""trial"",""time""
""fullscreenenter"",""1"",""1875""
","
","
","""event"",""trial"",""time""
""fullscreenenter"",""1"",""1875""
","
","","[{""page_index"":0,""viewing_time"":6586.299999952316},{""page_index"":1,""viewing_time"":8706.5},{""page_index"":2,""viewing_time"":4643.599999904633},{""page_index"":3,""viewing_time"":5568.600000143051}]","25505.39999985695","","","","","","","","","","","","","","","","","","","","","","","",""
"pit-trial","41","499109","0.0-2.0-17.0-0.0","battery-v0.2","","""event"",""trial"",""time""
""fullscreenenter"",""1"",""1875""
","
","
","""event"",""trial"",""time""
""fullscreenenter"",""1"",""1875""
","
","","","352.80000019073486","","","14","3039","2761","&#9789;","elianto","#f73b6a7A"," "," ","1","0","[1203]","1","0","4","","","","","","","",""
"pit-trial","42","502448","0.0-2.0-17.0-1.0","battery-v0.2","","""event"",""trial"",""time""
""fullscreenenter"",""1"",""1875""
","
","
","""event"",""trial"",""time""
""fullscreenenter"",""1"",""1875""
","
","","","482.59999990463257","","","14","3039","2761","&#9789;","elianto","#f73b6a7A"," "," ","1","0","[1332.7000000476837]","1","0","4","","","","","","","",""
"pit-trial","43","505770","0.0-2.0-17.0-2.0","battery-v0.2","","""event"",""trial"",""time""
""fullscreenenter"",""1"",""1875""
","
","
","""event"",""trial"",""time""
""fullscreenenter"",""1"",""1875""
","
","","","462.7999999523163","","","14","3039","2761","&#9789;","elianto","#f73b6a7A"," "," ","1","0","[1315.8999998569489]","1","0","4","","","","","","","",""
"pit-trial","44","508857","0.0-2.0-17.0-3.0","battery-v0.2","","""event"",""trial"",""time""
""fullscreenenter"",""1"",""1875""
","
","
","""event"",""trial"",""time""
""fullscreenenter"",""1"",""1875""
","
","","","230.59999990463257","","","14","3039","2761","&#9789;","elianto","#f73b6a7A"," "," ","1","-10","[1080.9000000953674]","1","0","4","","","","","","","",""
"pit-trial","45","511984","0.0-2.0-17.0-4.0","battery-v0.2","","""event"",""trial"",""time""
""fullscreenenter"",""1"",""1875""
","
","
","""event"",""trial"",""time""
""fullscreenenter"",""1"",""1875""
","
","","","269.2999999523163","","","14","3039","2761","&#9789;","elianto","#f73b6a7A"," "," ","1","0","[1120.3999998569489]","1","0","4","","","","","","","",""
"call-function","46","511986","0.0-2.0-18.0","battery-v0.2","","""event"",""trial"",""time""
""fullscreenenter"",""1"",""1875""
","
","
","""event"",""trial"",""time""
""fullscreenenter"",""1"",""1875""
","
","","","","","","","","","","","","","","","","","","","","","","","","","","",""
"pit-instructions","47","583098","0.0-2.0-19.0","battery-v0.2","","""event"",""trial"",""time""
""fullscreenenter"",""1"",""1875""
","
","
","""event"",""trial"",""time""
""fullscreenenter"",""1"",""1875""
","
","","[{""page_index"":0,""viewing_time"":6458.300000190735},{""page_index"":1,""viewing_time"":6111.099999904633},{""page_index"":2,""viewing_time"":13713},{""page_index"":3,""viewing_time"":7698.599999904633},{""page_index"":4,""viewing_time"":8617.300000190735},{""page_index"":5,""viewing_time"":8906.199999809265},{""page_index"":6,""viewing_time"":9210.300000190735},{""page_index"":7,""viewing_time"":6329.299999952316},{""page_index"":8,""viewing_time"":4067.2000000476837}]","71111.60000014305","","","","","","","","","","","","","","","","","","","","","","","",""
"pit-comprehension","48","587514","0.0-2.0-20.0-0.0","battery-v0.2","","""event"",""trial"",""time""
""fullscreenenter"",""1"",""1875""
","
","
","""event"",""trial"",""time""
""fullscreenenter"",""1"",""1875""
","
","","","4413","[""SPACE""]","0","14","3039","2761","","","","","","","","","","","","","","","","","","",""
"pit-instructions","49","590087","0.0-2.0-20.0-1.0","battery-v0.2","","""event"",""trial"",""time""
""fullscreenenter"",""1"",""1875""
","
","
","""event"",""trial"",""time""
""fullscreenenter"",""1"",""1875""
","
","","[{""page_index"":0,""viewing_time"":2554.5999999046326}]","2554.899999856949","","","","","","","","","","","","","","","","","","","","","","","",""
"pit-comprehension","50","595586","0.0-2.0-21.0-0.0","battery-v0.2","","""event"",""trial"",""time""
""fullscreenenter"",""1"",""1875""
","
","
","""event"",""trial"",""time""
""fullscreenenter"",""1"",""1875""
","
","","","5495","[""10""]","0","14","3039","2761","","","","","","","","","","","","","","","","","","",""
"pit-instructions","51","597587","0.0-2.0-21.0-1.0","battery-v0.2","","""event"",""trial"",""time""
""fullscreenenter"",""1"",""1875""
","
","
","""event"",""trial"",""time""
""fullscreenenter"",""1"",""1875""
","
","","[{""page_index"":0,""viewing_time"":1982.1999998092651}]","1982.5","","","","","","","","","","","","","","","","","","","","","","","",""
"pit-comprehension","52","604028","0.0-2.0-22.0-0.0","battery-v0.2","","""event"",""trial"",""time""
""fullscreenenter"",""1"",""1875""
","
","
","""event"",""trial"",""time""
""fullscreenenter"",""1"",""1875""
","
","","","6437.400000095367","[""0""]","0","14","3039","2761","","","","","","","","","","","","","","","","","","",""
"pit-instructions","53","605768","0.0-2.0-22.0-1.0","battery-v0.2","","""event"",""trial"",""time""
""fullscreenenter"",""1"",""1875""
","
","
","""event"",""trial"",""time""
""fullscreenenter"",""1"",""1875""
","
","","[{""page_index"":0,""viewing_time"":1723.0999999046326}]","1723.3999998569489","","","","","","","","","","","","","","","","","","","","","","","",""
"pit-comprehension","54","614185","0.0-2.0-23.0-0.0","battery-v0.2","","""event"",""trial"",""time""
""fullscreenenter"",""1"",""1875""
","
","
","""event"",""trial"",""time""
""fullscreenenter"",""1"",""1875""
","
","","","8414","[""True""]","0","14","3039","2761","","","","","","","","","","","","","","","","","","",""
"pit-instructions","55","615910","0.0-2.0-23.0-1.0","battery-v0.2","","""event"",""trial"",""time""
""fullscreenenter"",""1"",""1875""
","
","
","""event"",""trial"",""time""
""fullscreenenter"",""1"",""1875""
","
","","[{""page_index"":0,""viewing_time"":1709.7999999523163}]","1710","","","","","","","","","","","","","","","","","","","","","","","",""
"pit-comprehension","56","623846","0.0-2.0-24.0-0.0","battery-v0.2","","""event"",""trial"",""time""
""fullscreenenter"",""1"",""1875""
","
","
","""event"",""trial"",""time""
""fullscreenenter"",""1"",""1875""
","
","","","7933.200000047684","[""True""]","0","14","3039","2761","","","","","","","","","","","","","","","","","","",""
"pit-instructions","57","628151","0.0-2.0-24.0-1.0","battery-v0.2","","""event"",""trial"",""time""
""fullscreenenter"",""1"",""1875""
","
","
","""event"",""trial"",""time""
""fullscreenenter"",""1"",""1875""
","
","","[{""page_index"":0,""viewing_time"":4283.900000095367}]","4286.800000190735","","","","","","","","","","","","","","","","","","","","","","","",""
"pit-comprehension","58","635175","0.0-2.0-25.0-0.0","battery-v0.2","","""event"",""trial"",""time""
""fullscreenenter"",""1"",""1875""
","
","
","""event"",""trial"",""time""
""fullscreenenter"",""1"",""1875""
","
","","","7010.5","[""True""]","0","14","3039","2761","","","","","","","","","","","","","","","","","","",""
"pit-instructions","59","637159","0.0-2.0-25.0-1.0","battery-v0.2","","""event"",""trial"",""time""
""fullscreenenter"",""1"",""1875""
","
","
","""event"",""trial"",""time""
""fullscreenenter"",""1"",""1875""
","
","","[{""page_index"":0,""viewing_time"":1952.2999999523163}]","1952.5999999046326","","","","","","","","","","","","","","","","","","","","","","","",""
"pit-comprehension","60","641856","0.0-2.0-26.0-0.0","battery-v0.2","","""event"",""trial"",""time""
""fullscreenenter"",""1"",""1875""
","
","
","""event"",""trial"",""time""
""fullscreenenter"",""1"",""1875""
","
","","","4692.299999952316","[""False""]","0","14","3039","2761","","","","","","","","","","","","","","","","","","",""
"pit-instructions","61","643754","0.0-2.0-26.0-1.0","battery-v0.2","","""event"",""trial"",""time""
""fullscreenenter"",""1"",""1875""
","
","
","""event"",""trial"",""time""
""fullscreenenter"",""1"",""1875""
","
","","[{""page_index"":0,""viewing_time"":1880.2000000476837}]","1880.5","","","","","","","","","","","","","","","","","","","","","","","",""
"pit-instructions","62","661372","0.0-3.0","battery-v0.2","","""event"",""trial"",""time""
""fullscreenenter"",""1"",""1875""
","
","
","""event"",""trial"",""time""
""fullscreenenter"",""1"",""1875""
","
","","[{""page_index"":0,""viewing_time"":3605.7000000476837},{""page_index"":1,""viewing_time"":5036.099999904633},{""page_index"":2,""viewing_time"":8970.299999952316}]","17612.39999985695","","","","","","","","","","","","","","","","","","","","","","","",""
"pit-trial","63","666239","0.0-4.0","battery-v0.2","","""event"",""trial"",""time""
""fullscreenenter"",""1"",""1875""
","
","
","""event"",""trial"",""time""
""fullscreenenter"",""1"",""1875""
","
","","","-1","","","14","3039","2761","&#9728;","elianto","#f73b6a7A","-1","-1","1","0","[]","0","1","","","3039","1","0","4","lose","no-go","0"
"pit-trial","64","669934","0.0-5.0","battery-v0.2","","""event"",""trial"",""time""
""fullscreenenter"",""1"",""1875""
","
","
","""event"",""trial"",""time""
""fullscreenenter"",""1"",""1875""
","
","","","838.4000000953674","","","14","3039","2761","&#9730;","elianto","#3366ff99"," "," ","1","0","[1688.7000000476837]","1","1","","","3039","2","1","1","win","go","1"
"pit-trial","65","673822","0.0-6.0","battery-v0.2","","""event"",""trial"",""time""
""fullscreenenter"",""1"",""1875""
","
","
","""event"",""trial"",""time""
""fullscreenenter"",""1"",""1875""
","
","","","1030.6000001430511","","","14","3039","2761","&#9733;","elianto","#3366ff99","-1"," ","0","0","[1881.4000000953674]","1","1","","","3039","3","2","2","win","no-go","0"
"pit-trial","66","677614","0.0-7.0","battery-v0.2","","""event"",""trial"",""time""
""fullscreenenter"",""1"",""1875""
","
","
","""event"",""trial"",""time""
""fullscreenenter"",""1"",""1875""
","
","","","936.0999999046326","","","14","3039","2761","&#9752;","elianto","#f73b6a7A"," "," ","1","-10","[1787.2000000476837]","1","1","","","3039","4","3","3","lose","go","1"
"pit-trial","67","682471","0.0-8.0","battery-v0.2","","""event"",""trial"",""time""
""fullscreenenter"",""1"",""1875""
","
","
","""event"",""trial"",""time""
""fullscreenenter"",""1"",""1875""
","
","","","-1","","","14","3039","2761","&#9752;","elianto","#f73b6a7A"," ","-1","0","-10","[]","0","1","","","3039","5","3","3","lose","go","0"
"pit-trial","68","686051","0.0-9.0","battery-v0.2","","""event"",""trial"",""time""
""fullscreenenter"",""1"",""1875""
","
","
","""event"",""trial"",""time""
""fullscreenenter"",""1"",""1875""
","
","","","723.9000000953674","","","14","3039","2761","&#9730;","elianto","#3366ff99"," "," ","1","+10","[1574.4000000953674]","1","1","","","3039","6","1","1","win","go","0"
"pit-trial","69","690907","0.0-10.0","battery-v0.2","","""event"",""trial"",""time""
""fullscreenenter"",""1"",""1875""
","
","
","""event"",""trial"",""time""
""fullscreenenter"",""1"",""1875""
","
","","","-1","","","14","3039","2761","&#9728;","elianto","#f73b6a7A","-1","-1","1","-10","[]","0","1","","","3039","7","0","4","lose","no-go","1"
"pit-trial","70","694501","0.0-11.0","battery-v0.2","","""event"",""trial"",""time""
""fullscreenenter"",""1"",""1875""
","
","
","""event"",""trial"",""time""
""fullscreenenter"",""1"",""1875""
","
","","","740.6999998092651","","","14","3039","2761","&#9733;","elianto","#3366ff99","-1"," ","0","0","[1591.7999999523163]","1","1","","","3039","8","2","2","win","no-go","0"
"pit-trial","71","698059","0.0-12.0","battery-v0.2","","""event"",""trial"",""time""
""fullscreenenter"",""1"",""1875""
","
","
","""event"",""trial"",""time""
""fullscreenenter"",""1"",""1875""
","
","","","699.9000000953674","","","14","3039","2761","&#9733;","elianto","#3366ff99","-1"," ","0","+10","[1550]","1","1","","","3039","9","2","2","win","no-go","1"
"pit-trial","72","701499","0.0-13.0","battery-v0.2","","""event"",""trial"",""time""
""fullscreenenter"",""1"",""1875""
","
","
","""event"",""trial"",""time""
""fullscreenenter"",""1"",""1875""
","
","","","581.3999998569489","","","14","3039","2761","&#9730;","elianto","#3366ff99"," "," ","1","+10","[1432.2999999523163]","1","1","","","3039","10","1","1","win","go","0"
"pit-trial","73","706358","0.0-14.0","battery-v0.2","","""event"",""trial"",""time""
""fullscreenenter"",""1"",""1875""
","
","
","""event"",""trial"",""time""
""fullscreenenter"",""1"",""1875""
","
","","","-1","","","14","3039","2761","&#9752;","elianto","#f73b6a7A"," ","-1","0","-10","[]","0","1","","","3039","11","3","3","lose","go","0"
"pit-trial","74","711216","0.0-15.0","battery-v0.2","","""event"",""trial"",""time""
""fullscreenenter"",""1"",""1875""
","
","
","""event"",""trial"",""time""
""fullscreenenter"",""1"",""1875""
","
","","","-1","","","14","3039","2761","&#9728;","elianto","#f73b6a7A","-1","-1","1","-10","[]","0","1","","","3039","12","0","4","lose","no-go","1"
"pit-trial","75","714816","0.0-16.0","battery-v0.2","","""event"",""trial"",""time""
""fullscreenenter"",""1"",""1875""
","
","
","""event"",""trial"",""time""
""fullscreenenter"",""1"",""1875""
","
","","","745.9000000953674","","","14","3039","2761","&#9752;","elianto","#f73b6a7A"," "," ","1","-10","[1596.7000000476837]","1","1","","","3039","13","3","3","lose","go","1"
"pit-trial","76","718341","0.0-17.0","battery-v0.2","","""event"",""trial"",""time""
""fullscreenenter"",""1"",""1875""
","
","
","""event"",""trial"",""time""
""fullscreenenter"",""1"",""1875""
","
","","","670.2000000476837","","","14","3039","2761","&#9733;","elianto","#3366ff99","-1"," ","0","0","[1521.1000001430511]","1","1","","","3039","14","2","2","win","no-go","0"
"pit-trial","77","721797","0.0-18.0","battery-v0.2","","""event"",""trial"",""time""
""fullscreenenter"",""1"",""1875""
","
","
","""event"",""trial"",""time""
""fullscreenenter"",""1"",""1875""
","
","","","600.9000000953674","","","14","3039","2761","&#9730;","elianto","#3366ff99"," "," ","1","0","[1451]","1","1","","","3039","15","1","1","win","go","1"
"pit-trial","78","725307","0.0-19.0","battery-v0.2","","""event"",""trial"",""time""
""fullscreenenter"",""1"",""1875""
","
","
","""event"",""trial"",""time""
""fullscreenenter"",""1"",""1875""
","
","","","656.3999998569489","","","14","3039","2761","&#9728;","elianto","#f73b6a7A","-1"," ","0","-10","[1506.5999999046326]","1","1","","","3039","16","0","4","lose","no-go","0"
"pit-trial","79","728832","0.0-20.0","battery-v0.2","","""event"",""trial"",""time""
""fullscreenenter"",""1"",""1875""
","
","
","""event"",""trial"",""time""
""fullscreenenter"",""1"",""1875""
","
","","","671.0999999046326","","","14","3039","2761","&#9733;","elianto","#3366ff99","-1"," ","0","0","[1521.7000000476837]","1","1","","","3039","17","2","2","win","no-go","0"
"pit-trial","80","732608","0.0-21.0","battery-v0.2","","""event"",""trial"",""time""
""fullscreenenter"",""1"",""1875""
","
","
","""event"",""trial"",""time""
""fullscreenenter"",""1"",""1875""
","
","","","921.5","","","14","3039","2761","&#9752;","elianto","#f73b6a7A"," "," ","1","0","[1771.5]","1","1","","","3039","18","3","3","lose","go","0"
"pit-trial","81","736089","0.0-22.0","battery-v0.2","","""event"",""trial"",""time""
""fullscreenenter"",""1"",""1875""
","
","
","""event"",""trial"",""time""
""fullscreenenter"",""1"",""1875""
","
","","","623.2000000476837","","","14","3039","2761","&#9730;","elianto","#3366ff99"," "," ","1","+10","[1474.5]","1","1","","","3039","19","1","1","win","go","0"
"pit-trial","82","740950","0.0-23.0","battery-v0.2","","""event"",""trial"",""time""
""fullscreenenter"",""1"",""1875""
","
","
","""event"",""trial"",""time""
""fullscreenenter"",""1"",""1875""
","
","","","-1","","","14","3039","2761","&#9728;","elianto","#f73b6a7A","-1","-1","1","0","[]","0","1","","","3039","20","0","4","lose","no-go","0"
"pit-instructions","83","754646","0.0-24.0","battery-v0.2","","""event"",""trial"",""time""
""fullscreenenter"",""1"",""1875""
","
","
","""event"",""trial"",""time""
""fullscreenenter"",""1"",""1875""
","
","","[{""page_index"":0,""viewing_time"":6236.200000047684},{""page_index"":1,""viewing_time"":7457.099999904633}]","13693.700000047684","","","","","","","","","","","","","","","","","","","","","","","",""
"pit-trial","84","757957","0.0-25.0","battery-v0.2","","""event"",""trial"",""time""
""fullscreenenter"",""1"",""1875""
","
","
","""event"",""trial"",""time""
""fullscreenenter"",""1"",""1875""
","
","","","452.39999985694885","","","14","3039","2761","e","elianto","#f73b6a7A"," "," ","1","0","[1304.2999999523163]","1","2","","","3039","21","2","3","lose","go","0"
"pit-trial","85","762462","0.0-26.0","battery-v0.2","","""event"",""trial"",""time""
""fullscreenenter"",""1"",""1875""
","
","
","""event"",""trial"",""time""
""fullscreenenter"",""1"",""1875""
","
","","","1648.4000000953674","","","14","3039","2761","d","elianto","#3366ff99","-1"," ","0","0","[2498.9000000953674]","1","2","","","3039","22","1","2","win","no-go","0"
"pit-trial","86","767320","0.0-27.0","battery-v0.2","","""event"",""trial"",""time""
""fullscreenenter"",""1"",""1875""
","
","
","""event"",""trial"",""time""
""fullscreenenter"",""1"",""1875""
","
","","","-1","","","14","3039","2761","w","elianto","#f73b6a7A","-1","-1","1","0","[]","0","2","","","3039","23","3","4","lose","no-go","0"
"pit-trial","87","771102","0.0-28.0","battery-v0.2","","""event"",""trial"",""time""
""fullscreenenter"",""1"",""1875""
","
","
","""event"",""trial"",""time""
""fullscreenenter"",""1"",""1875""
","
","","","924","","","14","3039","2761","j","elianto","#f73b6a7A"," "," ","1","0","[1775.3000001907349]","1","2","","","3039","24","0","3","lose","go","0"
"pit-trial","88","775009","0.0-29.0","battery-v0.2","","""event"",""trial"",""time""
""fullscreenenter"",""1"",""1875""
","
","
","""event"",""trial"",""time""
""fullscreenenter"",""1"",""1875""
","
","","","1049.5999999046326","","","14","3039","2761","j","elianto","#f73b6a7A"," "," ","1","0","[1899.7000000476837]","1","2","","","3039","25","0","3","lose","go","0"
"pit-trial","89","779868","0.0-30.0","battery-v0.2","","""event"",""trial"",""time""
""fullscreenenter"",""1"",""1875""
","
","
","""event"",""trial"",""time""
""fullscreenenter"",""1"",""1875""
","
","","","-1","","","14","3039","2761","w","elianto","#f73b6a7A","-1","-1","1","0","[]","0","2","","","3039","26","3","4","lose","no-go","0"
"pit-trial","90","784726","0.0-31.0","battery-v0.2","","""event"",""trial"",""time""
""fullscreenenter"",""1"",""1875""
","
","
","""event"",""trial"",""time""
""fullscreenenter"",""1"",""1875""
","
","","","-1","","","14","3039","2761","d","elianto","#3366ff99","-1","-1","1","+10","[]","0","2","","","3039","27","1","2","win","no-go","0"
"pit-trial","91","788192","0.0-32.0","battery-v0.2","","""event"",""trial"",""time""
""fullscreenenter"",""1"",""1875""
","
","
","""event"",""trial"",""time""
""fullscreenenter"",""1"",""1875""
","
","","","609","","","14","3039","2761","e","elianto","#f73b6a7A"," "," ","1","0","[1460.2000000476837]","1","2","","","3039","28","2","3","lose","go","0"
"pit-trial","92","792443","0.0-33.0","battery-v0.2","","""event"",""trial"",""time""
""fullscreenenter"",""1"",""1875""
","
","
","""event"",""trial"",""time""
""fullscreenenter"",""1"",""1875""
","
","","","1395.3999998569489","","","14","3039","2761","j","elianto","#f73b6a7A"," "," ","1","0","[2246]","1","2","","","3039","29","0","3","lose","go","0"
"pit-trial","93","797302","0.0-34.0","battery-v0.2","","""event"",""trial"",""time""
""fullscreenenter"",""1"",""1875""
","
","
","""event"",""trial"",""time""
""fullscreenenter"",""1"",""1875""
","
","","","-1","","","14","3039","2761","d","elianto","#3366ff99","-1","-1","1","+10","[]","0","2","","","3039","30","1","2","win","no-go","0"
"pit-trial","94","802160","0.0-35.0","battery-v0.2","","""event"",""trial"",""time""
""fullscreenenter"",""1"",""1875""
","
","
","""event"",""trial"",""time""
""fullscreenenter"",""1"",""1875""
","
","","","-1","","","14","3039","2761","w","elianto","#f73b6a7A","-1","-1","1","-10","[]","0","2","","","3039","31","3","4","lose","no-go","1"
"pit-trial","95","805574","0.0-36.0","battery-v0.2","","""event"",""trial"",""time""
""fullscreenenter"",""1"",""1875""
","
","
","""event"",""trial"",""time""
""fullscreenenter"",""1"",""1875""
","
","","","560.2000000476837","","","14","3039","2761","e","elianto","#f73b6a7A"," "," ","1","0","[1410.7999999523163]","1","2","","","3039","32","2","3","lose","go","0"
"pit-trial","96","810432","0.0-37.0","battery-v0.2","","""event"",""trial"",""time""
""fullscreenenter"",""1"",""1875""
","
","
","""event"",""trial"",""time""
""fullscreenenter"",""1"",""1875""
","
","","","-1","","","14","3039","2761","d","elianto","#3366ff99","-1","-1","1","+10","[]","0","2","","","3039","33","1","2","win","no-go","0"
"pit-trial","97","815291","0.0-38.0","battery-v0.2","","""event"",""trial"",""time""
""fullscreenenter"",""1"",""1875""
","
","
","""event"",""trial"",""time""
""fullscreenenter"",""1"",""1875""
","
","","","-1","","","14","3039","2761","w","elianto","#f73b6a7A","-1","-1","1","-10","[]","0","2","","","3039","34","3","4","lose","no-go","1"
"pit-trial","98","818947","0.0-39.0","battery-v0.2","","""event"",""trial"",""time""
""fullscreenenter"",""1"",""1875""
","
","
","""event"",""trial"",""time""
""fullscreenenter"",""1"",""1875""
","
","","","797.6000001430511","","","14","3039","2761","e","elianto","#f73b6a7A"," "," ","1","0","[1648.7999999523163]","1","2","","","3039","35","2","3","lose","go","0"
"pit-trial","99","822608","0.0-40.0","battery-v0.2","","""event"",""trial"",""time""
""fullscreenenter"",""1"",""1875""
","
","
","""event"",""trial"",""time""
""fullscreenenter"",""1"",""1875""
","
","","","804.3999998569489","","","14","3039","2761","j","elianto","#f73b6a7A"," "," ","1","0","[1655.1999998092651]","1","2","","","3039","36","0","3","lose","go","0"
"pit-trial","100","826254","0.0-41.0","battery-v0.2","","""event"",""trial"",""time""
""fullscreenenter"",""1"",""1875""
","
","
","""event"",""trial"",""time""
""fullscreenenter"",""1"",""1875""
","
","","","788.1000001430511","","","14","3039","2761","j","elianto","#f73b6a7A"," "," ","1","0","[1638.9000000953674]","1","2","","","3039","37","0","3","lose","go","0"
"pit-trial","101","829798","0.0-42.0","battery-v0.2","","""event"",""trial"",""time""
""fullscreenenter"",""1"",""1875""
","
","
","""event"",""trial"",""time""
""fullscreenenter"",""1"",""1875""
","
","","","689.2999999523163","","","14","3039","2761","w","elianto","#f73b6a7A","-1"," ","0","-10","[1539.7000000476837]","1","2","","","3039","38","3","4","lose","no-go","0"
"pit-trial","102","834657","0.0-43.0","battery-v0.2","","""event"",""trial"",""time""
""fullscreenenter"",""1"",""1875""
","
","
","""event"",""trial"",""time""
""fullscreenenter"",""1"",""1875""
","
","","","-1","","","14","3039","2761","d","elianto","#3366ff99","-1","-1","1","+10","[]","0","2","","","3039","39","1","2","win","no-go","0"
"pit-trial","103","838089","0.0-44.0","battery-v0.2","","""event"",""trial"",""time""
""fullscreenenter"",""1"",""1875""
","
","
","""event"",""trial"",""time""
""fullscreenenter"",""1"",""1875""
","
","","","574.2000000476837","","","14","3039","2761","e","elianto","#f73b6a7A"," "," ","1","0","[1424.8000001907349]","1","2","","","3039","40","2","3","lose","go","0"
"pit-trial","104","842945","0.0-45.0","battery-v0.2","","""event"",""trial"",""time""
""fullscreenenter"",""1"",""1875""
","
","
","""event"",""trial"",""time""
""fullscreenenter"",""1"",""1875""
","
","","","-1","","","14","3039","2761","d","elianto","#3366ff99","-1","-1","1","+10","[]","0","2","","","3039","41","1","2","win","no-go","0"
"pit-trial","105","846507","0.0-46.0","battery-v0.2","","""event"",""trial"",""time""
""fullscreenenter"",""1"",""1875""
","
","
","""event"",""trial"",""time""
""fullscreenenter"",""1"",""1875""
","
","","","706.6999998092651","","","14","3039","2761","j","elianto","#f73b6a7A"," "," ","1","0","[1557]","1","2","","","3039","42","0","3","lose","go","0"
"pit-trial","106","851243","0.0-47.0","battery-v0.2","","""event"",""trial"",""time""
""fullscreenenter"",""1"",""1875""
","
","
","""event"",""trial"",""time""
""fullscreenenter"",""1"",""1875""
","
","","","1880.0999999046326","","","14","3039","2761","e","elianto","#f73b6a7A"," "," ","1","-10","[2731]","1","2","","","3039","43","2","3","lose","go","1"
"pit-trial","107","854912","0.0-48.0","battery-v0.2","","""event"",""trial"",""time""
""fullscreenenter"",""1"",""1875""
","
","
","""event"",""trial"",""time""
""fullscreenenter"",""1"",""1875""
","
","","","811.1000001430511","","","14","3039","2761","w","elianto","#f73b6a7A","-1"," ","0","-10","[1662.2999999523163]","1","2","","","3039","44","3","4","lose","no-go","0"
"pit-trial","108","858864","0.0-49.0","battery-v0.2","","""event"",""trial"",""time""
""fullscreenenter"",""1"",""1875""
","
","
","""event"",""trial"",""time""
""fullscreenenter"",""1"",""1875""
","
","","","1096","","","14","3039","2761","e","elianto","#f73b6a7A"," "," ","1","-10","[1947.7000000476837]","1","2","","","3039","45","2","3","lose","go","1"
"pit-trial","109","863723","0.0-50.0","battery-v0.2","","""event"",""trial"",""time""
""fullscreenenter"",""1"",""1875""
","
","
","""event"",""trial"",""time""
""fullscreenenter"",""1"",""1875""
","
","","","-1","","","14","3039","2761","d","elianto","#3366ff99","-1","-1","1","+10","[]","0","2","","","3039","46","1","2","win","no-go","0"
"pit-trial","110","867169","0.0-51.0","battery-v0.2","","""event"",""trial"",""time""
""fullscreenenter"",""1"",""1875""
","
","
","""event"",""trial"",""time""
""fullscreenenter"",""1"",""1875""
","
","","","591.7000000476837","","","14","3039","2761","w","elianto","#f73b6a7A","-1"," ","0","-10","[1442.2999999523163]","1","2","","","3039","47","3","4","lose","no-go","0"
"pit-trial","111","871121","0.0-52.0","battery-v0.2","","""event"",""trial"",""time""
""fullscreenenter"",""1"",""1875""
","
","
","""event"",""trial"",""time""
""fullscreenenter"",""1"",""1875""
","
","","","1098.2999999523163","","","14","3039","2761","j","elianto","#f73b6a7A"," "," ","1","0","[1948.5]","1","2","","","3039","48","0","3","lose","go","0"
"pit-trial","112","874742","0.0-53.0","battery-v0.2","","""event"",""trial"",""time""
""fullscreenenter"",""1"",""1875""
","
","
","""event"",""trial"",""time""
""fullscreenenter"",""1"",""1875""
","
","","","763.5","","","14","3039","2761","j","elianto","#f73b6a7A"," "," ","1","0","[1614]","1","2","","","3039","49","0","3","lose","go","0"
"pit-trial","113","879600","0.0-54.0","battery-v0.2","","""event"",""trial"",""time""
""fullscreenenter"",""1"",""1875""
","
","
","""event"",""trial"",""time""
""fullscreenenter"",""1"",""1875""
","
","","","-1","","","14","3039","2761","d","elianto","#3366ff99","-1","-1","1","+10","[]","0","2","","","3039","50","1","2","win","no-go","0"
"pit-trial","114","884459","0.0-55.0","battery-v0.2","","""event"",""trial"",""time""
""fullscreenenter"",""1"",""1875""
","
","
","""event"",""trial"",""time""
""fullscreenenter"",""1"",""1875""
","
","","","-1","","","14","3039","2761","w","elianto","#f73b6a7A","-1","-1","1","0","[]","0","2","","","3039","51","3","4","lose","no-go","0"
"pit-trial","115","888064","0.0-56.0","battery-v0.2","","""event"",""trial"",""time""
""fullscreenenter"",""1"",""1875""
","
","
","""event"",""trial"",""time""
""fullscreenenter"",""1"",""1875""
","
","","","743","","","14","3039","2761","e","elianto","#f73b6a7A"," "," ","1","0","[1594.7999999523163]","1","2","","","3039","52","2","3","lose","go","0"
"pit-trial","116","891569","0.0-57.0","battery-v0.2","","""event"",""trial"",""time""
""fullscreenenter"",""1"",""1875""
","
","
","""event"",""trial"",""time""
""fullscreenenter"",""1"",""1875""
","
","","","645.2999999523163","","","14","3039","2761","j","elianto","#f73b6a7A"," "," ","1","0","[1496.7999999523163]","1","2","","","3039","53","0","3","lose","go","0"
"pit-trial","117","896427","0.0-58.0","battery-v0.2","","""event"",""trial"",""time""
""fullscreenenter"",""1"",""1875""
","
","
","""event"",""trial"",""time""
""fullscreenenter"",""1"",""1875""
","
","","","-1","","","14","3039","2761","w","elianto","#f73b6a7A","-1","-1","1","-10","[]","0","2","","","3039","54","3","4","lose","no-go","1"
"pit-trial","118","901286","0.0-59.0","battery-v0.2","","""event"",""trial"",""time""
""fullscreenenter"",""1"",""1875""
","
","
","""event"",""trial"",""time""
""fullscreenenter"",""1"",""1875""
","
","","","-1","","","14","3039","2761","d","elianto","#3366ff99","-1","-1","1","+10","[]","0","2","","","3039","55","1","2","win","no-go","0"
"pit-trial","119","904877","0.0-60.0","battery-v0.2","","""event"",""trial"",""time""
""fullscreenenter"",""1"",""1875""
","
","
","""event"",""trial"",""time""
""fullscreenenter"",""1"",""1875""
","
","","","733.8999998569489","","","14","3039","2761","e","elianto","#f73b6a7A"," "," ","1","0","[1584.3999998569489]","1","2","","","3039","56","2","3","lose","go","0"
"pit-trial","120","908896","0.0-61.0","battery-v0.2","","""event"",""trial"",""time""
""fullscreenenter"",""1"",""1875""
","
","
","""event"",""trial"",""time""
""fullscreenenter"",""1"",""1875""
","
","","","1165","","","14","3039","2761","j","elianto","#f73b6a7A"," "," ","1","0","[2015.2999999523163]","1","2","","","3039","57","0","3","lose","go","0"
"pit-trial","121","913155","0.0-62.0","battery-v0.2","","""event"",""trial"",""time""
""fullscreenenter"",""1"",""1875""
","
","
","""event"",""trial"",""time""
""fullscreenenter"",""1"",""1875""
","
","","","1402.5999999046326","","","14","3039","2761","s","elianto","#3366ff99"," "," ","1","+10","[2253.7000000476837]","1","2","","","3039","58","4","1","win","go","0"
"pit-trial","122","918017","0.0-63.0","battery-v0.2","","""event"",""trial"",""time""
""fullscreenenter"",""1"",""1875""
","
","
","""event"",""trial"",""time""
""fullscreenenter"",""1"",""1875""
","
","","","-1","","","14","3039","2761","w","elianto","#f73b6a7A","-1","-1","1","-10","[]","0","2","","","3039","59","3","4","lose","no-go","1"
"pit-trial","123","922043","0.0-64.0","battery-v0.2","","""event"",""trial"",""time""
""fullscreenenter"",""1"",""1875""
","
","
","""event"",""trial"",""time""
""fullscreenenter"",""1"",""1875""
","
","","","1171.0999999046326","","","14","3039","2761","e","elianto","#f73b6a7A"," "," ","1","-10","[2021.7000000476837]","1","2","","","3039","60","2","3","lose","go","1"
"pit-trial","124","926011","0.0-65.0","battery-v0.2","","""event"",""trial"",""time""
""fullscreenenter"",""1"",""1875""
","
","
","""event"",""trial"",""time""
""fullscreenenter"",""1"",""1875""
","
","","","1113.9000000953674","","","14","3039","2761","s","elianto","#3366ff99"," "," ","1","+10","[1966.2999999523163]","1","2","","","3039","61","4","1","win","go","0"
"pit-trial","125","930870","0.0-66.0","battery-v0.2","","""event"",""trial"",""time""
""fullscreenenter"",""1"",""1875""
","
","
","""event"",""trial"",""time""
""fullscreenenter"",""1"",""1875""
","
","","","-1","","","14","3039","2761","d","elianto","#3366ff99","-1","-1","1","0","[]","0","2","","","3039","62","1","2","win","no-go","1"
"pit-trial","126","935728","0.0-67.0","battery-v0.2","","""event"",""trial"",""time""
""fullscreenenter"",""1"",""1875""
","
","
","""event"",""trial"",""time""
""fullscreenenter"",""1"",""1875""
","
","","","-1","","","14","3039","2761","e","elianto","#f73b6a7A"," ","-1","0","0","[]","0","2","","","3039","63","2","3","lose","go","1"
"pit-trial","127","939446","0.0-68.0","battery-v0.2","","""event"",""trial"",""time""
""fullscreenenter"",""1"",""1875""
","
","
","""event"",""trial"",""time""
""fullscreenenter"",""1"",""1875""
","
","","","859.2000000476837","","","14","3039","2761","w","elianto","#f73b6a7A","-1"," ","0","-10","[1710.4000000953674]","1","2","","","3039","64","3","4","lose","no-go","0"
"pit-trial","128","943148","0.0-69.0","battery-v0.2","","""event"",""trial"",""time""
""fullscreenenter"",""1"",""1875""
","
","
","""event"",""trial"",""time""
""fullscreenenter"",""1"",""1875""
","
","","","845.0999999046326","","","14","3039","2761","d","elianto","#3366ff99","-1"," ","0","0","[1696.0999999046326]","1","2","","","3039","65","1","2","win","no-go","0"
"pit-trial","129","946843","0.0-70.0","battery-v0.2","","""event"",""trial"",""time""
""fullscreenenter"",""1"",""1875""
","
","
","""event"",""trial"",""time""
""fullscreenenter"",""1"",""1875""
","
","","","838.1999998092651","","","14","3039","2761","p","elianto","#3366ff99","-1"," ","0","0","[1688.2999999523163]","1","2","","","3039","66","5","2","win","no-go","0"
"pit-trial","130","950502","0.0-71.0","battery-v0.2","","""event"",""trial"",""time""
""fullscreenenter"",""1"",""1875""
","
","
","""event"",""trial"",""time""
""fullscreenenter"",""1"",""1875""
","
","","","801.5999999046326","","","14","3039","2761","s","elianto","#3366ff99"," "," ","1","+10","[1654.2999999523163]","1","2","","","3039","67","4","1","win","go","0"
"pit-trial","131","955361","0.0-72.0","battery-v0.2","","""event"",""trial"",""time""
""fullscreenenter"",""1"",""1875""
","
","
","""event"",""trial"",""time""
""fullscreenenter"",""1"",""1875""
","
","","","-1","","","14","3039","2761","w","elianto","#f73b6a7A","-1","-1","1","0","[]","0","2","","","3039","68","3","4","lose","no-go","0"
"pit-trial","132","959052","0.0-73.0","battery-v0.2","","""event"",""trial"",""time""
""fullscreenenter"",""1"",""1875""
","
","
","""event"",""trial"",""time""
""fullscreenenter"",""1"",""1875""
","
","","","832.5999999046326","","","14","3039","2761","s","elianto","#3366ff99"," "," ","1","+10","[1683]","1","2","","","3039","69","4","1","win","go","0"
"pit-trial","133","962881","0.0-74.0","battery-v0.2","","""event"",""trial"",""time""
""fullscreenenter"",""1"",""1875""
","
","
","""event"",""trial"",""time""
""fullscreenenter"",""1"",""1875""
","
","","","969.9000000953674","","","14","3039","2761","e","elianto","#f73b6a7A"," "," ","1","-10","[1821.2999999523163]","1","2","","","3039","70","2","3","lose","go","1"
"pit-trial","134","966956","0.0-75.0","battery-v0.2","","""event"",""trial"",""time""
""fullscreenenter"",""1"",""1875""
","
","
","""event"",""trial"",""time""
""fullscreenenter"",""1"",""1875""
","
","","","1217.1000001430511","","","14","3039","2761","d","elianto","#3366ff99","-1"," ","0","0","[2068]","1","2","","","3039","71","1","2","win","no-go","0"
"pit-trial","135","971157","0.0-76.0","battery-v0.2","","""event"",""trial"",""time""
""fullscreenenter"",""1"",""1875""
","
","
","""event"",""trial"",""time""
""fullscreenenter"",""1"",""1875""
","
","","","1342.7999999523163","","","14","3039","2761","p","elianto","#3366ff99","-1"," ","0","+10","[2193.5]","1","2","","","3039","72","5","2","win","no-go","1"
"pit-trial","136","975562","0.0-77.0","battery-v0.2","","""event"",""trial"",""time""
""fullscreenenter"",""1"",""1875""
","
","
","""event"",""trial"",""time""
""fullscreenenter"",""1"",""1875""
","
","","","1545.2000000476837","","","14","3039","2761","p","elianto","#3366ff99","-1"," ","0","+10","[2396.5999999046326]","1","2","","","3039","73","5","2","win","no-go","1"
"pit-trial","137","979450","0.0-78.0","battery-v0.2","","""event"",""trial"",""time""
""fullscreenenter"",""1"",""1875""
","
","
","""event"",""trial"",""time""
""fullscreenenter"",""1"",""1875""
","
","","","1028.6000001430511","","","14","3039","2761","s","elianto","#3366ff99"," "," ","1","0","[1879.4000000953674]","1","2","","","3039","74","4","1","win","go","1"
"pit-trial","138","984318","0.0-79.0","battery-v0.2","","""event"",""trial"",""time""
""fullscreenenter"",""1"",""1875""
","
","
","""event"",""trial"",""time""
""fullscreenenter"",""1"",""1875""
","
","","","-1","","","14","3039","2761","d","elianto","#3366ff99","-1","-1","1","+10","[]","0","2","","","3039","75","1","2","win","no-go","0"
"pit-trial","139","989182","0.0-80.0","battery-v0.2","","""event"",""trial"",""time""
""fullscreenenter"",""1"",""1875""
","
","
","""event"",""trial"",""time""
""fullscreenenter"",""1"",""1875""
","
","","","-1","","","14","3039","2761","w","elianto","#f73b6a7A","-1","-1","1","0","[]","0","2","","","3039","76","3","4","lose","no-go","0"
"pit-trial","140","992646","0.0-81.0","battery-v0.2","","""event"",""trial"",""time""
""fullscreenenter"",""1"",""1875""
","
","
","""event"",""trial"",""time""
""fullscreenenter"",""1"",""1875""
","
","","","607","","","14","3039","2761","p","elianto","#3366ff99","-1"," ","0","0","[1457]","1","2","","","3039","77","5","2","win","no-go","0"
"pit-trial","141","996317","0.0-82.0","battery-v0.2","","""event"",""trial"",""time""
""fullscreenenter"",""1"",""1875""
","
","
","""event"",""trial"",""time""
""fullscreenenter"",""1"",""1875""
","
","","","815","","","14","3039","2761","s","elianto","#3366ff99"," "," ","1","+10","[1665.5999999046326]","1","2","","","3039","78","4","1","win","go","0"
"pit-trial","142","1000004","0.0-83.0","battery-v0.2","","""event"",""trial"",""time""
""fullscreenenter"",""1"",""1875""
","
","
","""event"",""trial"",""time""
""fullscreenenter"",""1"",""1875""
","
","","","826.9000000953674","","","14","3039","2761","s","elianto","#3366ff99"," "," ","1","+10","[1677.2000000476837]","1","2","","","3039","79","4","1","win","go","0"
"pit-trial","143","1004864","0.0-84.0","battery-v0.2","","""event"",""trial"",""time""
""fullscreenenter"",""1"",""1875""
","
","
","""event"",""trial"",""time""
""fullscreenenter"",""1"",""1875""
","
","","","-1","","","14","3039","2761","w","elianto","#f73b6a7A","-1","-1","1","-10","[]","0","2","","","3039","80","3","4","lose","no-go","1"
"pit-trial","144","1008511","0.0-85.0","battery-v0.2","","""event"",""trial"",""time""
""fullscreenenter"",""1"",""1875""
","
","
","""event"",""trial"",""time""
""fullscreenenter"",""1"",""1875""
","
","","","788.5","","","14","3039","2761","w","elianto","#f73b6a7A","-1"," ","0","-10","[1639.6000001430511]","1","2","","","3039","81","3","4","lose","no-go","0"
"pit-trial","145","1012108","0.0-86.0","battery-v0.2","","""event"",""trial"",""time""
""fullscreenenter"",""1"",""1875""
","
","
","""event"",""trial"",""time""
""fullscreenenter"",""1"",""1875""
","
","","","741.7000000476837","","","14","3039","2761","s","elianto","#3366ff99"," "," ","1","+10","[1593]","1","2","","","3039","82","4","1","win","go","0"
"pit-trial","146","1016568","0.0-87.0","battery-v0.2","","""event"",""trial"",""time""
""fullscreenenter"",""1"",""1875""
","
","
","""event"",""trial"",""time""
""fullscreenenter"",""1"",""1875""
","
","","","1606","","","14","3039","2761","a","elianto","#f73b6a7A","-1"," ","0","-10","[2456.0999999046326]","1","2","","","3039","83","7","4","lose","no-go","0"
"pit-trial","147","1020615","0.0-88.0","battery-v0.2","","""event"",""trial"",""time""
""fullscreenenter"",""1"",""1875""
","
","
","""event"",""trial"",""time""
""fullscreenenter"",""1"",""1875""
","
","","","1191.2000000476837","","","14","3039","2761","p","elianto","#3366ff99","-1"," ","0","0","[2041.6000001430511]","1","2","","","3039","84","5","2","win","no-go","0"
"pit-trial","148","1025475","0.0-89.0","battery-v0.2","","""event"",""trial"",""time""
""fullscreenenter"",""1"",""1875""
","
","
","""event"",""trial"",""time""
""fullscreenenter"",""1"",""1875""
","
","","","-1","","","14","3039","2761","a","elianto","#f73b6a7A","-1","-1","1","0","[]","0","2","","","3039","85","7","4","lose","no-go","0"
"pit-trial","149","1029384","0.0-90.0","battery-v0.2","","""event"",""trial"",""time""
""fullscreenenter"",""1"",""1875""
","
","
","""event"",""trial"",""time""
""fullscreenenter"",""1"",""1875""
","
","","","1052.7000000476837","","","14","3039","2761","s","elianto","#3366ff99"," "," ","1","+10","[1902.8000001907349]","1","2","","","3039","86","4","1","win","go","0"
"pit-trial","150","1034243","0.0-91.0","battery-v0.2","","""event"",""trial"",""time""
""fullscreenenter"",""1"",""1875""
","
","
","""event"",""trial"",""time""
""fullscreenenter"",""1"",""1875""
","
","","","-1","","","14","3039","2761","g","elianto","#f73b6a7A"," ","-1","0","-10","[]","0","2","","","3039","87","6","3","lose","go","0"
"pit-trial","151","1039104","0.0-92.0","battery-v0.2","","""event"",""trial"",""time""
""fullscreenenter"",""1"",""1875""
","
","
","""event"",""trial"",""time""
""fullscreenenter"",""1"",""1875""
","
","","","-1","","","14","3039","2761","p","elianto","#3366ff99","-1","-1","1","+10","[]","0","2","","","3039","88","5","2","win","no-go","0"
"pit-trial","152","1043966","0.0-93.0","battery-v0.2","","""event"",""trial"",""time""
""fullscreenenter"",""1"",""1875""
","
","
","""event"",""trial"",""time""
""fullscreenenter"",""1"",""1875""
","
","","","-1","","","14","3039","2761","a","elianto","#f73b6a7A","-1","-1","1","0","[]","0","2","","","3039","89","7","4","lose","no-go","0"
"pit-trial","153","1048828","0.0-94.0","battery-v0.2","","""event"",""trial"",""time""
""fullscreenenter"",""1"",""1875""
","
","
","""event"",""trial"",""time""
""fullscreenenter"",""1"",""1875""
","
","","","-1","","","14","3039","2761","p","elianto","#3366ff99","-1","-1","1","0","[]","0","2","","","3039","90","5","2","win","no-go","1"
"pit-trial","154","1052361","0.0-95.0","battery-v0.2","","""event"",""trial"",""time""
""fullscreenenter"",""1"",""1875""
","
","
","""event"",""trial"",""time""
""fullscreenenter"",""1"",""1875""
","
","","","677.5","","","14","3039","2761","g","elianto","#f73b6a7A"," "," ","1","0","[1527.7000000476837]","1","2","","","3039","91","6","3","lose","go","0"
"pit-trial","155","1055785","0.0-96.0","battery-v0.2","","""event"",""trial"",""time""
""fullscreenenter"",""1"",""1875""
","
","
","""event"",""trial"",""time""
""fullscreenenter"",""1"",""1875""
","
","","","569.6000001430511","","","14","3039","2761","s","elianto","#3366ff99"," "," ","1","0","[1420.2000000476837]","1","2","","","3039","92","4","1","win","go","1"
"pit-trial","156","1059993","0.0-97.0","battery-v0.2","","""event"",""trial"",""time""
""fullscreenenter"",""1"",""1875""
","
","
","""event"",""trial"",""time""
""fullscreenenter"",""1"",""1875""
","
","","","1347.7999999523163","","","14","3039","2761","l","elianto","#3366ff99"," "," ","1","0","[2199.2000000476837]","1","2","","","3039","93","8","1","win","go","1"
"pit-trial","157","1064854","0.0-98.0","battery-v0.2","","""event"",""trial"",""time""
""fullscreenenter"",""1"",""1875""
","
","
","""event"",""trial"",""time""
""fullscreenenter"",""1"",""1875""
","
","","","-1","","","14","3039","2761","p","elianto","#3366ff99","-1","-1","1","+10","[]","0","2","","","3039","94","5","2","win","no-go","0"
"pit-trial","158","1069716","0.0-99.0","battery-v0.2","","""event"",""trial"",""time""
""fullscreenenter"",""1"",""1875""
","
","
","""event"",""trial"",""time""
""fullscreenenter"",""1"",""1875""
","
","","","-1","","","14","3039","2761","a","elianto","#f73b6a7A","-1","-1","1","-10","[]","0","2","","","3039","95","7","4","lose","no-go","1"
"pit-trial","159","1074572","0.0-100.0","battery-v0.2","","""event"",""trial"",""time""
""fullscreenenter"",""1"",""1875""
","
","
","""event"",""trial"",""time""
""fullscreenenter"",""1"",""1875""
","
","","","-1","","","14","3039","2761","g","elianto","#f73b6a7A"," ","-1","0","-10","[]","0","2","","","3039","96","6","3","lose","go","0"
"pit-trial","160","1078548","0.0-101.0","battery-v0.2","","""event"",""trial"",""time""
""fullscreenenter"",""1"",""1875""
","
","
","""event"",""trial"",""time""
""fullscreenenter"",""1"",""1875""
","
","","","1118.4000000953674","","","14","3039","2761","p","elianto","#3366ff99","-1"," ","0","+10","[1969.7999999523163]","1","2","","","3039","97","5","2","win","no-go","1"
"pit-trial","161","1083407","0.0-102.0","battery-v0.2","","""event"",""trial"",""time""
""fullscreenenter"",""1"",""1875""
","
","
","""event"",""trial"",""time""
""fullscreenenter"",""1"",""1875""
","
","","","-1","","","14","3039","2761","l","elianto","#3366ff99"," ","-1","0","0","[]","0","2","","","3039","98","8","1","win","go","0"
"pit-trial","162","1086890","0.0-103.0","battery-v0.2","","""event"",""trial"",""time""
""fullscreenenter"",""1"",""1875""
","
","
","""event"",""trial"",""time""
""fullscreenenter"",""1"",""1875""
","
","","","624.4000000953674","","","14","3039","2761","a","elianto","#f73b6a7A","-1"," ","0","-10","[1474.8000001907349]","1","2","","","3039","99","7","4","lose","no-go","0"
"pit-trial","163","1091093","0.0-104.0","battery-v0.2","","""event"",""trial"",""time""
""fullscreenenter"",""1"",""1875""
","
","
","""event"",""trial"",""time""
""fullscreenenter"",""1"",""1875""
","
","","","1345.8999998569489","","","14","3039","2761","g","elianto","#f73b6a7A"," "," ","1","0","[2197.199999809265]","1","2","","","3039","100","6","3","lose","go","0"
"pit-trial","164","1095599","0.0-105.0","battery-v0.2","","""event"",""trial"",""time""
""fullscreenenter"",""1"",""1875""
","
","
","""event"",""trial"",""time""
""fullscreenenter"",""1"",""1875""
","
","","","1648.5","","","14","3039","2761","u","elianto","#3366ff99"," "," ","1","+10","[2499.800000190735]","1","2","","","3039","101","9","1","win","go","0"
"pit-trial","165","1100458","0.0-106.0","battery-v0.2","","""event"",""trial"",""time""
""fullscreenenter"",""1"",""1875""
","
","
","""event"",""trial"",""time""
""fullscreenenter"",""1"",""1875""
","
","","","-1","","","14","3039","2761","l","elianto","#3366ff99"," ","-1","0","+10","[]","0","2","","","3039","102","8","1","win","go","1"
"pit-trial","166","1104234","0.0-107.0","battery-v0.2","","""event"",""trial"",""time""
""fullscreenenter"",""1"",""1875""
","
","
","""event"",""trial"",""time""
""fullscreenenter"",""1"",""1875""
","
","","","920.4000000953674","","","14","3039","2761","p","elianto","#3366ff99","-1"," ","0","0","[1771]","1","2","","","3039","103","5","2","win","no-go","0"
"pit-trial","167","1108538","0.0-108.0","battery-v0.2","","""event"",""trial"",""time""
""fullscreenenter"",""1"",""1875""
","
","
","""event"",""trial"",""time""
""fullscreenenter"",""1"",""1875""
","
","","","1446.5","","","14","3039","2761","a","elianto","#f73b6a7A","-1"," ","0","-10","[2297.2999999523163]","1","2","","","3039","104","7","4","lose","no-go","0"
"pit-trial","168","1112737","0.0-109.0","battery-v0.2","","""event"",""trial"",""time""
""fullscreenenter"",""1"",""1875""
","
","
","""event"",""trial"",""time""
""fullscreenenter"",""1"",""1875""
","
","","","1340.4000000953674","","","14","3039","2761","g","elianto","#f73b6a7A"," "," ","1","0","[2192.7000000476837]","1","2","","","3039","105","6","3","lose","go","0"
"pit-trial","169","1116474","0.0-110.0","battery-v0.2","","""event"",""trial"",""time""
""fullscreenenter"",""1"",""1875""
","
","
","""event"",""trial"",""time""
""fullscreenenter"",""1"",""1875""
","
","","","877.7999999523163","","","14","3039","2761","s","elianto","#3366ff99"," "," ","1","+10","[1729.3999998569489]","1","2","","","3039","106","4","1","win","go","0"
"pit-trial","170","1120970","0.0-111.0","battery-v0.2","","""event"",""trial"",""time""
""fullscreenenter"",""1"",""1875""
","
","
","""event"",""trial"",""time""
""fullscreenenter"",""1"",""1875""
","
","","","1641.6000001430511","","","14","3039","2761","l","elianto","#3366ff99"," "," ","1","+10","[2493.600000143051]","1","2","","","3039","107","8","1","win","go","0"
"pit-trial","171","1125829","0.0-112.0","battery-v0.2","","""event"",""trial"",""time""
""fullscreenenter"",""1"",""1875""
","
","
","""event"",""trial"",""time""
""fullscreenenter"",""1"",""1875""
","
","","","-1","","","14","3039","2761","u","elianto","#3366ff99"," ","-1","0","0","[]","0","2","","","3039","108","9","1","win","go","0"
"pit-trial","172","1129546","0.0-113.0","battery-v0.2","","""event"",""trial"",""time""
""fullscreenenter"",""1"",""1875""
","
","
","""event"",""trial"",""time""
""fullscreenenter"",""1"",""1875""
","
","","","860.1000001430511","","","14","3039","2761","p","elianto","#3366ff99","-1"," ","0","0","[1710.7000000476837]","1","2","","","3039","109","5","2","win","no-go","0"
"pit-trial","173","1133440","0.0-114.0","battery-v0.2","","""event"",""trial"",""time""
""fullscreenenter"",""1"",""1875""
","
","
","""event"",""trial"",""time""
""fullscreenenter"",""1"",""1875""
","
","","","1039.3999998569489","","","14","3039","2761","u","elianto","#3366ff99"," "," ","1","+10","[1889.5999999046326]","1","2","","","3039","110","9","1","win","go","0"
"pit-trial","174","1138299","0.0-115.0","battery-v0.2","","""event"",""trial"",""time""
""fullscreenenter"",""1"",""1875""
","
","
","""event"",""trial"",""time""
""fullscreenenter"",""1"",""1875""
","
","","","-1","","","14","3039","2761","g","elianto","#f73b6a7A"," ","-1","0","0","[]","0","2","","","3039","111","6","3","lose","go","1"
"pit-trial","175","1142597","0.0-116.0","battery-v0.2","","""event"",""trial"",""time""
""fullscreenenter"",""1"",""1875""
","
","
","""event"",""trial"",""time""
""fullscreenenter"",""1"",""1875""
","
","","","1440.5","","","14","3039","2761","l","elianto","#3366ff99"," "," ","1","+10","[2291.300000190735]","1","2","","","3039","112","8","1","win","go","0"
"pit-trial","176","1146949","0.0-117.0","battery-v0.2","","""event"",""trial"",""time""
""fullscreenenter"",""1"",""1875""
","
","
","""event"",""trial"",""time""
""fullscreenenter"",""1"",""1875""
","
","","","1496.0999999046326","","","14","3039","2761","p","elianto","#3366ff99","-1"," ","0","0","[2346.899999856949]","1","2","","","3039","113","5","2","win","no-go","0"
"pit-trial","177","1151813","0.0-118.0","battery-v0.2","","""event"",""trial"",""time""
""fullscreenenter"",""1"",""1875""
","
","
","""event"",""trial"",""time""
""fullscreenenter"",""1"",""1875""
","
","","","-1","","","14","3039","2761","g","elianto","#f73b6a7A"," ","-1","0","-10","[]","0","2","","","3039","114","6","3","lose","go","0"
"pit-trial","178","1156224","0.0-119.0","battery-v0.2","","""event"",""trial"",""time""
""fullscreenenter"",""1"",""1875""
","
","
","""event"",""trial"",""time""
""fullscreenenter"",""1"",""1875""
","
","","","1556.1999998092651","","","14","3039","2761","l","elianto","#3366ff99"," "," ","1","+10","[2406.7999999523163]","1","2","","","3039","115","8","1","win","go","0"
"pit-trial","179","1160379","0.0-120.0","battery-v0.2","","""event"",""trial"",""time""
""fullscreenenter"",""1"",""1875""
","
","
","""event"",""trial"",""time""
""fullscreenenter"",""1"",""1875""
","
","","","1296.5","","","14","3039","2761","u","elianto","#3366ff99"," "," ","1","+10","[2149.5]","1","2","","","3039","116","9","1","win","go","0"
"pit-trial","180","1164022","0.0-121.0","battery-v0.2","","""event"",""trial"",""time""
""fullscreenenter"",""1"",""1875""
","
","
","""event"",""trial"",""time""
""fullscreenenter"",""1"",""1875""
","
","","","788.0999999046326","","","14","3039","2761","u","elianto","#3366ff99"," "," ","1","+10","[1638.6000001430511]","1","2","","","3039","117","9","1","win","go","0"
"pit-trial","181","1168155","0.0-122.0","battery-v0.2","","""event"",""trial"",""time""
""fullscreenenter"",""1"",""1875""
","
","
","""event"",""trial"",""time""
""fullscreenenter"",""1"",""1875""
","
","","","1277.2999999523163","","","14","3039","2761","l","elianto","#3366ff99"," "," ","1","+10","[2129.7000000476837]","1","2","","","3039","118","8","1","win","go","0"
"pit-trial","182","1173012","0.0-123.0","battery-v0.2","","""event"",""trial"",""time""
""fullscreenenter"",""1"",""1875""
","
","
","""event"",""trial"",""time""
""fullscreenenter"",""1"",""1875""
","
","","","-1","","","14","3039","2761","g","elianto","#f73b6a7A"," ","-1","0","-10","[]","0","2","","","3039","119","6","3","lose","go","0"
"pit-trial","183","1177872","0.0-124.0","battery-v0.2","","""event"",""trial"",""time""
""fullscreenenter"",""1"",""1875""
","
","
","""event"",""trial"",""time""
""fullscreenenter"",""1"",""1875""
","
","","","-1","","","14","3039","2761","p","elianto","#3366ff99","-1","-1","1","+10","[]","0","2","","","3039","120","5","2","win","no-go","0"
"pit-trial","184","1181936","0.0-125.0","battery-v0.2","","""event"",""trial"",""time""
""fullscreenenter"",""1"",""1875""
","
","
","""event"",""trial"",""time""
""fullscreenenter"",""1"",""1875""
","
","","","1207.1000001430511","","","14","3039","2761","a","elianto","#f73b6a7A","-1"," ","0","-10","[2058.7000000476837]","1","2","","","3039","121","7","4","lose","no-go","0"
"pit-trial","185","1186795","0.0-126.0","battery-v0.2","","""event"",""trial"",""time""
""fullscreenenter"",""1"",""1875""
","
","
","""event"",""trial"",""time""
""fullscreenenter"",""1"",""1875""
","
","","","-1","","","14","3039","2761","g","elianto","#f73b6a7A"," ","-1","0","-10","[3016.899999856949]","1","2","","","3039","122","6","3","lose","go","0"
"pit-trial","186","1191656","0.0-127.0","battery-v0.2","","""event"",""trial"",""time""
""fullscreenenter"",""1"",""1875""
","
","
","""event"",""trial"",""time""
""fullscreenenter"",""1"",""1875""
","
","","","-1","","","14","3039","2761","l","elianto","#3366ff99"," ","-1","0","+10","[]","0","2","","","3039","123","8","1","win","go","1"
"pit-trial","187","1195526","0.0-128.0","battery-v0.2","","""event"",""trial"",""time""
""fullscreenenter"",""1"",""1875""
","
","
","""event"",""trial"",""time""
""fullscreenenter"",""1"",""1875""
","
","","","1015","","","14","3039","2761","u","elianto","#3366ff99"," "," ","1","0","[1865.1000001430511]","1","2","","","3039","124","9","1","win","go","1"
"pit-trial","188","1200385","0.0-129.0","battery-v0.2","","""event"",""trial"",""time""
""fullscreenenter"",""1"",""1875""
","
","
","""event"",""trial"",""time""
""fullscreenenter"",""1"",""1875""
","
","","","-1","","","14","3039","2761","l","elianto","#3366ff99"," ","-1","0","0","[]","0","2","","","3039","125","8","1","win","go","0"
"pit-trial","189","1205243","0.0-130.0","battery-v0.2","","""event"",""trial"",""time""
""fullscreenenter"",""1"",""1875""
","
","
","""event"",""trial"",""time""
""fullscreenenter"",""1"",""1875""
","
","","","-1","","","14","3039","2761","u","elianto","#3366ff99"," ","-1","0","0","[]","0","2","","","3039","126","9","1","win","go","0"
"pit-trial","190","1210102","0.0-131.0","battery-v0.2","","""event"",""trial"",""time""
""fullscreenenter"",""1"",""1875""
","
","
","""event"",""trial"",""time""
""fullscreenenter"",""1"",""1875""
","
","","","-1","","","14","3039","2761","g","elianto","#f73b6a7A"," ","-1","0","-10","[]","0","2","","","3039","127","6","3","lose","go","0"
"pit-trial","191","1214961","0.0-132.0","battery-v0.2","","""event"",""trial"",""time""
""fullscreenenter"",""1"",""1875""
","
","
","""event"",""trial"",""time""
""fullscreenenter"",""1"",""1875""
","
","","","-1","","","14","3039","2761","a","elianto","#f73b6a7A","-1","-1","1","0","[]","0","2","","","3039","128","7","4","lose","no-go","0"
"pit-trial","192","1219820","0.0-133.0","battery-v0.2","","""event"",""trial"",""time""
""fullscreenenter"",""1"",""1875""
","
","
","""event"",""trial"",""time""
""fullscreenenter"",""1"",""1875""
","
","","","-1","","","14","3039","2761","a","elianto","#f73b6a7A","-1","-1","1","0","[]","0","2","","","3039","129","7","4","lose","no-go","0"
"pit-trial","193","1223846","0.0-134.0","battery-v0.2","","""event"",""trial"",""time""
""fullscreenenter"",""1"",""1875""
","
","
","""event"",""trial"",""time""
""fullscreenenter"",""1"",""1875""
","
","","","1170.5999999046326","","","14","3039","2761","g","elianto","#f73b6a7A"," "," ","1","0","[2021.3999998569489]","1","2","","","3039","130","6","3","lose","go","0"
"pit-trial","194","1227377","0.0-135.0","battery-v0.2","","""event"",""trial"",""time""
""fullscreenenter"",""1"",""1875""
","
","
","""event"",""trial"",""time""
""fullscreenenter"",""1"",""1875""
","
","","","664.0999999046326","","","14","3039","2761","l","elianto","#3366ff99"," "," ","1","+10","[1514.5999999046326]","1","2","","","3039","131","8","1","win","go","0"
"pit-trial","195","1230849","0.0-136.0","battery-v0.2","","""event"",""trial"",""time""
""fullscreenenter"",""1"",""1875""
","
","
","""event"",""trial"",""time""
""fullscreenenter"",""1"",""1875""
","
","","","587.7000000476837","","","14","3039","2761","u","elianto","#3366ff99"," "," ","1","+10","[1439.8000001907349]","1","2","","","3039","132","9","1","win","go","0"
"pit-trial","196","1235708","0.0-137.0","battery-v0.2","","""event"",""trial"",""time""
""fullscreenenter"",""1"",""1875""
","
","
","""event"",""trial"",""time""
""fullscreenenter"",""1"",""1875""
","
","","","-1","","","14","3039","2761","a","elianto","#f73b6a7A","-1","-1","1","0","[]","0","2","","","3039","133","7","4","lose","no-go","0"
"pit-trial","197","1239484","0.0-138.0","battery-v0.2","","""event"",""trial"",""time""
""fullscreenenter"",""1"",""1875""
","
","
","""event"",""trial"",""time""
""fullscreenenter"",""1"",""1875""
","
","","","920.2000000476837","","","14","3039","2761","g","elianto","#f73b6a7A"," "," ","1","0","[1771.2999999523163]","1","2","","","3039","134","6","3","lose","go","0"
"pit-trial","198","1243244","0.0-139.0","battery-v0.2","","""event"",""trial"",""time""
""fullscreenenter"",""1"",""1875""
","
","
","""event"",""trial"",""time""
""fullscreenenter"",""1"",""1875""
","
","","","904.1000001430511","","","14","3039","2761","l","elianto","#3366ff99"," "," ","1","+10","[1754.5]","1","2","","","3039","135","8","1","win","go","0"
"pit-trial","199","1246834","0.0-140.0","battery-v0.2","","""event"",""trial"",""time""
""fullscreenenter"",""1"",""1875""
","
","
","""event"",""trial"",""time""
""fullscreenenter"",""1"",""1875""
","
","","","732.7999999523163","","","14","3039","2761","u","elianto","#3366ff99"," "," ","1","+10","[1582.7999999523163]","1","2","","","3039","136","9","1","win","go","0"
"pit-trial","200","1251692","0.0-141.0","battery-v0.2","","""event"",""trial"",""time""
""fullscreenenter"",""1"",""1875""
","
","
","""event"",""trial"",""time""
""fullscreenenter"",""1"",""1875""
","
","","","-1","","","14","3039","2761","a","elianto","#f73b6a7A","-1","-1","1","-10","[]","0","2","","","3039","137","7","4","lose","no-go","1"
"pit-trial","201","1255484","0.0-142.0","battery-v0.2","","""event"",""trial"",""time""
""fullscreenenter"",""1"",""1875""
","
","
","""event"",""trial"",""time""
""fullscreenenter"",""1"",""1875""
","
","","","934.2000000476837","","","14","3039","2761","l","elianto","#3366ff99"," "," ","1","0","[1785.7999999523163]","1","2","","","3039","138","8","1","win","go","1"
"pit-trial","202","1259137","0.0-143.0","battery-v0.2","","""event"",""trial"",""time""
""fullscreenenter"",""1"",""1875""
","
","
","""event"",""trial"",""time""
""fullscreenenter"",""1"",""1875""
","
","","","798.7000000476837","","","14","3039","2761","u","elianto","#3366ff99"," "," ","1","+10","[1649.2000000476837]","1","2","","","3039","139","9","1","win","go","0"
"pit-trial","203","1263250","0.0-144.0","battery-v0.2","","""event"",""trial"",""time""
""fullscreenenter"",""1"",""1875""
","
","
","""event"",""trial"",""time""
""fullscreenenter"",""1"",""1875""
","
","","","1254.5999999046326","","","14","3039","2761","g","elianto","#f73b6a7A"," "," ","1","0","[2104.5]","1","2","","","3039","140","6","3","lose","go","0"
"pit-instructions","204","1334457","0.0-145.0","battery-v0.2","","""event"",""trial"",""time""
""fullscreenenter"",""1"",""1875""
","
","
","""event"",""trial"",""time""
""fullscreenenter"",""1"",""1875""
","
","","[{""page_index"":0,""viewing_time"":62092.200000047684},{""page_index"":1,""viewing_time"":9106.100000143051}]","71198.70000004768","","","","","","","","","","","","","","","","","","","","","","","",""
"pit-trial","205","1338209","0.0-146.0","battery-v0.2","","""event"",""trial"",""time""
""fullscreenenter"",""1"",""1875""
","
","
","""event"",""trial"",""time""
""fullscreenenter"",""1"",""1875""
","
","","","888.9000000953674","","","14","3039","2761","r","elianto","#3366ff99"," "," ","1","0","[1740.2999999523163]","1","3","","","3039","141","1","1","win","go","1"
"pit-trial","206","1343070","0.0-147.0","battery-v0.2","","""event"",""trial"",""time""
""fullscreenenter"",""1"",""1875""
","
","
","""event"",""trial"",""time""
""fullscreenenter"",""1"",""1875""
","
","","","-1","","","14","3039","2761","h","elianto","#f73b6a7A"," ","-1","0","0","[]","0","3","","","3039","142","3","3","lose","go","1"
"pit-trial","207","1346891","0.0-148.0","battery-v0.2","","""event"",""trial"",""time""
""fullscreenenter"",""1"",""1875""
","
","
","""event"",""trial"",""time""
""fullscreenenter"",""1"",""1875""
","
","","","961.4000000953674","","","14","3039","2761","m","elianto","#f73b6a7A","-1"," ","0","0","[1812.2999999523163]","1","3","","","3039","143","0","4","lose","no-go","1"
"pit-trial","208","1350636","0.0-149.0","battery-v0.2","","""event"",""trial"",""time""
""fullscreenenter"",""1"",""1875""
","
","
","""event"",""trial"",""time""
""fullscreenenter"",""1"",""1875""
","
","","","891.7000000476837","","","14","3039","2761","y","elianto","#f73b6a7A","-1"," ","0","-10","[1742.5]","1","3","","","3039","144","2","4","lose","no-go","0"
"pit-trial","209","1354667","0.0-150.0","battery-v0.2","","""event"",""trial"",""time""
""fullscreenenter"",""1"",""1875""
","
","
","""event"",""trial"",""time""
""fullscreenenter"",""1"",""1875""
","
","","","1177.8999998569489","","","14","3039","2761","m","elianto","#f73b6a7A","-1"," ","0","-10","[2027.9000000953674]","1","3","","","3039","145","0","4","lose","no-go","0"
"pit-trial","210","1359527","0.0-151.0","battery-v0.2","","""event"",""trial"",""time""
""fullscreenenter"",""1"",""1875""
","
","
","""event"",""trial"",""time""
""fullscreenenter"",""1"",""1875""
","
","","","-1","","","14","3039","2761","y","elianto","#f73b6a7A","-1","-1","1","-10","[]","0","3","","","3039","146","2","4","lose","no-go","1"
"pit-trial","211","1364384","0.0-152.0","battery-v0.2","","""event"",""trial"",""time""
""fullscreenenter"",""1"",""1875""
","
","
","""event"",""trial"",""time""
""fullscreenenter"",""1"",""1875""
","
","","","-1","","","14","3039","2761","r","elianto","#3366ff99"," ","-1","0","0","[]","0","3","","","3039","147","1","1","win","go","0"
"pit-trial","212","1368736","0.0-153.0","battery-v0.2","","""event"",""trial"",""time""
""fullscreenenter"",""1"",""1875""
","
","
","""event"",""trial"",""time""
""fullscreenenter"",""1"",""1875""
","
","","","1496.6999998092651","","","14","3039","2761","h","elianto","#f73b6a7A"," "," ","1","-10","[2347.199999809265]","1","3","","","3039","148","3","3","lose","go","1"
"pit-trial","213","1372437","0.0-154.0","battery-v0.2","","""event"",""trial"",""time""
""fullscreenenter"",""1"",""1875""
","
","
","""event"",""trial"",""time""
""fullscreenenter"",""1"",""1875""
","
","","","847.5999999046326","","","14","3039","2761","m","elianto","#f73b6a7A","-1"," ","0","-10","[1697.8999998569489]","1","3","","","3039","149","0","4","lose","no-go","0"
"pit-trial","214","1377295","0.0-155.0","battery-v0.2","","""event"",""trial"",""time""
""fullscreenenter"",""1"",""1875""
","
","
","""event"",""trial"",""time""
""fullscreenenter"",""1"",""1875""
","
","","","-1","","","14","3039","2761","r","elianto","#3366ff99"," ","-1","0","0","[]","0","3","","","3039","150","1","1","win","go","0"
"pit-trial","215","1382154","0.0-156.0","battery-v0.2","","""event"",""trial"",""time""
""fullscreenenter"",""1"",""1875""
","
","
","""event"",""trial"",""time""
""fullscreenenter"",""1"",""1875""
","
","","","-1","","","14","3039","2761","h","elianto","#f73b6a7A"," ","-1","0","-10","[]","0","3","","","3039","151","3","3","lose","go","0"
"pit-trial","216","1386080","0.0-157.0","battery-v0.2","","""event"",""trial"",""time""
""fullscreenenter"",""1"",""1875""
","
","
","""event"",""trial"",""time""
""fullscreenenter"",""1"",""1875""
","
","","","1066.9000000953674","","","14","3039","2761","y","elianto","#f73b6a7A","-1"," ","0","-10","[1918.5]","1","3","","","3039","152","2","4","lose","no-go","0"
"pit-trial","217","1390938","0.0-158.0","battery-v0.2","","""event"",""trial"",""time""
""fullscreenenter"",""1"",""1875""
","
","
","""event"",""trial"",""time""
""fullscreenenter"",""1"",""1875""
","
","","","-1","","","14","3039","2761","h","elianto","#f73b6a7A"," ","-1","0","0","[]","0","3","","","3039","153","3","3","lose","go","1"
"pit-trial","218","1395291","0.0-159.0","battery-v0.2","","""event"",""trial"",""time""
""fullscreenenter"",""1"",""1875""
","
","
","""event"",""trial"",""time""
""fullscreenenter"",""1"",""1875""
","
","","","1493.5","","","14","3039","2761","m","elianto","#f73b6a7A","-1"," ","0","-10","[2345.600000143051]","1","3","","","3039","154","0","4","lose","no-go","0"
"pit-trial","219","1400149","0.0-160.0","battery-v0.2","","""event"",""trial"",""time""
""fullscreenenter"",""1"",""1875""
","
","
","""event"",""trial"",""time""
""fullscreenenter"",""1"",""1875""
","
","","","-1","","","14","3039","2761","y","elianto","#f73b6a7A","-1","-1","1","0","[]","0","3","","","3039","155","2","4","lose","no-go","0"
"pit-trial","220","1404038","0.0-161.0","battery-v0.2","","""event"",""trial"",""time""
""fullscreenenter"",""1"",""1875""
","
","
","""event"",""trial"",""time""
""fullscreenenter"",""1"",""1875""
","
","","","1030.0999999046326","","","14","3039","2761","r","elianto","#3366ff99"," "," ","1","0","[1880.7000000476837]","1","3","","","3039","156","1","1","win","go","1"
"pit-trial","221","1408896","0.0-162.0","battery-v0.2","","""event"",""trial"",""time""
""fullscreenenter"",""1"",""1875""
","
","
","""event"",""trial"",""time""
""fullscreenenter"",""1"",""1875""
","
","","","-1","","","14","3039","2761","y","elianto","#f73b6a7A","-1","-1","1","0","[]","0","3","","","3039","157","2","4","lose","no-go","0"
"pit-trial","222","1413755","0.0-163.0","battery-v0.2","","""event"",""trial"",""time""
""fullscreenenter"",""1"",""1875""
","
","
","""event"",""trial"",""time""
""fullscreenenter"",""1"",""1875""
","
","","","-1","","","14","3039","2761","m","elianto","#f73b6a7A","-1","-1","1","0","[]","0","3","","","3039","158","0","4","lose","no-go","0"
"pit-trial","223","1418123","0.0-164.0","battery-v0.2","","""event"",""trial"",""time""
""fullscreenenter"",""1"",""1875""
","
","
","""event"",""trial"",""time""
""fullscreenenter"",""1"",""1875""
","
","","","1512.7999999523163","","","14","3039","2761","h","elianto","#f73b6a7A"," "," ","1","0","[2363.5]","1","3","","","3039","159","3","3","lose","go","0"
"pit-trial","224","1422982","0.0-165.0","battery-v0.2","","""event"",""trial"",""time""
""fullscreenenter"",""1"",""1875""
","
","
","""event"",""trial"",""time""
""fullscreenenter"",""1"",""1875""
","
","","","-1","","","14","3039","2761","r","elianto","#3366ff99"," ","-1","0","0","[]","0","3","","","3039","160","1","1","win","go","0"
"pit-trial","225","1426656","0.0-166.0","battery-v0.2","","""event"",""trial"",""time""
""fullscreenenter"",""1"",""1875""
","
","
","""event"",""trial"",""time""
""fullscreenenter"",""1"",""1875""
","
","","","817.7000000476837","","","14","3039","2761","h","elianto","#f73b6a7A"," "," ","1","0","[1668.9000000953674]","1","3","","","3039","161","3","3","lose","go","0"
"pit-trial","226","1431510","0.0-167.0","battery-v0.2","","""event"",""trial"",""time""
""fullscreenenter"",""1"",""1875""
","
","
","""event"",""trial"",""time""
""fullscreenenter"",""1"",""1875""
","
","","","-1","","","14","3039","2761","m","elianto","#f73b6a7A","-1","-1","1","-10","[]","0","3","","","3039","162","0","4","lose","no-go","1"
"pit-trial","227","1435040","0.0-168.0","battery-v0.2","","""event"",""trial"",""time""
""fullscreenenter"",""1"",""1875""
","
","
","""event"",""trial"",""time""
""fullscreenenter"",""1"",""1875""
","
","","","674.3999998569489","","","14","3039","2761","r","elianto","#3366ff99"," "," ","1","+10","[1524.5]","1","3","","","3039","163","1","1","win","go","0"
"pit-trial","228","1439894","0.0-169.0","battery-v0.2","","""event"",""trial"",""time""
""fullscreenenter"",""1"",""1875""
","
","
","""event"",""trial"",""time""
""fullscreenenter"",""1"",""1875""
","
","","","-1","","","14","3039","2761","y","elianto","#f73b6a7A","-1","-1","1","0","[]","0","3","","","3039","164","2","4","lose","no-go","0"
"pit-trial","229","1444753","0.0-170.0","battery-v0.2","","""event"",""trial"",""time""
""fullscreenenter"",""1"",""1875""
","
","
","""event"",""trial"",""time""
""fullscreenenter"",""1"",""1875""
","
","","","-1","","","14","3039","2761","y","elianto","#f73b6a7A","-1","-1","1","0","[]","0","3","","","3039","165","2","4","lose","no-go","0"
"pit-trial","230","1448790","0.0-171.0","battery-v0.2","","""event"",""trial"",""time""
""fullscreenenter"",""1"",""1875""
","
","
","""event"",""trial"",""time""
""fullscreenenter"",""1"",""1875""
","
","","","1183.1000001430511","","","14","3039","2761","z","elianto","#3366ff99","-1"," ","0","0","[2034.1000001430511]","1","3","","","3039","166","4","2","win","no-go","0"
"pit-trial","231","1452470","0.0-172.0","battery-v0.2","","""event"",""trial"",""time""
""fullscreenenter"",""1"",""1875""
","
","
","""event"",""trial"",""time""
""fullscreenenter"",""1"",""1875""
","
","","","821.4000000953674","","","14","3039","2761","h","elianto","#f73b6a7A"," "," ","1","-10","[1672.2000000476837]","1","3","","","3039","167","3","3","lose","go","1"
"pit-trial","232","1456337","0.0-173.0","battery-v0.2","","""event"",""trial"",""time""
""fullscreenenter"",""1"",""1875""
","
","
","""event"",""trial"",""time""
""fullscreenenter"",""1"",""1875""
","
","","","1010.3999998569489","","","14","3039","2761","m","elianto","#f73b6a7A","-1"," ","0","-10","[1860.7999999523163]","1","3","","","3039","168","0","4","lose","no-go","0"
"pit-trial","233","1461196","0.0-174.0","battery-v0.2","","""event"",""trial"",""time""
""fullscreenenter"",""1"",""1875""
","
","
","""event"",""trial"",""time""
""fullscreenenter"",""1"",""1875""
","
","","","-1","","","14","3039","2761","m","elianto","#f73b6a7A","-1","-1","1","0","[]","0","3","","","3039","169","0","4","lose","no-go","0"
"pit-trial","234","1466054","0.0-175.0","battery-v0.2","","""event"",""trial"",""time""
""fullscreenenter"",""1"",""1875""
","
","
","""event"",""trial"",""time""
""fullscreenenter"",""1"",""1875""
","
","","","-1","","","14","3039","2761","z","elianto","#3366ff99","-1","-1","1","+10","[]","0","3","","","3039","170","4","2","win","no-go","0"
"pit-trial","235","1470289","0.0-176.0","battery-v0.2","","""event"",""trial"",""time""
""fullscreenenter"",""1"",""1875""
","
","
","""event"",""trial"",""time""
""fullscreenenter"",""1"",""1875""
","
","","","1375.6000001430511","","","14","3039","2761","r","elianto","#3366ff99"," "," ","1","+10","[2226.699999809265]","1","3","","","3039","171","1","1","win","go","0"
"pit-trial","236","1474214","0.0-177.0","battery-v0.2","","""event"",""trial"",""time""
""fullscreenenter"",""1"",""1875""
","
","
","""event"",""trial"",""time""
""fullscreenenter"",""1"",""1875""
","
","","","1072.0999999046326","","","14","3039","2761","h","elianto","#f73b6a7A"," "," ","1","-10","[1922.0999999046326]","1","3","","","3039","172","3","3","lose","go","1"
"pit-trial","237","1478161","0.0-178.0","battery-v0.2","","""event"",""trial"",""time""
""fullscreenenter"",""1"",""1875""
","
","
","""event"",""trial"",""time""
""fullscreenenter"",""1"",""1875""
","
","","","1089","","","14","3039","2761","r","elianto","#3366ff99"," "," ","1","+10","[1939.8000001907349]","1","3","","","3039","173","1","1","win","go","0"
"pit-trial","238","1483020","0.0-179.0","battery-v0.2","","""event"",""trial"",""time""
""fullscreenenter"",""1"",""1875""
","
","
","""event"",""trial"",""time""
""fullscreenenter"",""1"",""1875""
","
","","","-1","","","14","3039","2761","z","elianto","#3366ff99","-1","-1","1","0","[]","0","3","","","3039","174","4","2","win","no-go","1"
"pit-trial","239","1487879","0.0-180.0","battery-v0.2","","""event"",""trial"",""time""
""fullscreenenter"",""1"",""1875""
","
","
","""event"",""trial"",""time""
""fullscreenenter"",""1"",""1875""
","
","","","-1","","","14","3039","2761","m","elianto","#f73b6a7A","-1","-1","1","0","[]","0","3","","","3039","175","0","4","lose","no-go","0"
"pit-trial","240","1492045","0.0-181.0","battery-v0.2","","""event"",""trial"",""time""
""fullscreenenter"",""1"",""1875""
","
","
","""event"",""trial"",""time""
""fullscreenenter"",""1"",""1875""
","
","","","1311.4000000953674","","","14","3039","2761","y","elianto","#f73b6a7A","-1"," ","0","-10","[2161.5]","1","3","","","3039","176","2","4","lose","no-go","0"
"pit-trial","241","1496902","0.0-182.0","battery-v0.2","","""event"",""trial"",""time""
""fullscreenenter"",""1"",""1875""
","
","
","""event"",""trial"",""time""
""fullscreenenter"",""1"",""1875""
","
","","","-1","","","14","3039","2761","z","elianto","#3366ff99","-1","-1","1","+10","[]","0","3","","","3039","177","4","2","win","no-go","0"
"pit-trial","242","1501761","0.0-183.0","battery-v0.2","","""event"",""trial"",""time""
""fullscreenenter"",""1"",""1875""
","
","
","""event"",""trial"",""time""
""fullscreenenter"",""1"",""1875""
","
","","","-1","","","14","3039","2761","m","elianto","#f73b6a7A","-1","-1","1","0","[]","0","3","","","3039","178","0","4","lose","no-go","0"
"pit-trial","243","1506391","0.0-184.0","battery-v0.2","","""event"",""trial"",""time""
""fullscreenenter"",""1"",""1875""
","
","
","""event"",""trial"",""time""
""fullscreenenter"",""1"",""1875""
","
","","","1775.4000000953674","","","14","3039","2761","r","elianto","#3366ff99"," "," ","1","+10","[2625.800000190735]","1","3","","","3039","179","1","1","win","go","0"
"pit-trial","244","1511249","0.0-185.0","battery-v0.2","","""event"",""trial"",""time""
""fullscreenenter"",""1"",""1875""
","
","
","""event"",""trial"",""time""
""fullscreenenter"",""1"",""1875""
","
","","","-1","","","14","3039","2761","h","elianto","#f73b6a7A"," ","-1","0","-10","[]","0","3","","","3039","180","3","3","lose","go","0"
"pit-trial","245","1516108","0.0-186.0","battery-v0.2","","""event"",""trial"",""time""
""fullscreenenter"",""1"",""1875""
","
","
","""event"",""trial"",""time""
""fullscreenenter"",""1"",""1875""
","
","","","-1","","","14","3039","2761","z","elianto","#3366ff99","-1","-1","1","+10","[]","0","3","","","3039","181","4","2","win","no-go","0"
"pit-trial","246","1520967","0.0-187.0","battery-v0.2","","""event"",""trial"",""time""
""fullscreenenter"",""1"",""1875""
","
","
","""event"",""trial"",""time""
""fullscreenenter"",""1"",""1875""
","
","","","-1","","","14","3039","2761","y","elianto","#f73b6a7A","-1","-1","1","0","[]","0","3","","","3039","182","2","4","lose","no-go","0"
"pit-trial","247","1524488","0.0-188.0","battery-v0.2","","""event"",""trial"",""time""
""fullscreenenter"",""1"",""1875""
","
","
","""event"",""trial"",""time""
""fullscreenenter"",""1"",""1875""
","
","","","665.7999999523163","","","14","3039","2761","r","elianto","#3366ff99"," "," ","1","+10","[1516.7000000476837]","1","3","","","3039","183","1","1","win","go","0"
"pit-trial","248","1527895","0.0-189.0","battery-v0.2","","""event"",""trial"",""time""
""fullscreenenter"",""1"",""1875""
","
","
","""event"",""trial"",""time""
""fullscreenenter"",""1"",""1875""
","
","","","547.5","","","14","3039","2761","h","elianto","#f73b6a7A"," "," ","1","-10","[1399.5]","1","3","","","3039","184","3","3","lose","go","1"
"pit-trial","249","1532754","0.0-190.0","battery-v0.2","","""event"",""trial"",""time""
""fullscreenenter"",""1"",""1875""
","
","
","""event"",""trial"",""time""
""fullscreenenter"",""1"",""1875""
","
","","","-1","","","14","3039","2761","y","elianto","#f73b6a7A","-1","-1","1","0","[]","0","3","","","3039","185","2","4","lose","no-go","0"
"pit-trial","250","1537613","0.0-191.0","battery-v0.2","","""event"",""trial"",""time""
""fullscreenenter"",""1"",""1875""
","
","
","""event"",""trial"",""time""
""fullscreenenter"",""1"",""1875""
","
","","","-1","","","14","3039","2761","h","elianto","#f73b6a7A"," ","-1","0","-10","[]","0","3","","","3039","186","3","3","lose","go","0"
"pit-trial","251","1542471","0.0-192.0","battery-v0.2","","""event"",""trial"",""time""
""fullscreenenter"",""1"",""1875""
","
","
","""event"",""trial"",""time""
""fullscreenenter"",""1"",""1875""
","
","","","-1","","","14","3039","2761","z","elianto","#3366ff99","-1","-1","1","+10","[]","0","3","","","3039","187","4","2","win","no-go","0"
"pit-trial","252","1545959","0.0-193.0","battery-v0.2","","""event"",""trial"",""time""
""fullscreenenter"",""1"",""1875""
","
","
","""event"",""trial"",""time""
""fullscreenenter"",""1"",""1875""
","
","","","631.7999999523163","","","14","3039","2761","r","elianto","#3366ff99"," "," ","1","0","[1482.4000000953674]","1","3","","","3039","188","1","1","win","go","1"
"pit-trial","253","1549746","0.0-194.0","battery-v0.2","","""event"",""trial"",""time""
""fullscreenenter"",""1"",""1875""
","
","
","""event"",""trial"",""time""
""fullscreenenter"",""1"",""1875""
","
","","","929.2000000476837","","","14","3039","2761","r","elianto","#3366ff99"," "," ","1","+10","[1779.0999999046326]","1","3","","","3039","189","1","1","win","go","0"
"pit-trial","254","1553805","0.0-195.0","battery-v0.2","","""event"",""trial"",""time""
""fullscreenenter"",""1"",""1875""
","
","
","""event"",""trial"",""time""
""fullscreenenter"",""1"",""1875""
","
","","","1201.1000001430511","","","14","3039","2761","c","elianto","#3366ff99"," "," ","1","0","[2051.7000000476837]","1","3","","","3039","190","5","1","win","go","1"
"pit-trial","255","1558663","0.0-196.0","battery-v0.2","","""event"",""trial"",""time""
""fullscreenenter"",""1"",""1875""
","
","
","""event"",""trial"",""time""
""fullscreenenter"",""1"",""1875""
","
","","","-1","","","14","3039","2761","h","elianto","#f73b6a7A"," ","-1","0","-10","[]","0","3","","","3039","191","3","3","lose","go","0"
"pit-trial","256","1562509","0.0-197.0","battery-v0.2","","""event"",""trial"",""time""
""fullscreenenter"",""1"",""1875""
","
","
","""event"",""trial"",""time""
""fullscreenenter"",""1"",""1875""
","
","","","988.6999998092651","","","14","3039","2761","z","elianto","#3366ff99","-1"," ","0","0","[1838.5]","1","3","","","3039","192","4","2","win","no-go","0"
"pit-trial","257","1567368","0.0-198.0","battery-v0.2","","""event"",""trial"",""time""
""fullscreenenter"",""1"",""1875""
","
","
","""event"",""trial"",""time""
""fullscreenenter"",""1"",""1875""
","
","","","-1","","","14","3039","2761","z","elianto","#3366ff99","-1","-1","1","+10","[]","0","3","","","3039","193","4","2","win","no-go","0"
"pit-trial","258","1572227","0.0-199.0","battery-v0.2","","""event"",""trial"",""time""
""fullscreenenter"",""1"",""1875""
","
","
","""event"",""trial"",""time""
""fullscreenenter"",""1"",""1875""
","
","","","-1","","","14","3039","2761","c","elianto","#3366ff99"," ","-1","0","+10","[]","0","3","","","3039","194","5","1","win","go","1"
"pit-trial","259","1576214","0.0-200.0","battery-v0.2","","""event"",""trial"",""time""
""fullscreenenter"",""1"",""1875""
","
","
","""event"",""trial"",""time""
""fullscreenenter"",""1"",""1875""
","
","","","1130.2000000476837","","","14","3039","2761","r","elianto","#3366ff99"," "," ","1","+10","[1980.2999999523163]","1","3","","","3039","195","1","1","win","go","0"
"pit-trial","260","1580029","0.0-201.0","battery-v0.2","","""event"",""trial"",""time""
""fullscreenenter"",""1"",""1875""
","
","
","""event"",""trial"",""time""
""fullscreenenter"",""1"",""1875""
","
","","","960.2999999523163","","","14","3039","2761","h","elianto","#f73b6a7A"," "," ","1","0","[1811.4000000953674]","1","3","","","3039","196","3","3","lose","go","0"
"pit-trial","261","1584888","0.0-202.0","battery-v0.2","","""event"",""trial"",""time""
""fullscreenenter"",""1"",""1875""
","
","
","""event"",""trial"",""time""
""fullscreenenter"",""1"",""1875""
","
","","","-1","","","14","3039","2761","z","elianto","#3366ff99","-1","-1","1","+10","[]","0","3","","","3039","197","4","2","win","no-go","0"
"pit-trial","262","1588797","0.0-203.0","battery-v0.2","","""event"",""trial"",""time""
""fullscreenenter"",""1"",""1875""
","
","
","""event"",""trial"",""time""
""fullscreenenter"",""1"",""1875""
","
","","","1055.2000000476837","","","14","3039","2761","b","elianto","#f73b6a7A","-1"," ","0","-10","[1906]","1","3","","","3039","198","6","4","lose","no-go","0"
"pit-trial","263","1592973","0.0-204.0","battery-v0.2","","""event"",""trial"",""time""
""fullscreenenter"",""1"",""1875""
","
","
","""event"",""trial"",""time""
""fullscreenenter"",""1"",""1875""
","
","","","1319.7000000476837","","","14","3039","2761","h","elianto","#f73b6a7A"," "," ","1","0","[2170.600000143051]","1","3","","","3039","199","3","3","lose","go","0"
"pit-trial","264","1597832","0.0-205.0","battery-v0.2","","""event"",""trial"",""time""
""fullscreenenter"",""1"",""1875""
","
","
","""event"",""trial"",""time""
""fullscreenenter"",""1"",""1875""
","
","","","-1","","","14","3039","2761","c","elianto","#3366ff99"," ","-1","0","0","[]","0","3","","","3039","200","5","1","win","go","0"
"pit-trial","265","1601773","0.0-206.0","battery-v0.2","","""event"",""trial"",""time""
""fullscreenenter"",""1"",""1875""
","
","
","""event"",""trial"",""time""
""fullscreenenter"",""1"",""1875""
","
","","","1083.5","","","14","3039","2761","t","elianto","#f73b6a7A"," "," ","1","0","[1934.1999998092651]","1","3","","","3039","201","7","3","lose","go","0"
"pit-trial","266","1606270","0.0-207.0","battery-v0.2","","""event"",""trial"",""time""
""fullscreenenter"",""1"",""1875""
","
","
","""event"",""trial"",""time""
