"trial_type","trial_index","time_elapsed","internal_node_id","task_version","subject_id","interactions","blur_events","focus_events","fullscreenenter_events","fullscreenexit_events","success","view_history","rt","responses","num_errors","age","subject","participantId","rune","rune_set","hex","correct","choice","accuracy","outcome","keys","total_keys","block","practice","value","sub","trial","stimulus","robot","valence","action","sham"
"pavlovia","0","8","0.0-0.0","battery-v0.2","","""event"",""trial"",""time""
""focus"",""0"",""1""
""blur"",""1"",""2907""
""focus"",""1"",""2920""
""fullscreenenter"",""1"",""2934""
","""event"",""trial"",""time""
""blur"",""1"",""2907""
","""event"",""trial"",""time""
""focus"",""0"",""1""
""focus"",""1"",""2920""
","""event"",""trial"",""time""
""fullscreenenter"",""1"",""2934""
","
","","","","","","","","","","","","","","","","","","","","","","","","","","",""
"fullscreen","1","3705","0.0-1.0","battery-v0.2","","""event"",""trial"",""time""
""focus"",""0"",""1""
""blur"",""1"",""2907""
""focus"",""1"",""2920""
""fullscreenenter"",""1"",""2934""
","""event"",""trial"",""time""
""blur"",""1"",""2907""
","""event"",""trial"",""time""
""focus"",""0"",""1""
""focus"",""1"",""2920""
","""event"",""trial"",""time""
""fullscreenenter"",""1"",""2934""
","
","true","","","","","","","","","","","","","","","","","","","","","","","","","",""
"pit-instructions","2","7725","0.0-2.0-0.0","battery-v0.2","","""event"",""trial"",""time""
""focus"",""0"",""1""
""blur"",""1"",""2907""
""focus"",""1"",""2920""
""fullscreenenter"",""1"",""2934""
","""event"",""trial"",""time""
""blur"",""1"",""2907""
","""event"",""trial"",""time""
""focus"",""0"",""1""
""focus"",""1"",""2920""
","""event"",""trial"",""time""
""fullscreenenter"",""1"",""2934""
","
","","[{""page_index"":0,""viewing_time"":4012}]","4012","","","","","","","","","","","","","","","","","","","","","","","",""
"pit-comprehension","3","10104","0.0-2.0-1.0-0.0","battery-v0.2","","""event"",""trial"",""time""
""focus"",""0"",""1""
""blur"",""1"",""2907""
""focus"",""1"",""2920""
""fullscreenenter"",""1"",""2934""
","""event"",""trial"",""time""
""blur"",""1"",""2907""
","""event"",""trial"",""time""
""focus"",""0"",""1""
""focus"",""1"",""2920""
","""event"",""trial"",""time""
""fullscreenenter"",""1"",""2934""
","
","","","2373","[""shark""]","0","22","5133","2925","","","","","","","","","","","","","","","","","","",""
"pit-instructions","4","11238","0.0-2.0-1.0-1.0","battery-v0.2","","""event"",""trial"",""time""
""focus"",""0"",""1""
""blur"",""1"",""2907""
""focus"",""1"",""2920""
""fullscreenenter"",""1"",""2934""
","""event"",""trial"",""time""
""blur"",""1"",""2907""
","""event"",""trial"",""time""
""focus"",""0"",""1""
""focus"",""1"",""2920""
","""event"",""trial"",""time""
""fullscreenenter"",""1"",""2934""
","
","","[{""page_index"":0,""viewing_time"":1124}]","1125","","","","","","","","","","","","","","","","","","","","","","","",""
"pit-comprehension","5","13574","0.0-2.0-2.0-0.0","battery-v0.2","","""event"",""trial"",""time""
""focus"",""0"",""1""
""blur"",""1"",""2907""
""focus"",""1"",""2920""
""fullscreenenter"",""1"",""2934""
","""event"",""trial"",""time""
""blur"",""1"",""2907""
","""event"",""trial"",""time""
""focus"",""0"",""1""
""focus"",""1"",""2920""
","""event"",""trial"",""time""
""fullscreenenter"",""1"",""2934""
","
","","","2329","[""tiger""]","0","22","5133","2925","","","","","","","","","","","","","","","","","","",""
"pit-instructions","6","14971","0.0-2.0-2.0-1.0","battery-v0.2","","""event"",""trial"",""time""
""focus"",""0"",""1""
""blur"",""1"",""2907""
""focus"",""1"",""2920""
""fullscreenenter"",""1"",""2934""
","""event"",""trial"",""time""
""blur"",""1"",""2907""
","""event"",""trial"",""time""
""focus"",""0"",""1""
""focus"",""1"",""2920""
","""event"",""trial"",""time""
""fullscreenenter"",""1"",""2934""
","
","","[{""page_index"":0,""viewing_time"":1392}]","1392","","","","","","","","","","","","","","","","","","","","","","","",""
"pit-instructions","7","281754","0.0-2.0-3.0","battery-v0.2","","""event"",""trial"",""time""
""focus"",""0"",""1""
""blur"",""1"",""2907""
""focus"",""1"",""2920""
""fullscreenenter"",""1"",""2934""
","""event"",""trial"",""time""
""blur"",""1"",""2907""
","""event"",""trial"",""time""
""focus"",""0"",""1""
""focus"",""1"",""2920""
","""event"",""trial"",""time""
""fullscreenenter"",""1"",""2934""
","
","","[{""page_index"":0,""viewing_time"":39650},{""page_index"":1,""viewing_time"":8113},{""page_index"":2,""viewing_time"":6601},{""page_index"":3,""viewing_time"":10735},{""page_index"":4,""viewing_time"":6446},{""page_index"":5,""viewing_time"":43155},{""page_index"":6,""viewing_time"":31234},{""page_index"":7,""viewing_time"":13598},{""page_index"":8,""viewing_time"":7116},{""page_index"":9,""viewing_time"":57688},{""page_index"":10,""viewing_time"":7165},{""page_index"":11,""viewing_time"":23234},{""page_index"":12,""viewing_time"":6199},{""page_index"":13,""viewing_time"":5851}]","266785","","","","","","","","","","","","","","","","","","","","","","","",""
"pit-trial","8","285203","0.0-2.0-4.0-0.0","battery-v0.2","","""event"",""trial"",""time""
""focus"",""0"",""1""
""blur"",""1"",""2907""
""focus"",""1"",""2920""
""fullscreenenter"",""1"",""2934""
","""event"",""trial"",""time""
""blur"",""1"",""2907""
","""event"",""trial"",""time""
""focus"",""0"",""1""
""focus"",""1"",""2920""
","""event"",""trial"",""time""
""fullscreenenter"",""1"",""2934""
","
","","","583","","","22","5133","2925","&#9784;","elianto","#FFFFF080"," "," ","1","&#10004","[1436]","1","0","0","","","","","","","",""
"pit-trial","9","288752","0.0-2.0-4.1-0.1","battery-v0.2","","""event"",""trial"",""time""
""focus"",""0"",""1""
""blur"",""1"",""2907""
""focus"",""1"",""2920""
""fullscreenenter"",""1"",""2934""
","""event"",""trial"",""time""
""blur"",""1"",""2907""
","""event"",""trial"",""time""
""focus"",""0"",""1""
""focus"",""1"",""2920""
","""event"",""trial"",""time""
""fullscreenenter"",""1"",""2934""
","
","","","685","","","22","5133","2925","&#9784;","elianto","#FFFFF080"," "," ","1","&#10004","[1535]","1","0","0","","","","","","","",""
"pit-trial","10","292174","0.0-2.0-4.2-0.2","battery-v0.2","","""event"",""trial"",""time""
""focus"",""0"",""1""
""blur"",""1"",""2907""
""focus"",""1"",""2920""
""fullscreenenter"",""1"",""2934""
","""event"",""trial"",""time""
""blur"",""1"",""2907""
","""event"",""trial"",""time""
""focus"",""0"",""1""
""focus"",""1"",""2920""
","""event"",""trial"",""time""
""fullscreenenter"",""1"",""2934""
","
","","","561","","","22","5133","2925","&#9784;","elianto","#FFFFF080"," "," ","1","&#10004","[1413]","1","0","0","","","","","","","",""
"pit-trial","11","295559","0.0-2.0-4.3-0.3","battery-v0.2","","""event"",""trial"",""time""
""focus"",""0"",""1""
""blur"",""1"",""2907""
""focus"",""1"",""2920""
""fullscreenenter"",""1"",""2934""
","""event"",""trial"",""time""
""blur"",""1"",""2907""
","""event"",""trial"",""time""
""focus"",""0"",""1""
""focus"",""1"",""2920""
","""event"",""trial"",""time""
""fullscreenenter"",""1"",""2934""
","
","","","520","","","22","5133","2925","&#9784;","elianto","#FFFFF080"," "," ","1","&#10004","[1374]","1","0","0","","","","","","","",""
"pit-trial","12","299100","0.0-2.0-4.4-0.4","battery-v0.2","","""event"",""trial"",""time""
""focus"",""0"",""1""
""blur"",""1"",""2907""
""focus"",""1"",""2920""
""fullscreenenter"",""1"",""2934""
","""event"",""trial"",""time""
""blur"",""1"",""2907""
","""event"",""trial"",""time""
""focus"",""0"",""1""
""focus"",""1"",""2920""
","""event"",""trial"",""time""
""fullscreenenter"",""1"",""2934""
","
","","","674","","","22","5133","2925","&#9784;","elianto","#FFFFF080"," "," ","1","&#10004","[1529]","1","0","0","","","","","","","",""
"pit-instructions","13","324420","0.0-2.0-5.0","battery-v0.2","","""event"",""trial"",""time""
""focus"",""0"",""1""
""blur"",""1"",""2907""
""focus"",""1"",""2920""
""fullscreenenter"",""1"",""2934""
","""event"",""trial"",""time""
""blur"",""1"",""2907""
","""event"",""trial"",""time""
""focus"",""0"",""1""
""focus"",""1"",""2920""
","""event"",""trial"",""time""
""fullscreenenter"",""1"",""2934""
","
","","[{""page_index"":0,""viewing_time"":7329},{""page_index"":1,""viewing_time"":7734},{""page_index"":2,""viewing_time"":5136},{""page_index"":3,""viewing_time"":5113}]","25313","","","","","","","","","","","","","","","","","","","","","","","",""
"pit-trial","14","329285","0.0-2.0-6.0-0.0","battery-v0.2","","""event"",""trial"",""time""
""focus"",""0"",""1""
""blur"",""1"",""2907""
""focus"",""1"",""2920""
""fullscreenenter"",""1"",""2934""
","""event"",""trial"",""time""
""blur"",""1"",""2907""
","""event"",""trial"",""time""
""focus"",""0"",""1""
""focus"",""1"",""2920""
","""event"",""trial"",""time""
""fullscreenenter"",""1"",""2934""
","
","","","-1","","","22","5133","2925","&#9854;","elianto","#FFFFF080","-1","-1","1","&#10004","[]","0","0","1","","","","","","","",""
"pit-trial","15","334143","0.0-2.0-6.1-0.1","battery-v0.2","","""event"",""trial"",""time""
""focus"",""0"",""1""
""blur"",""1"",""2907""
""focus"",""1"",""2920""
""fullscreenenter"",""1"",""2934""
","""event"",""trial"",""time""
""blur"",""1"",""2907""
","""event"",""trial"",""time""
""focus"",""0"",""1""
""focus"",""1"",""2920""
","""event"",""trial"",""time""
""fullscreenenter"",""1"",""2934""
","
","","","-1","","","22","5133","2925","&#9854;","elianto","#FFFFF080","-1","-1","1","&#10004","[]","0","0","1","","","","","","","",""
"pit-trial","16","339008","0.0-2.0-6.2-0.2","battery-v0.2","","""event"",""trial"",""time""
""focus"",""0"",""1""
""blur"",""1"",""2907""
""focus"",""1"",""2920""
""fullscreenenter"",""1"",""2934""
","""event"",""trial"",""time""
""blur"",""1"",""2907""
","""event"",""trial"",""time""
""focus"",""0"",""1""
""focus"",""1"",""2920""
","""event"",""trial"",""time""
""fullscreenenter"",""1"",""2934""
","
","","","-1","","","22","5133","2925","&#9854;","elianto","#FFFFF080","-1","-1","1","&#10004","[]","0","0","1","","","","","","","",""
"pit-trial","17","343871","0.0-2.0-6.3-0.3","battery-v0.2","","""event"",""trial"",""time""
""focus"",""0"",""1""
""blur"",""1"",""2907""
""focus"",""1"",""2920""
""fullscreenenter"",""1"",""2934""
","""event"",""trial"",""time""
""blur"",""1"",""2907""
","""event"",""trial"",""time""
""focus"",""0"",""1""
""focus"",""1"",""2920""
","""event"",""trial"",""time""
""fullscreenenter"",""1"",""2934""
","
","","","-1","","","22","5133","2925","&#9854;","elianto","#FFFFF080","-1","-1","1","&#10004","[]","0","0","1","","","","","","","",""
"pit-trial","18","348735","0.0-2.0-6.4-0.4","battery-v0.2","","""event"",""trial"",""time""
""focus"",""0"",""1""
""blur"",""1"",""2907""
""focus"",""1"",""2920""
""fullscreenenter"",""1"",""2934""
""blur"",""19"",""566238""
""focus"",""19"",""2283965""
","""event"",""trial"",""time""
""blur"",""1"",""2907""
""blur"",""19"",""566238""
","""event"",""trial"",""time""
""focus"",""0"",""1""
""focus"",""1"",""2920""
""focus"",""19"",""2283965""
","""event"",""trial"",""time""
""fullscreenenter"",""1"",""2934""
","
","","","-1","","","22","5133","2925","&#9854;","elianto","#FFFFF080","-1","-1","1","&#10004","[]","0","0","1","","","","","","","",""
"pit-instructions","19","2342308","0.0-2.0-7.0","battery-v0.2","","""event"",""trial"",""time""
""focus"",""0"",""1""
""blur"",""1"",""2907""
""focus"",""1"",""2920""
""fullscreenenter"",""1"",""2934""
""blur"",""19"",""566238""
""focus"",""19"",""2283965""
","""event"",""trial"",""time""
""blur"",""1"",""2907""
""blur"",""19"",""566238""
","""event"",""trial"",""time""
""focus"",""0"",""1""
""focus"",""1"",""2920""
""focus"",""19"",""2283965""
","""event"",""trial"",""time""
""fullscreenenter"",""1"",""2934""
","
","","[{""page_index"":0,""viewing_time"":6882},{""page_index"":1,""viewing_time"":13416},{""page_index"":2,""viewing_time"":12768},{""page_index"":3,""viewing_time"":7166},{""page_index"":4,""viewing_time"":11301},{""page_index"":5,""viewing_time"":8181},{""page_index"":6,""viewing_time"":5616},{""page_index"":7,""viewing_time"":9201},{""page_index"":8,""viewing_time"":7767},{""page_index"":9,""viewing_time"":1855446},{""page_index"":10,""viewing_time"":6900},{""page_index"":11,""viewing_time"":4317},{""page_index"":12,""viewing_time"":6420},{""page_index"":13,""viewing_time"":6583},{""page_index"":14,""viewing_time"":7300},{""page_index"":15,""viewing_time"":6299},{""page_index"":16,""viewing_time"":6785},{""page_index"":17,""viewing_time"":11267}]","1993616","","","","","","","","","","","","","","","","","","","","","","","",""
"pit-trial","20","2346244","0.0-2.0-8.0-0.0","battery-v0.2","","""event"",""trial"",""time""
""focus"",""0"",""1""
""blur"",""1"",""2907""
""focus"",""1"",""2920""
""fullscreenenter"",""1"",""2934""
""blur"",""19"",""566238""
""focus"",""19"",""2283965""
","""event"",""trial"",""time""
""blur"",""1"",""2907""
""blur"",""19"",""566238""
","""event"",""trial"",""time""
""focus"",""0"",""1""
""focus"",""1"",""2920""
""focus"",""19"",""2283965""
","""event"",""trial"",""time""
""fullscreenenter"",""1"",""2934""
","
","","","1073","","","22","5133","2925","&#9776;","elianto","#3366ff99"," "," ","1","+10","[1924]","1","0","1","","","","","","","",""
"pit-trial","21","2349725","0.0-2.0-8.0-1.0","battery-v0.2","","""event"",""trial"",""time""
""focus"",""0"",""1""
""blur"",""1"",""2907""
""focus"",""1"",""2920""
""fullscreenenter"",""1"",""2934""
""blur"",""19"",""566238""
""focus"",""19"",""2283965""
","""event"",""trial"",""time""
""blur"",""1"",""2907""
""blur"",""19"",""566238""
","""event"",""trial"",""time""
""focus"",""0"",""1""
""focus"",""1"",""2920""
""focus"",""19"",""2283965""
","""event"",""trial"",""time""
""fullscreenenter"",""1"",""2934""
","
","","","618","","","22","5133","2925","&#9776;","elianto","#3366ff99"," "," ","1","+10","[1469]","1","0","1","","","","","","","",""
"pit-trial","22","2353292","0.0-2.0-8.0-2.0","battery-v0.2","","""event"",""trial"",""time""
""focus"",""0"",""1""
""blur"",""1"",""2907""
""focus"",""1"",""2920""
""fullscreenenter"",""1"",""2934""
""blur"",""19"",""566238""
""focus"",""19"",""2283965""
","""event"",""trial"",""time""
""blur"",""1"",""2907""
""blur"",""19"",""566238""
","""event"",""trial"",""time""
""focus"",""0"",""1""
""focus"",""1"",""2920""
""focus"",""19"",""2283965""
","""event"",""trial"",""time""
""fullscreenenter"",""1"",""2934""
","
","","","703","","","22","5133","2925","&#9776;","elianto","#3366ff99"," "," ","1","+10","[1557]","1","0","1","","","","","","","",""
"pit-trial","23","2356765","0.0-2.0-8.0-3.0","battery-v0.2","","""event"",""trial"",""time""
""focus"",""0"",""1""
""blur"",""1"",""2907""
""focus"",""1"",""2920""
""fullscreenenter"",""1"",""2934""
""blur"",""19"",""566238""
""focus"",""19"",""2283965""
","""event"",""trial"",""time""
""blur"",""1"",""2907""
""blur"",""19"",""566238""
","""event"",""trial"",""time""
""focus"",""0"",""1""
""focus"",""1"",""2920""
""focus"",""19"",""2283965""
","""event"",""trial"",""time""
""fullscreenenter"",""1"",""2934""
","
","","","609","","","22","5133","2925","&#9776;","elianto","#3366ff99"," "," ","1","0","[1463]","1","0","1","","","","","","","",""
"pit-trial","24","2360127","0.0-2.0-8.0-4.0","battery-v0.2","","""event"",""trial"",""time""
""focus"",""0"",""1""
""blur"",""1"",""2907""
""focus"",""1"",""2920""
""fullscreenenter"",""1"",""2934""
""blur"",""19"",""566238""
""focus"",""19"",""2283965""
","""event"",""trial"",""time""
""blur"",""1"",""2907""
""blur"",""19"",""566238""
","""event"",""trial"",""time""
""focus"",""0"",""1""
""focus"",""1"",""2920""
""focus"",""19"",""2283965""
","""event"",""trial"",""time""
""fullscreenenter"",""1"",""2934""
","
","","","498","","","22","5133","2925","&#9776;","elianto","#3366ff99"," "," ","1","+10","[1352]","1","0","1","","","","","","","",""
"pit-trial","25","2363460","0.0-2.0-8.1-0.1","battery-v0.2","","""event"",""trial"",""time""
""focus"",""0"",""1""
""blur"",""1"",""2907""
""focus"",""1"",""2920""
""fullscreenenter"",""1"",""2934""
""blur"",""19"",""566238""
""focus"",""19"",""2283965""
","""event"",""trial"",""time""
""blur"",""1"",""2907""
""blur"",""19"",""566238""
","""event"",""trial"",""time""
""focus"",""0"",""1""
""focus"",""1"",""2920""
""focus"",""19"",""2283965""
","""event"",""trial"",""time""
""fullscreenenter"",""1"",""2934""
","
","","","469","","","22","5133","2925","&#9776;","elianto","#3366ff99"," "," ","1","+10","[1323]","1","0","1","","","","","","","",""
"pit-trial","26","2366746","0.0-2.0-8.1-1.1","battery-v0.2","","""event"",""trial"",""time""
""focus"",""0"",""1""
""blur"",""1"",""2907""
""focus"",""1"",""2920""
""fullscreenenter"",""1"",""2934""
""blur"",""19"",""566238""
""focus"",""19"",""2283965""
","""event"",""trial"",""time""
""blur"",""1"",""2907""
""blur"",""19"",""566238""
","""event"",""trial"",""time""
""focus"",""0"",""1""
""focus"",""1"",""2920""
""focus"",""19"",""2283965""
","""event"",""trial"",""time""
""fullscreenenter"",""1"",""2934""
","
","","","427","","","22","5133","2925","&#9776;","elianto","#3366ff99"," "," ","1","+10","[1278]","1","0","1","","","","","","","",""
"pit-trial","27","2370116","0.0-2.0-8.1-2.1","battery-v0.2","","""event"",""trial"",""time""
""focus"",""0"",""1""
""blur"",""1"",""2907""
""focus"",""1"",""2920""
""fullscreenenter"",""1"",""2934""
""blur"",""19"",""566238""
""focus"",""19"",""2283965""
","""event"",""trial"",""time""
""blur"",""1"",""2907""
""blur"",""19"",""566238""
","""event"",""trial"",""time""
""focus"",""0"",""1""
""focus"",""1"",""2920""
""focus"",""19"",""2283965""
","""event"",""trial"",""time""
""fullscreenenter"",""1"",""2934""
","
","","","508","","","22","5133","2925","&#9776;","elianto","#3366ff99"," "," ","1","+10","[1362]","1","0","1","","","","","","","",""
"pit-trial","28","2373486","0.0-2.0-8.1-3.1","battery-v0.2","","""event"",""trial"",""time""
""focus"",""0"",""1""
""blur"",""1"",""2907""
""focus"",""1"",""2920""
""fullscreenenter"",""1"",""2934""
""blur"",""19"",""566238""
""focus"",""19"",""2283965""
","""event"",""trial"",""time""
""blur"",""1"",""2907""
""blur"",""19"",""566238""
","""event"",""trial"",""time""
""focus"",""0"",""1""
""focus"",""1"",""2920""
""focus"",""19"",""2283965""
","""event"",""trial"",""time""
""fullscreenenter"",""1"",""2934""
","
","","","505","","","22","5133","2925","&#9776;","elianto","#3366ff99"," "," ","1","0","[1361]","1","0","1","","","","","","","",""
"pit-trial","29","2376802","0.0-2.0-8.1-4.1","battery-v0.2","","""event"",""trial"",""time""
""focus"",""0"",""1""
""blur"",""1"",""2907""
""focus"",""1"",""2920""
""fullscreenenter"",""1"",""2934""
""blur"",""19"",""566238""
""focus"",""19"",""2283965""
","""event"",""trial"",""time""
""blur"",""1"",""2907""
""blur"",""19"",""566238""
","""event"",""trial"",""time""
""focus"",""0"",""1""
""focus"",""1"",""2920""
""focus"",""19"",""2283965""
","""event"",""trial"",""time""
""fullscreenenter"",""1"",""2934""
","
","","","451","","","22","5133","2925","&#9776;","elianto","#3366ff99"," "," ","1","+10","[1306]","1","0","1","","","","","","","",""
"pit-trial","30","2380100","0.0-2.0-8.2-0.2","battery-v0.2","","""event"",""trial"",""time""
""focus"",""0"",""1""
""blur"",""1"",""2907""
""focus"",""1"",""2920""
""fullscreenenter"",""1"",""2934""
""blur"",""19"",""566238""
""focus"",""19"",""2283965""
","""event"",""trial"",""time""
""blur"",""1"",""2907""
""blur"",""19"",""566238""
","""event"",""trial"",""time""
""focus"",""0"",""1""
""focus"",""1"",""2920""
""focus"",""19"",""2283965""
","""event"",""trial"",""time""
""fullscreenenter"",""1"",""2934""
","
","","","435","","","22","5133","2925","&#9776;","elianto","#3366ff99"," "," ","1","+10","[1290]","1","0","1","","","","","","","",""
"pit-trial","31","2383460","0.0-2.0-8.2-1.2","battery-v0.2","","""event"",""trial"",""time""
""focus"",""0"",""1""
""blur"",""1"",""2907""
""focus"",""1"",""2920""
""fullscreenenter"",""1"",""2934""
""blur"",""19"",""566238""
""focus"",""19"",""2283965""
","""event"",""trial"",""time""
""blur"",""1"",""2907""
""blur"",""19"",""566238""
","""event"",""trial"",""time""
""focus"",""0"",""1""
""focus"",""1"",""2920""
""focus"",""19"",""2283965""
","""event"",""trial"",""time""
""fullscreenenter"",""1"",""2934""
","
","","","496","","","22","5133","2925","&#9776;","elianto","#3366ff99"," "," ","1","+10","[1352]","1","0","1","","","","","","","",""
"pit-trial","32","2386741","0.0-2.0-8.2-2.2","battery-v0.2","","""event"",""trial"",""time""
""focus"",""0"",""1""
""blur"",""1"",""2907""
""focus"",""1"",""2920""
""fullscreenenter"",""1"",""2934""
""blur"",""19"",""566238""
""focus"",""19"",""2283965""
","""event"",""trial"",""time""
""blur"",""1"",""2907""
""blur"",""19"",""566238""
","""event"",""trial"",""time""
""focus"",""0"",""1""
""focus"",""1"",""2920""
""focus"",""19"",""2283965""
","""event"",""trial"",""time""
""fullscreenenter"",""1"",""2934""
","
","","","421","","","22","5133","2925","&#9776;","elianto","#3366ff99"," "," ","1","+10","[1272]","1","0","1","","","","","","","",""
"pit-trial","33","2390036","0.0-2.0-8.2-3.2","battery-v0.2","","""event"",""trial"",""time""
""focus"",""0"",""1""
""blur"",""1"",""2907""
""focus"",""1"",""2920""
""fullscreenenter"",""1"",""2934""
""blur"",""19"",""566238""
""focus"",""19"",""2283965""
","""event"",""trial"",""time""
""blur"",""1"",""2907""
""blur"",""19"",""566238""
","""event"",""trial"",""time""
""focus"",""0"",""1""
""focus"",""1"",""2920""
""focus"",""19"",""2283965""
","""event"",""trial"",""time""
""fullscreenenter"",""1"",""2934""
","
","","","432","","","22","5133","2925","&#9776;","elianto","#3366ff99"," "," ","1","0","[1285]","1","0","1","","","","","","","",""
"pit-trial","34","2393327","0.0-2.0-8.2-4.2","battery-v0.2","","""event"",""trial"",""time""
""focus"",""0"",""1""
""blur"",""1"",""2907""
""focus"",""1"",""2920""
""fullscreenenter"",""1"",""2934""
""blur"",""19"",""566238""
""focus"",""19"",""2283965""
","""event"",""trial"",""time""
""blur"",""1"",""2907""
""blur"",""19"",""566238""
","""event"",""trial"",""time""
""focus"",""0"",""1""
""focus"",""1"",""2920""
""focus"",""19"",""2283965""
","""event"",""trial"",""time""
""fullscreenenter"",""1"",""2934""
","
","","","430","","","22","5133","2925","&#9776;","elianto","#3366ff99"," "," ","1","+10","[1282]","1","0","1","","","","","","","",""
"call-function","35","2393331","0.0-2.0-9.0","battery-v0.2","","""event"",""trial"",""time""
""focus"",""0"",""1""
""blur"",""1"",""2907""
""focus"",""1"",""2920""
""fullscreenenter"",""1"",""2934""
""blur"",""19"",""566238""
""focus"",""19"",""2283965""
","""event"",""trial"",""time""
""blur"",""1"",""2907""
""blur"",""19"",""566238""
","""event"",""trial"",""time""
""focus"",""0"",""1""
""focus"",""1"",""2920""
""focus"",""19"",""2283965""
","""event"",""trial"",""time""
""fullscreenenter"",""1"",""2934""
","
","","","","","","","","","","","","","","","","","","","","","","","","","","",""
"pit-instructions","36","2445091","0.0-2.0-10.0","battery-v0.2","","""event"",""trial"",""time""
""focus"",""0"",""1""
""blur"",""1"",""2907""
""focus"",""1"",""2920""
""fullscreenenter"",""1"",""2934""
""blur"",""19"",""566238""
""focus"",""19"",""2283965""
","""event"",""trial"",""time""
""blur"",""1"",""2907""
""blur"",""19"",""566238""
","""event"",""trial"",""time""
""focus"",""0"",""1""
""focus"",""1"",""2920""
""focus"",""19"",""2283965""
","""event"",""trial"",""time""
""fullscreenenter"",""1"",""2934""
","
","","[{""page_index"":0,""viewing_time"":6676},{""page_index"":1,""viewing_time"":10931},{""page_index"":2,""viewing_time"":12283},{""page_index"":3,""viewing_time"":12620},{""page_index"":4,""viewing_time"":9249}]","51760","","","","","","","","","","","","","","","","","","","","","","","",""
"pit-trial","37","2448823","0.0-2.0-11.0-0.0","battery-v0.2","","""event"",""trial"",""time""
""focus"",""0"",""1""
""blur"",""1"",""2907""
""focus"",""1"",""2920""
""fullscreenenter"",""1"",""2934""
""blur"",""19"",""566238""
""focus"",""19"",""2283965""
","""event"",""trial"",""time""
""blur"",""1"",""2907""
""blur"",""19"",""566238""
","""event"",""trial"",""time""
""focus"",""0"",""1""
""focus"",""1"",""2920""
""focus"",""19"",""2283965""
","""event"",""trial"",""time""
""fullscreenenter"",""1"",""2934""
","
","","","872","","","22","5133","2925","&#9761;","elianto","#3366ff99","-1"," ","0","0","[1723]","1","0","2","","","","","","","",""
"pit-trial","38","2452301","0.0-2.0-11.0-1.0","battery-v0.2","","""event"",""trial"",""time""
""focus"",""0"",""1""
""blur"",""1"",""2907""
""focus"",""1"",""2920""
""fullscreenenter"",""1"",""2934""
""blur"",""19"",""566238""
""focus"",""19"",""2283965""
","""event"",""trial"",""time""
""blur"",""1"",""2907""
""blur"",""19"",""566238""
","""event"",""trial"",""time""
""focus"",""0"",""1""
""focus"",""1"",""2920""
""focus"",""19"",""2283965""
","""event"",""trial"",""time""
""fullscreenenter"",""1"",""2934""
","
","","","616","","","22","5133","2925","&#9761;","elianto","#3366ff99","-1"," ","0","0","[1468]","1","0","2","","","","","","","",""
"pit-trial","39","2455937","0.0-2.0-11.0-2.0","battery-v0.2","","""event"",""trial"",""time""
""focus"",""0"",""1""
""blur"",""1"",""2907""
""focus"",""1"",""2920""
""fullscreenenter"",""1"",""2934""
""blur"",""19"",""566238""
""focus"",""19"",""2283965""
","""event"",""trial"",""time""
""blur"",""1"",""2907""
""blur"",""19"",""566238""
","""event"",""trial"",""time""
""focus"",""0"",""1""
""focus"",""1"",""2920""
""focus"",""19"",""2283965""
","""event"",""trial"",""time""
""fullscreenenter"",""1"",""2934""
","
","","","780","","","22","5133","2925","&#9761;","elianto","#3366ff99","-1"," ","0","0","[1632]","1","0","2","","","","","","","",""
"pit-trial","40","2459213","0.0-2.0-11.0-3.0","battery-v0.2","","""event"",""trial"",""time""
""focus"",""0"",""1""
""blur"",""1"",""2907""
""focus"",""1"",""2920""
""fullscreenenter"",""1"",""2934""
""blur"",""19"",""566238""
""focus"",""19"",""2283965""
","""event"",""trial"",""time""
""blur"",""1"",""2907""
""blur"",""19"",""566238""
","""event"",""trial"",""time""
""focus"",""0"",""1""
""focus"",""1"",""2920""
""focus"",""19"",""2283965""
","""event"",""trial"",""time""
""fullscreenenter"",""1"",""2934""
","
","","","417","","","22","5133","2925","&#9761;","elianto","#3366ff99","-1"," ","0","+10","[1268]","1","0","2","","","","","","","",""
"pit-trial","41","2462552","0.0-2.0-11.0-4.0","battery-v0.2","","""event"",""trial"",""time""
""focus"",""0"",""1""
""blur"",""1"",""2907""
""focus"",""1"",""2920""
""fullscreenenter"",""1"",""2934""
""blur"",""19"",""566238""
""focus"",""19"",""2283965""
","""event"",""trial"",""time""
""blur"",""1"",""2907""
""blur"",""19"",""566238""
","""event"",""trial"",""time""
""focus"",""0"",""1""
""focus"",""1"",""2920""
""focus"",""19"",""2283965""
","""event"",""trial"",""time""
""fullscreenenter"",""1"",""2934""
","
","","","477","","","22","5133","2925","&#9761;","elianto","#3366ff99","-1"," ","0","0","[1329]","1","0","2","","","","","","","",""
"pit-trial","42","2465831","0.0-2.0-11.1-0.1","battery-v0.2","","""event"",""trial"",""time""
""focus"",""0"",""1""
""blur"",""1"",""2907""
""focus"",""1"",""2920""
""fullscreenenter"",""1"",""2934""
""blur"",""19"",""566238""
""focus"",""19"",""2283965""
","""event"",""trial"",""time""
""blur"",""1"",""2907""
""blur"",""19"",""566238""
","""event"",""trial"",""time""
""focus"",""0"",""1""
""focus"",""1"",""2920""
""focus"",""19"",""2283965""
","""event"",""trial"",""time""
""fullscreenenter"",""1"",""2934""
","
","","","421","","","22","5133","2925","&#9761;","elianto","#3366ff99","-1"," ","0","0","[1272]","1","0","2","","","","","","","",""
"pit-trial","43","2469145","0.0-2.0-11.1-1.1","battery-v0.2","","""event"",""trial"",""time""
""focus"",""0"",""1""
""blur"",""1"",""2907""
""focus"",""1"",""2920""
""fullscreenenter"",""1"",""2934""
""blur"",""19"",""566238""
""focus"",""19"",""2283965""
","""event"",""trial"",""time""
""blur"",""1"",""2907""
""blur"",""19"",""566238""
","""event"",""trial"",""time""
""focus"",""0"",""1""
""focus"",""1"",""2920""
""focus"",""19"",""2283965""
","""event"",""trial"",""time""
""fullscreenenter"",""1"",""2934""
","
","","","450","","","22","5133","2925","&#9761;","elianto","#3366ff99","-1"," ","0","0","[1305]","1","0","2","","","","","","","",""
"pit-trial","44","2472374","0.0-2.0-11.1-2.1","battery-v0.2","","""event"",""trial"",""time""
""focus"",""0"",""1""
""blur"",""1"",""2907""
""focus"",""1"",""2920""
""fullscreenenter"",""1"",""2934""
""blur"",""19"",""566238""
""focus"",""19"",""2283965""
","""event"",""trial"",""time""
""blur"",""1"",""2907""
""blur"",""19"",""566238""
","""event"",""trial"",""time""
""focus"",""0"",""1""
""focus"",""1"",""2920""
""focus"",""19"",""2283965""
","""event"",""trial"",""time""
""fullscreenenter"",""1"",""2934""
","
","","","365","","","22","5133","2925","&#9761;","elianto","#3366ff99","-1"," ","0","0","[1219]","1","0","2","","","","","","","",""
"pit-trial","45","2475660","0.0-2.0-11.1-3.1","battery-v0.2","","""event"",""trial"",""time""
""focus"",""0"",""1""
""blur"",""1"",""2907""
""focus"",""1"",""2920""
""fullscreenenter"",""1"",""2934""
""blur"",""19"",""566238""
""focus"",""19"",""2283965""
","""event"",""trial"",""time""
""blur"",""1"",""2907""
""blur"",""19"",""566238""
","""event"",""trial"",""time""
""focus"",""0"",""1""
""focus"",""1"",""2920""
""focus"",""19"",""2283965""
","""event"",""trial"",""time""
""fullscreenenter"",""1"",""2934""
","
","","","426","","","22","5133","2925","&#9761;","elianto","#3366ff99","-1"," ","0","+10","[1277]","1","0","2","","","","","","","",""
"pit-trial","46","2478959","0.0-2.0-11.1-4.1","battery-v0.2","","""event"",""trial"",""time""
""focus"",""0"",""1""
""blur"",""1"",""2907""
""focus"",""1"",""2920""
""fullscreenenter"",""1"",""2934""
""blur"",""19"",""566238""
""focus"",""19"",""2283965""
","""event"",""trial"",""time""
""blur"",""1"",""2907""
""blur"",""19"",""566238""
","""event"",""trial"",""time""
""focus"",""0"",""1""
""focus"",""1"",""2920""
""focus"",""19"",""2283965""
","""event"",""trial"",""time""
""fullscreenenter"",""1"",""2934""
","
","","","439","","","22","5133","2925","&#9761;","elianto","#3366ff99","-1"," ","0","0","[1291]","1","0","2","","","","","","","",""
"pit-trial","47","2482249","0.0-2.0-11.2-0.2","battery-v0.2","","""event"",""trial"",""time""
""focus"",""0"",""1""
""blur"",""1"",""2907""
""focus"",""1"",""2920""
""fullscreenenter"",""1"",""2934""
""blur"",""19"",""566238""
""focus"",""19"",""2283965""
","""event"",""trial"",""time""
""blur"",""1"",""2907""
""blur"",""19"",""566238""
","""event"",""trial"",""time""
""focus"",""0"",""1""
""focus"",""1"",""2920""
""focus"",""19"",""2283965""
","""event"",""trial"",""time""
""fullscreenenter"",""1"",""2934""
","
","","","426","","","22","5133","2925","&#9761;","elianto","#3366ff99","-1"," ","0","0","[1279]","1","0","2","","","","","","","",""
"pit-trial","48","2485583","0.0-2.0-11.2-1.2","battery-v0.2","","""event"",""trial"",""time""
""focus"",""0"",""1""
""blur"",""1"",""2907""
""focus"",""1"",""2920""
""fullscreenenter"",""1"",""2934""
""blur"",""19"",""566238""
""focus"",""19"",""2283965""
","""event"",""trial"",""time""
""blur"",""1"",""2907""
""blur"",""19"",""566238""
","""event"",""trial"",""time""
""focus"",""0"",""1""
""focus"",""1"",""2920""
""focus"",""19"",""2283965""
","""event"",""trial"",""time""
""fullscreenenter"",""1"",""2934""
","
","","","478","","","22","5133","2925","&#9761;","elianto","#3366ff99","-1"," ","0","0","[1329]","1","0","2","","","","","","","",""
"pit-trial","49","2488868","0.0-2.0-11.2-2.2","battery-v0.2","","""event"",""trial"",""time""
""focus"",""0"",""1""
""blur"",""1"",""2907""
""focus"",""1"",""2920""
""fullscreenenter"",""1"",""2934""
""blur"",""19"",""566238""
""focus"",""19"",""2283965""
","""event"",""trial"",""time""
""blur"",""1"",""2907""
""blur"",""19"",""566238""
","""event"",""trial"",""time""
""focus"",""0"",""1""
""focus"",""1"",""2920""
""focus"",""19"",""2283965""
","""event"",""trial"",""time""
""fullscreenenter"",""1"",""2934""
","
","","","424","","","22","5133","2925","&#9761;","elianto","#3366ff99","-1"," ","0","0","[1279]","1","0","2","","","","","","","",""
"pit-trial","50","2492175","0.0-2.0-11.2-3.2","battery-v0.2","","""event"",""trial"",""time""
""focus"",""0"",""1""
""blur"",""1"",""2907""
""focus"",""1"",""2920""
""fullscreenenter"",""1"",""2934""
""blur"",""19"",""566238""
""focus"",""19"",""2283965""
","""event"",""trial"",""time""
""blur"",""1"",""2907""
""blur"",""19"",""566238""
","""event"",""trial"",""time""
""focus"",""0"",""1""
""focus"",""1"",""2920""
""focus"",""19"",""2283965""
","""event"",""trial"",""time""
""fullscreenenter"",""1"",""2934""
","
","","","448","","","22","5133","2925","&#9761;","elianto","#3366ff99","-1"," ","0","+10","[1300]","1","0","2","","","","","","","",""
"pit-trial","51","2495575","0.0-2.0-11.2-4.2","battery-v0.2","","""event"",""trial"",""time""
""focus"",""0"",""1""
""blur"",""1"",""2907""
""focus"",""1"",""2920""
""fullscreenenter"",""1"",""2934""
""blur"",""19"",""566238""
""focus"",""19"",""2283965""
","""event"",""trial"",""time""
""blur"",""1"",""2907""
""blur"",""19"",""566238""
","""event"",""trial"",""time""
""focus"",""0"",""1""
""focus"",""1"",""2920""
""focus"",""19"",""2283965""
","""event"",""trial"",""time""
""fullscreenenter"",""1"",""2934""
","
","","","537","","","22","5133","2925","&#9761;","elianto","#3366ff99","-1"," ","0","0","[1391]","1","0","2","","","","","","","",""
"pit-trial","52","2498878","0.0-2.0-11.3-0.3","battery-v0.2","","""event"",""trial"",""time""
""focus"",""0"",""1""
""blur"",""1"",""2907""
""focus"",""1"",""2920""
""fullscreenenter"",""1"",""2934""
""blur"",""19"",""566238""
""focus"",""19"",""2283965""
","""event"",""trial"",""time""
""blur"",""1"",""2907""
""blur"",""19"",""566238""
","""event"",""trial"",""time""
""focus"",""0"",""1""
""focus"",""1"",""2920""
""focus"",""19"",""2283965""
","""event"",""trial"",""time""
""fullscreenenter"",""1"",""2934""
","
","","","442","","","22","5133","2925","&#9761;","elianto","#3366ff99","-1"," ","0","0","[1293]","1","0","2","","","","","","","",""
"pit-trial","53","2502254","0.0-2.0-11.3-1.3","battery-v0.2","","""event"",""trial"",""time""
""focus"",""0"",""1""
""blur"",""1"",""2907""
""focus"",""1"",""2920""
""fullscreenenter"",""1"",""2934""
""blur"",""19"",""566238""
""focus"",""19"",""2283965""
","""event"",""trial"",""time""
""blur"",""1"",""2907""
""blur"",""19"",""566238""
","""event"",""trial"",""time""
""focus"",""0"",""1""
""focus"",""1"",""2920""
""focus"",""19"",""2283965""
","""event"",""trial"",""time""
""fullscreenenter"",""1"",""2934""
","
","","","516","","","22","5133","2925","&#9761;","elianto","#3366ff99","-1"," ","0","0","[1367]","1","0","2","","","","","","","",""
"pit-trial","54","2505644","0.0-2.0-11.3-2.3","battery-v0.2","","""event"",""trial"",""time""
""focus"",""0"",""1""
""blur"",""1"",""2907""
""focus"",""1"",""2920""
""fullscreenenter"",""1"",""2934""
""blur"",""19"",""566238""
""focus"",""19"",""2283965""
","""event"",""trial"",""time""
""blur"",""1"",""2907""
""blur"",""19"",""566238""
","""event"",""trial"",""time""
""focus"",""0"",""1""
""focus"",""1"",""2920""
""focus"",""19"",""2283965""
","""event"",""trial"",""time""
""fullscreenenter"",""1"",""2934""
","
","","","531","","","22","5133","2925","&#9761;","elianto","#3366ff99","-1"," ","0","0","[1381]","1","0","2","","","","","","","",""
"pit-trial","55","2508985","0.0-2.0-11.3-3.3","battery-v0.2","","""event"",""trial"",""time""
""focus"",""0"",""1""
""blur"",""1"",""2907""
""focus"",""1"",""2920""
""fullscreenenter"",""1"",""2934""
""blur"",""19"",""566238""
""focus"",""19"",""2283965""
","""event"",""trial"",""time""
""blur"",""1"",""2907""
""blur"",""19"",""566238""
","""event"",""trial"",""time""
""focus"",""0"",""1""
""focus"",""1"",""2920""
""focus"",""19"",""2283965""
","""event"",""trial"",""time""
""fullscreenenter"",""1"",""2934""
","
","","","483","","","22","5133","2925","&#9761;","elianto","#3366ff99","-1"," ","0","+10","[1334]","1","0","2","","","","","","","",""
"pit-trial","56","2512356","0.0-2.0-11.3-4.3","battery-v0.2","","""event"",""trial"",""time""
""focus"",""0"",""1""
""blur"",""1"",""2907""
""focus"",""1"",""2920""
""fullscreenenter"",""1"",""2934""
""blur"",""19"",""566238""
""focus"",""19"",""2283965""
","""event"",""trial"",""time""
""blur"",""1"",""2907""
""blur"",""19"",""566238""
","""event"",""trial"",""time""
""focus"",""0"",""1""
""focus"",""1"",""2920""
""focus"",""19"",""2283965""
","""event"",""trial"",""time""
""fullscreenenter"",""1"",""2934""
","
","","","510","","","22","5133","2925","&#9761;","elianto","#3366ff99","-1"," ","0","0","[1361]","1","0","2","","","","","","","",""
"call-function","57","2512359","0.0-2.0-12.0","battery-v0.2","","""event"",""trial"",""time""
""focus"",""0"",""1""
""blur"",""1"",""2907""
""focus"",""1"",""2920""
""fullscreenenter"",""1"",""2934""
""blur"",""19"",""566238""
""focus"",""19"",""2283965""
","""event"",""trial"",""time""
""blur"",""1"",""2907""
""blur"",""19"",""566238""
","""event"",""trial"",""time""
""focus"",""0"",""1""
""focus"",""1"",""2920""
""focus"",""19"",""2283965""
","""event"",""trial"",""time""
""fullscreenenter"",""1"",""2934""
","
","","","","","","","","","","","","","","","","","","","","","","","","","","",""
"pit-instructions","58","2586475","0.0-2.0-13.0","battery-v0.2","","""event"",""trial"",""time""
""focus"",""0"",""1""
""blur"",""1"",""2907""
""focus"",""1"",""2920""
""fullscreenenter"",""1"",""2934""
""blur"",""19"",""566238""
""focus"",""19"",""2283965""
","""event"",""trial"",""time""
""blur"",""1"",""2907""
""blur"",""19"",""566238""
","""event"",""trial"",""time""
""focus"",""0"",""1""
""focus"",""1"",""2920""
""focus"",""19"",""2283965""
","""event"",""trial"",""time""
""fullscreenenter"",""1"",""2934""
","
","","[{""page_index"":0,""viewing_time"":7127},{""page_index"":1,""viewing_time"":7319},{""page_index"":2,""viewing_time"":42916},{""page_index"":3,""viewing_time"":11102},{""page_index"":4,""viewing_time"":5651}]","74116","","","","","","","","","","","","","","","","","","","","","","","",""
"pit-trial","59","2591338","0.0-2.0-14.0-0.0","battery-v0.2","","""event"",""trial"",""time""
""focus"",""0"",""1""
""blur"",""1"",""2907""
""focus"",""1"",""2920""
""fullscreenenter"",""1"",""2934""
""blur"",""19"",""566238""
""focus"",""19"",""2283965""
","""event"",""trial"",""time""
""blur"",""1"",""2907""
""blur"",""19"",""566238""
","""event"",""trial"",""time""
""focus"",""0"",""1""
""focus"",""1"",""2920""
""focus"",""19"",""2283965""
","""event"",""trial"",""time""
""fullscreenenter"",""1"",""2934""
","
","","","-1","","","22","5133","2925","&#9826;","elianto","#f73b6a7A","-1","-1","1","0","[]","0","0","3","","","","","","","",""
"pit-trial","60","2596203","0.0-2.0-14.0-1.0","battery-v0.2","","""event"",""trial"",""time""
""focus"",""0"",""1""
""blur"",""1"",""2907""
""focus"",""1"",""2920""
""fullscreenenter"",""1"",""2934""
""blur"",""19"",""566238""
""focus"",""19"",""2283965""
","""event"",""trial"",""time""
""blur"",""1"",""2907""
""blur"",""19"",""566238""
","""event"",""trial"",""time""
""focus"",""0"",""1""
""focus"",""1"",""2920""
""focus"",""19"",""2283965""
","""event"",""trial"",""time""
""fullscreenenter"",""1"",""2934""
","
","","","-1","","","22","5133","2925","&#9826;","elianto","#f73b6a7A","-1","-1","1","0","[]","0","0","3","","","","","","","",""
"pit-trial","61","2601066","0.0-2.0-14.0-2.0","battery-v0.2","","""event"",""trial"",""time""
""focus"",""0"",""1""
""blur"",""1"",""2907""
""focus"",""1"",""2920""
""fullscreenenter"",""1"",""2934""
""blur"",""19"",""566238""
""focus"",""19"",""2283965""
","""event"",""trial"",""time""
""blur"",""1"",""2907""
""blur"",""19"",""566238""
","""event"",""trial"",""time""
""focus"",""0"",""1""
""focus"",""1"",""2920""
""focus"",""19"",""2283965""
","""event"",""trial"",""time""
""fullscreenenter"",""1"",""2934""
","
","","","-1","","","22","5133","2925","&#9826;","elianto","#f73b6a7A","-1","-1","1","0","[]","0","0","3","","","","","","","",""
"pit-trial","62","2605930","0.0-2.0-14.0-3.0","battery-v0.2","","""event"",""trial"",""time""
""focus"",""0"",""1""
""blur"",""1"",""2907""
""focus"",""1"",""2920""
""fullscreenenter"",""1"",""2934""
""blur"",""19"",""566238""
""focus"",""19"",""2283965""
","""event"",""trial"",""time""
""blur"",""1"",""2907""
""blur"",""19"",""566238""
","""event"",""trial"",""time""
""focus"",""0"",""1""
""focus"",""1"",""2920""
""focus"",""19"",""2283965""
","""event"",""trial"",""time""
""fullscreenenter"",""1"",""2934""
","
","","","-1","","","22","5133","2925","&#9826;","elianto","#f73b6a7A","-1","-1","1","-10","[]","0","0","3","","","","","","","",""
"pit-trial","63","2610794","0.0-2.0-14.0-4.0","battery-v0.2","","""event"",""trial"",""time""
""focus"",""0"",""1""
""blur"",""1"",""2907""
""focus"",""1"",""2920""
""fullscreenenter"",""1"",""2934""
""blur"",""19"",""566238""
""focus"",""19"",""2283965""
","""event"",""trial"",""time""
""blur"",""1"",""2907""
""blur"",""19"",""566238""
","""event"",""trial"",""time""
""focus"",""0"",""1""
""focus"",""1"",""2920""
""focus"",""19"",""2283965""
","""event"",""trial"",""time""
""fullscreenenter"",""1"",""2934""
","
","","","-1","","","22","5133","2925","&#9826;","elianto","#f73b6a7A","-1","-1","1","0","[]","0","0","3","","","","","","","",""
"pit-trial","64","2615659","0.0-2.0-14.1-0.1","battery-v0.2","","""event"",""trial"",""time""
""focus"",""0"",""1""
""blur"",""1"",""2907""
""focus"",""1"",""2920""
""fullscreenenter"",""1"",""2934""
""blur"",""19"",""566238""
""focus"",""19"",""2283965""
","""event"",""trial"",""time""
""blur"",""1"",""2907""
""blur"",""19"",""566238""
","""event"",""trial"",""time""
""focus"",""0"",""1""
""focus"",""1"",""2920""
""focus"",""19"",""2283965""
","""event"",""trial"",""time""
""fullscreenenter"",""1"",""2934""
","
","","","-1","","","22","5133","2925","&#9826;","elianto","#f73b6a7A","-1","-1","1","0","[]","0","0","3","","","","","","","",""
"pit-trial","65","2620522","0.0-2.0-14.1-1.1","battery-v0.2","","""event"",""trial"",""time""
""focus"",""0"",""1""
""blur"",""1"",""2907""
""focus"",""1"",""2920""
""fullscreenenter"",""1"",""2934""
""blur"",""19"",""566238""
""focus"",""19"",""2283965""
","""event"",""trial"",""time""
""blur"",""1"",""2907""
""blur"",""19"",""566238""
","""event"",""trial"",""time""
""focus"",""0"",""1""
""focus"",""1"",""2920""
""focus"",""19"",""2283965""
","""event"",""trial"",""time""
""fullscreenenter"",""1"",""2934""
","
","","","-1","","","22","5133","2925","&#9826;","elianto","#f73b6a7A","-1","-1","1","0","[]","0","0","3","","","","","","","",""
"pit-trial","66","2625385","0.0-2.0-14.1-2.1","battery-v0.2","","""event"",""trial"",""time""
""focus"",""0"",""1""
""blur"",""1"",""2907""
""focus"",""1"",""2920""
""fullscreenenter"",""1"",""2934""
""blur"",""19"",""566238""
""focus"",""19"",""2283965""
","""event"",""trial"",""time""
""blur"",""1"",""2907""
""blur"",""19"",""566238""
","""event"",""trial"",""time""
""focus"",""0"",""1""
""focus"",""1"",""2920""
""focus"",""19"",""2283965""
","""event"",""trial"",""time""
""fullscreenenter"",""1"",""2934""
","
","","","-1","","","22","5133","2925","&#9826;","elianto","#f73b6a7A","-1","-1","1","0","[]","0","0","3","","","","","","","",""
"pit-trial","67","2630244","0.0-2.0-14.1-3.1","battery-v0.2","","""event"",""trial"",""time""
""focus"",""0"",""1""
""blur"",""1"",""2907""
""focus"",""1"",""2920""
""fullscreenenter"",""1"",""2934""
""blur"",""19"",""566238""
""focus"",""19"",""2283965""
","""event"",""trial"",""time""
""blur"",""1"",""2907""
""blur"",""19"",""566238""
","""event"",""trial"",""time""
""focus"",""0"",""1""
""focus"",""1"",""2920""
""focus"",""19"",""2283965""
","""event"",""trial"",""time""
""fullscreenenter"",""1"",""2934""
","
","","","-1","","","22","5133","2925","&#9826;","elianto","#f73b6a7A","-1","-1","1","-10","[]","0","0","3","","","","","","","",""
"pit-trial","68","2635109","0.0-2.0-14.1-4.1","battery-v0.2","","""event"",""trial"",""time""
""focus"",""0"",""1""
""blur"",""1"",""2907""
""focus"",""1"",""2920""
""fullscreenenter"",""1"",""2934""
""blur"",""19"",""566238""
""focus"",""19"",""2283965""
","""event"",""trial"",""time""
""blur"",""1"",""2907""
""blur"",""19"",""566238""
","""event"",""trial"",""time""
""focus"",""0"",""1""
""focus"",""1"",""2920""
""focus"",""19"",""2283965""
","""event"",""trial"",""time""
""fullscreenenter"",""1"",""2934""
","
","","","-1","","","22","5133","2925","&#9826;","elianto","#f73b6a7A","-1","-1","1","0","[]","0","0","3","","","","","","","",""
"pit-trial","69","2639972","0.0-2.0-14.2-0.2","battery-v0.2","","""event"",""trial"",""time""
""focus"",""0"",""1""
""blur"",""1"",""2907""
""focus"",""1"",""2920""
""fullscreenenter"",""1"",""2934""
""blur"",""19"",""566238""
""focus"",""19"",""2283965""
","""event"",""trial"",""time""
""blur"",""1"",""2907""
""blur"",""19"",""566238""
","""event"",""trial"",""time""
""focus"",""0"",""1""
""focus"",""1"",""2920""
""focus"",""19"",""2283965""
","""event"",""trial"",""time""
""fullscreenenter"",""1"",""2934""
","
","","","-1","","","22","5133","2925","&#9826;","elianto","#f73b6a7A","-1","-1","1","0","[]","0","0","3","","","","","","","",""
"pit-trial","70","2644837","0.0-2.0-14.2-1.2","battery-v0.2","","""event"",""trial"",""time""
""focus"",""0"",""1""
""blur"",""1"",""2907""
""focus"",""1"",""2920""
""fullscreenenter"",""1"",""2934""
""blur"",""19"",""566238""
""focus"",""19"",""2283965""
","""event"",""trial"",""time""
""blur"",""1"",""2907""
""blur"",""19"",""566238""
","""event"",""trial"",""time""
""focus"",""0"",""1""
""focus"",""1"",""2920""
""focus"",""19"",""2283965""
","""event"",""trial"",""time""
""fullscreenenter"",""1"",""2934""
","
","","","-1","","","22","5133","2925","&#9826;","elianto","#f73b6a7A","-1","-1","1","0","[]","0","0","3","","","","","","","",""
"pit-trial","71","2649701","0.0-2.0-14.2-2.2","battery-v0.2","","""event"",""trial"",""time""
""focus"",""0"",""1""
""blur"",""1"",""2907""
""focus"",""1"",""2920""
""fullscreenenter"",""1"",""2934""
""blur"",""19"",""566238""
""focus"",""19"",""2283965""
","""event"",""trial"",""time""
""blur"",""1"",""2907""
""blur"",""19"",""566238""
","""event"",""trial"",""time""
""focus"",""0"",""1""
""focus"",""1"",""2920""
""focus"",""19"",""2283965""
","""event"",""trial"",""time""
""fullscreenenter"",""1"",""2934""
","
","","","-1","","","22","5133","2925","&#9826;","elianto","#f73b6a7A","-1","-1","1","0","[]","0","0","3","","","","","","","",""
"pit-trial","72","2654564","0.0-2.0-14.2-3.2","battery-v0.2","","""event"",""trial"",""time""
""focus"",""0"",""1""
""blur"",""1"",""2907""
""focus"",""1"",""2920""
""fullscreenenter"",""1"",""2934""
""blur"",""19"",""566238""
""focus"",""19"",""2283965""
","""event"",""trial"",""time""
""blur"",""1"",""2907""
""blur"",""19"",""566238""
","""event"",""trial"",""time""
""focus"",""0"",""1""
""focus"",""1"",""2920""
""focus"",""19"",""2283965""
","""event"",""trial"",""time""
""fullscreenenter"",""1"",""2934""
","
","","","-1","","","22","5133","2925","&#9826;","elianto","#f73b6a7A","-1","-1","1","-10","[]","0","0","3","","","","","","","",""
"pit-trial","73","2659428","0.0-2.0-14.2-4.2","battery-v0.2","","""event"",""trial"",""time""
""focus"",""0"",""1""
""blur"",""1"",""2907""
""focus"",""1"",""2920""
""fullscreenenter"",""1"",""2934""
""blur"",""19"",""566238""
""focus"",""19"",""2283965""
","""event"",""trial"",""time""
""blur"",""1"",""2907""
""blur"",""19"",""566238""
","""event"",""trial"",""time""
""focus"",""0"",""1""
""focus"",""1"",""2920""
""focus"",""19"",""2283965""
","""event"",""trial"",""time""
""fullscreenenter"",""1"",""2934""
","
","","","-1","","","22","5133","2925","&#9826;","elianto","#f73b6a7A","-1","-1","1","0","[]","0","0","3","","","","","","","",""
"pit-trial","74","2664284","0.0-2.0-14.3-0.3","battery-v0.2","","""event"",""trial"",""time""
""focus"",""0"",""1""
""blur"",""1"",""2907""
""focus"",""1"",""2920""
""fullscreenenter"",""1"",""2934""
""blur"",""19"",""566238""
""focus"",""19"",""2283965""
","""event"",""trial"",""time""
""blur"",""1"",""2907""
""blur"",""19"",""566238""
","""event"",""trial"",""time""
""focus"",""0"",""1""
""focus"",""1"",""2920""
""focus"",""19"",""2283965""
","""event"",""trial"",""time""
""fullscreenenter"",""1"",""2934""
","
","","","-1","","","22","5133","2925","&#9826;","elianto","#f73b6a7A","-1","-1","1","0","[]","0","0","3","","","","","","","",""
"pit-trial","75","2669145","0.0-2.0-14.3-1.3","battery-v0.2","","""event"",""trial"",""time""
""focus"",""0"",""1""
""blur"",""1"",""2907""
""focus"",""1"",""2920""
""fullscreenenter"",""1"",""2934""
""blur"",""19"",""566238""
""focus"",""19"",""2283965""
","""event"",""trial"",""time""
""blur"",""1"",""2907""
""blur"",""19"",""566238""
","""event"",""trial"",""time""
""focus"",""0"",""1""
""focus"",""1"",""2920""
""focus"",""19"",""2283965""
","""event"",""trial"",""time""
""fullscreenenter"",""1"",""2934""
","
","","","-1","","","22","5133","2925","&#9826;","elianto","#f73b6a7A","-1","-1","1","0","[]","0","0","3","","","","","","","",""
"pit-trial","76","2674008","0.0-2.0-14.3-2.3","battery-v0.2","","""event"",""trial"",""time""
""focus"",""0"",""1""
""blur"",""1"",""2907""
""focus"",""1"",""2920""
""fullscreenenter"",""1"",""2934""
""blur"",""19"",""566238""
""focus"",""19"",""2283965""
","""event"",""trial"",""time""
""blur"",""1"",""2907""
""blur"",""19"",""566238""
","""event"",""trial"",""time""
""focus"",""0"",""1""
""focus"",""1"",""2920""
""focus"",""19"",""2283965""
","""event"",""trial"",""time""
""fullscreenenter"",""1"",""2934""
","
","","","-1","","","22","5133","2925","&#9826;","elianto","#f73b6a7A","-1","-1","1","0","[]","0","0","3","","","","","","","",""
"pit-trial","77","2678872","0.0-2.0-14.3-3.3","battery-v0.2","","""event"",""trial"",""time""
""focus"",""0"",""1""
""blur"",""1"",""2907""
""focus"",""1"",""2920""
""fullscreenenter"",""1"",""2934""
""blur"",""19"",""566238""
""focus"",""19"",""2283965""
","""event"",""trial"",""time""
""blur"",""1"",""2907""
""blur"",""19"",""566238""
","""event"",""trial"",""time""
""focus"",""0"",""1""
""focus"",""1"",""2920""
""focus"",""19"",""2283965""
","""event"",""trial"",""time""
""fullscreenenter"",""1"",""2934""
","
","","","-1","","","22","5133","2925","&#9826;","elianto","#f73b6a7A","-1","-1","1","-10","[]","0","0","3","","","","","","","",""
"pit-trial","78","2683730","0.0-2.0-14.3-4.3","battery-v0.2","","""event"",""trial"",""time""
""focus"",""0"",""1""
""blur"",""1"",""2907""
""focus"",""1"",""2920""
""fullscreenenter"",""1"",""2934""
""blur"",""19"",""566238""
""focus"",""19"",""2283965""
","""event"",""trial"",""time""
""blur"",""1"",""2907""
""blur"",""19"",""566238""
","""event"",""trial"",""time""
""focus"",""0"",""1""
""focus"",""1"",""2920""
""focus"",""19"",""2283965""
","""event"",""trial"",""time""
""fullscreenenter"",""1"",""2934""
","
","","","-1","","","22","5133","2925","&#9826;","elianto","#f73b6a7A","-1","-1","1","0","[]","0","0","3","","","","","","","",""
"call-function","79","2683732","0.0-2.0-15.0","battery-v0.2","","""event"",""trial"",""time""
""focus"",""0"",""1""
""blur"",""1"",""2907""
""focus"",""1"",""2920""
""fullscreenenter"",""1"",""2934""
""blur"",""19"",""566238""
""focus"",""19"",""2283965""
","""event"",""trial"",""time""
""blur"",""1"",""2907""
""blur"",""19"",""566238""
","""event"",""trial"",""time""
""focus"",""0"",""1""
""focus"",""1"",""2920""
""focus"",""19"",""2283965""
","""event"",""trial"",""time""
""fullscreenenter"",""1"",""2934""
","
","","","","","","","","","","","","","","","","","","","","","","","","","","",""
"pit-instructions","80","2711092","0.0-2.0-16.0","battery-v0.2","","""event"",""trial"",""time""
""focus"",""0"",""1""
""blur"",""1"",""2907""
""focus"",""1"",""2920""
""fullscreenenter"",""1"",""2934""
""blur"",""19"",""566238""
""focus"",""19"",""2283965""
","""event"",""trial"",""time""
""blur"",""1"",""2907""
""blur"",""19"",""566238""
","""event"",""trial"",""time""
""focus"",""0"",""1""
""focus"",""1"",""2920""
""focus"",""19"",""2283965""
","""event"",""trial"",""time""
""fullscreenenter"",""1"",""2934""
","
","","[{""page_index"":0,""viewing_time"":7276},{""page_index"":1,""viewing_time"":9632},{""page_index"":2,""viewing_time"":5431},{""page_index"":3,""viewing_time"":5019}]","27360","","","","","","","","","","","","","","","","","","","","","","","",""
"pit-trial","81","2715951","0.0-2.0-17.0-0.0","battery-v0.2","","""event"",""trial"",""time""
""focus"",""0"",""1""
""blur"",""1"",""2907""
""focus"",""1"",""2920""
""fullscreenenter"",""1"",""2934""
""blur"",""19"",""566238""
""focus"",""19"",""2283965""
","""event"",""trial"",""time""
""blur"",""1"",""2907""
""blur"",""19"",""566238""
","""event"",""trial"",""time""
""focus"",""0"",""1""
""focus"",""1"",""2920""
""focus"",""19"",""2283965""
","""event"",""trial"",""time""
""fullscreenenter"",""1"",""2934""
","
","","","-1","","","22","5133","2925","&#9789;","elianto","#f73b6a7A"," ","-1","0","-10","[]","0","0","4","","","","","","","",""
"pit-trial","82","2719904","0.0-2.0-17.0-1.0","battery-v0.2","","""event"",""trial"",""time""
""focus"",""0"",""1""
""blur"",""1"",""2907""
""focus"",""1"",""2920""
""fullscreenenter"",""1"",""2934""
""blur"",""19"",""566238""
""focus"",""19"",""2283965""
","""event"",""trial"",""time""
""blur"",""1"",""2907""
""blur"",""19"",""566238""
","""event"",""trial"",""time""
""focus"",""0"",""1""
""focus"",""1"",""2920""
""focus"",""19"",""2283965""
","""event"",""trial"",""time""
""fullscreenenter"",""1"",""2934""
","
","","","1089","","","22","5133","2925","&#9789;","elianto","#f73b6a7A"," "," ","1","0","[1943]","1","0","4","","","","","","","",""
"pit-trial","83","2723178","0.0-2.0-17.0-2.0","battery-v0.2","","""event"",""trial"",""time""
""focus"",""0"",""1""
""blur"",""1"",""2907""
""focus"",""1"",""2920""
""fullscreenenter"",""1"",""2934""
""blur"",""19"",""566238""
""focus"",""19"",""2283965""
","""event"",""trial"",""time""
""blur"",""1"",""2907""
""blur"",""19"",""566238""
","""event"",""trial"",""time""
""focus"",""0"",""1""
""focus"",""1"",""2920""
""focus"",""19"",""2283965""
","""event"",""trial"",""time""
""fullscreenenter"",""1"",""2934""
","
","","","412","","","22","5133","2925","&#9789;","elianto","#f73b6a7A"," "," ","1","0","[1266]","1","0","4","","","","","","","",""
"pit-trial","84","2726506","0.0-2.0-17.0-3.0","battery-v0.2","","""event"",""trial"",""time""
""focus"",""0"",""1""
""blur"",""1"",""2907""
""focus"",""1"",""2920""
""fullscreenenter"",""1"",""2934""
""blur"",""19"",""566238""
""focus"",""19"",""2283965""
","""event"",""trial"",""time""
""blur"",""1"",""2907""
""blur"",""19"",""566238""
","""event"",""trial"",""time""
""focus"",""0"",""1""
""focus"",""1"",""2920""
""focus"",""19"",""2283965""
","""event"",""trial"",""time""
""fullscreenenter"",""1"",""2934""
","
","","","469","","","22","5133","2925","&#9789;","elianto","#f73b6a7A"," "," ","1","-10","[1319]","1","0","4","","","","","","","",""
"pit-trial","85","2730072","0.0-2.0-17.0-4.0","battery-v0.2","","""event"",""trial"",""time""
""focus"",""0"",""1""
""blur"",""1"",""2907""
""focus"",""1"",""2920""
""fullscreenenter"",""1"",""2934""
""blur"",""19"",""566238""
""focus"",""19"",""2283965""
","""event"",""trial"",""time""
""blur"",""1"",""2907""
""blur"",""19"",""566238""
","""event"",""trial"",""time""
""focus"",""0"",""1""
""focus"",""1"",""2920""
""focus"",""19"",""2283965""
","""event"",""trial"",""time""
""fullscreenenter"",""1"",""2934""
","
","","","701","","","22","5133","2925","&#9789;","elianto","#f73b6a7A"," "," ","1","0","[1556]","1","0","4","","","","","","","",""
"pit-trial","86","2733365","0.0-2.0-17.1-0.1","battery-v0.2","","""event"",""trial"",""time""
""focus"",""0"",""1""
""blur"",""1"",""2907""
""focus"",""1"",""2920""
""fullscreenenter"",""1"",""2934""
""blur"",""19"",""566238""
""focus"",""19"",""2283965""
","""event"",""trial"",""time""
""blur"",""1"",""2907""
""blur"",""19"",""566238""
","""event"",""trial"",""time""
""focus"",""0"",""1""
""focus"",""1"",""2920""
""focus"",""19"",""2283965""
","""event"",""trial"",""time""
""fullscreenenter"",""1"",""2934""
","
","","","432","","","22","5133","2925","&#9789;","elianto","#f73b6a7A"," "," ","1","0","[1283]","1","0","4","","","","","","","",""
"pit-trial","87","2736630","0.0-2.0-17.1-1.1","battery-v0.2","","""event"",""trial"",""time""
""focus"",""0"",""1""
""blur"",""1"",""2907""
""focus"",""1"",""2920""
""fullscreenenter"",""1"",""2934""
""blur"",""19"",""566238""
""focus"",""19"",""2283965""
","""event"",""trial"",""time""
""blur"",""1"",""2907""
""blur"",""19"",""566238""
","""event"",""trial"",""time""
""focus"",""0"",""1""
""focus"",""1"",""2920""
""focus"",""19"",""2283965""
","""event"",""trial"",""time""
""fullscreenenter"",""1"",""2934""
","
","","","403","","","22","5133","2925","&#9789;","elianto","#f73b6a7A"," "," ","1","0","[1256]","1","0","4","","","","","","","",""
"pit-trial","88","2739620","0.0-2.0-17.1-2.1","battery-v0.2","","""event"",""trial"",""time""
""focus"",""0"",""1""
""blur"",""1"",""2907""
""focus"",""1"",""2920""
""fullscreenenter"",""1"",""2934""
""blur"",""19"",""566238""
""focus"",""19"",""2283965""
","""event"",""trial"",""time""
""blur"",""1"",""2907""
""blur"",""19"",""566238""
","""event"",""trial"",""time""
""focus"",""0"",""1""
""focus"",""1"",""2920""
""focus"",""19"",""2283965""
","""event"",""trial"",""time""
""fullscreenenter"",""1"",""2934""
","
","","","128","","","22","5133","2925","&#9789;","elianto","#f73b6a7A"," "," ","1","0","[982]","1","0","4","","","","","","","",""
"pit-trial","89","2742650","0.0-2.0-17.1-3.1","battery-v0.2","","""event"",""trial"",""time""
""focus"",""0"",""1""
""blur"",""1"",""2907""
""focus"",""1"",""2920""
""fullscreenenter"",""1"",""2934""
""blur"",""19"",""566238""
""focus"",""19"",""2283965""
","""event"",""trial"",""time""
""blur"",""1"",""2907""
""blur"",""19"",""566238""
","""event"",""trial"",""time""
""focus"",""0"",""1""
""focus"",""1"",""2920""
""focus"",""19"",""2283965""
","""event"",""trial"",""time""
""fullscreenenter"",""1"",""2934""
","
","","","167","","","22","5133","2925","&#9789;","elianto","#f73b6a7A"," "," ","1","-10","[1021]","1","0","4","","","","","","","",""
"pit-trial","90","2745907","0.0-2.0-17.1-4.1","battery-v0.2","","""event"",""trial"",""time""
""focus"",""0"",""1""
""blur"",""1"",""2907""
""focus"",""1"",""2920""
""fullscreenenter"",""1"",""2934""
""blur"",""19"",""566238""
""focus"",""19"",""2283965""
","""event"",""trial"",""time""
""blur"",""1"",""2907""
""blur"",""19"",""566238""
","""event"",""trial"",""time""
""focus"",""0"",""1""
""focus"",""1"",""2920""
""focus"",""19"",""2283965""
","""event"",""trial"",""time""
""fullscreenenter"",""1"",""2934""
","
","","","393","","","22","5133","2925","&#9789;","elianto","#f73b6a7A"," "," ","1","0","[1248]","1","0","4","","","","","","","",""
"pit-trial","91","2749189","0.0-2.0-17.2-0.2","battery-v0.2","","""event"",""trial"",""time""
""focus"",""0"",""1""
""blur"",""1"",""2907""
""focus"",""1"",""2920""
""fullscreenenter"",""1"",""2934""
""blur"",""19"",""566238""
""focus"",""19"",""2283965""
","""event"",""trial"",""time""
""blur"",""1"",""2907""
""blur"",""19"",""566238""
","""event"",""trial"",""time""
""focus"",""0"",""1""
""focus"",""1"",""2920""
""focus"",""19"",""2283965""
","""event"",""trial"",""time""
""fullscreenenter"",""1"",""2934""
","
","","","422","","","22","5133","2925","&#9789;","elianto","#f73b6a7A"," "," ","1","0","[1277]","1","0","4","","","","","","","",""
"pit-trial","92","2752255","0.0-2.0-17.2-1.2","battery-v0.2","","""event"",""trial"",""time""
""focus"",""0"",""1""
""blur"",""1"",""2907""
""focus"",""1"",""2920""
""fullscreenenter"",""1"",""2934""
""blur"",""19"",""566238""
""focus"",""19"",""2283965""
","""event"",""trial"",""time""
""blur"",""1"",""2907""
""blur"",""19"",""566238""
","""event"",""trial"",""time""
""focus"",""0"",""1""
""focus"",""1"",""2920""
""focus"",""19"",""2283965""
","""event"",""trial"",""time""
""fullscreenenter"",""1"",""2934""
","
","","","202","","","22","5133","2925","&#9789;","elianto","#f73b6a7A"," "," ","1","0","[1057]","1","0","4","","","","","","","",""
"pit-trial","93","2755522","0.0-2.0-17.2-2.2","battery-v0.2","","""event"",""trial"",""time""
""focus"",""0"",""1""
""blur"",""1"",""2907""
""focus"",""1"",""2920""
""fullscreenenter"",""1"",""2934""
""blur"",""19"",""566238""
""focus"",""19"",""2283965""
","""event"",""trial"",""time""
""blur"",""1"",""2907""
""blur"",""19"",""566238""
","""event"",""trial"",""time""
""focus"",""0"",""1""
""focus"",""1"",""2920""
""focus"",""19"",""2283965""
","""event"",""trial"",""time""
""fullscreenenter"",""1"",""2934""
","
","","","404","","","22","5133","2925","&#9789;","elianto","#f73b6a7A"," "," ","1","0","[1258]","1","0","4","","","","","","","",""
"pit-trial","94","2758927","0.0-2.0-17.2-3.2","battery-v0.2","","""event"",""trial"",""time""
""focus"",""0"",""1""
""blur"",""1"",""2907""
""focus"",""1"",""2920""
""fullscreenenter"",""1"",""2934""
""blur"",""19"",""566238""
""focus"",""19"",""2283965""
","""event"",""trial"",""time""
""blur"",""1"",""2907""
""blur"",""19"",""566238""
","""event"",""trial"",""time""
""focus"",""0"",""1""
""focus"",""1"",""2920""
""focus"",""19"",""2283965""
","""event"",""trial"",""time""
""fullscreenenter"",""1"",""2934""
","
","","","542","","","22","5133","2925","&#9789;","elianto","#f73b6a7A"," "," ","1","-10","[1397]","1","0","4","","","","","","","",""
"pit-trial","95","2762255","0.0-2.0-17.2-4.2","battery-v0.2","","""event"",""trial"",""time""
""focus"",""0"",""1""
""blur"",""1"",""2907""
""focus"",""1"",""2920""
""fullscreenenter"",""1"",""2934""
""blur"",""19"",""566238""
""focus"",""19"",""2283965""
","""event"",""trial"",""time""
""blur"",""1"",""2907""
""blur"",""19"",""566238""
","""event"",""trial"",""time""
""focus"",""0"",""1""
""focus"",""1"",""2920""
""focus"",""19"",""2283965""
","""event"",""trial"",""time""
""fullscreenenter"",""1"",""2934""
","
","","","474","","","22","5133","2925","&#9789;","elianto","#f73b6a7A"," "," ","1","0","[1324]","1","0","4","","","","","","","",""
"pit-trial","96","2765813","0.0-2.0-17.3-0.3","battery-v0.2","","""event"",""trial"",""time""
""focus"",""0"",""1""
""blur"",""1"",""2907""
""focus"",""1"",""2920""
""fullscreenenter"",""1"",""2934""
""blur"",""19"",""566238""
""focus"",""19"",""2283965""
","""event"",""trial"",""time""
""blur"",""1"",""2907""
""blur"",""19"",""566238""
","""event"",""trial"",""time""
""focus"",""0"",""1""
""focus"",""1"",""2920""
""focus"",""19"",""2283965""
","""event"",""trial"",""time""
""fullscreenenter"",""1"",""2934""
","
","","","694","","","22","5133","2925","&#9789;","elianto","#f73b6a7A"," "," ","1","0","[1547]","1","0","4","","","","","","","",""
"pit-trial","97","2769950","0.0-2.0-17.3-1.3","battery-v0.2","","""event"",""trial"",""time""
""focus"",""0"",""1""
""blur"",""1"",""2907""
""focus"",""1"",""2920""
""fullscreenenter"",""1"",""2934""
""blur"",""19"",""566238""
""focus"",""19"",""2283965""
","""event"",""trial"",""time""
""blur"",""1"",""2907""
""blur"",""19"",""566238""
","""event"",""trial"",""time""
""focus"",""0"",""1""
""focus"",""1"",""2920""
""focus"",""19"",""2283965""
","""event"",""trial"",""time""
""fullscreenenter"",""1"",""2934""
","
","","","1273","","","22","5133","2925","&#9789;","elianto","#f73b6a7A"," "," ","1","0","[2129]","1","0","4","","","","","","","",""
"pit-trial","98","2773835","0.0-2.0-17.3-2.3","battery-v0.2","","""event"",""trial"",""time""
""focus"",""0"",""1""
""blur"",""1"",""2907""
""focus"",""1"",""2920""
""fullscreenenter"",""1"",""2934""
""blur"",""19"",""566238""
""focus"",""19"",""2283965""
","""event"",""trial"",""time""
""blur"",""1"",""2907""
""blur"",""19"",""566238""
","""event"",""trial"",""time""
""focus"",""0"",""1""
""focus"",""1"",""2920""
""focus"",""19"",""2283965""
","""event"",""trial"",""time""
""fullscreenenter"",""1"",""2934""
","
","","","1021","","","22","5133","2925","&#9789;","elianto","#f73b6a7A"," "," ","1","0","[1875]","1","0","4","","","","","","","",""
"pit-trial","99","2777930","0.0-2.0-17.3-3.3","battery-v0.2","","""event"",""trial"",""time""
""focus"",""0"",""1""
""blur"",""1"",""2907""
""focus"",""1"",""2920""
""fullscreenenter"",""1"",""2934""
""blur"",""19"",""566238""
""focus"",""19"",""2283965""
","""event"",""trial"",""time""
""blur"",""1"",""2907""
""blur"",""19"",""566238""
","""event"",""trial"",""time""
""focus"",""0"",""1""
""focus"",""1"",""2920""
""focus"",""19"",""2283965""
","""event"",""trial"",""time""
""fullscreenenter"",""1"",""2934""
","
","","","1233","","","22","5133","2925","&#9789;","elianto","#f73b6a7A"," "," ","1","-10","[2087]","1","0","4","","","","","","","",""
"pit-trial","100","2781935","0.0-2.0-17.3-4.3","battery-v0.2","","""event"",""trial"",""time""
""focus"",""0"",""1""
""blur"",""1"",""2907""
""focus"",""1"",""2920""
""fullscreenenter"",""1"",""2934""
""blur"",""19"",""566238""
""focus"",""19"",""2283965""
","""event"",""trial"",""time""
""blur"",""1"",""2907""
""blur"",""19"",""566238""
","""event"",""trial"",""time""
""focus"",""0"",""1""
""focus"",""1"",""2920""
""focus"",""19"",""2283965""
","""event"",""trial"",""time""
""fullscreenenter"",""1"",""2934""
","
","","","1146","","","22","5133","2925","&#9789;","elianto","#f73b6a7A"," "," ","1","0","[2001]","1","0","4","","","","","","","",""
"call-function","101","2781938","0.0-2.0-18.0","battery-v0.2","","""event"",""trial"",""time""
""focus"",""0"",""1""
""blur"",""1"",""2907""
""focus"",""1"",""2920""
""fullscreenenter"",""1"",""2934""
""blur"",""19"",""566238""
""focus"",""19"",""2283965""
","""event"",""trial"",""time""
""blur"",""1"",""2907""
""blur"",""19"",""566238""
","""event"",""trial"",""time""
""focus"",""0"",""1""
""focus"",""1"",""2920""
""focus"",""19"",""2283965""
","""event"",""trial"",""time""
""fullscreenenter"",""1"",""2934""
","
","","","","","","","","","","","","","","","","","","","","","","","","","","",""
"pit-instructions","102","2925743","0.0-2.0-19.0","battery-v0.2","","""event"",""trial"",""time""
""focus"",""0"",""1""
""blur"",""1"",""2907""
""focus"",""1"",""2920""
""fullscreenenter"",""1"",""2934""
""blur"",""19"",""566238""
""focus"",""19"",""2283965""
","""event"",""trial"",""time""
""blur"",""1"",""2907""
""blur"",""19"",""566238""
","""event"",""trial"",""time""
""focus"",""0"",""1""
""focus"",""1"",""2920""
""focus"",""19"",""2283965""
","""event"",""trial"",""time""
""fullscreenenter"",""1"",""2934""
","
","","[{""page_index"":0,""viewing_time"":17366},{""page_index"":1,""viewing_time"":10271},{""page_index"":2,""viewing_time"":74785},{""page_index"":3,""viewing_time"":7614},{""page_index"":4,""viewing_time"":8020},{""page_index"":5,""viewing_time"":8314},{""page_index"":6,""viewing_time"":7903},{""page_index"":7,""viewing_time"":5914},{""page_index"":8,""viewing_time"":3620}]","143807","","","","","","","","","","","","","","","","","","","","","","","",""
"pit-comprehension","103","2929863","0.0-2.0-20.0-0.0","battery-v0.2","","""event"",""trial"",""time""
""focus"",""0"",""1""
""blur"",""1"",""2907""
""focus"",""1"",""2920""
""fullscreenenter"",""1"",""2934""
""blur"",""19"",""566238""
""focus"",""19"",""2283965""
","""event"",""trial"",""time""
""blur"",""1"",""2907""
""blur"",""19"",""566238""
","""event"",""trial"",""time""
""focus"",""0"",""1""
""focus"",""1"",""2920""
""focus"",""19"",""2283965""
","""event"",""trial"",""time""
""fullscreenenter"",""1"",""2934""
","
","","","4114","[""SPACE""]","0","22","5133","2925","","","","","","","","","","","","","","","","","","",""
"pit-instructions","104","2932293","0.0-2.0-20.0-1.0","battery-v0.2","","""event"",""trial"",""time""
""focus"",""0"",""1""
""blur"",""1"",""2907""
""focus"",""1"",""2920""
""fullscreenenter"",""1"",""2934""
""blur"",""19"",""566238""
""focus"",""19"",""2283965""
","""event"",""trial"",""time""
""blur"",""1"",""2907""
""blur"",""19"",""566238""
","""event"",""trial"",""time""
""focus"",""0"",""1""
""focus"",""1"",""2920""
""focus"",""19"",""2283965""
","""event"",""trial"",""time""
""fullscreenenter"",""1"",""2934""
","
","","[{""page_index"":0,""viewing_time"":2395}]","2396","","","","","","","","","","","","","","","","","","","","","","","",""
"pit-comprehension","105","2937174","0.0-2.0-21.0-0.0","battery-v0.2","","""event"",""trial"",""time""
""focus"",""0"",""1""
""blur"",""1"",""2907""
""focus"",""1"",""2920""
""fullscreenenter"",""1"",""2934""
""blur"",""19"",""566238""
""focus"",""19"",""2283965""
","""event"",""trial"",""time""
""blur"",""1"",""2907""
""blur"",""19"",""566238""
","""event"",""trial"",""time""
""focus"",""0"",""1""
""focus"",""1"",""2920""
""focus"",""19"",""2283965""
","""event"",""trial"",""time""
""fullscreenenter"",""1"",""2934""
","
","","","4877","[""10""]","0","22","5133","2925","","","","","","","","","","","","","","","","","","",""
"pit-instructions","106","2938759","0.0-2.0-21.0-1.0","battery-v0.2","","""event"",""trial"",""time""
""focus"",""0"",""1""
""blur"",""1"",""2907""
""focus"",""1"",""2920""
""fullscreenenter"",""1"",""2934""
""blur"",""19"",""566238""
""focus"",""19"",""2283965""
","""event"",""trial"",""time""
""blur"",""1"",""2907""
""blur"",""19"",""566238""
","""event"",""trial"",""time""
""focus"",""0"",""1""
""focus"",""1"",""2920""
""focus"",""19"",""2283965""
","""event"",""trial"",""time""
""fullscreenenter"",""1"",""2934""
","
","","[{""page_index"":0,""viewing_time"":1551}]","1552","","","","","","","","","","","","","","","","","","","","","","","",""
"pit-comprehension","107","2945777","0.0-2.0-22.0-0.0","battery-v0.2","","""event"",""trial"",""time""
""focus"",""0"",""1""
""blur"",""1"",""2907""
""focus"",""1"",""2920""
""fullscreenenter"",""1"",""2934""
""blur"",""19"",""566238""
""focus"",""19"",""2283965""
","""event"",""trial"",""time""
""blur"",""1"",""2907""
""blur"",""19"",""566238""
","""event"",""trial"",""time""
""focus"",""0"",""1""
""focus"",""1"",""2920""
""focus"",""19"",""2283965""
","""event"",""trial"",""time""
""fullscreenenter"",""1"",""2934""
","
","","","7014","[""0""]","0","22","5133","2925","","","","","","","","","","","","","","","","","","",""
"pit-instructions","108","2947409","0.0-2.0-22.0-1.0","battery-v0.2","","""event"",""trial"",""time""
""focus"",""0"",""1""
""blur"",""1"",""2907""
""focus"",""1"",""2920""
""fullscreenenter"",""1"",""2934""
""blur"",""19"",""566238""
""focus"",""19"",""2283965""
","""event"",""trial"",""time""
""blur"",""1"",""2907""
""blur"",""19"",""566238""
","""event"",""trial"",""time""
""focus"",""0"",""1""
""focus"",""1"",""2920""
""focus"",""19"",""2283965""
","""event"",""trial"",""time""
""fullscreenenter"",""1"",""2934""
","
","","[{""page_index"":0,""viewing_time"":1596}]","1597","","","","","","","","","","","","","","","","","","","","","","","",""
"pit-comprehension","109","2956411","0.0-2.0-23.0-0.0","battery-v0.2","","""event"",""trial"",""time""
""focus"",""0"",""1""
""blur"",""1"",""2907""
""focus"",""1"",""2920""
""fullscreenenter"",""1"",""2934""
""blur"",""19"",""566238""
""focus"",""19"",""2283965""
","""event"",""trial"",""time""
""blur"",""1"",""2907""
""blur"",""19"",""566238""
","""event"",""trial"",""time""
""focus"",""0"",""1""
""focus"",""1"",""2920""
""focus"",""19"",""2283965""
","""event"",""trial"",""time""
""fullscreenenter"",""1"",""2934""
","
","","","8996","[""True""]","0","22","5133","2925","","","","","","","","","","","","","","","","","","",""
"pit-instructions","110","2958093","0.0-2.0-23.0-1.0","battery-v0.2","","""event"",""trial"",""time""
""focus"",""0"",""1""
""blur"",""1"",""2907""
""focus"",""1"",""2920""
""fullscreenenter"",""1"",""2934""
""blur"",""19"",""566238""
""focus"",""19"",""2283965""
","""event"",""trial"",""time""
""blur"",""1"",""2907""
""blur"",""19"",""566238""
","""event"",""trial"",""time""
""focus"",""0"",""1""
""focus"",""1"",""2920""
""focus"",""19"",""2283965""
","""event"",""trial"",""time""
""fullscreenenter"",""1"",""2934""
","
","","[{""page_index"":0,""viewing_time"":1645}]","1645","","","","","","","","","","","","","","","","","","","","","","","",""
"pit-comprehension","111","2965778","0.0-2.0-24.0-0.0","battery-v0.2","","""event"",""trial"",""time""
""focus"",""0"",""1""
""blur"",""1"",""2907""
""focus"",""1"",""2920""
""fullscreenenter"",""1"",""2934""
""blur"",""19"",""566238""
""focus"",""19"",""2283965""
","""event"",""trial"",""time""
""blur"",""1"",""2907""
""blur"",""19"",""566238""
","""event"",""trial"",""time""
""focus"",""0"",""1""
""focus"",""1"",""2920""
""focus"",""19"",""2283965""
","""event"",""trial"",""time""
""fullscreenenter"",""1"",""2934""
","
","","","7681","[""True""]","0","22","5133","2925","","","","","","","","","","","","","","","","","","",""
"pit-instructions","112","2968426","0.0-2.0-24.0-1.0","battery-v0.2","","""event"",""trial"",""time""
""focus"",""0"",""1""
""blur"",""1"",""2907""
""focus"",""1"",""2920""
""fullscreenenter"",""1"",""2934""
""blur"",""19"",""566238""
""focus"",""19"",""2283965""
","""event"",""trial"",""time""
""blur"",""1"",""2907""
""blur"",""19"",""566238""
","""event"",""trial"",""time""
""focus"",""0"",""1""
""focus"",""1"",""2920""
""focus"",""19"",""2283965""
","""event"",""trial"",""time""
""fullscreenenter"",""1"",""2934""
","
","","[{""page_index"":0,""viewing_time"":2611}]","2611","","","","","","","","","","","","","","","","","","","","","","","",""
"pit-comprehension","113","2974624","0.0-2.0-25.0-0.0","battery-v0.2","","""event"",""trial"",""time""
""focus"",""0"",""1""
""blur"",""1"",""2907""
""focus"",""1"",""2920""
""fullscreenenter"",""1"",""2934""
""blur"",""19"",""566238""
""focus"",""19"",""2283965""
","""event"",""trial"",""time""
""blur"",""1"",""2907""
""blur"",""19"",""566238""
","""event"",""trial"",""time""
""focus"",""0"",""1""
""focus"",""1"",""2920""
""focus"",""19"",""2283965""
","""event"",""trial"",""time""
""fullscreenenter"",""1"",""2934""
","
","","","6194","[""True""]","0","22","5133","2925","","","","","","","","","","","","","","","","","","",""
"pit-instructions","114","2976709","0.0-2.0-25.0-1.0","battery-v0.2","","""event"",""trial"",""time""
""focus"",""0"",""1""
""blur"",""1"",""2907""
""focus"",""1"",""2920""
""fullscreenenter"",""1"",""2934""
""blur"",""19"",""566238""
""focus"",""19"",""2283965""
","""event"",""trial"",""time""
""blur"",""1"",""2907""
""blur"",""19"",""566238""
","""event"",""trial"",""time""
""focus"",""0"",""1""
""focus"",""1"",""2920""
""focus"",""19"",""2283965""
","""event"",""trial"",""time""
""fullscreenenter"",""1"",""2934""
","
","","[{""page_index"":0,""viewing_time"":2049}]","2049","","","","","","","","","","","","","","","","","","","","","","","",""
"pit-comprehension","115","2981261","0.0-2.0-26.0-0.0","battery-v0.2","","""event"",""trial"",""time""
""focus"",""0"",""1""
""blur"",""1"",""2907""
""focus"",""1"",""2920""
""fullscreenenter"",""1"",""2934""
""blur"",""19"",""566238""
""focus"",""19"",""2283965""
","""event"",""trial"",""time""
""blur"",""1"",""2907""
""blur"",""19"",""566238""
","""event"",""trial"",""time""
""focus"",""0"",""1""
""focus"",""1"",""2920""
""focus"",""19"",""2283965""
","""event"",""trial"",""time""
""fullscreenenter"",""1"",""2934""
","
","","","4548","[""False""]","0","22","5133","2925","","","","","","","","","","","","","","","","","","",""
"pit-instructions","116","2983006","0.0-2.0-26.0-1.0","battery-v0.2","","""event"",""trial"",""time""
""focus"",""0"",""1""
""blur"",""1"",""2907""
""focus"",""1"",""2920""
""fullscreenenter"",""1"",""2934""
""blur"",""19"",""566238""
""focus"",""19"",""2283965""
","""event"",""trial"",""time""
""blur"",""1"",""2907""
""blur"",""19"",""566238""
","""event"",""trial"",""time""
""focus"",""0"",""1""
""focus"",""1"",""2920""
""focus"",""19"",""2283965""
","""event"",""trial"",""time""
""fullscreenenter"",""1"",""2934""
","
","","[{""page_index"":0,""viewing_time"":1708}]","1708","","","","","","","","","","","","","","","","","","","","","","","",""
"pit-instructions","117","2998425","0.0-3.0","battery-v0.2","","""event"",""trial"",""time""
""focus"",""0"",""1""
""blur"",""1"",""2907""
""focus"",""1"",""2920""
""fullscreenenter"",""1"",""2934""
""blur"",""19"",""566238""
""focus"",""19"",""2283965""
","""event"",""trial"",""time""
""blur"",""1"",""2907""
""blur"",""19"",""566238""
","""event"",""trial"",""time""
""focus"",""0"",""1""
""focus"",""1"",""2920""
""focus"",""19"",""2283965""
","""event"",""trial"",""time""
""fullscreenenter"",""1"",""2934""
","
","","[{""page_index"":0,""viewing_time"":3384},{""page_index"":1,""viewing_time"":5249},{""page_index"":2,""viewing_time"":6784}]","15417","","","","","","","","","","","","","","","","","","","","","","","",""
"pit-trial","118","3002187","0.0-4.0","battery-v0.2","","""event"",""trial"",""time""
""focus"",""0"",""1""
""blur"",""1"",""2907""
""focus"",""1"",""2920""
""fullscreenenter"",""1"",""2934""
""blur"",""19"",""566238""
""focus"",""19"",""2283965""
","""event"",""trial"",""time""
""blur"",""1"",""2907""
""blur"",""19"",""566238""
","""event"",""trial"",""time""
""focus"",""0"",""1""
""focus"",""1"",""2920""
""focus"",""19"",""2283965""
","""event"",""trial"",""time""
""fullscreenenter"",""1"",""2934""
","
","","","896","","","22","5133","2925","&#9730;","elianto","#3366ff99"," "," ","1","+10","[1752]","1","1","","","5133","1","1","1","win","go","0"
"pit-trial","119","3006218","0.0-5.0","battery-v0.2","","""event"",""trial"",""time""
""focus"",""0"",""1""
""blur"",""1"",""2907""
""focus"",""1"",""2920""
""fullscreenenter"",""1"",""2934""
""blur"",""19"",""566238""
""focus"",""19"",""2283965""
","""event"",""trial"",""time""
""blur"",""1"",""2907""
""blur"",""19"",""566238""
","""event"",""trial"",""time""
""focus"",""0"",""1""
""focus"",""1"",""2920""
""focus"",""19"",""2283965""
","""event"",""trial"",""time""
""fullscreenenter"",""1"",""2934""
","
","","","1172","","","22","5133","2925","&#9733;","elianto","#3366ff99","-1"," ","0","0","[2022]","1","1","","","5133","2","2","2","win","no-go","0"
"pit-trial","120","3011076","0.0-6.0","battery-v0.2","","""event"",""trial"",""time""
""focus"",""0"",""1""
""blur"",""1"",""2907""
""focus"",""1"",""2920""
""fullscreenenter"",""1"",""2934""
""blur"",""19"",""566238""
""focus"",""19"",""2283965""
","""event"",""trial"",""time""
""blur"",""1"",""2907""
""blur"",""19"",""566238""
","""event"",""trial"",""time""
""focus"",""0"",""1""
""focus"",""1"",""2920""
""focus"",""19"",""2283965""
","""event"",""trial"",""time""
""fullscreenenter"",""1"",""2934""
","
","","","-1","","","22","5133","2925","&#9752;","elianto","#f73b6a7A"," ","-1","0","-10","[]","0","1","","","5133","3","3","3","lose","go","0"
"pit-trial","121","3015940","0.0-7.0","battery-v0.2","","""event"",""trial"",""time""
""focus"",""0"",""1""
""blur"",""1"",""2907""
""focus"",""1"",""2920""
""fullscreenenter"",""1"",""2934""
""blur"",""19"",""566238""
""focus"",""19"",""2283965""
","""event"",""trial"",""time""
""blur"",""1"",""2907""
""blur"",""19"",""566238""
","""event"",""trial"",""time""
""focus"",""0"",""1""
""focus"",""1"",""2920""
""focus"",""19"",""2283965""
","""event"",""trial"",""time""
""fullscreenenter"",""1"",""2934""
","
","","","-1","","","22","5133","2925","&#9728;","elianto","#f73b6a7A","-1","-1","1","0","[]","0","1","","","5133","4","0","4","lose","no-go","0"
"pit-trial","122","3019479","0.0-8.0","battery-v0.2","","""event"",""trial"",""time""
""focus"",""0"",""1""
""blur"",""1"",""2907""
""focus"",""1"",""2920""
""fullscreenenter"",""1"",""2934""
""blur"",""19"",""566238""
""focus"",""19"",""2283965""
","""event"",""trial"",""time""
""blur"",""1"",""2907""
""blur"",""19"",""566238""
","""event"",""trial"",""time""
""focus"",""0"",""1""
""focus"",""1"",""2920""
""focus"",""19"",""2283965""
","""event"",""trial"",""time""
""fullscreenenter"",""1"",""2934""
","
","","","676","","","22","5133","2925","&#9752;","elianto","#f73b6a7A"," "," ","1","0","[1531]","1","1","","","5133","5","3","3","lose","go","0"
"pit-trial","123","3024344","0.0-9.0","battery-v0.2","","""event"",""trial"",""time""
""focus"",""0"",""1""
""blur"",""1"",""2907""
""focus"",""1"",""2920""
""fullscreenenter"",""1"",""2934""
""blur"",""19"",""566238""
""focus"",""19"",""2283965""
","""event"",""trial"",""time""
""blur"",""1"",""2907""
""blur"",""19"",""566238""
","""event"",""trial"",""time""
""focus"",""0"",""1""
""focus"",""1"",""2920""
""focus"",""19"",""2283965""
","""event"",""trial"",""time""
""fullscreenenter"",""1"",""2934""
","
","","","-1","","","22","5133","2925","&#9733;","elianto","#3366ff99","-1","-1","1","+10","[]","0","1","","","5133","6","2","2","win","no-go","0"
"pit-trial","124","3027875","0.0-10.0","battery-v0.2","","""event"",""trial"",""time""
""focus"",""0"",""1""
""blur"",""1"",""2907""
""focus"",""1"",""2920""
""fullscreenenter"",""1"",""2934""
""blur"",""19"",""566238""
""focus"",""19"",""2283965""
","""event"",""trial"",""time""
""blur"",""1"",""2907""
""blur"",""19"",""566238""
","""event"",""trial"",""time""
""focus"",""0"",""1""
""focus"",""1"",""2920""
""focus"",""19"",""2283965""
","""event"",""trial"",""time""
""fullscreenenter"",""1"",""2934""
","
","","","672","","","22","5133","2925","&#9730;","elianto","#3366ff99"," "," ","1","+10","[1522]","1","1","","","5133","7","1","1","win","go","0"
"pit-trial","125","3032738","0.0-11.0","battery-v0.2","","""event"",""trial"",""time""
""focus"",""0"",""1""
""blur"",""1"",""2907""
""focus"",""1"",""2920""
""fullscreenenter"",""1"",""2934""
""blur"",""19"",""566238""
""focus"",""19"",""2283965""
","""event"",""trial"",""time""
""blur"",""1"",""2907""
""blur"",""19"",""566238""
","""event"",""trial"",""time""
""focus"",""0"",""1""
""focus"",""1"",""2920""
""focus"",""19"",""2283965""
","""event"",""trial"",""time""
""fullscreenenter"",""1"",""2934""
","
","","","-1","","","22","5133","2925","&#9728;","elianto","#f73b6a7A","-1","-1","1","0","[]","0","1","","","5133","8","0","4","lose","no-go","0"
"pit-trial","126","3036383","0.0-12.0","battery-v0.2","","""event"",""trial"",""time""
""focus"",""0"",""1""
""blur"",""1"",""2907""
""focus"",""1"",""2920""
""fullscreenenter"",""1"",""2934""
""blur"",""19"",""566238""
""focus"",""19"",""2283965""
","""event"",""trial"",""time""
""blur"",""1"",""2907""
""blur"",""19"",""566238""
","""event"",""trial"",""time""
""focus"",""0"",""1""
""focus"",""1"",""2920""
""focus"",""19"",""2283965""
","""event"",""trial"",""time""
""fullscreenenter"",""1"",""2934""
","
","","","780","","","22","5133","2925","&#9730;","elianto","#3366ff99"," "," ","1","+10","[1635]","1","1","","","5133","9","1","1","win","go","0"
"pit-trial","127","3041248","0.0-13.0","battery-v0.2","","""event"",""trial"",""time""
""focus"",""0"",""1""
""blur"",""1"",""2907""
""focus"",""1"",""2920""
""fullscreenenter"",""1"",""2934""
""blur"",""19"",""566238""
""focus"",""19"",""2283965""
","""event"",""trial"",""time""
""blur"",""1"",""2907""
""blur"",""19"",""566238""
","""event"",""trial"",""time""
""focus"",""0"",""1""
""focus"",""1"",""2920""
""focus"",""19"",""2283965""
","""event"",""trial"",""time""
""fullscreenenter"",""1"",""2934""
","
","","","-1","","","22","5133","2925","&#9733;","elianto","#3366ff99","-1","-1","1","+10","[]","0","1","","","5133","10","2","2","win","no-go","0"
"pit-trial","128","3045117","0.0-14.0","battery-v0.2","","""event"",""trial"",""time""
""focus"",""0"",""1""
""blur"",""1"",""2907""
""focus"",""1"",""2920""
""fullscreenenter"",""1"",""2934""
""blur"",""19"",""566238""
""focus"",""19"",""2283965""
","""event"",""trial"",""time""
""blur"",""1"",""2907""
""blur"",""19"",""566238""
","""event"",""trial"",""time""
""focus"",""0"",""1""
""focus"",""1"",""2920""
""focus"",""19"",""2283965""
","""event"",""trial"",""time""
""fullscreenenter"",""1"",""2934""
","
","","","1006","","","22","5133","2925","&#9752;","elianto","#f73b6a7A"," "," ","1","0","[1861]","1","1","","","5133","11","3","3","lose","go","0"
"pit-trial","129","3049980","0.0-15.0","battery-v0.2","","""event"",""trial"",""time""
""focus"",""0"",""1""
""blur"",""1"",""2907""
""focus"",""1"",""2920""
""fullscreenenter"",""1"",""2934""
""blur"",""19"",""566238""
""focus"",""19"",""2283965""
","""event"",""trial"",""time""
""blur"",""1"",""2907""
""blur"",""19"",""566238""
","""event"",""trial"",""time""
""focus"",""0"",""1""
""focus"",""1"",""2920""
""focus"",""19"",""2283965""
","""event"",""trial"",""time""
""fullscreenenter"",""1"",""2934""
","
","","","-1","","","22","5133","2925","&#9728;","elianto","#f73b6a7A","-1","-1","1","-10","[]","0","1","","","5133","12","0","4","lose","no-go","1"
"pit-trial","130","3053967","0.0-16.0","battery-v0.2","","""event"",""trial"",""time""
""focus"",""0"",""1""
""blur"",""1"",""2907""
""focus"",""1"",""2920""
""fullscreenenter"",""1"",""2934""
""blur"",""19"",""566238""
""focus"",""19"",""2283965""
","""event"",""trial"",""time""
""blur"",""1"",""2907""
""blur"",""19"",""566238""
","""event"",""trial"",""time""
""focus"",""0"",""1""
""focus"",""1"",""2920""
""focus"",""19"",""2283965""
","""event"",""trial"",""time""
""fullscreenenter"",""1"",""2934""
","
","","","1126","","","22","5133","2925","&#9752;","elianto","#f73b6a7A"," "," ","1","0","[1978]","1","1","","","5133","13","3","3","lose","go","0"
"pit-trial","131","3058831","0.0-17.0","battery-v0.2","","""event"",""trial"",""time""
""focus"",""0"",""1""
""blur"",""1"",""2907""
""focus"",""1"",""2920""
""fullscreenenter"",""1"",""2934""
""blur"",""19"",""566238""
""focus"",""19"",""2283965""
","""event"",""trial"",""time""
""blur"",""1"",""2907""
""blur"",""19"",""566238""
","""event"",""trial"",""time""
""focus"",""0"",""1""
""focus"",""1"",""2920""
""focus"",""19"",""2283965""
","""event"",""trial"",""time""
""fullscreenenter"",""1"",""2934""
","
","","","-1","","","22","5133","2925","&#9728;","elianto","#f73b6a7A","-1","-1","1","0","[]","0","1","","","5133","14","0","4","lose","no-go","0"
"pit-trial","132","3062329","0.0-18.0","battery-v0.2","","""event"",""trial"",""time""
""focus"",""0"",""1""
""blur"",""1"",""2907""
""focus"",""1"",""2920""
""fullscreenenter"",""1"",""2934""
""blur"",""19"",""566238""
""focus"",""19"",""2283965""
","""event"",""trial"",""time""
""blur"",""1"",""2907""
""blur"",""19"",""566238""
","""event"",""trial"",""time""
""focus"",""0"",""1""
""focus"",""1"",""2920""
""focus"",""19"",""2283965""
","""event"",""trial"",""time""
""fullscreenenter"",""1"",""2934""
","
","","","635","","","22","5133","2925","&#9730;","elianto","#3366ff99"," "," ","1","+10","[1488]","1","1","","","5133","15","1","1","win","go","0"
"pit-trial","133","3067192","0.0-19.0","battery-v0.2","","""event"",""trial"",""time""
""focus"",""0"",""1""
""blur"",""1"",""2907""
""focus"",""1"",""2920""
""fullscreenenter"",""1"",""2934""
""blur"",""19"",""566238""
""focus"",""19"",""2283965""
","""event"",""trial"",""time""
""blur"",""1"",""2907""
""blur"",""19"",""566238""
","""event"",""trial"",""time""
""focus"",""0"",""1""
""focus"",""1"",""2920""
""focus"",""19"",""2283965""
","""event"",""trial"",""time""
""fullscreenenter"",""1"",""2934""
","
","","","-1","","","22","5133","2925","&#9733;","elianto","#3366ff99","-1","-1","1","+10","[]","0","1","","","5133","16","2","2","win","no-go","0"
"pit-trial","134","3072056","0.0-20.0","battery-v0.2","","""event"",""trial"",""time""
""focus"",""0"",""1""
""blur"",""1"",""2907""
""focus"",""1"",""2920""
""fullscreenenter"",""1"",""2934""
""blur"",""19"",""566238""
""focus"",""19"",""2283965""
","""event"",""trial"",""time""
""blur"",""1"",""2907""
""blur"",""19"",""566238""
","""event"",""trial"",""time""
""focus"",""0"",""1""
""focus"",""1"",""2920""
""focus"",""19"",""2283965""
","""event"",""trial"",""time""
""fullscreenenter"",""1"",""2934""
","
","","","-1","","","22","5133","2925","&#9733;","elianto","#3366ff99","-1","-1","1","+10","[]","0","1","","","5133","17","2","2","win","no-go","0"
"pit-trial","135","3076921","0.0-21.0","battery-v0.2","","""event"",""trial"",""time""
""focus"",""0"",""1""
""blur"",""1"",""2907""
""focus"",""1"",""2920""
""fullscreenenter"",""1"",""2934""
""blur"",""19"",""566238""
""focus"",""19"",""2283965""
","""event"",""trial"",""time""
""blur"",""1"",""2907""
""blur"",""19"",""566238""
","""event"",""trial"",""time""
""focus"",""0"",""1""
""focus"",""1"",""2920""
""focus"",""19"",""2283965""
","""event"",""trial"",""time""
""fullscreenenter"",""1"",""2934""
","
","","","-1","","","22","5133","2925","&#9728;","elianto","#f73b6a7A","-1","-1","1","0","[]","0","1","","","5133","18","0","4","lose","no-go","0"
"pit-trial","136","3080437","0.0-22.0","battery-v0.2","","""event"",""trial"",""time""
""focus"",""0"",""1""
""blur"",""1"",""2907""
""focus"",""1"",""2920""
""fullscreenenter"",""1"",""2934""
""blur"",""19"",""566238""
""focus"",""19"",""2283965""
","""event"",""trial"",""time""
""blur"",""1"",""2907""
""blur"",""19"",""566238""
","""event"",""trial"",""time""
""focus"",""0"",""1""
""focus"",""1"",""2920""
""focus"",""19"",""2283965""
","""event"",""trial"",""time""
""fullscreenenter"",""1"",""2934""
","
","","","651","","","22","5133","2925","&#9730;","elianto","#3366ff99"," "," ","1","+10","[1506]","1","1","","","5133","19","1","1","win","go","0"
"pit-trial","137","3084070","0.0-23.0","battery-v0.2","","""event"",""trial"",""time""
""focus"",""0"",""1""
""blur"",""1"",""2907""
""focus"",""1"",""2920""
""fullscreenenter"",""1"",""2934""
""blur"",""19"",""566238""
""focus"",""19"",""2283965""
","""event"",""trial"",""time""
""blur"",""1"",""2907""
""blur"",""19"",""566238""
","""event"",""trial"",""time""
""focus"",""0"",""1""
""focus"",""1"",""2920""
""focus"",""19"",""2283965""
","""event"",""trial"",""time""
""fullscreenenter"",""1"",""2934""
","
","","","773","","","22","5133","2925","&#9752;","elianto","#f73b6a7A"," "," ","1","0","[1624]","1","1","","","5133","20","3","3","lose","go","0"
"pit-instructions","138","3100309","0.0-24.0","battery-v0.2","","""event"",""trial"",""time""
""focus"",""0"",""1""
""blur"",""1"",""2907""
""focus"",""1"",""2920""
""fullscreenenter"",""1"",""2934""
""blur"",""19"",""566238""
""focus"",""19"",""2283965""
","""event"",""trial"",""time""
""blur"",""1"",""2907""
""blur"",""19"",""566238""
","""event"",""trial"",""time""
""focus"",""0"",""1""
""focus"",""1"",""2920""
""focus"",""19"",""2283965""
","""event"",""trial"",""time""
""fullscreenenter"",""1"",""2934""
","
","","[{""page_index"":0,""viewing_time"":6750},{""page_index"":1,""viewing_time"":9486}]","16237","","","","","","","","","","","","","","","","","","","","","","","",""
"pit-trial","139","3104900","0.0-25.0","battery-v0.2","","""event"",""trial"",""time""
""focus"",""0"",""1""
""blur"",""1"",""2907""
""focus"",""1"",""2920""
""fullscreenenter"",""1"",""2934""
""blur"",""19"",""566238""
""focus"",""19"",""2283965""
","""event"",""trial"",""time""
""blur"",""1"",""2907""
""blur"",""19"",""566238""
","""event"",""trial"",""time""
""focus"",""0"",""1""
""focus"",""1"",""2920""
""focus"",""19"",""2283965""
","""event"",""trial"",""time""
""fullscreenenter"",""1"",""2934""
","
","","","1726","","","22","5133","2925","f","elianto","#3366ff99","-1"," ","0","0","[2581]","1","2","","","5133","21","1","2","win","no-go","0"
"pit-trial","140","3109234","0.0-26.0","battery-v0.2","","""event"",""trial"",""time""
""focus"",""0"",""1""
""blur"",""1"",""2907""
""focus"",""1"",""2920""
""fullscreenenter"",""1"",""2934""
""blur"",""19"",""566238""
""focus"",""19"",""2283965""
","""event"",""trial"",""time""
""blur"",""1"",""2907""
""blur"",""19"",""566238""
","""event"",""trial"",""time""
""focus"",""0"",""1""
""focus"",""1"",""2920""
""focus"",""19"",""2283965""
","""event"",""trial"",""time""
""fullscreenenter"",""1"",""2934""
","
","","","1476","","","22","5133","2925","n","elianto","#f73b6a7A"," "," ","1","0","[2329]","1","2","","","5133","22","0","3","lose","go","0"
"pit-trial","141","3113018","0.0-27.0","battery-v0.2","","""event"",""trial"",""time""
""focus"",""0"",""1""
""blur"",""1"",""2907""
""focus"",""1"",""2920""
""fullscreenenter"",""1"",""2934""
""blur"",""19"",""566238""
""focus"",""19"",""2283965""
","""event"",""trial"",""time""
""blur"",""1"",""2907""
""blur"",""19"",""566238""
","""event"",""trial"",""time""
""focus"",""0"",""1""
""focus"",""1"",""2920""
""focus"",""19"",""2283965""
","""event"",""trial"",""time""
""fullscreenenter"",""1"",""2934""
","
","","","921","","","22","5133","2925","t","elianto","#f73b6a7A"," "," ","1","0","[1777]","1","2","","","5133","23","2","3","lose","go","0"
"pit-trial","142","3117080","0.0-28.0","battery-v0.2","","""event"",""trial"",""time""
""focus"",""0"",""1""
""blur"",""1"",""2907""
""focus"",""1"",""2920""
""fullscreenenter"",""1"",""2934""
""blur"",""19"",""566238""
""focus"",""19"",""2283965""
","""event"",""trial"",""time""
""blur"",""1"",""2907""
""blur"",""19"",""566238""
","""event"",""trial"",""time""
""focus"",""0"",""1""
""focus"",""1"",""2920""
""focus"",""19"",""2283965""
","""event"",""trial"",""time""
""fullscreenenter"",""1"",""2934""
","
","","","1202","","","22","5133","2925","b","elianto","#f73b6a7A","-1"," ","0","-10","[2053]","1","2","","","5133","24","3","4","lose","no-go","0"
"pit-trial","143","3121944","0.0-29.0","battery-v0.2","","""event"",""trial"",""time""
""focus"",""0"",""1""
""blur"",""1"",""2907""
""focus"",""1"",""2920""
""fullscreenenter"",""1"",""2934""
""blur"",""19"",""566238""
""focus"",""19"",""2283965""
","""event"",""trial"",""time""
""blur"",""1"",""2907""
""blur"",""19"",""566238""
","""event"",""trial"",""time""
""focus"",""0"",""1""
""focus"",""1"",""2920""
""focus"",""19"",""2283965""
","""event"",""trial"",""time""
""fullscreenenter"",""1"",""2934""
","
","","","-1","","","22","5133","2925","f","elianto","#3366ff99","-1","-1","1","0","[]","0","2","","","5133","25","1","2","win","no-go","1"
"pit-trial","144","3125562","0.0-30.0","battery-v0.2","","""event"",""trial"",""time""
""focus"",""0"",""1""
""blur"",""1"",""2907""
""focus"",""1"",""2920""
""fullscreenenter"",""1"",""2934""
""blur"",""19"",""566238""
""focus"",""19"",""2283965""
","""event"",""trial"",""time""
""blur"",""1"",""2907""
""blur"",""19"",""566238""
","""event"",""trial"",""time""
""focus"",""0"",""1""
""focus"",""1"",""2920""
""focus"",""19"",""2283965""
","""event"",""trial"",""time""
""fullscreenenter"",""1"",""2934""
","
","","","756","","","22","5133","2925","n","elianto","#f73b6a7A"," "," ","1","0","[1609]","1","2","","","5133","26","0","3","lose","go","0"
"pit-trial","145","3130424","0.0-31.0","battery-v0.2","","""event"",""trial"",""time""
""focus"",""0"",""1""
""blur"",""1"",""2907""
""focus"",""1"",""2920""
""fullscreenenter"",""1"",""2934""
""blur"",""19"",""566238""
""focus"",""19"",""2283965""
","""event"",""trial"",""time""
""blur"",""1"",""2907""
""blur"",""19"",""566238""
","""event"",""trial"",""time""
""focus"",""0"",""1""
""focus"",""1"",""2920""
""focus"",""19"",""2283965""
","""event"",""trial"",""time""
""fullscreenenter"",""1"",""2934""
","
","","","-1","","","22","5133","2925","b","elianto","#f73b6a7A","-1","-1","1","0","[]","0","2","","","5133","27","3","4","lose","no-go","0"
"pit-trial","146","3133873","0.0-32.0","battery-v0.2","","""event"",""trial"",""time""
""focus"",""0"",""1""
""blur"",""1"",""2907""
""focus"",""1"",""2920""
""fullscreenenter"",""1"",""2934""
""blur"",""19"",""566238""
""focus"",""19"",""2283965""
","""event"",""trial"",""time""
""blur"",""1"",""2907""
""blur"",""19"",""566238""
","""event"",""trial"",""time""
""focus"",""0"",""1""
""focus"",""1"",""2920""
""focus"",""19"",""2283965""
","""event"",""trial"",""time""
""fullscreenenter"",""1"",""2934""
","
","","","586","","","22","5133","2925","t","elianto","#f73b6a7A"," "," ","1","0","[1440]","1","2","","","5133","28","2","3","lose","go","0"
"pit-trial","147","3137566","0.0-33.0","battery-v0.2","","""event"",""trial"",""time""
""focus"",""0"",""1""
""blur"",""1"",""2907""
""focus"",""1"",""2920""
""fullscreenenter"",""1"",""2934""
""blur"",""19"",""566238""
""focus"",""19"",""2283965""
","""event"",""trial"",""time""
""blur"",""1"",""2907""
""blur"",""19"",""566238""
","""event"",""trial"",""time""
""focus"",""0"",""1""
""focus"",""1"",""2920""
""focus"",""19"",""2283965""
","""event"",""trial"",""time""
""fullscreenenter"",""1"",""2934""
","
","","","835","","","22","5133","2925","t","elianto","#f73b6a7A"," "," ","1","0","[1686]","1","2","","","5133","29","2","3","lose","go","0"
"pit-trial","148","3142426","0.0-34.0","battery-v0.2","","""event"",""trial"",""time""
""focus"",""0"",""1""
""blur"",""1"",""2907""
""focus"",""1"",""2920""
""fullscreenenter"",""1"",""2934""
""blur"",""19"",""566238""
""focus"",""19"",""2283965""
","""event"",""trial"",""time""
""blur"",""1"",""2907""
""blur"",""19"",""566238""
","""event"",""trial"",""time""
""focus"",""0"",""1""
""focus"",""1"",""2920""
""focus"",""19"",""2283965""
","""event"",""trial"",""time""
""fullscreenenter"",""1"",""2934""
","
","","","-1","","","22","5133","2925","b","elianto","#f73b6a7A","-1","-1","1","0","[]","0","2","","","5133","30","3","4","lose","no-go","0"
