"trial_type","trial_index","time_elapsed","internal_node_id","task_version","subject_id","interactions","blur_events","focus_events","fullscreenenter_events","fullscreenexit_events","success","view_history","rt","responses","num_errors","age","subject","participantId","rune","rune_set","hex","correct","choice","accuracy","outcome","keys","total_keys","block","practice","value","sub","trial","stimulus","robot","valence","action","sham"
"pavlovia","0","7","0.0-0.0","battery-v0.2","","""event"",""trial"",""time""
""fullscreenenter"",""1"",""5508""
","
","
","""event"",""trial"",""time""
""fullscreenenter"",""1"",""5508""
","
","","","","","","","","","","","","","","","","","","","","","","","","","","",""
"fullscreen","1","6478","0.0-1.0","battery-v0.2","","""event"",""trial"",""time""
""fullscreenenter"",""1"",""5508""
","
","
","""event"",""trial"",""time""
""fullscreenenter"",""1"",""5508""
","
","true","","","","","","","","","","","","","","","","","","","","","","","","","",""
"pit-instructions","2","15131","0.0-2.0-0.0","battery-v0.2","","""event"",""trial"",""time""
""fullscreenenter"",""1"",""5508""
","
","
","""event"",""trial"",""time""
""fullscreenenter"",""1"",""5508""
","
","","[{""page_index"":0,""viewing_time"":8650}]","8650","","","","","","","","","","","","","","","","","","","","","","","",""
"pit-comprehension","3","20495","0.0-2.0-1.0-0.0","battery-v0.2","","""event"",""trial"",""time""
""fullscreenenter"",""1"",""5508""
","
","
","""event"",""trial"",""time""
""fullscreenenter"",""1"",""5508""
","
","","","5184","[""shark""]","0","10","5329","243","","","","","","","","","","","","","","","","","","",""
"pit-instructions","4","23538","0.0-2.0-1.0-1.0","battery-v0.2","","""event"",""trial"",""time""
""fullscreenenter"",""1"",""5508""
","
","
","""event"",""trial"",""time""
""fullscreenenter"",""1"",""5508""
","
","","[{""page_index"":0,""viewing_time"":3038}]","3038","","","","","","","","","","","","","","","","","","","","","","","",""
"pit-comprehension","5","28859","0.0-2.0-2.0-0.0","battery-v0.2","","""event"",""trial"",""time""
""fullscreenenter"",""1"",""5508""
","
","
","""event"",""trial"",""time""
""fullscreenenter"",""1"",""5508""
","
","","","5319","[""tiger""]","0","10","5329","243","","","","","","","","","","","","","","","","","","",""
"pit-instructions","6","32698","0.0-2.0-2.0-1.0","battery-v0.2","","""event"",""trial"",""time""
""fullscreenenter"",""1"",""5508""
","
","
","""event"",""trial"",""time""
""fullscreenenter"",""1"",""5508""
","
","","[{""page_index"":0,""viewing_time"":3834}]","3834","","","","","","","","","","","","","","","","","","","","","","","",""
"pit-instructions","7","141848","0.0-2.0-3.0","battery-v0.2","","""event"",""trial"",""time""
""fullscreenenter"",""1"",""5508""
","
","
","""event"",""trial"",""time""
""fullscreenenter"",""1"",""5508""
","
","","[{""page_index"":0,""viewing_time"":8997},{""page_index"":1,""viewing_time"":6416},{""page_index"":2,""viewing_time"":7648},{""page_index"":3,""viewing_time"":8096},{""page_index"":4,""viewing_time"":6960},{""page_index"":5,""viewing_time"":7576},{""page_index"":6,""viewing_time"":8016},{""page_index"":7,""viewing_time"":7664},{""page_index"":8,""viewing_time"":6472},{""page_index"":9,""viewing_time"":9624},{""page_index"":10,""viewing_time"":10640},{""page_index"":11,""viewing_time"":9144},{""page_index"":12,""viewing_time"":6264},{""page_index"":13,""viewing_time"":5632.000000000029}]","109149.00000000003","","","","","","","","","","","","","","","","","","","","","","","",""
"pit-trial","8","144845","0.0-2.0-4.0-0.0","battery-v0.2","","""event"",""trial"",""time""
""fullscreenenter"",""1"",""5508""
","
","
","""event"",""trial"",""time""
""fullscreenenter"",""1"",""5508""
","
","","","145","","","10","5329","243","&#9784;","elianto","#FFFFF080"," "," ","1","&#10004","[995]","1","0","0","","","","","","","",""
"pit-trial","9","148346","0.0-2.0-4.1-0.1","battery-v0.2","","""event"",""trial"",""time""
""fullscreenenter"",""1"",""5508""
","
","
","""event"",""trial"",""time""
""fullscreenenter"",""1"",""5508""
","
","","","646.9999999999709","","","10","5329","243","&#9784;","elianto","#FFFFF080"," "," ","1","&#10004","[104.9999999999709,1496.999999999971]","2","0","0","","","","","","","",""
"pit-trial","10","151626","0.0-2.0-4.2-0.2","battery-v0.2","","""event"",""trial"",""time""
""fullscreenenter"",""1"",""5508""
","
","
","""event"",""trial"",""time""
""fullscreenenter"",""1"",""5508""
","
","","","426.9999999999709","","","10","5329","243","&#9784;","elianto","#FFFFF080"," "," ","1","&#10004","[1277.999999999971]","1","0","0","","","","","","","",""
"pit-trial","11","154898","0.0-2.0-4.3-0.3","battery-v0.2","","""event"",""trial"",""time""
""fullscreenenter"",""1"",""5508""
","
","
","""event"",""trial"",""time""
""fullscreenenter"",""1"",""5508""
","
","","","420","","","10","5329","243","&#9784;","elianto","#FFFFF080"," "," ","1","&#10004","[1270]","1","0","0","","","","","","","",""
"pit-trial","12","158226","0.0-2.0-4.4-0.4","battery-v0.2","","""event"",""trial"",""time""
""fullscreenenter"",""1"",""5508""
","
","
","""event"",""trial"",""time""
""fullscreenenter"",""1"",""5508""
","
","","","474","","","10","5329","243","&#9784;","elianto","#FFFFF080"," "," ","1","&#10004","[1325]","1","0","0","","","","","","","",""
"pit-instructions","13","180607","0.0-2.0-5.0","battery-v0.2","","""event"",""trial"",""time""
""fullscreenenter"",""1"",""5508""
","
","
","""event"",""trial"",""time""
""fullscreenenter"",""1"",""5508""
","
","","[{""page_index"":0,""viewing_time"":5818.999999999971},{""page_index"":1,""viewing_time"":5824.000000000029},{""page_index"":2,""viewing_time"":5135.999999999971},{""page_index"":3,""viewing_time"":5600}]","22379.99999999997","","","","","","","","","","","","","","","","","","","","","","","",""
"pit-trial","14","185461","0.0-2.0-6.0-0.0","battery-v0.2","","""event"",""trial"",""time""
""fullscreenenter"",""1"",""5508""
","
","
","""event"",""trial"",""time""
""fullscreenenter"",""1"",""5508""
","
","","","-1","","","10","5329","243","&#9854;","elianto","#FFFFF080","-1","-1","1","&#10004","[]","0","0","1","","","","","","","",""
"pit-trial","15","190315","0.0-2.0-6.1-0.1","battery-v0.2","","""event"",""trial"",""time""
""fullscreenenter"",""1"",""5508""
","
","
","""event"",""trial"",""time""
""fullscreenenter"",""1"",""5508""
","
","","","-1","","","10","5329","243","&#9854;","elianto","#FFFFF080","-1","-1","1","&#10004","[]","0","0","1","","","","","","","",""
"pit-trial","16","195169","0.0-2.0-6.2-0.2","battery-v0.2","","""event"",""trial"",""time""
""fullscreenenter"",""1"",""5508""
","
","
","""event"",""trial"",""time""
""fullscreenenter"",""1"",""5508""
","
","","","-1","","","10","5329","243","&#9854;","elianto","#FFFFF080","-1","-1","1","&#10004","[]","0","0","1","","","","","","","",""
"pit-trial","17","200022","0.0-2.0-6.3-0.3","battery-v0.2","","""event"",""trial"",""time""
""fullscreenenter"",""1"",""5508""
","
","
","""event"",""trial"",""time""
""fullscreenenter"",""1"",""5508""
","
","","","-1","","","10","5329","243","&#9854;","elianto","#FFFFF080","-1","-1","1","&#10004","[]","0","0","1","","","","","","","",""
"pit-trial","18","204877","0.0-2.0-6.4-0.4","battery-v0.2","","""event"",""trial"",""time""
""fullscreenenter"",""1"",""5508""
","
","
","""event"",""trial"",""time""
""fullscreenenter"",""1"",""5508""
","
","","","-1","","","10","5329","243","&#9854;","elianto","#FFFFF080","-1","-1","1","&#10004","[]","0","0","1","","","","","","","",""
"pit-instructions","19","333261","0.0-2.0-7.0","battery-v0.2","","""event"",""trial"",""time""
""fullscreenenter"",""1"",""5508""
","
","
","""event"",""trial"",""time""
""fullscreenenter"",""1"",""5508""
","
","","[{""page_index"":0,""viewing_time"":6887},{""page_index"":1,""viewing_time"":7704},{""page_index"":2,""viewing_time"":6592},{""page_index"":3,""viewing_time"":6800},{""page_index"":4,""viewing_time"":6184},{""page_index"":5,""viewing_time"":6008.000000000029},{""page_index"":6,""viewing_time"":6575.999999999971},{""page_index"":7,""viewing_time"":8216.00000000003},{""page_index"":8,""viewing_time"":7519.999999999971},{""page_index"":9,""viewing_time"":6752},{""page_index"":10,""viewing_time"":6864},{""page_index"":11,""viewing_time"":7136},{""page_index"":12,""viewing_time"":7713.000000000058},{""page_index"":13,""viewing_time"":7710.999999999942},{""page_index"":14,""viewing_time"":8353},{""page_index"":15,""viewing_time"":6943.000000000058},{""page_index"":16,""viewing_time"":7223.999999999942},{""page_index"":17,""viewing_time"":7200}]","128383","","","","","","","","","","","","","","","","","","","","","","","",""
"pit-trial","20","336625","0.0-2.0-8.0-0.0","battery-v0.2","","""event"",""trial"",""time""
""fullscreenenter"",""1"",""5508""
","
","
","""event"",""trial"",""time""
""fullscreenenter"",""1"",""5508""
","
","","","511","","","10","5329","243","&#9776;","elianto","#3366ff99"," "," ","1","+10","[1361]","1","0","1","","","","","","","",""
"pit-trial","21","339935","0.0-2.0-8.0-1.0","battery-v0.2","","""event"",""trial"",""time""
""fullscreenenter"",""1"",""5508""
","
","
","""event"",""trial"",""time""
""fullscreenenter"",""1"",""5508""
","
","","","458","","","10","5329","243","&#9776;","elianto","#3366ff99"," "," ","1","+10","[1307]","1","0","1","","","","","","","",""
"pit-trial","22","343415","0.0-2.0-8.0-2.0","battery-v0.2","","""event"",""trial"",""time""
""fullscreenenter"",""1"",""5508""
","
","
","""event"",""trial"",""time""
""fullscreenenter"",""1"",""5508""
","
","","","627","","","10","5329","243","&#9776;","elianto","#3366ff99"," "," ","1","+10","[1477.0000000000582]","1","0","1","","","","","","","",""
"pit-trial","23","347087","0.0-2.0-8.0-3.0","battery-v0.2","","""event"",""trial"",""time""
""fullscreenenter"",""1"",""5508""
","
","
","""event"",""trial"",""time""
""fullscreenenter"",""1"",""5508""
","
","","","819.0000000000582","","","10","5329","243","&#9776;","elianto","#3366ff99"," "," ","1","0","[1670.0000000000582]","1","0","1","","","","","","","",""
"pit-trial","24","350542","0.0-2.0-8.0-4.0","battery-v0.2","","""event"",""trial"",""time""
""fullscreenenter"",""1"",""5508""
","
","
","""event"",""trial"",""time""
""fullscreenenter"",""1"",""5508""
","
","","","602","","","10","5329","243","&#9776;","elianto","#3366ff99"," "," ","1","+10","[1453]","1","0","1","","","","","","","",""
"pit-trial","25","354663","0.0-2.0-8.1-0.1","battery-v0.2","","""event"",""trial"",""time""
""fullscreenenter"",""1"",""5508""
","
","
","""event"",""trial"",""time""
""fullscreenenter"",""1"",""5508""
","
","","","1268","","","10","5329","243","&#9776;","elianto","#3366ff99"," "," ","1","+10","[2118]","1","0","1","","","","","","","",""
"pit-trial","26","358495","0.0-2.0-8.1-1.1","battery-v0.2","","""event"",""trial"",""time""
""fullscreenenter"",""1"",""5508""
","
","
","""event"",""trial"",""time""
""fullscreenenter"",""1"",""5508""
","
","","","979","","","10","5329","243","&#9776;","elianto","#3366ff99"," "," ","1","+10","[1828]","1","0","1","","","","","","","",""
"pit-trial","27","361870","0.0-2.0-8.1-2.1","battery-v0.2","","""event"",""trial"",""time""
""fullscreenenter"",""1"",""5508""
","
","
","""event"",""trial"",""time""
""fullscreenenter"",""1"",""5508""
","
","","","522","","","10","5329","243","&#9776;","elianto","#3366ff99"," "," ","1","+10","[1373]","1","0","1","","","","","","","",""
"pit-trial","28","365335","0.0-2.0-8.1-3.1","battery-v0.2","","""event"",""trial"",""time""
""fullscreenenter"",""1"",""5508""
","
","
","""event"",""trial"",""time""
""fullscreenenter"",""1"",""5508""
","
","","","611","","","10","5329","243","&#9776;","elianto","#3366ff99"," "," ","1","0","[1462]","1","0","1","","","","","","","",""
"pit-trial","29","368679","0.0-2.0-8.1-4.1","battery-v0.2","","""event"",""trial"",""time""
""fullscreenenter"",""1"",""5508""
","
","
","""event"",""trial"",""time""
""fullscreenenter"",""1"",""5508""
","
","","","490.9999999999418","","","10","5329","243","&#9776;","elianto","#3366ff99"," "," ","1","+10","[1341.9999999999418]","1","0","1","","","","","","","",""
"pit-trial","30","372286","0.0-2.0-8.2-0.2","battery-v0.2","","""event"",""trial"",""time""
""fullscreenenter"",""1"",""5508""
","
","
","""event"",""trial"",""time""
""fullscreenenter"",""1"",""5508""
","
","","","754","","","10","5329","243","&#9776;","elianto","#3366ff99"," "," ","1","+10","[1604]","1","0","1","","","","","","","",""
"pit-trial","31","375735","0.0-2.0-8.2-1.2","battery-v0.2","","""event"",""trial"",""time""
""fullscreenenter"",""1"",""5508""
","
","
","""event"",""trial"",""time""
""fullscreenenter"",""1"",""5508""
","
","","","596","","","10","5329","243","&#9776;","elianto","#3366ff99"," "," ","1","+10","[1447]","1","0","1","","","","","","","",""
"pit-trial","32","379127","0.0-2.0-8.2-2.2","battery-v0.2","","""event"",""trial"",""time""
""fullscreenenter"",""1"",""5508""
","
","
","""event"",""trial"",""time""
""fullscreenenter"",""1"",""5508""
","
","","","538","","","10","5329","243","&#9776;","elianto","#3366ff99"," "," ","1","+10","[1388]","1","0","1","","","","","","","",""
"pit-trial","33","382559","0.0-2.0-8.2-3.2","battery-v0.2","","""event"",""trial"",""time""
""fullscreenenter"",""1"",""5508""
","
","
","""event"",""trial"",""time""
""fullscreenenter"",""1"",""5508""
","
","","","579","","","10","5329","243","&#9776;","elianto","#3366ff99"," "," ","1","0","[1429]","1","0","1","","","","","","","",""
"pit-trial","34","385878","0.0-2.0-8.2-4.2","battery-v0.2","","""event"",""trial"",""time""
""fullscreenenter"",""1"",""5508""
","
","
","""event"",""trial"",""time""
""fullscreenenter"",""1"",""5508""
","
","","","466.0000000000582","","","10","5329","243","&#9776;","elianto","#3366ff99"," "," ","1","+10","[1317.0000000000582]","1","0","1","","","","","","","",""
"call-function","35","385917","0.0-2.0-9.0","battery-v0.2","","""event"",""trial"",""time""
""fullscreenenter"",""1"",""5508""
","
","
","""event"",""trial"",""time""
""fullscreenenter"",""1"",""5508""
","
","","","","","","","","","","","","","","","","","","","","","","","","","","",""
"pit-instructions","36","427790","0.0-2.0-10.0","battery-v0.2","","""event"",""trial"",""time""
""fullscreenenter"",""1"",""5508""
","
","
","""event"",""trial"",""time""
""fullscreenenter"",""1"",""5508""
","
","","[{""page_index"":0,""viewing_time"":7030},{""page_index"":1,""viewing_time"":7216},{""page_index"":2,""viewing_time"":10177.000000000058},{""page_index"":3,""viewing_time"":9614.999999999942},{""page_index"":4,""viewing_time"":7816}]","41855","","","","","","","","","","","","","","","","","","","","","","","",""
"pit-trial","37","432645","0.0-2.0-11.0-0.0","battery-v0.2","","""event"",""trial"",""time""
""fullscreenenter"",""1"",""5508""
","
","
","""event"",""trial"",""time""
""fullscreenenter"",""1"",""5508""
","
","","","-1","","","10","5329","243","&#9761;","elianto","#3366ff99","-1","-1","1","+10","[]","0","0","2","","","","","","","",""
"pit-trial","38","437499","0.0-2.0-11.0-1.0","battery-v0.2","","""event"",""trial"",""time""
""fullscreenenter"",""1"",""5508""
","
","
","""event"",""trial"",""time""
""fullscreenenter"",""1"",""5508""
","
","","","-1","","","10","5329","243","&#9761;","elianto","#3366ff99","-1","-1","1","+10","[]","0","0","2","","","","","","","",""
"pit-trial","39","442352","0.0-2.0-11.0-2.0","battery-v0.2","","""event"",""trial"",""time""
""fullscreenenter"",""1"",""5508""
","
","
","""event"",""trial"",""time""
""fullscreenenter"",""1"",""5508""
","
","","","-1","","","10","5329","243","&#9761;","elianto","#3366ff99","-1","-1","1","+10","[]","0","0","2","","","","","","","",""
"pit-trial","40","447206","0.0-2.0-11.0-3.0","battery-v0.2","","""event"",""trial"",""time""
""fullscreenenter"",""1"",""5508""
","
","
","""event"",""trial"",""time""
""fullscreenenter"",""1"",""5508""
","
","","","-1","","","10","5329","243","&#9761;","elianto","#3366ff99","-1","-1","1","0","[]","0","0","2","","","","","","","",""
"pit-trial","41","452059","0.0-2.0-11.0-4.0","battery-v0.2","","""event"",""trial"",""time""
""fullscreenenter"",""1"",""5508""
","
","
","""event"",""trial"",""time""
""fullscreenenter"",""1"",""5508""
","
","","","-1","","","10","5329","243","&#9761;","elianto","#3366ff99","-1","-1","1","+10","[]","0","0","2","","","","","","","",""
"pit-trial","42","456913","0.0-2.0-11.1-0.1","battery-v0.2","","""event"",""trial"",""time""
""fullscreenenter"",""1"",""5508""
","
","
","""event"",""trial"",""time""
""fullscreenenter"",""1"",""5508""
","
","","","-1","","","10","5329","243","&#9761;","elianto","#3366ff99","-1","-1","1","+10","[]","0","0","2","","","","","","","",""
"pit-trial","43","461767","0.0-2.0-11.1-1.1","battery-v0.2","","""event"",""trial"",""time""
""fullscreenenter"",""1"",""5508""
","
","
","""event"",""trial"",""time""
""fullscreenenter"",""1"",""5508""
","
","","","-1","","","10","5329","243","&#9761;","elianto","#3366ff99","-1","-1","1","+10","[]","0","0","2","","","","","","","",""
"pit-trial","44","466621","0.0-2.0-11.1-2.1","battery-v0.2","","""event"",""trial"",""time""
""fullscreenenter"",""1"",""5508""
","
","
","""event"",""trial"",""time""
""fullscreenenter"",""1"",""5508""
","
","","","-1","","","10","5329","243","&#9761;","elianto","#3366ff99","-1","-1","1","+10","[]","0","0","2","","","","","","","",""
"pit-trial","45","471475","0.0-2.0-11.1-3.1","battery-v0.2","","""event"",""trial"",""time""
""fullscreenenter"",""1"",""5508""
","
","
","""event"",""trial"",""time""
""fullscreenenter"",""1"",""5508""
","
","","","-1","","","10","5329","243","&#9761;","elianto","#3366ff99","-1","-1","1","0","[]","0","0","2","","","","","","","",""
"pit-trial","46","476328","0.0-2.0-11.1-4.1","battery-v0.2","","""event"",""trial"",""time""
""fullscreenenter"",""1"",""5508""
","
","
","""event"",""trial"",""time""
""fullscreenenter"",""1"",""5508""
","
","","","-1","","","10","5329","243","&#9761;","elianto","#3366ff99","-1","-1","1","+10","[]","0","0","2","","","","","","","",""
"pit-trial","47","481181","0.0-2.0-11.2-0.2","battery-v0.2","","""event"",""trial"",""time""
""fullscreenenter"",""1"",""5508""
","
","
","""event"",""trial"",""time""
""fullscreenenter"",""1"",""5508""
","
","","","-1","","","10","5329","243","&#9761;","elianto","#3366ff99","-1","-1","1","+10","[]","0","0","2","","","","","","","",""
"pit-trial","48","486036","0.0-2.0-11.2-1.2","battery-v0.2","","""event"",""trial"",""time""
""fullscreenenter"",""1"",""5508""
","
","
","""event"",""trial"",""time""
""fullscreenenter"",""1"",""5508""
","
","","","-1","","","10","5329","243","&#9761;","elianto","#3366ff99","-1","-1","1","+10","[]","0","0","2","","","","","","","",""
"pit-trial","49","490889","0.0-2.0-11.2-2.2","battery-v0.2","","""event"",""trial"",""time""
""fullscreenenter"",""1"",""5508""
","
","
","""event"",""trial"",""time""
""fullscreenenter"",""1"",""5508""
","
","","","-1","","","10","5329","243","&#9761;","elianto","#3366ff99","-1","-1","1","+10","[]","0","0","2","","","","","","","",""
"pit-trial","50","495743","0.0-2.0-11.2-3.2","battery-v0.2","","""event"",""trial"",""time""
""fullscreenenter"",""1"",""5508""
","
","
","""event"",""trial"",""time""
""fullscreenenter"",""1"",""5508""
","
","","","-1","","","10","5329","243","&#9761;","elianto","#3366ff99","-1","-1","1","0","[]","0","0","2","","","","","","","",""
"pit-trial","51","500597","0.0-2.0-11.2-4.2","battery-v0.2","","""event"",""trial"",""time""
""fullscreenenter"",""1"",""5508""
","
","
","""event"",""trial"",""time""
""fullscreenenter"",""1"",""5508""
","
","","","-1","","","10","5329","243","&#9761;","elianto","#3366ff99","-1","-1","1","+10","[]","0","0","2","","","","","","","",""
"pit-trial","52","505450","0.0-2.0-11.3-0.3","battery-v0.2","","""event"",""trial"",""time""
""fullscreenenter"",""1"",""5508""
","
","
","""event"",""trial"",""time""
""fullscreenenter"",""1"",""5508""
","
","","","-1","","","10","5329","243","&#9761;","elianto","#3366ff99","-1","-1","1","+10","[]","0","0","2","","","","","","","",""
"pit-trial","53","510303","0.0-2.0-11.3-1.3","battery-v0.2","","""event"",""trial"",""time""
""fullscreenenter"",""1"",""5508""
","
","
","""event"",""trial"",""time""
""fullscreenenter"",""1"",""5508""
","
","","","-1","","","10","5329","243","&#9761;","elianto","#3366ff99","-1","-1","1","+10","[]","0","0","2","","","","","","","",""
"pit-trial","54","515156","0.0-2.0-11.3-2.3","battery-v0.2","","""event"",""trial"",""time""
""fullscreenenter"",""1"",""5508""
","
","
","""event"",""trial"",""time""
""fullscreenenter"",""1"",""5508""
","
","","","-1","","","10","5329","243","&#9761;","elianto","#3366ff99","-1","-1","1","+10","[]","0","0","2","","","","","","","",""
"pit-trial","55","520009","0.0-2.0-11.3-3.3","battery-v0.2","","""event"",""trial"",""time""
""fullscreenenter"",""1"",""5508""
","
","
","""event"",""trial"",""time""
""fullscreenenter"",""1"",""5508""
","
","","","-1","","","10","5329","243","&#9761;","elianto","#3366ff99","-1","-1","1","0","[]","0","0","2","","","","","","","",""
"pit-trial","56","524862","0.0-2.0-11.3-4.3","battery-v0.2","","""event"",""trial"",""time""
""fullscreenenter"",""1"",""5508""
","
","
","""event"",""trial"",""time""
""fullscreenenter"",""1"",""5508""
","
","","","-1","","","10","5329","243","&#9761;","elianto","#3366ff99","-1","-1","1","+10","[]","0","0","2","","","","","","","",""
"call-function","57","524864","0.0-2.0-12.0","battery-v0.2","","""event"",""trial"",""time""
""fullscreenenter"",""1"",""5508""
","
","
","""event"",""trial"",""time""
""fullscreenenter"",""1"",""5508""
","
","","","","","","","","","","","","","","","","","","","","","","","","","","",""
"pit-instructions","58","562312","0.0-2.0-13.0","battery-v0.2","","""event"",""trial"",""time""
""fullscreenenter"",""1"",""5508""
","
","
","""event"",""trial"",""time""
""fullscreenenter"",""1"",""5508""
","
","","[{""page_index"":0,""viewing_time"":6616},{""page_index"":1,""viewing_time"":8736},{""page_index"":2,""viewing_time"":5120},{""page_index"":3,""viewing_time"":11121},{""page_index"":4,""viewing_time"":5855}]","37448","","","","","","","","","","","","","","","","","","","","","","","",""
"pit-trial","59","565932","0.0-2.0-14.0-0.0","battery-v0.2","","""event"",""trial"",""time""
""fullscreenenter"",""1"",""5508""
","
","
","""event"",""trial"",""time""
""fullscreenenter"",""1"",""5508""
","
","","","768","","","10","5329","243","&#9826;","elianto","#f73b6a7A","-1"," ","0","-10","[1617.9999999998836]","1","0","3","","","","","","","",""
"pit-trial","60","570785","0.0-2.0-14.0-1.0","battery-v0.2","","""event"",""trial"",""time""
""fullscreenenter"",""1"",""5508""
","
","
","""event"",""trial"",""time""
""fullscreenenter"",""1"",""5508""
","
","","","-1","","","10","5329","243","&#9826;","elianto","#f73b6a7A","-1","-1","1","0","[]","0","0","3","","","","","","","",""
"pit-trial","61","575638","0.0-2.0-14.0-2.0","battery-v0.2","","""event"",""trial"",""time""
""fullscreenenter"",""1"",""5508""
","
","
","""event"",""trial"",""time""
""fullscreenenter"",""1"",""5508""
","
","","","-1","","","10","5329","243","&#9826;","elianto","#f73b6a7A","-1","-1","1","0","[]","0","0","3","","","","","","","",""
"pit-trial","62","580491","0.0-2.0-14.0-3.0","battery-v0.2","","""event"",""trial"",""time""
""fullscreenenter"",""1"",""5508""
","
","
","""event"",""trial"",""time""
""fullscreenenter"",""1"",""5508""
","
","","","-1","","","10","5329","243","&#9826;","elianto","#f73b6a7A","-1","-1","1","-10","[]","0","0","3","","","","","","","",""
"pit-trial","63","585344","0.0-2.0-14.0-4.0","battery-v0.2","","""event"",""trial"",""time""
""fullscreenenter"",""1"",""5508""
","
","
","""event"",""trial"",""time""
""fullscreenenter"",""1"",""5508""
","
","","","-1","","","10","5329","243","&#9826;","elianto","#f73b6a7A","-1","-1","1","0","[]","0","0","3","","","","","","","",""
"pit-trial","64","590199","0.0-2.0-14.1-0.1","battery-v0.2","","""event"",""trial"",""time""
""fullscreenenter"",""1"",""5508""
","
","
","""event"",""trial"",""time""
""fullscreenenter"",""1"",""5508""
","
","","","-1","","","10","5329","243","&#9826;","elianto","#f73b6a7A","-1","-1","1","0","[]","0","0","3","","","","","","","",""
"pit-trial","65","595053","0.0-2.0-14.1-1.1","battery-v0.2","","""event"",""trial"",""time""
""fullscreenenter"",""1"",""5508""
","
","
","""event"",""trial"",""time""
""fullscreenenter"",""1"",""5508""
","
","","","-1","","","10","5329","243","&#9826;","elianto","#f73b6a7A","-1","-1","1","0","[]","0","0","3","","","","","","","",""
"pit-trial","66","599906","0.0-2.0-14.1-2.1","battery-v0.2","","""event"",""trial"",""time""
""fullscreenenter"",""1"",""5508""
","
","
","""event"",""trial"",""time""
""fullscreenenter"",""1"",""5508""
","
","","","-1","","","10","5329","243","&#9826;","elianto","#f73b6a7A","-1","-1","1","0","[]","0","0","3","","","","","","","",""
"pit-trial","67","604759","0.0-2.0-14.1-3.1","battery-v0.2","","""event"",""trial"",""time""
""fullscreenenter"",""1"",""5508""
","
","
","""event"",""trial"",""time""
""fullscreenenter"",""1"",""5508""
","
","","","-1","","","10","5329","243","&#9826;","elianto","#f73b6a7A","-1","-1","1","-10","[]","0","0","3","","","","","","","",""
"pit-trial","68","609613","0.0-2.0-14.1-4.1","battery-v0.2","","""event"",""trial"",""time""
""fullscreenenter"",""1"",""5508""
","
","
","""event"",""trial"",""time""
""fullscreenenter"",""1"",""5508""
","
","","","-1","","","10","5329","243","&#9826;","elianto","#f73b6a7A","-1","-1","1","0","[]","0","0","3","","","","","","","",""
"pit-trial","69","614466","0.0-2.0-14.2-0.2","battery-v0.2","","""event"",""trial"",""time""
""fullscreenenter"",""1"",""5508""
","
","
","""event"",""trial"",""time""
""fullscreenenter"",""1"",""5508""
","
","","","-1","","","10","5329","243","&#9826;","elianto","#f73b6a7A","-1","-1","1","0","[]","0","0","3","","","","","","","",""
"pit-trial","70","619321","0.0-2.0-14.2-1.2","battery-v0.2","","""event"",""trial"",""time""
""fullscreenenter"",""1"",""5508""
","
","
","""event"",""trial"",""time""
""fullscreenenter"",""1"",""5508""
","
","","","-1","","","10","5329","243","&#9826;","elianto","#f73b6a7A","-1","-1","1","0","[]","0","0","3","","","","","","","",""
"pit-trial","71","624174","0.0-2.0-14.2-2.2","battery-v0.2","","""event"",""trial"",""time""
""fullscreenenter"",""1"",""5508""
","
","
","""event"",""trial"",""time""
""fullscreenenter"",""1"",""5508""
","
","","","-1","","","10","5329","243","&#9826;","elianto","#f73b6a7A","-1","-1","1","0","[]","0","0","3","","","","","","","",""
"pit-trial","72","629027","0.0-2.0-14.2-3.2","battery-v0.2","","""event"",""trial"",""time""
""fullscreenenter"",""1"",""5508""
","
","
","""event"",""trial"",""time""
""fullscreenenter"",""1"",""5508""
","
","","","-1","","","10","5329","243","&#9826;","elianto","#f73b6a7A","-1","-1","1","-10","[]","0","0","3","","","","","","","",""
"pit-trial","73","633880","0.0-2.0-14.2-4.2","battery-v0.2","","""event"",""trial"",""time""
""fullscreenenter"",""1"",""5508""
","
","
","""event"",""trial"",""time""
""fullscreenenter"",""1"",""5508""
","
","","","-1","","","10","5329","243","&#9826;","elianto","#f73b6a7A","-1","-1","1","0","[]","0","0","3","","","","","","","",""
"pit-trial","74","638733","0.0-2.0-14.3-0.3","battery-v0.2","","""event"",""trial"",""time""
""fullscreenenter"",""1"",""5508""
","
","
","""event"",""trial"",""time""
""fullscreenenter"",""1"",""5508""
","
","","","-1","","","10","5329","243","&#9826;","elianto","#f73b6a7A","-1","-1","1","0","[]","0","0","3","","","","","","","",""
"pit-trial","75","643586","0.0-2.0-14.3-1.3","battery-v0.2","","""event"",""trial"",""time""
""fullscreenenter"",""1"",""5508""
","
","
","""event"",""trial"",""time""
""fullscreenenter"",""1"",""5508""
","
","","","-1","","","10","5329","243","&#9826;","elianto","#f73b6a7A","-1","-1","1","0","[]","0","0","3","","","","","","","",""
"pit-trial","76","648440","0.0-2.0-14.3-2.3","battery-v0.2","","""event"",""trial"",""time""
""fullscreenenter"",""1"",""5508""
","
","
","""event"",""trial"",""time""
""fullscreenenter"",""1"",""5508""
","
","","","-1","","","10","5329","243","&#9826;","elianto","#f73b6a7A","-1","-1","1","0","[]","0","0","3","","","","","","","",""
"pit-trial","77","653293","0.0-2.0-14.3-3.3","battery-v0.2","","""event"",""trial"",""time""
""fullscreenenter"",""1"",""5508""
","
","
","""event"",""trial"",""time""
""fullscreenenter"",""1"",""5508""
","
","","","-1","","","10","5329","243","&#9826;","elianto","#f73b6a7A","-1","-1","1","-10","[]","0","0","3","","","","","","","",""
"pit-trial","78","658146","0.0-2.0-14.3-4.3","battery-v0.2","","""event"",""trial"",""time""
""fullscreenenter"",""1"",""5508""
","
","
","""event"",""trial"",""time""
""fullscreenenter"",""1"",""5508""
","
","","","-1","","","10","5329","243","&#9826;","elianto","#f73b6a7A","-1","-1","1","0","[]","0","0","3","","","","","","","",""
"call-function","79","658147","0.0-2.0-15.0","battery-v0.2","","""event"",""trial"",""time""
""fullscreenenter"",""1"",""5508""
","
","
","""event"",""trial"",""time""
""fullscreenenter"",""1"",""5508""
","
","","","","","","","","","","","","","","","","","","","","","","","","","","",""
"pit-instructions","80","686232","0.0-2.0-16.0","battery-v0.2","","""event"",""trial"",""time""
""fullscreenenter"",""1"",""5508""
","
","
","""event"",""trial"",""time""
""fullscreenenter"",""1"",""5508""
","
","","[{""page_index"":0,""viewing_time"":7717},{""page_index"":1,""viewing_time"":9807},{""page_index"":2,""viewing_time"":5408},{""page_index"":3,""viewing_time"":5152.000000000116}]","28084.000000000116","","","","","","","","","","","","","","","","","","","","","","","",""
"pit-trial","81","689747","0.0-2.0-17.0-0.0","battery-v0.2","","""event"",""trial"",""time""
""fullscreenenter"",""1"",""5508""
","
","
","""event"",""trial"",""time""
""fullscreenenter"",""1"",""5508""
","
","","","661","","","10","5329","243","&#9789;","elianto","#f73b6a7A"," "," ","1","0","[1512]","1","0","4","","","","","","","",""
"pit-trial","82","693081","0.0-2.0-17.0-1.0","battery-v0.2","","""event"",""trial"",""time""
""fullscreenenter"",""1"",""5508""
","
","
","""event"",""trial"",""time""
""fullscreenenter"",""1"",""5508""
","
","","","481","","","10","5329","243","&#9789;","elianto","#f73b6a7A"," "," ","1","0","[1333]","1","0","4","","","","","","","",""
"pit-trial","83","697075","0.0-2.0-17.0-2.0","battery-v0.2","","""event"",""trial"",""time""
""fullscreenenter"",""1"",""5508""
","
","
","""event"",""trial"",""time""
""fullscreenenter"",""1"",""5508""
","
","","","1139.9999999998836","","","10","5329","243","&#9789;","elianto","#f73b6a7A"," "," ","1","0","[1990.9999999998836]","1","0","4","","","","","","","",""
"pit-trial","84","701202","0.0-2.0-17.0-3.0","battery-v0.2","","""event"",""trial"",""time""
""fullscreenenter"",""1"",""5508""
","
","
","""event"",""trial"",""time""
""fullscreenenter"",""1"",""5508""
","
","","","1274","","","10","5329","243","&#9789;","elianto","#f73b6a7A"," "," ","1","-10","[2125]","1","0","4","","","","","","","",""
"pit-trial","85","704683","0.0-2.0-17.0-4.0","battery-v0.2","","""event"",""trial"",""time""
""fullscreenenter"",""1"",""5508""
","
","
","""event"",""trial"",""time""
""fullscreenenter"",""1"",""5508""
","
","","","627","","","10","5329","243","&#9789;","elianto","#f73b6a7A"," "," ","1","0","[1478]","1","0","4","","","","","","","",""
"pit-trial","86","708082","0.0-2.0-17.1-0.1","battery-v0.2","","""event"",""trial"",""time""
""fullscreenenter"",""1"",""5508""
","
","
","""event"",""trial"",""time""
""fullscreenenter"",""1"",""5508""
","
","","","545","","","10","5329","243","&#9789;","elianto","#f73b6a7A"," "," ","1","0","[1395]","1","0","4","","","","","","","",""
"pit-trial","87","711250","0.0-2.0-17.1-1.1","battery-v0.2","","""event"",""trial"",""time""
""fullscreenenter"",""1"",""5508""
","
","
","""event"",""trial"",""time""
""fullscreenenter"",""1"",""5508""
","
","","","314","","","10","5329","243","&#9789;","elianto","#f73b6a7A"," "," ","1","0","[1165]","1","0","4","","","","","","","",""
"pit-trial","88","714107","0.0-2.0-17.1-2.1","battery-v0.2","","""event"",""trial"",""time""
""fullscreenenter"",""1"",""5508""
","
","
","""event"",""trial"",""time""
""fullscreenenter"",""1"",""5508""
","
","","","3","","","10","5329","243","&#9789;","elianto","#f73b6a7A"," "," ","1","0","[854]","1","0","4","","","","","","","",""
"pit-trial","89","717133","0.0-2.0-17.1-3.1","battery-v0.2","","""event"",""trial"",""time""
""fullscreenenter"",""1"",""5508""
","
","
","""event"",""trial"",""time""
""fullscreenenter"",""1"",""5508""
","
","","","173","","","10","5329","243","&#9789;","elianto","#f73b6a7A"," "," ","1","-10","[1024]","1","0","4","","","","","","","",""
"pit-trial","90","720178","0.0-2.0-17.1-4.1","battery-v0.2","","""event"",""trial"",""time""
""fullscreenenter"",""1"",""5508""
","
","
","""event"",""trial"",""time""
""fullscreenenter"",""1"",""5508""
","
","","","191","","","10","5329","243","&#9789;","elianto","#f73b6a7A"," "," ","1","0","[1042]","1","0","4","","","","","","","",""
"pit-trial","91","723154","0.0-2.0-17.2-0.2","battery-v0.2","","""event"",""trial"",""time""
""fullscreenenter"",""1"",""5508""
","
","
","""event"",""trial"",""time""
""fullscreenenter"",""1"",""5508""
","
","","","123","","","10","5329","243","&#9789;","elianto","#f73b6a7A"," "," ","1","0","[974]","1","0","4","","","","","","","",""
"pit-trial","92","726042","0.0-2.0-17.2-1.2","battery-v0.2","","""event"",""trial"",""time""
""fullscreenenter"",""1"",""5508""
","
","
","""event"",""trial"",""time""
""fullscreenenter"",""1"",""5508""
","
","","","35","","","10","5329","243","&#9789;","elianto","#f73b6a7A"," "," ","1","0","[886]","1","0","4","","","","","","","",""
"pit-trial","93","728962","0.0-2.0-17.2-2.2","battery-v0.2","","""event"",""trial"",""time""
""fullscreenenter"",""1"",""5508""
","
","
","""event"",""trial"",""time""
""fullscreenenter"",""1"",""5508""
","
","","","66","","","10","5329","243","&#9789;","elianto","#f73b6a7A"," "," ","1","0","[917]","1","0","4","","","","","","","",""
"pit-trial","94","731923","0.0-2.0-17.2-3.2","battery-v0.2","","""event"",""trial"",""time""
""fullscreenenter"",""1"",""5508""
","
","
","""event"",""trial"",""time""
""fullscreenenter"",""1"",""5508""
","
","","","107","","","10","5329","243","&#9789;","elianto","#f73b6a7A"," "," ","1","-10","[958]","1","0","4","","","","","","","",""
"pit-trial","95","734866","0.0-2.0-17.2-4.2","battery-v0.2","","""event"",""trial"",""time""
""fullscreenenter"",""1"",""5508""
","
","
","""event"",""trial"",""time""
""fullscreenenter"",""1"",""5508""
","
","","","90","","","10","5329","243","&#9789;","elianto","#f73b6a7A"," "," ","1","0","[941]","1","0","4","","","","","","","",""
"pit-trial","96","739719","0.0-2.0-17.3-0.3","battery-v0.2","","""event"",""trial"",""time""
""fullscreenenter"",""1"",""5508""
","
","
","""event"",""trial"",""time""
""fullscreenenter"",""1"",""5508""
","
","","","-1","","","10","5329","243","&#9789;","elianto","#f73b6a7A"," ","-1","0","-10","[]","0","0","4","","","","","","","",""
"pit-trial","97","744482","0.0-2.0-17.3-1.3","battery-v0.2","","""event"",""trial"",""time""
""fullscreenenter"",""1"",""5508""
","
","
","""event"",""trial"",""time""
""fullscreenenter"",""1"",""5508""
","
","","","1910.0000000001164","","","10","5329","243","&#9789;","elianto","#f73b6a7A"," "," ","1","0","[2761.0000000001164]","1","0","4","","","","","","","",""
"pit-trial","98","747682","0.0-2.0-17.3-2.3","battery-v0.2","","""event"",""trial"",""time""
""fullscreenenter"",""1"",""5508""
","
","
","""event"",""trial"",""time""
""fullscreenenter"",""1"",""5508""
","
","","","346","","","10","5329","243","&#9789;","elianto","#f73b6a7A"," "," ","1","0","[1197]","1","0","4","","","","","","","",""
"pit-trial","99","750698","0.0-2.0-17.3-3.3","battery-v0.2","","""event"",""trial"",""time""
""fullscreenenter"",""1"",""5508""
","
","
","""event"",""trial"",""time""
""fullscreenenter"",""1"",""5508""
","
","","","162.99999999988358","","","10","5329","243","&#9789;","elianto","#f73b6a7A"," "," ","1","-10","[1013.9999999998836]","1","0","4","","","","","","","",""
"pit-trial","100","753850","0.0-2.0-17.3-4.3","battery-v0.2","","""event"",""trial"",""time""
""fullscreenenter"",""1"",""5508""
","
","
","""event"",""trial"",""time""
""fullscreenenter"",""1"",""5508""
","
","","","298","","","10","5329","243","&#9789;","elianto","#f73b6a7A"," "," ","1","0","[1149]","1","0","4","","","","","","","",""
"call-function","101","753851","0.0-2.0-18.0","battery-v0.2","","""event"",""trial"",""time""
""fullscreenenter"",""1"",""5508""
","
","
","""event"",""trial"",""time""
""fullscreenenter"",""1"",""5508""
","
","","","","","","","","","","","","","","","","","","","","","","","","","","",""
"pit-instructions","102","830031","0.0-2.0-19.0","battery-v0.2","","""event"",""trial"",""time""
""fullscreenenter"",""1"",""5508""
","
","
","""event"",""trial"",""time""
""fullscreenenter"",""1"",""5508""
","
","","[{""page_index"":0,""viewing_time"":7147},{""page_index"":1,""viewing_time"":6904},{""page_index"":2,""viewing_time"":14696},{""page_index"":3,""viewing_time"":8729},{""page_index"":4,""viewing_time"":9991},{""page_index"":5,""viewing_time"":8304},{""page_index"":6,""viewing_time"":9872},{""page_index"":7,""viewing_time"":6448},{""page_index"":8,""viewing_time"":4088}]","76179","","","","","","","","","","","","","","","","","","","","","","","",""
"pit-comprehension","103","836984","0.0-2.0-20.0-0.0","battery-v0.2","","""event"",""trial"",""time""
""fullscreenenter"",""1"",""5508""
","
","
","""event"",""trial"",""time""
""fullscreenenter"",""1"",""5508""
","
","","","6949.999999999884","[""SPACE""]","0","10","5329","243","","","","","","","","","","","","","","","","","","",""
"pit-instructions","104","840423","0.0-2.0-20.0-1.0","battery-v0.2","","""event"",""trial"",""time""
""fullscreenenter"",""1"",""5508""
","
","
","""event"",""trial"",""time""
""fullscreenenter"",""1"",""5508""
","
","","[{""page_index"":0,""viewing_time"":3352}]","3352","","","","","","","","","","","","","","","","","","","","","","","",""
"pit-comprehension","105","851176","0.0-2.0-21.0-0.0","battery-v0.2","","""event"",""trial"",""time""
""fullscreenenter"",""1"",""5508""
","
","
","""event"",""trial"",""time""
""fullscreenenter"",""1"",""5508""
","
","","","10751","[""10""]","0","10","5329","243","","","","","","","","","","","","","","","","","","",""
"pit-instructions","106","854983","0.0-2.0-21.0-1.0","battery-v0.2","","""event"",""trial"",""time""
""fullscreenenter"",""1"",""5508""
","
","
","""event"",""trial"",""time""
""fullscreenenter"",""1"",""5508""
","
","","[{""page_index"":0,""viewing_time"":3719}]","3719","","","","","","","","","","","","","","","","","","","","","","","",""
"pit-comprehension","107","863177","0.0-2.0-22.0-0.0","battery-v0.2","","""event"",""trial"",""time""
""fullscreenenter"",""1"",""5508""
","
","
","""event"",""trial"",""time""
""fullscreenenter"",""1"",""5508""
","
","","","8191","[""0""]","0","10","5329","243","","","","","","","","","","","","","","","","","","",""
"pit-instructions","108","867439","0.0-2.0-22.0-1.0","battery-v0.2","","""event"",""trial"",""time""
""fullscreenenter"",""1"",""5508""
","
","
","""event"",""trial"",""time""
""fullscreenenter"",""1"",""5508""
","
","","[{""page_index"":0,""viewing_time"":4169}]","4169","","","","","","","","","","","","","","","","","","","","","","","",""
"pit-comprehension","109","878512","0.0-2.0-23.0-0.0","battery-v0.2","","""event"",""trial"",""time""
""fullscreenenter"",""1"",""5508""
","
","
","""event"",""trial"",""time""
""fullscreenenter"",""1"",""5508""
","
","","","11071","[""True""]","0","10","5329","243","","","","","","","","","","","","","","","","","","",""
"pit-instructions","110","880311","0.0-2.0-23.0-1.0","battery-v0.2","","""event"",""trial"",""time""
""fullscreenenter"",""1"",""5508""
","
","
","""event"",""trial"",""time""
""fullscreenenter"",""1"",""5508""
","
","","[{""page_index"":0,""viewing_time"":1709}]","1709","","","","","","","","","","","","","","","","","","","","","","","",""
"pit-comprehension","111","889803","0.0-2.0-24.0-0.0","battery-v0.2","","""event"",""trial"",""time""
""fullscreenenter"",""1"",""5508""
","
","
","""event"",""trial"",""time""
""fullscreenenter"",""1"",""5508""
","
","","","9490","[""True""]","0","10","5329","243","","","","","","","","","","","","","","","","","","",""
"pit-instructions","112","892375","0.0-2.0-24.0-1.0","battery-v0.2","","""event"",""trial"",""time""
""fullscreenenter"",""1"",""5508""
","
","
","""event"",""trial"",""time""
""fullscreenenter"",""1"",""5508""
","
","","[{""page_index"":0,""viewing_time"":2479.0000000001164}]","2479.0000000001164","","","","","","","","","","","","","","","","","","","","","","","",""
"pit-comprehension","113","900776","0.0-2.0-25.0-0.0","battery-v0.2","","""event"",""trial"",""time""
""fullscreenenter"",""1"",""5508""
","
","
","""event"",""trial"",""time""
""fullscreenenter"",""1"",""5508""
","
","","","8398","[""True""]","0","10","5329","243","","","","","","","","","","","","","","","","","","",""
"pit-instructions","114","902975","0.0-2.0-25.0-1.0","battery-v0.2","","""event"",""trial"",""time""
""fullscreenenter"",""1"",""5508""
","
","
","""event"",""trial"",""time""
""fullscreenenter"",""1"",""5508""
","
","","[{""page_index"":0,""viewing_time"":2106}]","2106","","","","","","","","","","","","","","","","","","","","","","","",""
"pit-comprehension","115","912360","0.0-2.0-26.0-0.0","battery-v0.2","","""event"",""trial"",""time""
""fullscreenenter"",""1"",""5508""
","
","
","""event"",""trial"",""time""
""fullscreenenter"",""1"",""5508""
","
","","","9383","[""False""]","0","10","5329","243","","","","","","","","","","","","","","","","","","",""
"pit-instructions","116","915479","0.0-2.0-26.0-1.0","battery-v0.2","","""event"",""trial"",""time""
""fullscreenenter"",""1"",""5508""
","
","
","""event"",""trial"",""time""
""fullscreenenter"",""1"",""5508""
","
","","[{""page_index"":0,""viewing_time"":3024}]","3025","","","","","","","","","","","","","","","","","","","","","","","",""
"pit-instructions","117","937047","0.0-3.0","battery-v0.2","","""event"",""trial"",""time""
""fullscreenenter"",""1"",""5508""
","
","
","""event"",""trial"",""time""
""fullscreenenter"",""1"",""5508""
","
","","[{""page_index"":0,""viewing_time"":5909.999999999884},{""page_index"":1,""viewing_time"":6896},{""page_index"":2,""viewing_time"":8760}]","21565.999999999884","","","","","","","","","","","","","","","","","","","","","","","",""
"pit-trial","118","940436","0.0-4.0","battery-v0.2","","""event"",""trial"",""time""
""fullscreenenter"",""1"",""5508""
","
","
","""event"",""trial"",""time""
""fullscreenenter"",""1"",""5508""
","
","","","533","","","10","5329","243","&#9733;","elianto","#3366ff99","-1"," ","0","0","[1383]","1","1","","","5329","1","2","2","win","no-go","0"
"pit-trial","119","944225","0.0-5.0","battery-v0.2","","""event"",""trial"",""time""
""fullscreenenter"",""1"",""5508""
","
","
","""event"",""trial"",""time""
""fullscreenenter"",""1"",""5508""
","
","","","935","","","10","5329","243","&#9730;","elianto","#3366ff99"," "," ","1","+10","[1785]","1","1","","","5329","2","1","1","win","go","0"
"pit-trial","120","949079","0.0-6.0","battery-v0.2","","""event"",""trial"",""time""
""fullscreenenter"",""1"",""5508""
","
","
","""event"",""trial"",""time""
""fullscreenenter"",""1"",""5508""
","
","","","-1","","","10","5329","243","&#9752;","elianto","#f73b6a7A"," ","-1","0","-10","[]","0","1","","","5329","3","3","3","lose","go","0"
"pit-trial","121","952561","0.0-7.0","battery-v0.2","","""event"",""trial"",""time""
""fullscreenenter"",""1"",""5508""
","
","
","""event"",""trial"",""time""
""fullscreenenter"",""1"",""5508""
","
","","","627.9999999998836","","","10","5329","243","&#9728;","elianto","#f73b6a7A","-1"," ","0","-10","[1478.9999999998836]","1","1","","","5329","4","0","4","lose","no-go","0"
"pit-trial","122","956145","0.0-8.0","battery-v0.2","","""event"",""trial"",""time""
""fullscreenenter"",""1"",""5508""
","
","
","""event"",""trial"",""time""
""fullscreenenter"",""1"",""5508""
","
","","","730.9999999998836","","","10","5329","243","&#9733;","elianto","#3366ff99","-1"," ","0","0","[1581.9999999998836]","1","1","","","5329","5","2","2","win","no-go","0"
"pit-trial","123","960993","0.0-9.0","battery-v0.2","","""event"",""trial"",""time""
""fullscreenenter"",""1"",""5508""
","
","
","""event"",""trial"",""time""
""fullscreenenter"",""1"",""5508""
","
","","","1994","","","10","5329","243","&#9752;","elianto","#f73b6a7A"," "," ","1","0","[2845]","1","1","","","5329","6","3","3","lose","go","0"
"pit-trial","124","964664","0.0-10.0","battery-v0.2","","""event"",""trial"",""time""
""fullscreenenter"",""1"",""5508""
","
","
","""event"",""trial"",""time""
""fullscreenenter"",""1"",""5508""
","
","","","818.0000000001164","","","10","5329","243","&#9730;","elianto","#3366ff99"," "," ","1","+10","[1669.0000000001164]","1","1","","","5329","7","1","1","win","go","0"
"pit-trial","125","969519","0.0-11.0","battery-v0.2","","""event"",""trial"",""time""
""fullscreenenter"",""1"",""5508""
","
","
","""event"",""trial"",""time""
""fullscreenenter"",""1"",""5508""
","
","","","-1","","","10","5329","243","&#9728;","elianto","#f73b6a7A","-1","-1","1","0","[]","0","1","","","5329","8","0","4","lose","no-go","0"
"pit-trial","126","973073","0.0-12.0","battery-v0.2","","""event"",""trial"",""time""
""fullscreenenter"",""1"",""5508""
","
","
","""event"",""trial"",""time""
""fullscreenenter"",""1"",""5508""
","
","","","701","","","10","5329","243","&#9733;","elianto","#3366ff99","-1"," ","0","+10","[1551]","1","1","","","5329","9","2","2","win","no-go","1"
"pit-trial","127","976881","0.0-13.0","battery-v0.2","","""event"",""trial"",""time""
""fullscreenenter"",""1"",""5508""
","
","
","""event"",""trial"",""time""
""fullscreenenter"",""1"",""5508""
","
","","","955","","","10","5329","243","&#9730;","elianto","#3366ff99"," "," ","1","0","[1806]","1","1","","","5329","10","1","1","win","go","1"
"pit-trial","128","981735","0.0-14.0","battery-v0.2","","""event"",""trial"",""time""
""fullscreenenter"",""1"",""5508""
","
","
","""event"",""trial"",""time""
""fullscreenenter"",""1"",""5508""
","
","","","-1","","","10","5329","243","&#9728;","elianto","#f73b6a7A","-1","-1","1","0","[]","0","1","","","5329","11","0","4","lose","no-go","0"
"pit-trial","129","985138","0.0-15.0","battery-v0.2","","""event"",""trial"",""time""
""fullscreenenter"",""1"",""5508""
","
","
","""event"",""trial"",""time""
""fullscreenenter"",""1"",""5508""
","
","","","548","","","10","5329","243","&#9752;","elianto","#f73b6a7A"," "," ","1","-10","[1399]","1","1","","","5329","12","3","3","lose","go","1"
"pit-trial","130","989992","0.0-16.0","battery-v0.2","","""event"",""trial"",""time""
""fullscreenenter"",""1"",""5508""
","
","
","""event"",""trial"",""time""
""fullscreenenter"",""1"",""5508""
","
","","","-1","","","10","5329","243","&#9733;","elianto","#3366ff99","-1","-1","1","0","[]","0","1","","","5329","13","2","2","win","no-go","1"
"pit-trial","131","994449","0.0-17.0","battery-v0.2","","""event"",""trial"",""time""
""fullscreenenter"",""1"",""5508""
","
","
","""event"",""trial"",""time""
""fullscreenenter"",""1"",""5508""
","
","","","1602.9999999998836","","","10","5329","243","&#9752;","elianto","#f73b6a7A"," "," ","1","0","[2454]","1","1","","","5329","14","3","3","lose","go","0"
"pit-trial","132","999304","0.0-18.0","battery-v0.2","","""event"",""trial"",""time""
""fullscreenenter"",""1"",""5508""
","
","
","""event"",""trial"",""time""
""fullscreenenter"",""1"",""5508""
","
","","","-1","","","10","5329","243","&#9728;","elianto","#f73b6a7A","-1","-1","1","0","[]","0","1","","","5329","15","0","4","lose","no-go","0"
"pit-trial","133","1003257","0.0-19.0","battery-v0.2","","""event"",""trial"",""time""
""fullscreenenter"",""1"",""5508""
","
","
","""event"",""trial"",""time""
""fullscreenenter"",""1"",""5508""
","
","","","1099","","","10","5329","243","&#9730;","elianto","#3366ff99"," "," ","1","+10","[1948.9999999998836]","1","1","","","5329","16","1","1","win","go","0"
"pit-trial","134","1008113","0.0-20.0","battery-v0.2","","""event"",""trial"",""time""
""fullscreenenter"",""1"",""5508""
","
","
","""event"",""trial"",""time""
""fullscreenenter"",""1"",""5508""
","
","","","-1","","","10","5329","243","&#9728;","elianto","#f73b6a7A","-1","-1","1","0","[]","0","1","","","5329","17","0","4","lose","no-go","0"
"pit-trial","135","1012281","0.0-21.0","battery-v0.2","","""event"",""trial"",""time""
""fullscreenenter"",""1"",""5508""
","
","
","""event"",""trial"",""time""
""fullscreenenter"",""1"",""5508""
","
","","","1314","","","10","5329","243","&#9752;","elianto","#f73b6a7A"," "," ","1","0","[2164.9999999998836]","1","1","","","5329","18","3","3","lose","go","0"
"pit-trial","136","1016201","0.0-22.0","battery-v0.2","","""event"",""trial"",""time""
""fullscreenenter"",""1"",""5508""
","
","
","""event"",""trial"",""time""
""fullscreenenter"",""1"",""5508""
","
","","","1065","","","10","5329","243","&#9730;","elianto","#3366ff99"," "," ","1","+10","[1916.9999999998836]","1","1","","","5329","19","1","1","win","go","0"
"pit-trial","137","1021055","0.0-23.0","battery-v0.2","","""event"",""trial"",""time""
""fullscreenenter"",""1"",""5508""
","
","
","""event"",""trial"",""time""
""fullscreenenter"",""1"",""5508""
","
","","","-1","","","10","5329","243","&#9733;","elianto","#3366ff99","-1","-1","1","+10","[]","0","1","","","5329","20","2","2","win","no-go","0"
"pit-instructions","138","1035095","0.0-24.0","battery-v0.2","","""event"",""trial"",""time""
""fullscreenenter"",""1"",""5508""
","
","
","""event"",""trial"",""time""
""fullscreenenter"",""1"",""5508""
","
","","[{""page_index"":0,""viewing_time"":6141.999999999884},{""page_index"":1,""viewing_time"":7895}]","14036.999999999884","","","","","","","","","","","","","","","","","","","","","","","",""
"pit-trial","139","1039890","0.0-25.0","battery-v0.2","","""event"",""trial"",""time""
""fullscreenenter"",""1"",""5508""
","
","
","""event"",""trial"",""time""
""fullscreenenter"",""1"",""5508""
","
","","","1940.0000000001164","","","10","5329","243","l","elianto","#3366ff99"," "," ","1","+10","[2790]","1","2","","","5329","21","1","1","win","go","0"
"pit-trial","140","1044057","0.0-26.0","battery-v0.2","","""event"",""trial"",""time""
""fullscreenenter"",""1"",""5508""
","
","
","""event"",""trial"",""time""
""fullscreenenter"",""1"",""5508""
","
","","","1311.9999999998836","","","10","5329","243","u","elianto","#f73b6a7A","-1"," ","0","-10","[2164]","1","2","","","5329","22","0","4","lose","no-go","0"
"pit-trial","141","1047921","0.0-27.0","battery-v0.2","","""event"",""trial"",""time""
""fullscreenenter"",""1"",""5508""
","
","
","""event"",""trial"",""time""
""fullscreenenter"",""1"",""5508""
","
","","","1010","","","10","5329","243","a","elianto","#f73b6a7A","-1"," ","0","-10","[1860.9999999998836]","1","2","","","5329","23","2","4","lose","no-go","0"
"pit-trial","142","1052776","0.0-28.0","battery-v0.2","","""event"",""trial"",""time""
""fullscreenenter"",""1"",""5508""
","
","
","""event"",""trial"",""time""
""fullscreenenter"",""1"",""5508""
","
","","","-1","","","10","5329","243","g","elianto","#f73b6a7A"," ","-1","0","-10","[2965]","1","2","","","5329","24","3","3","lose","go","0"
"pit-trial","143","1057631","0.0-29.0","battery-v0.2","","""event"",""trial"",""time""
""fullscreenenter"",""1"",""5508""
","
","
","""event"",""trial"",""time""
""fullscreenenter"",""1"",""5508""
","
","","","-1","","","10","5329","243","l","elianto","#3366ff99"," ","-1","0","0","[]","0","2","","","5329","25","1","1","win","go","0"
"pit-trial","144","1062485","0.0-30.0","battery-v0.2","","""event"",""trial"",""time""
""fullscreenenter"",""1"",""5508""
","
","
","""event"",""trial"",""time""
""fullscreenenter"",""1"",""5508""
","
","","","-1","","","10","5329","243","g","elianto","#f73b6a7A"," ","-1","0","0","[]","0","2","","","5329","26","3","3","lose","go","1"
"pit-trial","145","1067340","0.0-31.0","battery-v0.2","","""event"",""trial"",""time""
""fullscreenenter"",""1"",""5508""
","
","
","""event"",""trial"",""time""
""fullscreenenter"",""1"",""5508""
","
","","","-1","","","10","5329","243","u","elianto","#f73b6a7A","-1","-1","1","0","[]","0","2","","","5329","27","0","4","lose","no-go","0"
"pit-trial","146","1072194","0.0-32.0","battery-v0.2","","""event"",""trial"",""time""
""fullscreenenter"",""1"",""5508""
","
","
","""event"",""trial"",""time""
""fullscreenenter"",""1"",""5508""
","
","","","-1","","","10","5329","243","a","elianto","#f73b6a7A","-1","-1","1","-10","[]","0","2","","","5329","28","2","4","lose","no-go","1"
"pit-trial","147","1076633","0.0-33.0","battery-v0.2","","""event"",""trial"",""time""
""fullscreenenter"",""1"",""5508""
","
","
","""event"",""trial"",""time""
""fullscreenenter"",""1"",""5508""
","
","","","1585","","","10","5329","243","a","elianto","#f73b6a7A","-1"," ","0","-10","[2436]","1","2","","","5329","29","2","4","lose","no-go","0"
"pit-trial","148","1081488","0.0-34.0","battery-v0.2","","""event"",""trial"",""time""
""fullscreenenter"",""1"",""5508""
","
","
","""event"",""trial"",""time""
""fullscreenenter"",""1"",""5508""
","
","","","-1","","","10","5329","243","g","elianto","#f73b6a7A"," ","-1","0","-10","[]","0","2","","","5329","30","3","3","lose","go","0"
"pit-trial","149","1086342","0.0-35.0","battery-v0.2","","""event"",""trial"",""time""
""fullscreenenter"",""1"",""5508""
","
","
","""event"",""trial"",""time""
""fullscreenenter"",""1"",""5508""
","
","","","-1","","","10","5329","243","u","elianto","#f73b6a7A","-1","-1","1","0","[]","0","2","","","5329","31","0","4","lose","no-go","0"
"pit-trial","150","1090289","0.0-36.0","battery-v0.2","","""event"",""trial"",""time""
""fullscreenenter"",""1"",""5508""
","
","
","""event"",""trial"",""time""
""fullscreenenter"",""1"",""5508""
","
","","","1093","","","10","5329","243","l","elianto","#3366ff99"," "," ","1","+10","[1943]","1","2","","","5329","32","1","1","win","go","0"
"pit-trial","151","1094481","0.0-37.0","battery-v0.2","","""event"",""trial"",""time""
""fullscreenenter"",""1"",""5508""
","
","
","""event"",""trial"",""time""
""fullscreenenter"",""1"",""5508""
","
","","","1339","","","10","5329","243","l","elianto","#3366ff99"," "," ","1","+10","[2189]","1","2","","","5329","33","1","1","win","go","0"
"pit-trial","152","1099335","0.0-38.0","battery-v0.2","","""event"",""trial"",""time""
""fullscreenenter"",""1"",""5508""
","
","
","""event"",""trial"",""time""
""fullscreenenter"",""1"",""5508""
","
","","","-1","","","10","5329","243","u","elianto","#f73b6a7A","-1","-1","1","0","[]","0","2","","","5329","34","0","4","lose","no-go","0"
"pit-trial","153","1103609","0.0-39.0","battery-v0.2","","""event"",""trial"",""time""
""fullscreenenter"",""1"",""5508""
","
","
","""event"",""trial"",""time""
""fullscreenenter"",""1"",""5508""
","
","","","1420","","","10","5329","243","a","elianto","#f73b6a7A","-1"," ","0","-10","[2271,3791,4134]","3","2","","","5329","35","2","4","lose","no-go","0"
"pit-trial","154","1108462","0.0-40.0","battery-v0.2","","""event"",""trial"",""time""
""fullscreenenter"",""1"",""5508""
","
","
","""event"",""trial"",""time""
""fullscreenenter"",""1"",""5508""
","
","","","-1","","","10","5329","243","g","elianto","#f73b6a7A"," ","-1","0","0","[228]","1","2","","","5329","36","3","3","lose","go","1"
"pit-trial","155","1113316","0.0-41.0","battery-v0.2","","""event"",""trial"",""time""
""fullscreenenter"",""1"",""5508""
","
","
","""event"",""trial"",""time""
""fullscreenenter"",""1"",""5508""
","
","","","-1","","","10","5329","243","a","elianto","#f73b6a7A","-1","-1","1","-10","[]","0","2","","","5329","37","2","4","lose","no-go","1"
"pit-trial","156","1118171","0.0-42.0","battery-v0.2","","""event"",""trial"",""time""
""fullscreenenter"",""1"",""5508""
","
","
","""event"",""trial"",""time""
""fullscreenenter"",""1"",""5508""
","
","","","-1","","","10","5329","243","g","elianto","#f73b6a7A"," ","-1","0","-10","[]","0","2","","","5329","38","3","3","lose","go","0"
"pit-trial","157","1122220","0.0-43.0","battery-v0.2","","""event"",""trial"",""time""
""fullscreenenter"",""1"",""5508""
","
","
","""event"",""trial"",""time""
""fullscreenenter"",""1"",""5508""
","
","","","1195","","","10","5329","243","l","elianto","#3366ff99"," "," ","1","+10","[2045]","1","2","","","5329","39","1","1","win","go","0"
"pit-trial","158","1127074","0.0-44.0","battery-v0.2","","""event"",""trial"",""time""
""fullscreenenter"",""1"",""5508""
","
","
","""event"",""trial"",""time""
""fullscreenenter"",""1"",""5508""
","
","","","-1","","","10","5329","243","u","elianto","#f73b6a7A","-1","-1","1","0","[]","0","2","","","5329","40","0","4","lose","no-go","0"
"pit-trial","159","1131168","0.0-45.0","battery-v0.2","","""event"",""trial"",""time""
""fullscreenenter"",""1"",""5508""
","
","
","""event"",""trial"",""time""
""fullscreenenter"",""1"",""5508""
","
","","","1239","","","10","5329","243","l","elianto","#3366ff99"," "," ","1","+10","[2090]","1","2","","","5329","41","1","1","win","go","0"
"pit-trial","160","1136023","0.0-46.0","battery-v0.2","","""event"",""trial"",""time""
""fullscreenenter"",""1"",""5508""
","
","
","""event"",""trial"",""time""
""fullscreenenter"",""1"",""5508""
","
","","","-1","","","10","5329","243","a","elianto","#f73b6a7A","-1","-1","1","-10","[]","0","2","","","5329","42","2","4","lose","no-go","1"
"pit-trial","161","1140877","0.0-47.0","battery-v0.2","","""event"",""trial"",""time""
""fullscreenenter"",""1"",""5508""
","
","
","""event"",""trial"",""time""
""fullscreenenter"",""1"",""5508""
","
","","","-1","","","10","5329","243","g","elianto","#f73b6a7A"," ","-1","0","-10","[]","0","2","","","5329","43","3","3","lose","go","0"
"pit-trial","162","1145033","0.0-48.0","battery-v0.2","","""event"",""trial"",""time""
""fullscreenenter"",""1"",""5508""
","
","
","""event"",""trial"",""time""
""fullscreenenter"",""1"",""5508""
","
","","","1303","","","10","5329","243","u","elianto","#f73b6a7A","-1"," ","0","-10","[2153]","1","2","","","5329","44","0","4","lose","no-go","0"
"pit-trial","163","1149888","0.0-49.0","battery-v0.2","","""event"",""trial"",""time""
""fullscreenenter"",""1"",""5508""
","
","
","""event"",""trial"",""time""
""fullscreenenter"",""1"",""5508""
","
","","","-1","","","10","5329","243","u","elianto","#f73b6a7A","-1","-1","1","0","[3892,4603]","2","2","","","5329","45","0","4","lose","no-go","0"
"pit-trial","164","1153825","0.0-50.0","battery-v0.2","","""event"",""trial"",""time""
""fullscreenenter"",""1"",""5508""
","
","
","""event"",""trial"",""time""
""fullscreenenter"",""1"",""5508""
","
","","","1084","","","10","5329","243","p","elianto","#3366ff99","-1"," ","0","0","[1933]","1","2","","","5329","46","4","2","win","no-go","0"
"pit-trial","165","1158073","0.0-51.0","battery-v0.2","","""event"",""trial"",""time""
""fullscreenenter"",""1"",""5508""
","
","
","""event"",""trial"",""time""
""fullscreenenter"",""1"",""5508""
","
","","","1393","","","10","5329","243","a","elianto","#f73b6a7A","-1"," ","0","-10","[2244]","1","2","","","5329","47","2","4","lose","no-go","0"
"pit-trial","166","1162927","0.0-52.0","battery-v0.2","","""event"",""trial"",""time""
""fullscreenenter"",""1"",""5508""
","
","
","""event"",""trial"",""time""
""fullscreenenter"",""1"",""5508""
","
","","","-1","","","10","5329","243","g","elianto","#f73b6a7A"," ","-1","0","-10","[4533]","1","2","","","5329","48","3","3","lose","go","0"
"pit-trial","167","1167782","0.0-53.0","battery-v0.2","","""event"",""trial"",""time""
""fullscreenenter"",""1"",""5508""
","
","
","""event"",""trial"",""time""
""fullscreenenter"",""1"",""5508""
","
","","","-1","","","10","5329","243","g","elianto","#f73b6a7A"," ","-1","0","0","[2950]","1","2","","","5329","49","3","3","lose","go","1"
"pit-trial","168","1172032","0.0-54.0","battery-v0.2","","""event"",""trial"",""time""
""fullscreenenter"",""1"",""5508""
","
","
","""event"",""trial"",""time""
""fullscreenenter"",""1"",""5508""
","
","","","1395.9999999997672","","","10","5329","243","l","elianto","#3366ff99"," "," ","1","+10","[2247,4134]","2","2","","","5329","50","1","1","win","go","0"
"pit-trial","169","1176887","0.0-55.0","battery-v0.2","","""event"",""trial"",""time""
""fullscreenenter"",""1"",""5508""
","
","
","""event"",""trial"",""time""
""fullscreenenter"",""1"",""5508""
","
","","","-1","","","10","5329","243","p","elianto","#3366ff99","-1","-1","1","+10","[]","0","2","","","5329","51","4","2","win","no-go","0"
"pit-trial","170","1181741","0.0-56.0","battery-v0.2","","""event"",""trial"",""time""
""fullscreenenter"",""1"",""5508""
","
","
","""event"",""trial"",""time""
""fullscreenenter"",""1"",""5508""
","
","","","-1","","","10","5329","243","u","elianto","#f73b6a7A","-1","-1","1","0","[]","0","2","","","5329","52","0","4","lose","no-go","0"
"pit-trial","171","1186596","0.0-57.0","battery-v0.2","","""event"",""trial"",""time""
""fullscreenenter"",""1"",""5508""
","
","
","""event"",""trial"",""time""
""fullscreenenter"",""1"",""5508""
","
","","","-1","","","10","5329","243","a","elianto","#f73b6a7A","-1","-1","1","-10","[]","0","2","","","5329","53","2","4","lose","no-go","1"
"pit-trial","172","1191450","0.0-58.0","battery-v0.2","","""event"",""trial"",""time""
""fullscreenenter"",""1"",""5508""
","
","
","""event"",""trial"",""time""
""fullscreenenter"",""1"",""5508""
","
","","","-1","","","10","5329","243","p","elianto","#3366ff99","-1","-1","1","+10","[2921.999999999767]","1","2","","","5329","54","4","2","win","no-go","0"
"pit-trial","173","1195177","0.0-59.0","battery-v0.2","","""event"",""trial"",""time""
""fullscreenenter"",""1"",""5508""
","
","
","""event"",""trial"",""time""
""fullscreenenter"",""1"",""5508""
","
","","","873","","","10","5329","243","l","elianto","#3366ff99"," "," ","1","+10","[1723.0000000002328]","1","2","","","5329","55","1","1","win","go","0"
"pit-trial","174","1199591","0.0-60.0","battery-v0.2","","""event"",""trial"",""time""
""fullscreenenter"",""1"",""5508""
","
","
","""event"",""trial"",""time""
""fullscreenenter"",""1"",""5508""
","
","","","1560.9999999997672","","","10","5329","243","u","elianto","#f73b6a7A","-1"," ","0","-10","[796,2412]","2","2","","","5329","56","0","4","lose","no-go","0"
"pit-trial","175","1204446","0.0-61.0","battery-v0.2","","""event"",""trial"",""time""
""fullscreenenter"",""1"",""5508""
","
","
","""event"",""trial"",""time""
""fullscreenenter"",""1"",""5508""
","
","","","-1","","","10","5329","243","u","elianto","#f73b6a7A","-1","-1","1","-10","[2889]","1","2","","","5329","57","0","4","lose","no-go","1"
"pit-trial","176","1209300","0.0-62.0","battery-v0.2","","""event"",""trial"",""time""
""fullscreenenter"",""1"",""5508""
","
","
","""event"",""trial"",""time""
""fullscreenenter"",""1"",""5508""
","
","","","-1","","","10","5329","243","g","elianto","#f73b6a7A"," ","-1","0","-10","[]","0","2","","","5329","58","3","3","lose","go","0"
"pit-trial","177","1213017","0.0-63.0","battery-v0.2","","""event"",""trial"",""time""
""fullscreenenter"",""1"",""5508""
","
","
","""event"",""trial"",""time""
""fullscreenenter"",""1"",""5508""
","
","","","862","","","10","5329","243","p","elianto","#3366ff99","-1"," ","0","+10","[1713]","1","2","","","5329","59","4","2","win","no-go","1"
"pit-trial","178","1216545","0.0-64.0","battery-v0.2","","""event"",""trial"",""time""
""fullscreenenter"",""1"",""5508""
","
","
","""event"",""trial"",""time""
""fullscreenenter"",""1"",""5508""
","
","","","672","","","10","5329","243","l","elianto","#3366ff99"," "," ","1","0","[1524]","1","2","","","5329","60","1","1","win","go","1"
"pit-trial","179","1221249","0.0-65.0","battery-v0.2","","""event"",""trial"",""time""
""fullscreenenter"",""1"",""5508""
","
","
","""event"",""trial"",""time""
""fullscreenenter"",""1"",""5508""
","
","","","1849","","","10","5329","243","a","elianto","#f73b6a7A","-1"," ","0","-10","[2700,3156.000000000233]","2","2","","","5329","61","2","4","lose","no-go","0"
"pit-trial","180","1225640","0.0-66.0","battery-v0.2","","""event"",""trial"",""time""
""fullscreenenter"",""1"",""5508""
","
","
","""event"",""trial"",""time""
""fullscreenenter"",""1"",""5508""
","
","","","1537","","","10","5329","243","g","elianto","#f73b6a7A"," "," ","1","0","[2388,3508]","2","2","","","5329","62","3","3","lose","go","0"
"pit-trial","181","1229336","0.0-67.0","battery-v0.2","","""event"",""trial"",""time""
""fullscreenenter"",""1"",""5508""
","
","
","""event"",""trial"",""time""
""fullscreenenter"",""1"",""5508""
","
","","","843","","","10","5329","243","l","elianto","#3366ff99"," "," ","1","+10","[1693]","1","2","","","5329","63","1","1","win","go","0"
"pit-trial","182","1233001","0.0-68.0","battery-v0.2","","""event"",""trial"",""time""
""fullscreenenter"",""1"",""5508""
","
","
","""event"",""trial"",""time""
""fullscreenenter"",""1"",""5508""
","
","","","810","","","10","5329","243","p","elianto","#3366ff99","-1"," ","0","+10","[1660]","1","2","","","5329","64","4","2","win","no-go","1"
"pit-trial","183","1236952","0.0-69.0","battery-v0.2","","""event"",""trial"",""time""
""fullscreenenter"",""1"",""5508""
","
","
","""event"",""trial"",""time""
""fullscreenenter"",""1"",""5508""
","
","","","1098","","","10","5329","243","a","elianto","#f73b6a7A","-1"," ","0","-10","[1949]","1","2","","","5329","65","2","4","lose","no-go","0"
"pit-trial","184","1241807","0.0-70.0","battery-v0.2","","""event"",""trial"",""time""
""fullscreenenter"",""1"",""5508""
","
","
","""event"",""trial"",""time""
""fullscreenenter"",""1"",""5508""
","
","","","-1","","","10","5329","243","g","elianto","#f73b6a7A"," ","-1","0","-10","[]","0","2","","","5329","66","3","3","lose","go","0"
"pit-trial","185","1245680","0.0-71.0","battery-v0.2","","""event"",""trial"",""time""
""fullscreenenter"",""1"",""5508""
","
","
","""event"",""trial"",""time""
""fullscreenenter"",""1"",""5508""
","
","","","1020","","","10","5329","243","l","elianto","#3366ff99"," "," ","1","0","[1870.9999999997672]","1","2","","","5329","67","1","1","win","go","1"
"pit-trial","186","1249208","0.0-72.0","battery-v0.2","","""event"",""trial"",""time""
""fullscreenenter"",""1"",""5508""
","
","
","""event"",""trial"",""time""
""fullscreenenter"",""1"",""5508""
","
","","","675","","","10","5329","243","p","elianto","#3366ff99","-1"," ","0","0","[1525]","1","2","","","5329","68","4","2","win","no-go","0"
"pit-trial","187","1252921","0.0-73.0","battery-v0.2","","""event"",""trial"",""time""
""fullscreenenter"",""1"",""5508""
","
","
","""event"",""trial"",""time""
""fullscreenenter"",""1"",""5508""
","
","","","857","","","10","5329","243","l","elianto","#3366ff99"," "," ","1","+10","[1708]","1","2","","","5329","69","1","1","win","go","0"
"pit-trial","188","1257775","0.0-74.0","battery-v0.2","","""event"",""trial"",""time""
""fullscreenenter"",""1"",""5508""
","
","
","""event"",""trial"",""time""
""fullscreenenter"",""1"",""5508""
","
","","","-1","","","10","5329","243","g","elianto","#f73b6a7A"," ","-1","0","-10","[]","0","2","","","5329","70","3","3","lose","go","0"
"pit-trial","189","1261664","0.0-75.0","battery-v0.2","","""event"",""trial"",""time""
""fullscreenenter"",""1"",""5508""
","
","
","""event"",""trial"",""time""
""fullscreenenter"",""1"",""5508""
","
","","","1036","","","10","5329","243","s","elianto","#3366ff99"," "," ","1","+10","[1887]","1","2","","","5329","71","5","1","win","go","0"
"pit-trial","190","1265376","0.0-76.0","battery-v0.2","","""event"",""trial"",""time""
""fullscreenenter"",""1"",""5508""
","
","
","""event"",""trial"",""time""
""fullscreenenter"",""1"",""5508""
","
","","","858","","","10","5329","243","p","elianto","#3366ff99","-1"," ","0","0","[1709]","1","2","","","5329","72","4","2","win","no-go","0"
"pit-trial","191","1269121","0.0-77.0","battery-v0.2","","""event"",""trial"",""time""
""fullscreenenter"",""1"",""5508""
","
","
","""event"",""trial"",""time""
""fullscreenenter"",""1"",""5508""
","
","","","890","","","10","5329","243","l","elianto","#3366ff99"," "," ","1","0","[1740]","1","2","","","5329","73","1","1","win","go","1"
"pit-trial","192","1273976","0.0-78.0","battery-v0.2","","""event"",""trial"",""time""
""fullscreenenter"",""1"",""5508""
","
","
","""event"",""trial"",""time""
""fullscreenenter"",""1"",""5508""
","
","","","-1","","","10","5329","243","p","elianto","#3366ff99","-1","-1","1","+10","[]","0","2","","","5329","74","4","2","win","no-go","0"
"pit-trial","193","1278672","0.0-79.0","battery-v0.2","","""event"",""trial"",""time""
""fullscreenenter"",""1"",""5508""
","
","
","""event"",""trial"",""time""
""fullscreenenter"",""1"",""5508""
","
","","","1843","","","10","5329","243","g","elianto","#f73b6a7A"," "," ","1","0","[2693]","1","2","","","5329","75","3","3","lose","go","0"
"pit-trial","194","1282488","0.0-80.0","battery-v0.2","","""event"",""trial"",""time""
""fullscreenenter"",""1"",""5508""
","
","
","""event"",""trial"",""time""
""fullscreenenter"",""1"",""5508""
","
","","","961","","","10","5329","243","s","elianto","#3366ff99"," "," ","1","0","[1811.9999999997672,3803.999999999767]","2","2","","","5329","76","5","1","win","go","1"
"pit-trial","195","1287342","0.0-81.0","battery-v0.2","","""event"",""trial"",""time""
""fullscreenenter"",""1"",""5508""
","
","
","""event"",""trial"",""time""
""fullscreenenter"",""1"",""5508""
","
","","","-1","","","10","5329","243","p","elianto","#3366ff99","-1","-1","1","+10","[]","0","2","","","5329","77","4","2","win","no-go","0"
"pit-trial","196","1291489","0.0-82.0","battery-v0.2","","""event"",""trial"",""time""
""fullscreenenter"",""1"",""5508""
","
","
","""event"",""trial"",""time""
""fullscreenenter"",""1"",""5508""
","
","","","1293","","","10","5329","243","g","elianto","#f73b6a7A"," "," ","1","0","[2143]","1","2","","","5329","78","3","3","lose","go","0"
"pit-trial","197","1296343","0.0-83.0","battery-v0.2","","""event"",""trial"",""time""
""fullscreenenter"",""1"",""5508""
","
","
","""event"",""trial"",""time""
""fullscreenenter"",""1"",""5508""
","
","","","-1","","","10","5329","243","s","elianto","#3366ff99"," ","-1","0","0","[]","0","2","","","5329","79","5","1","win","go","0"
"pit-trial","198","1300664","0.0-84.0","battery-v0.2","","""event"",""trial"",""time""
""fullscreenenter"",""1"",""5508""
","
","
","""event"",""trial"",""time""
""fullscreenenter"",""1"",""5508""
","
","","","1468","","","10","5329","243","w","elianto","#f73b6a7A","-1"," ","0","-10","[2318]","1","2","","","5329","80","6","4","lose","no-go","0"
"pit-trial","199","1305047","0.0-85.0","battery-v0.2","","""event"",""trial"",""time""
""fullscreenenter"",""1"",""5508""
","
","
","""event"",""trial"",""time""
""fullscreenenter"",""1"",""5508""
","
","","","1529","","","10","5329","243","p","elianto","#3366ff99","-1"," ","0","0","[2380]","1","2","","","5329","81","4","2","win","no-go","0"
"pit-trial","200","1309902","0.0-86.0","battery-v0.2","","""event"",""trial"",""time""
""fullscreenenter"",""1"",""5508""
","
","
","""event"",""trial"",""time""
""fullscreenenter"",""1"",""5508""
","
","","","-1","","","10","5329","243","w","elianto","#f73b6a7A","-1","-1","1","0","[]","0","2","","","5329","82","6","4","lose","no-go","0"
"pit-trial","201","1314608","0.0-87.0","battery-v0.2","","""event"",""trial"",""time""
""fullscreenenter"",""1"",""5508""
","
","
","""event"",""trial"",""time""
""fullscreenenter"",""1"",""5508""
","
","","","1853","","","10","5329","243","e","elianto","#f73b6a7A"," "," ","1","0","[2702.999999999767]","1","2","","","5329","83","7","3","lose","go","0"
"pit-trial","202","1318840","0.0-88.0","battery-v0.2","","""event"",""trial"",""time""
""fullscreenenter"",""1"",""5508""
","
","
","""event"",""trial"",""time""
""fullscreenenter"",""1"",""5508""
","
","","","1378","","","10","5329","243","s","elianto","#3366ff99"," "," ","1","0","[2229,3260]","2","2","","","5329","84","5","1","win","go","1"
"pit-trial","203","1323200","0.0-89.0","battery-v0.2","","""event"",""trial"",""time""
""fullscreenenter"",""1"",""5508""
","
","
","""event"",""trial"",""time""
""fullscreenenter"",""1"",""5508""
","
","","","1505.9999999997672","","","10","5329","243","e","elianto","#f73b6a7A"," "," ","1","0","[100,2357]","2","2","","","5329","85","7","3","lose","go","0"
"pit-trial","204","1328054","0.0-90.0","battery-v0.2","","""event"",""trial"",""time""
""fullscreenenter"",""1"",""5508""
","
","
","""event"",""trial"",""time""
""fullscreenenter"",""1"",""5508""
","
","","","-1","","","10","5329","243","w","elianto","#f73b6a7A","-1","-1","1","0","[]","0","2","","","5329","86","6","4","lose","no-go","0"
"pit-trial","205","1331809","0.0-91.0","battery-v0.2","","""event"",""trial"",""time""
""fullscreenenter"",""1"",""5508""
","
","
","""event"",""trial"",""time""
""fullscreenenter"",""1"",""5508""
","
","","","901","","","10","5329","243","p","elianto","#3366ff99","-1"," ","0","0","[1751,2198,2622,3038,3462]","5","2","","","5329","87","4","2","win","no-go","0"
"pit-trial","206","1334769","0.0-92.0","battery-v0.2","","""event"",""trial"",""time""
""fullscreenenter"",""1"",""5508""
","
","
","""event"",""trial"",""time""
""fullscreenenter"",""1"",""5508""
","
","","","106","","","10","5329","243","s","elianto","#3366ff99"," "," ","1","+10","[132,548,957,1460.0000000002328,1852,2276]","6","2","","","5329","88","5","1","win","go","0"
"pit-trial","207","1339584","0.0-93.0","battery-v0.2","","""event"",""trial"",""time""
""fullscreenenter"",""1"",""5508""
","
","
","""event"",""trial"",""time""
""fullscreenenter"",""1"",""5508""
","
","","","1961","","","10","5329","243","p","elianto","#3366ff99","-1"," ","0","+10","[2812]","1","2","","","5329","89","4","2","win","no-go","1"
"pit-trial","208","1343264","0.0-94.0","battery-v0.2","","""event"",""trial"",""time""
""fullscreenenter"",""1"",""5508""
","
","
","""event"",""trial"",""time""
""fullscreenenter"",""1"",""5508""
","
","","","826","","","10","5329","243","s","elianto","#3366ff99"," "," ","1","+10","[1677,2172]","2","2","","","5329","90","5","1","win","go","0"
"pit-trial","209","1347280","0.0-95.0","battery-v0.2","","""event"",""trial"",""time""
""fullscreenenter"",""1"",""5508""
","
","
","""event"",""trial"",""time""
""fullscreenenter"",""1"",""5508""
","
","","","1161","","","10","5329","243","e","elianto","#f73b6a7A"," "," ","1","0","[2012]","1","2","","","5329","91","7","3","lose","go","0"
"pit-trial","210","1352134","0.0-96.0","battery-v0.2","","""event"",""trial"",""time""
""fullscreenenter"",""1"",""5508""
","
","
","""event"",""trial"",""time""
""fullscreenenter"",""1"",""5508""
","
","","","-1","","","10","5329","243","w","elianto","#f73b6a7A","-1","-1","1","0","[]","0","2","","","5329","92","6","4","lose","no-go","0"
"pit-trial","211","1356987","0.0-97.0","battery-v0.2","","""event"",""trial"",""time""
""fullscreenenter"",""1"",""5508""
","
","
","""event"",""trial"",""time""
""fullscreenenter"",""1"",""5508""
","
","","","-1","","","10","5329","243","w","elianto","#f73b6a7A","-1","-1","1","0","[]","0","2","","","5329","93","6","4","lose","no-go","0"
"pit-trial","212","1361577","0.0-98.0","battery-v0.2","","""event"",""trial"",""time""
""fullscreenenter"",""1"",""5508""
","
","
","""event"",""trial"",""time""
""fullscreenenter"",""1"",""5508""
","
","","","1736","","","10","5329","243","d","elianto","#3366ff99","-1"," ","0","+10","[2587]","1","2","","","5329","94","8","2","win","no-go","1"
"pit-trial","213","1365392","0.0-99.0","battery-v0.2","","""event"",""trial"",""time""
""fullscreenenter"",""1"",""5508""
","
","
","""event"",""trial"",""time""
""fullscreenenter"",""1"",""5508""
","
","","","961","","","10","5329","243","s","elianto","#3366ff99"," "," ","1","0","[1811,3252]","2","2","","","5329","95","5","1","win","go","1"
"pit-trial","214","1369648","0.0-100.0","battery-v0.2","","""event"",""trial"",""time""
""fullscreenenter"",""1"",""5508""
","
","
","""event"",""trial"",""time""
""fullscreenenter"",""1"",""5508""
","
","","","1402","","","10","5329","243","e","elianto","#f73b6a7A"," "," ","1","0","[260.00000000023283,2252]","2","2","","","5329","96","7","3","lose","go","0"
"pit-trial","215","1373151","0.0-101.0","battery-v0.2","","""event"",""trial"",""time""
""fullscreenenter"",""1"",""5508""
","
","
","""event"",""trial"",""time""
""fullscreenenter"",""1"",""5508""
","
","","","649.9999999997672","","","10","5329","243","s","elianto","#3366ff99"," "," ","1","0","[1500]","1","2","","","5329","97","5","1","win","go","1"
"pit-trial","216","1378006","0.0-102.0","battery-v0.2","","""event"",""trial"",""time""
""fullscreenenter"",""1"",""5508""
","
","
","""event"",""trial"",""time""
""fullscreenenter"",""1"",""5508""
","
","","","-1","","","10","5329","243","w","elianto","#f73b6a7A","-1","-1","1","-10","[2973]","1","2","","","5329","98","6","4","lose","no-go","1"
"pit-trial","217","1382288","0.0-103.0","battery-v0.2","","""event"",""trial"",""time""
""fullscreenenter"",""1"",""5508""
","
","
","""event"",""trial"",""time""
""fullscreenenter"",""1"",""5508""
","
","","","1428","","","10","5329","243","e","elianto","#f73b6a7A"," "," ","1","0","[2278]","1","2","","","5329","99","7","3","lose","go","0"
"pit-trial","218","1386297","0.0-104.0","battery-v0.2","","""event"",""trial"",""time""
""fullscreenenter"",""1"",""5508""
","
","
","""event"",""trial"",""time""
""fullscreenenter"",""1"",""5508""
","
","","","1155","","","10","5329","243","d","elianto","#3366ff99","-1"," ","0","0","[2005]","1","2","","","5329","100","8","2","win","no-go","0"
"pit-trial","219","1389672","0.0-105.0","battery-v0.2","","""event"",""trial"",""time""
""fullscreenenter"",""1"",""5508""
","
","
","""event"",""trial"",""time""
""fullscreenenter"",""1"",""5508""
","
","","","522","","","10","5329","243","s","elianto","#3366ff99"," "," ","1","+10","[1371.9999999997672]","1","2","","","5329","101","5","1","win","go","0"
"pit-trial","220","1393448","0.0-106.0","battery-v0.2","","""event"",""trial"",""time""
""fullscreenenter"",""1"",""5508""
","
","
","""event"",""trial"",""time""
""fullscreenenter"",""1"",""5508""
","
","","","922","","","10","5329","243","j","elianto","#3366ff99","-1"," ","0","0","[1771.9999999997672]","1","2","","","5329","102","9","2","win","no-go","0"
"pit-trial","221","1398303","0.0-107.0","battery-v0.2","","""event"",""trial"",""time""
""fullscreenenter"",""1"",""5508""
","
","
","""event"",""trial"",""time""
""fullscreenenter"",""1"",""5508""
","
","","","-1","","","10","5329","243","w","elianto","#f73b6a7A","-1","-1","1","0","[]","0","2","","","5329","103","6","4","lose","no-go","0"
"pit-trial","222","1403157","0.0-108.0","battery-v0.2","","""event"",""trial"",""time""
""fullscreenenter"",""1"",""5508""
","
","
","""event"",""trial"",""time""
""fullscreenenter"",""1"",""5508""
","
","","","-1","","","10","5329","243","d","elianto","#3366ff99","-1","-1","1","+10","[334,3261,4565]","3","2","","","5329","104","8","2","win","no-go","0"
"pit-trial","223","1408012","0.0-109.0","battery-v0.2","","""event"",""trial"",""time""
""fullscreenenter"",""1"",""5508""
","
","
","""event"",""trial"",""time""
""fullscreenenter"",""1"",""5508""
","
","","","-1","","","10","5329","243","w","elianto","#f73b6a7A","-1","-1","1","-10","[4471]","1","2","","","5329","105","6","4","lose","no-go","1"
"pit-trial","224","1412866","0.0-110.0","battery-v0.2","","""event"",""trial"",""time""
""fullscreenenter"",""1"",""5508""
","
","
","""event"",""trial"",""time""
""fullscreenenter"",""1"",""5508""
","
","","","-1","","","10","5329","243","j","elianto","#3366ff99","-1","-1","1","+10","[4409.000000000233]","1","2","","","5329","106","9","2","win","no-go","0"
"pit-trial","225","1416664","0.0-111.0","battery-v0.2","","""event"",""trial"",""time""
""fullscreenenter"",""1"",""5508""
","
","
","""event"",""trial"",""time""
""fullscreenenter"",""1"",""5508""
","
","","","944","","","10","5329","243","d","elianto","#3366ff99","-1"," ","0","0","[1794]","1","2","","","5329","107","8","2","win","no-go","0"
"pit-trial","226","1421103","0.0-112.0","battery-v0.2","","""event"",""trial"",""time""
""fullscreenenter"",""1"",""5508""
","
","
","""event"",""trial"",""time""
""fullscreenenter"",""1"",""5508""
","
","","","1585","","","10","5329","243","s","elianto","#3366ff99"," "," ","1","+10","[2436]","1","2","","","5329","108","5","1","win","go","0"
"pit-trial","227","1424904","0.0-113.0","battery-v0.2","","""event"",""trial"",""time""
""fullscreenenter"",""1"",""5508""
","
","
","""event"",""trial"",""time""
""fullscreenenter"",""1"",""5508""
","
","","","946","","","10","5329","243","s","elianto","#3366ff99"," "," ","1","+10","[1797]","1","2","","","5329","109","5","1","win","go","0"
"pit-trial","228","1429758","0.0-114.0","battery-v0.2","","""event"",""trial"",""time""
""fullscreenenter"",""1"",""5508""
","
","
","""event"",""trial"",""time""
""fullscreenenter"",""1"",""5508""
","
","","","-1","","","10","5329","243","d","elianto","#3366ff99","-1","-1","1","+10","[]","0","2","","","5329","110","8","2","win","no-go","0"
"pit-trial","229","1434613","0.0-115.0","battery-v0.2","","""event"",""trial"",""time""
""fullscreenenter"",""1"",""5508""
","
","
","""event"",""trial"",""time""
""fullscreenenter"",""1"",""5508""
","
","","","-1","","","10","5329","243","j","elianto","#3366ff99","-1","-1","1","+10","[0]","1","2","","","5329","111","9","2","win","no-go","0"
"pit-trial","230","1439467","0.0-116.0","battery-v0.2","","""event"",""trial"",""time""
""fullscreenenter"",""1"",""5508""
","
","
","""event"",""trial"",""time""
""fullscreenenter"",""1"",""5508""
","
","","","-1","","","10","5329","243","w","elianto","#f73b6a7A","-1","-1","1","0","[4048]","1","2","","","5329","112","6","4","lose","no-go","0"
"pit-trial","231","1444323","0.0-117.0","battery-v0.2","","""event"",""trial"",""time""
""fullscreenenter"",""1"",""5508""
","
","
","""event"",""trial"",""time""
""fullscreenenter"",""1"",""5508""
","
","","","-1","","","10","5329","243","s","elianto","#3366ff99"," ","-1","0","+10","[]","0","2","","","5329","113","5","1","win","go","1"
"pit-trial","232","1448664","0.0-118.0","battery-v0.2","","""event"",""trial"",""time""
""fullscreenenter"",""1"",""5508""
","
","
","""event"",""trial"",""time""
""fullscreenenter"",""1"",""5508""
","
","","","1486","","","10","5329","243","e","elianto","#f73b6a7A"," "," ","1","-10","[2337,3849.000000000233,4113]","3","2","","","5329","114","7","3","lose","go","1"
"pit-trial","233","1453472","0.0-119.0","battery-v0.2","","""event"",""trial"",""time""
""fullscreenenter"",""1"",""5508""
","
","
","""event"",""trial"",""time""
""fullscreenenter"",""1"",""5508""
","
","","","1953","","","10","5329","243","d","elianto","#3366ff99","-1"," ","0","0","[2804]","1","2","","","5329","115","8","2","win","no-go","0"
"pit-trial","234","1457183","0.0-120.0","battery-v0.2","","""event"",""trial"",""time""
""fullscreenenter"",""1"",""5508""
","
","
","""event"",""trial"",""time""
""fullscreenenter"",""1"",""5508""
","
","","","858","","","10","5329","243","j","elianto","#3366ff99","-1"," ","0","0","[341,1708,2988.000000000233]","3","2","","","5329","116","9","2","win","no-go","0"
"pit-trial","235","1462037","0.0-121.0","battery-v0.2","","""event"",""trial"",""time""
""fullscreenenter"",""1"",""5508""
","
","
","""event"",""trial"",""time""
""fullscreenenter"",""1"",""5508""
","
","","","-1","","","10","5329","243","w","elianto","#f73b6a7A","-1","-1","1","0","[]","0","2","","","5329","117","6","4","lose","no-go","0"
"pit-trial","236","1466891","0.0-122.0","battery-v0.2","","""event"",""trial"",""time""
""fullscreenenter"",""1"",""5508""
","
","
","""event"",""trial"",""time""
""fullscreenenter"",""1"",""5508""
","
","","","-1","","","10","5329","243","d","elianto","#3366ff99","-1","-1","1","+10","[]","0","2","","","5329","118","8","2","win","no-go","0"
"pit-trial","237","1471746","0.0-123.0","battery-v0.2","","""event"",""trial"",""time""
""fullscreenenter"",""1"",""5508""
","
","
","""event"",""trial"",""time""
""fullscreenenter"",""1"",""5508""
","
","","","-1","","","10","5329","243","j","elianto","#3366ff99","-1","-1","1","+10","[]","0","2","","","5329","119","9","2","win","no-go","0"
"pit-trial","238","1476007","0.0-124.0","battery-v0.2","","""event"",""trial"",""time""
""fullscreenenter"",""1"",""5508""
","
","
","""event"",""trial"",""time""
""fullscreenenter"",""1"",""5508""
","
","","","1408","","","10","5329","243","s","elianto","#3366ff99"," "," ","1","+10","[2259]","1","2","","","5329","120","5","1","win","go","0"
"pit-trial","239","1479887","0.0-125.0","battery-v0.2","","""event"",""trial"",""time""
""fullscreenenter"",""1"",""5508""
","
","
","""event"",""trial"",""time""
""fullscreenenter"",""1"",""5508""
","
","","","1026","","","10","5329","243","s","elianto","#3366ff99"," "," ","1","+10","[1875.9999999997672]","1","2","","","5329","121","5","1","win","go","0"
"pit-trial","240","1483816","0.0-126.0","battery-v0.2","","""event"",""trial"",""time""
""fullscreenenter"",""1"",""5508""
","
","
","""event"",""trial"",""time""
""fullscreenenter"",""1"",""5508""
","
","","","1074","","","10","5329","243","d","elianto","#3366ff99","-1"," ","0","0","[1924,2652,3020,3332.000000000233,3636]","5","2","","","5329","122","8","2","win","no-go","0"
"pit-trial","241","1486839","0.0-127.0","battery-v0.2","","""event"",""trial"",""time""
""fullscreenenter"",""1"",""5508""
","
","
","""event"",""trial"",""time""
""fullscreenenter"",""1"",""5508""
","
","","","169","","","10","5329","243","j","elianto","#3366ff99","-1"," ","0","0","[11.99999999976717,371.99999999976717,692,1019.9999999997672]","4","2","","","5329","123","9","2","win","no-go","0"
"pit-trial","242","1490567","0.0-128.0","battery-v0.2","","""event"",""trial"",""time""
""fullscreenenter"",""1"",""5508""
","
","
","""event"",""trial"",""time""
""fullscreenenter"",""1"",""5508""
","
","","","874","","","10","5329","243","e","elianto","#f73b6a7A"," "," ","1","0","[1725]","1","2","","","5329","124","7","3","lose","go","0"
"pit-trial","243","1495415","0.0-129.0","battery-v0.2","","""event"",""trial"",""time""
""fullscreenenter"",""1"",""5508""
","
","
","""event"",""trial"",""time""
""fullscreenenter"",""1"",""5508""
","
","","","-1","","","10","5329","243","w","elianto","#f73b6a7A","-1","-1","1","0","[]","0","2","","","5329","125","6","4","lose","no-go","0"
"pit-trial","244","1500266","0.0-130.0","battery-v0.2","","""event"",""trial"",""time""
""fullscreenenter"",""1"",""5508""
","
","
","""event"",""trial"",""time""
""fullscreenenter"",""1"",""5508""
","
","","","-1","","","10","5329","243","d","elianto","#3366ff99","-1","-1","1","+10","[]","0","2","","","5329","126","8","2","win","no-go","0"
"pit-trial","245","1504315","0.0-131.0","battery-v0.2","","""event"",""trial"",""time""
""fullscreenenter"",""1"",""5508""
","
","
","""event"",""trial"",""time""
""fullscreenenter"",""1"",""5508""
","
","","","1198.0000000002328","","","10","5329","243","e","elianto","#f73b6a7A"," "," ","1","0","[2049.000000000233]","1","2","","","5329","127","7","3","lose","go","0"
"pit-trial","246","1509168","0.0-132.0","battery-v0.2","","""event"",""trial"",""time""
""fullscreenenter"",""1"",""5508""
","
","
","""event"",""trial"",""time""
""fullscreenenter"",""1"",""5508""
","
","","","-1","","","10","5329","243","j","elianto","#3366ff99","-1","-1","1","+10","[]","0","2","","","5329","128","9","2","win","no-go","0"
"pit-trial","247","1514021","0.0-133.0","battery-v0.2","","""event"",""trial"",""time""
""fullscreenenter"",""1"",""5508""
","
","
","""event"",""trial"",""time""
""fullscreenenter"",""1"",""5508""
","
","","","-1","","","10","5329","243","d","elianto","#3366ff99","-1","-1","1","+10","[3317]","1","2","","","5329","129","8","2","win","no-go","0"
"pit-trial","248","1518278","0.0-134.0","battery-v0.2","","""event"",""trial"",""time""
""fullscreenenter"",""1"",""5508""
","
","
","""event"",""trial"",""time""
""fullscreenenter"",""1"",""5508""
","
","","","1404","","","10","5329","243","e","elianto","#f73b6a7A"," "," ","1","0","[2254]","1","2","","","5329","130","7","3","lose","go","0"
"pit-trial","249","1523132","0.0-135.0","battery-v0.2","","""event"",""trial"",""time""
""fullscreenenter"",""1"",""5508""
","
","
","""event"",""trial"",""time""
""fullscreenenter"",""1"",""5508""
","
","","","-1","","","10","5329","243","j","elianto","#3366ff99","-1","-1","1","+10","[]","0","2","","","5329","131","9","2","win","no-go","0"
"pit-trial","250","1527985","0.0-136.0","battery-v0.2","","""event"",""trial"",""time""
""fullscreenenter"",""1"",""5508""
","
","
","""event"",""trial"",""time""
""fullscreenenter"",""1"",""5508""
","
","","","-1","","","10","5329","243","w","elianto","#f73b6a7A","-1","-1","1","0","[]","0","2","","","5329","132","6","4","lose","no-go","0"
"pit-trial","251","1532839","0.0-137.0","battery-v0.2","","""event"",""trial"",""time""
""fullscreenenter"",""1"",""5508""
","
","
","""event"",""trial"",""time""
""fullscreenenter"",""1"",""5508""
","
","","","-1","","","10","5329","243","d","elianto","#3366ff99","-1","-1","1","+10","[]","0","2","","","5329","133","8","2","win","no-go","0"
"pit-trial","252","1537693","0.0-138.0","battery-v0.2","","""event"",""trial"",""time""
""fullscreenenter"",""1"",""5508""
","
","
","""event"",""trial"",""time""
""fullscreenenter"",""1"",""5508""
","
","","","-1","","","10","5329","243","j","elianto","#3366ff99","-1","-1","1","0","[]","0","2","","","5329","134","9","2","win","no-go","1"
"pit-trial","253","1542515","0.0-139.0","battery-v0.2","","""event"",""trial"",""time""
""fullscreenenter"",""1"",""5508""
","
","
","""event"",""trial"",""time""
""fullscreenenter"",""1"",""5508""
","
","","","1968","","","10","5329","243","e","elianto","#f73b6a7A"," "," ","1","-10","[2819]","1","2","","","5329","135","7","3","lose","go","1"
"pit-trial","254","1547369","0.0-140.0","battery-v0.2","","""event"",""trial"",""time""
""fullscreenenter"",""1"",""5508""
","
","
","""event"",""trial"",""time""
""fullscreenenter"",""1"",""5508""
","
","","","-1","","","10","5329","243","w","elianto","#f73b6a7A","-1","-1","1","0","[]","0","2","","","5329","136","6","4","lose","no-go","0"
"pit-trial","255","1552224","0.0-141.0","battery-v0.2","","""event"",""trial"",""time""
""fullscreenenter"",""1"",""5508""
","
","
","""event"",""trial"",""time""
""fullscreenenter"",""1"",""5508""
","
","","","-1","","","10","5329","243","j","elianto","#3366ff99","-1","-1","1","+10","[]","0","2","","","5329","137","9","2","win","no-go","0"
"pit-trial","256","1557078","0.0-142.0","battery-v0.2","","""event"",""trial"",""time""
""fullscreenenter"",""1"",""5508""
","
","
","""event"",""trial"",""time""
""fullscreenenter"",""1"",""5508""
","
","","","-1","","","10","5329","243","d","elianto","#3366ff99","-1","-1","1","+10","[]","0","2","","","5329","138","8","2","win","no-go","0"
"pit-trial","257","1561346","0.0-143.0","battery-v0.2","","""event"",""trial"",""time""
""fullscreenenter"",""1"",""5508""
","
","
","""event"",""trial"",""time""
""fullscreenenter"",""1"",""5508""
","
","","","1414","","","10","5329","243","e","elianto","#f73b6a7A"," "," ","1","0","[2265]","1","2","","","5329","139","7","3","lose","go","0"
"pit-trial","258","1566202","0.0-144.0","battery-v0.2","","""event"",""trial"",""time""
""fullscreenenter"",""1"",""5508""
","
","
","""event"",""trial"",""time""
""fullscreenenter"",""1"",""5508""
","
","","","-1","","","10","5329","243","w","elianto","#f73b6a7A","-1","-1","1","0","[]","0","2","","","5329","140","6","4","lose","no-go","0"
"pit-instructions","259","1598711","0.0-145.0","battery-v0.2","","""event"",""trial"",""time""
""fullscreenenter"",""1"",""5508""
","
","
","""event"",""trial"",""time""
""fullscreenenter"",""1"",""5508""
","
","","[{""page_index"":0,""viewing_time"":23795},{""page_index"":1,""viewing_time"":8712}]","32507","","","","","","","","","","","","","","","","","","","","","","","",""
"pit-trial","260","1603566","0.0-146.0","battery-v0.2","","""event"",""trial"",""time""
""fullscreenenter"",""1"",""5508""
","
","
","""event"",""trial"",""time""
""fullscreenenter"",""1"",""5508""
","
","","","-1","","","10","5329","243","r","elianto","#3366ff99","-1","-1","1","0","[3421]","1","3","","","5329","141","1","2","win","no-go","1"
"pit-trial","261","1608421","0.0-147.0","battery-v0.2","","""event"",""trial"",""time""
""fullscreenenter"",""1"",""5508""
","
","
","""event"",""trial"",""time""
""fullscreenenter"",""1"",""5508""
","
","","","-1","","","10","5329","243","m","elianto","#f73b6a7A"," ","-1","0","-10","[]","0","3","","","5329","142","0","3","lose","go","0"
"pit-trial","262","1613275","0.0-148.0","battery-v0.2","","""event"",""trial"",""time""
""fullscreenenter"",""1"",""5508""
","
","
","""event"",""trial"",""time""
""fullscreenenter"",""1"",""5508""
","
","","","-1","","","10","5329","243","h","elianto","#f73b6a7A","-1","-1","1","0","[]","0","3","","","5329","143","3","4","lose","no-go","0"
"pit-trial","263","1617681","0.0-149.0","battery-v0.2","","""event"",""trial"",""time""
""fullscreenenter"",""1"",""5508""
","
","
","""event"",""trial"",""time""
""fullscreenenter"",""1"",""5508""
","
","","","1552","","","10","5329","243","y","elianto","#f73b6a7A"," "," ","1","0","[2403]","1","3","","","5329","144","2","3","lose","go","0"
"pit-trial","264","1621905","0.0-150.0","battery-v0.2","","""event"",""trial"",""time""
""fullscreenenter"",""1"",""5508""
","
","
","""event"",""trial"",""time""
""fullscreenenter"",""1"",""5508""
","
","","","1371","","","10","5329","243","y","elianto","#f73b6a7A"," "," ","1","0","[2221]","1","3","","","5329","145","2","3","lose","go","0"
"pit-trial","265","1626081","0.0-151.0","battery-v0.2","","""event"",""trial"",""time""
""fullscreenenter"",""1"",""5508""
","
","
","""event"",""trial"",""time""
""fullscreenenter"",""1"",""5508""
","
","","","1322","","","10","5329","243","r","elianto","#3366ff99","-1"," ","0","0","[2173]","1","3","","","5329","146","1","2","win","no-go","0"
"pit-trial","266","1630934","0.0-152.0","battery-v0.2","","""event"",""trial"",""time""
""fullscreenenter"",""1"",""5508""
","
","
","""event"",""trial"",""time""
""fullscreenenter"",""1"",""5508""
","
","","","-1","","","10","5329","243","h","elianto","#f73b6a7A","-1","-1","1","0","[]","0","3","","","5329","147","3","4","lose","no-go","0"
"pit-trial","267","1635787","0.0-153.0","battery-v0.2","","""event"",""trial"",""time""
""fullscreenenter"",""1"",""5508""
","
","
","""event"",""trial"",""time""
""fullscreenenter"",""1"",""5508""
","
","","","-1","","","10","5329","243","m","elianto","#f73b6a7A"," ","-1","0","0","[]","0","3","","","5329","148","0","3","lose","go","1"
"pit-trial","268","1640640","0.0-154.0","battery-v0.2","","""event"",""trial"",""time""
""fullscreenenter"",""1"",""5508""
","
","
","""event"",""trial"",""time""
""fullscreenenter"",""1"",""5508""
","
","","","-1","","","10","5329","243","h","elianto","#f73b6a7A","-1","-1","1","-10","[4075]","1","3","","","5329","149","3","4","lose","no-go","1"
"pit-trial","269","1645495","0.0-155.0","battery-v0.2","","""event"",""trial"",""time""
""fullscreenenter"",""1"",""5508""
","
","
","""event"",""trial"",""time""
""fullscreenenter"",""1"",""5508""
","
","","","-1","","","10","5329","243","r","elianto","#3366ff99","-1","-1","1","+10","[]","0","3","","","5329","150","1","2","win","no-go","0"
"pit-trial","270","1650349","0.0-156.0","battery-v0.2","","""event"",""trial"",""time""
""fullscreenenter"",""1"",""5508""
","
","
","""event"",""trial"",""time""
""fullscreenenter"",""1"",""5508""
","
","","","-1","","","10","5329","243","y","elianto","#f73b6a7A"," ","-1","0","-10","[]","0","3","","","5329","151","2","3","lose","go","0"
"pit-trial","271","1655204","0.0-157.0","battery-v0.2","","""event"",""trial"",""time""
""fullscreenenter"",""1"",""5508""
","
","
","""event"",""trial"",""time""
""fullscreenenter"",""1"",""5508""
","
","","","-1","","","10","5329","243","m","elianto","#f73b6a7A"," ","-1","0","0","[]","0","3","","","5329","152","0","3","lose","go","1"
"pit-trial","272","1660058","0.0-158.0","battery-v0.2","","""event"",""trial"",""time""
""fullscreenenter"",""1"",""5508""
","
","
","""event"",""trial"",""time""
""fullscreenenter"",""1"",""5508""
","
","","","-1","","","10","5329","243","m","elianto","#f73b6a7A"," ","-1","0","-10","[834]","1","3","","","5329","153","0","3","lose","go","0"
"pit-trial","273","1664329","0.0-159.0","battery-v0.2","","""event"",""trial"",""time""
""fullscreenenter"",""1"",""5508""
","
","
","""event"",""trial"",""time""
""fullscreenenter"",""1"",""5508""
","
","","","1417","","","10","5329","243","h","elianto","#f73b6a7A","-1"," ","0","-10","[2267]","1","3","","","5329","154","3","4","lose","no-go","0"
"pit-trial","274","1667295","0.0-160.0","battery-v0.2","","""event"",""trial"",""time""
""fullscreenenter"",""1"",""5508""
","
","
","""event"",""trial"",""time""
""fullscreenenter"",""1"",""5508""
","
","","","112.00000000023283","","","10","5329","243","y","elianto","#f73b6a7A"," "," ","1","0","[963.0000000002328]","1","3","","","5329","155","2","3","lose","go","0"
"pit-trial","275","1672149","0.0-161.0","battery-v0.2","","""event"",""trial"",""time""
""fullscreenenter"",""1"",""5508""
","
","
","""event"",""trial"",""time""
""fullscreenenter"",""1"",""5508""
","
","","","-1","","","10","5329","243","r","elianto","#3366ff99","-1","-1","1","+10","[]","0","3","","","5329","156","1","2","win","no-go","0"
"pit-trial","276","1677004","0.0-162.0","battery-v0.2","","""event"",""trial"",""time""
