"trial_type","trial_index","time_elapsed","internal_node_id","task_version","subject_id","interactions","blur_events","focus_events","fullscreenenter_events","fullscreenexit_events","success","view_history","rt","responses","num_errors","age","subject","participantId","rune","rune_set","hex","correct","choice","accuracy","outcome","keys","total_keys","block","practice","value","sub","trial","stimulus","robot","valence","action","sham"
"pavlovia","0","11","0.0-0.0","battery-v0.2","","""event"",""trial"",""time""
""fullscreenenter"",""1"",""4742""
","
","
","""event"",""trial"",""time""
""fullscreenenter"",""1"",""4742""
","
","","","","","","","","","","","","","","","","","","","","","","","","","","",""
"fullscreen","1","5738","0.0-1.0","battery-v0.2","","""event"",""trial"",""time""
""fullscreenenter"",""1"",""4742""
","
","
","""event"",""trial"",""time""
""fullscreenenter"",""1"",""4742""
","
","true","","","","","","","","","","","","","","","","","","","","","","","","","",""
"pit-instructions","2","10698","0.0-2.0-0.0","battery-v0.2","","""event"",""trial"",""time""
""fullscreenenter"",""1"",""4742""
","
","
","""event"",""trial"",""time""
""fullscreenenter"",""1"",""4742""
","
","","[{""page_index"":0,""viewing_time"":4955.199999999255}]","4955.799999999814","","","","","","","","","","","","","","","","","","","","","","","",""
"pit-comprehension","3","15198","0.0-2.0-1.0-0.0","battery-v0.2","","""event"",""trial"",""time""
""fullscreenenter"",""1"",""4742""
","
","
","""event"",""trial"",""time""
""fullscreenenter"",""1"",""4742""
","
","","","4497.799999999814","[""shark""]","0","24","3964","226","","","","","","","","","","","","","","","","","","",""
"pit-instructions","4","16700","0.0-2.0-1.0-1.0","battery-v0.2","","""event"",""trial"",""time""
""fullscreenenter"",""1"",""4742""
","
","
","""event"",""trial"",""time""
""fullscreenenter"",""1"",""4742""
","
","","[{""page_index"":0,""viewing_time"":1494.0999999996275}]","1494.8999999994412","","","","","","","","","","","","","","","","","","","","","","","",""
"pit-comprehension","5","20131","0.0-2.0-2.0-0.0","battery-v0.2","","""event"",""trial"",""time""
""fullscreenenter"",""1"",""4742""
","
","
","""event"",""trial"",""time""
""fullscreenenter"",""1"",""4742""
","
","","","3427.5999999996275","[""tiger""]","0","24","3964","226","","","","","","","","","","","","","","","","","","",""
"pit-instructions","6","21349","0.0-2.0-2.0-1.0","battery-v0.2","","""event"",""trial"",""time""
""fullscreenenter"",""1"",""4742""
","
","
","""event"",""trial"",""time""
""fullscreenenter"",""1"",""4742""
","
","","[{""page_index"":0,""viewing_time"":1215.2999999998137}]","1215.9000000003725","","","","","","","","","","","","","","","","","","","","","","","",""
"pit-instructions","7","125968","0.0-2.0-3.0","battery-v0.2","","""event"",""trial"",""time""
""fullscreenenter"",""1"",""4742""
","
","
","""event"",""trial"",""time""
""fullscreenenter"",""1"",""4742""
","
","","[{""page_index"":0,""viewing_time"":9762.600000000559},{""page_index"":1,""viewing_time"":7400.5},{""page_index"":2,""viewing_time"":6635.299999999814},{""page_index"":3,""viewing_time"":6417},{""page_index"":4,""viewing_time"":6383.4000000003725},{""page_index"":5,""viewing_time"":6066.899999999441},{""page_index"":6,""viewing_time"":7550.600000000559},{""page_index"":7,""viewing_time"":7833.199999999255},{""page_index"":8,""viewing_time"":6050.800000000745},{""page_index"":9,""viewing_time"":7899.899999999441},{""page_index"":10,""viewing_time"":8565.600000000559},{""page_index"":11,""viewing_time"":8935.399999999441},{""page_index"":12,""viewing_time"":8015.4000000003725},{""page_index"":13,""viewing_time"":7102.200000000186}]","104619.90000000037","","","","","","","","","","","","","","","","","","","","","","","",""
"pit-trial","8","130254","0.0-2.0-4.0-0.0","battery-v0.2","","""event"",""trial"",""time""
""fullscreenenter"",""1"",""4742""
","
","
","""event"",""trial"",""time""
""fullscreenenter"",""1"",""4742""
","
","","","1424.3999999994412","","","24","3964","226","&#9784;","elianto","#FFFFF080"," "," ","1","&#10004","[2277.0999999996275]","1","0","0","","","","","","","",""
"pit-trial","9","134400","0.0-2.0-4.1-0.1","battery-v0.2","","""event"",""trial"",""time""
""fullscreenenter"",""1"",""4742""
","
","
","""event"",""trial"",""time""
""fullscreenenter"",""1"",""4742""
","
","","","1288.2999999998137","","","24","3964","226","&#9784;","elianto","#FFFFF080"," "," ","1","&#10004","[2139.5]","1","0","0","","","","","","","",""
"pit-trial","10","138345","0.0-2.0-4.2-0.2","battery-v0.2","","""event"",""trial"",""time""
""fullscreenenter"",""1"",""4742""
","
","
","""event"",""trial"",""time""
""fullscreenenter"",""1"",""4742""
","
","","","1087","","","24","3964","226","&#9784;","elianto","#FFFFF080"," "," ","1","&#10004","[1937.5999999996275]","1","0","0","","","","","","","",""
"pit-trial","11","142353","0.0-2.0-4.3-0.3","battery-v0.2","","""event"",""trial"",""time""
""fullscreenenter"",""1"",""4742""
","
","
","""event"",""trial"",""time""
""fullscreenenter"",""1"",""4742""
","
","","","1149.7999999998137","","","24","3964","226","&#9784;","elianto","#FFFFF080"," "," ","1","&#10004","[2000.5]","1","0","0","","","","","","","",""
"pit-trial","12","146004","0.0-2.0-4.4-0.4","battery-v0.2","","""event"",""trial"",""time""
""fullscreenenter"",""1"",""4742""
","
","
","""event"",""trial"",""time""
""fullscreenenter"",""1"",""4742""
","
","","","791.5","","","24","3964","226","&#9784;","elianto","#FFFFF080"," "," ","1","&#10004","[1644.2999999998137]","1","0","0","","","","","","","",""
"pit-instructions","13","169484","0.0-2.0-5.0","battery-v0.2","","""event"",""trial"",""time""
""fullscreenenter"",""1"",""4742""
","
","
","""event"",""trial"",""time""
""fullscreenenter"",""1"",""4742""
","
","","[{""page_index"":0,""viewing_time"":5907.299999999814},{""page_index"":1,""viewing_time"":6634},{""page_index"":2,""viewing_time"":5600.200000000186},{""page_index"":3,""viewing_time"":5333.100000000559}]","23475.799999999814","","","","","","","","","","","","","","","","","","","","","","","",""
"pit-trial","14","174344","0.0-2.0-6.0-0.0","battery-v0.2","","""event"",""trial"",""time""
""fullscreenenter"",""1"",""4742""
","
","
","""event"",""trial"",""time""
""fullscreenenter"",""1"",""4742""
","
","","","-1","","","24","3964","226","&#9854;","elianto","#FFFFF080","-1","-1","1","&#10004","[]","0","0","1","","","","","","","",""
"pit-trial","15","179208","0.0-2.0-6.1-0.1","battery-v0.2","","""event"",""trial"",""time""
""fullscreenenter"",""1"",""4742""
","
","
","""event"",""trial"",""time""
""fullscreenenter"",""1"",""4742""
","
","","","-1","","","24","3964","226","&#9854;","elianto","#FFFFF080","-1","-1","1","&#10004","[]","0","0","1","","","","","","","",""
"pit-trial","16","184068","0.0-2.0-6.2-0.2","battery-v0.2","","""event"",""trial"",""time""
""fullscreenenter"",""1"",""4742""
","
","
","""event"",""trial"",""time""
""fullscreenenter"",""1"",""4742""
","
","","","-1","","","24","3964","226","&#9854;","elianto","#FFFFF080","-1","-1","1","&#10004","[]","0","0","1","","","","","","","",""
"pit-trial","17","188930","0.0-2.0-6.3-0.3","battery-v0.2","","""event"",""trial"",""time""
""fullscreenenter"",""1"",""4742""
","
","
","""event"",""trial"",""time""
""fullscreenenter"",""1"",""4742""
","
","","","-1","","","24","3964","226","&#9854;","elianto","#FFFFF080","-1","-1","1","&#10004","[]","0","0","1","","","","","","","",""
"pit-trial","18","193794","0.0-2.0-6.4-0.4","battery-v0.2","","""event"",""trial"",""time""
""fullscreenenter"",""1"",""4742""
","
","
","""event"",""trial"",""time""
""fullscreenenter"",""1"",""4742""
","
","","","-1","","","24","3964","226","&#9854;","elianto","#FFFFF080","-1","-1","1","&#10004","[]","0","0","1","","","","","","","",""
"pit-instructions","19","320868","0.0-2.0-7.0","battery-v0.2","","""event"",""trial"",""time""
""fullscreenenter"",""1"",""4742""
","
","
","""event"",""trial"",""time""
""fullscreenenter"",""1"",""4742""
","
","","[{""page_index"":0,""viewing_time"":5900.200000000186},{""page_index"":1,""viewing_time"":8317.5},{""page_index"":2,""viewing_time"":7084.5},{""page_index"":3,""viewing_time"":6883.4000000003725},{""page_index"":4,""viewing_time"":6116.799999999814},{""page_index"":5,""viewing_time"":5833.899999999441},{""page_index"":6,""viewing_time"":5699.200000000186},{""page_index"":7,""viewing_time"":8167.299999999814},{""page_index"":8,""viewing_time"":7800.700000000186},{""page_index"":9,""viewing_time"":7000.4000000003725},{""page_index"":10,""viewing_time"":6983.299999999814},{""page_index"":11,""viewing_time"":5733.5999999996275},{""page_index"":12,""viewing_time"":7765.9000000003725},{""page_index"":13,""viewing_time"":8451.700000000186},{""page_index"":14,""viewing_time"":7933.5},{""page_index"":15,""viewing_time"":6884.5999999996275},{""page_index"":16,""viewing_time"":7099.5},{""page_index"":17,""viewing_time"":7416.700000000186}]","127073.70000000019","","","","","","","","","","","","","","","","","","","","","","","",""
"pit-trial","20","324743","0.0-2.0-8.0-0.0","battery-v0.2","","""event"",""trial"",""time""
""fullscreenenter"",""1"",""4742""
","
","
","""event"",""trial"",""time""
""fullscreenenter"",""1"",""4742""
","
","","","1009.5999999996275","","","24","3964","226","&#9776;","elianto","#3366ff99"," "," ","1","+10","[1860.2999999998137]","1","0","1","","","","","","","",""
"pit-trial","21","328296","0.0-2.0-8.0-1.0","battery-v0.2","","""event"",""trial"",""time""
""fullscreenenter"",""1"",""4742""
","
","
","""event"",""trial"",""time""
""fullscreenenter"",""1"",""4742""
","
","","","696.3999999994412","","","24","3964","226","&#9776;","elianto","#3366ff99"," "," ","1","+10","[1546.5999999996275]","1","0","1","","","","","","","",""
"pit-trial","22","331719","0.0-2.0-8.0-2.0","battery-v0.2","","""event"",""trial"",""time""
""fullscreenenter"",""1"",""4742""
","
","
","""event"",""trial"",""time""
""fullscreenenter"",""1"",""4742""
","
","","","566.9000000003725","","","24","3964","226","&#9776;","elianto","#3366ff99"," "," ","1","+10","[1417.1000000005588]","1","0","1","","","","","","","",""
"pit-trial","23","335434","0.0-2.0-8.0-3.0","battery-v0.2","","""event"",""trial"",""time""
""fullscreenenter"",""1"",""4742""
","
","
","""event"",""trial"",""time""
""fullscreenenter"",""1"",""4742""
","
","","","855.2000000001863","","","24","3964","226","&#9776;","elianto","#3366ff99"," "," ","1","0","[1707.0999999996275]","1","0","1","","","","","","","",""
"pit-trial","24","338848","0.0-2.0-8.0-4.0","battery-v0.2","","""event"",""trial"",""time""
""fullscreenenter"",""1"",""4742""
","
","
","""event"",""trial"",""time""
""fullscreenenter"",""1"",""4742""
","
","","","554.2000000001863","","","24","3964","226","&#9776;","elianto","#3366ff99"," "," ","1","+10","[1405.2999999998137]","1","0","1","","","","","","","",""
"pit-trial","25","342205","0.0-2.0-8.1-0.1","battery-v0.2","","""event"",""trial"",""time""
""fullscreenenter"",""1"",""4742""
","
","
","""event"",""trial"",""time""
""fullscreenenter"",""1"",""4742""
","
","","","497.79999999981374","","","24","3964","226","&#9776;","elianto","#3366ff99"," "," ","1","+10","[1349.9000000003725]","1","0","1","","","","","","","",""
"pit-trial","26","345584","0.0-2.0-8.1-1.1","battery-v0.2","","""event"",""trial"",""time""
""fullscreenenter"",""1"",""4742""
","
","
","""event"",""trial"",""time""
""fullscreenenter"",""1"",""4742""
","
","","","517.1000000005588","","","24","3964","226","&#9776;","elianto","#3366ff99"," "," ","1","+10","[1369.8999999994412]","1","0","1","","","","","","","",""
"pit-trial","27","348852","0.0-2.0-8.1-2.1","battery-v0.2","","""event"",""trial"",""time""
""fullscreenenter"",""1"",""4742""
","
","
","""event"",""trial"",""time""
""fullscreenenter"",""1"",""4742""
","
","","","407.40000000037253","","","24","3964","226","&#9776;","elianto","#3366ff99"," "," ","1","+10","[1258.5999999996275]","1","0","1","","","","","","","",""
"pit-trial","28","352166","0.0-2.0-8.1-3.1","battery-v0.2","","""event"",""trial"",""time""
""fullscreenenter"",""1"",""4742""
","
","
","""event"",""trial"",""time""
""fullscreenenter"",""1"",""4742""
","
","","","454.20000000018626","","","24","3964","226","&#9776;","elianto","#3366ff99"," "," ","1","0","[1305.6000000005588]","1","0","1","","","","","","","",""
"pit-trial","29","355434","0.0-2.0-8.1-4.1","battery-v0.2","","""event"",""trial"",""time""
""fullscreenenter"",""1"",""4742""
","
","
","""event"",""trial"",""time""
""fullscreenenter"",""1"",""4742""
","
","","","408.1000000005588","","","24","3964","226","&#9776;","elianto","#3366ff99"," "," ","1","+10","[1259.7000000001863]","1","0","1","","","","","","","",""
"pit-trial","30","358731","0.0-2.0-8.2-0.2","battery-v0.2","","""event"",""trial"",""time""
""fullscreenenter"",""1"",""4742""
","
","
","""event"",""trial"",""time""
""fullscreenenter"",""1"",""4742""
","
","","","434.79999999981374","","","24","3964","226","&#9776;","elianto","#3366ff99"," "," ","1","+10","[1287.300000000745]","1","0","1","","","","","","","",""
"pit-trial","31","361915","0.0-2.0-8.2-1.2","battery-v0.2","","""event"",""trial"",""time""
""fullscreenenter"",""1"",""4742""
","
","
","""event"",""trial"",""time""
""fullscreenenter"",""1"",""4742""
","
","","","323.5","","","24","3964","226","&#9776;","elianto","#3366ff99"," "," ","1","+10","[1174.2999999998137]","1","0","1","","","","","","","",""
"pit-trial","32","365129","0.0-2.0-8.2-2.2","battery-v0.2","","""event"",""trial"",""time""
""fullscreenenter"",""1"",""4742""
","
","
","""event"",""trial"",""time""
""fullscreenenter"",""1"",""4742""
","
","","","353.59999999962747","","","24","3964","226","&#9776;","elianto","#3366ff99"," "," ","1","+10","[1204]","1","0","1","","","","","","","",""
"pit-trial","33","368416","0.0-2.0-8.2-3.2","battery-v0.2","","""event"",""trial"",""time""
""fullscreenenter"",""1"",""4742""
","
","
","""event"",""trial"",""time""
""fullscreenenter"",""1"",""4742""
","
","","","429.90000000037253","","","24","3964","226","&#9776;","elianto","#3366ff99"," "," ","1","0","[1280.0999999996275]","1","0","1","","","","","","","",""
"pit-trial","34","371489","0.0-2.0-8.2-4.2","battery-v0.2","","""event"",""trial"",""time""
""fullscreenenter"",""1"",""4742""
","
","
","""event"",""trial"",""time""
""fullscreenenter"",""1"",""4742""
","
","","","215.79999999981374","","","24","3964","226","&#9776;","elianto","#3366ff99"," "," ","1","+10","[1066.8999999994412]","1","0","1","","","","","","","",""
"call-function","35","371493","0.0-2.0-9.0","battery-v0.2","","""event"",""trial"",""time""
""fullscreenenter"",""1"",""4742""
","
","
","""event"",""trial"",""time""
""fullscreenenter"",""1"",""4742""
","
","","","","","","","","","","","","","","","","","","","","","","","","","","",""
"pit-instructions","36","411218","0.0-2.0-10.0","battery-v0.2","","""event"",""trial"",""time""
""fullscreenenter"",""1"",""4742""
","
","
","""event"",""trial"",""time""
""fullscreenenter"",""1"",""4742""
","
","","[{""page_index"":0,""viewing_time"":5806.9000000003725},{""page_index"":1,""viewing_time"":7000.199999999255},{""page_index"":2,""viewing_time"":10050.200000000186},{""page_index"":3,""viewing_time"":9084.100000000559},{""page_index"":4,""viewing_time"":7782.899999999441}]","39725.5","","","","","","","","","","","","","","","","","","","","","","","",""
"pit-trial","37","416078","0.0-2.0-11.0-0.0","battery-v0.2","","""event"",""trial"",""time""
""fullscreenenter"",""1"",""4742""
","
","
","""event"",""trial"",""time""
""fullscreenenter"",""1"",""4742""
","
","","","-1","","","24","3964","226","&#9761;","elianto","#3366ff99","-1","-1","1","+10","[]","0","0","2","","","","","","","",""
"pit-trial","38","420941","0.0-2.0-11.0-1.0","battery-v0.2","","""event"",""trial"",""time""
""fullscreenenter"",""1"",""4742""
","
","
","""event"",""trial"",""time""
""fullscreenenter"",""1"",""4742""
","
","","","-1","","","24","3964","226","&#9761;","elianto","#3366ff99","-1","-1","1","+10","[]","0","0","2","","","","","","","",""
"pit-trial","39","425798","0.0-2.0-11.0-2.0","battery-v0.2","","""event"",""trial"",""time""
""fullscreenenter"",""1"",""4742""
","
","
","""event"",""trial"",""time""
""fullscreenenter"",""1"",""4742""
","
","","","-1","","","24","3964","226","&#9761;","elianto","#3366ff99","-1","-1","1","+10","[]","0","0","2","","","","","","","",""
"pit-trial","40","430659","0.0-2.0-11.0-3.0","battery-v0.2","","""event"",""trial"",""time""
""fullscreenenter"",""1"",""4742""
","
","
","""event"",""trial"",""time""
""fullscreenenter"",""1"",""4742""
","
","","","-1","","","24","3964","226","&#9761;","elianto","#3366ff99","-1","-1","1","0","[]","0","0","2","","","","","","","",""
"pit-trial","41","435518","0.0-2.0-11.0-4.0","battery-v0.2","","""event"",""trial"",""time""
""fullscreenenter"",""1"",""4742""
","
","
","""event"",""trial"",""time""
""fullscreenenter"",""1"",""4742""
","
","","","-1","","","24","3964","226","&#9761;","elianto","#3366ff99","-1","-1","1","+10","[]","0","0","2","","","","","","","",""
"pit-trial","42","440377","0.0-2.0-11.1-0.1","battery-v0.2","","""event"",""trial"",""time""
""fullscreenenter"",""1"",""4742""
","
","
","""event"",""trial"",""time""
""fullscreenenter"",""1"",""4742""
","
","","","-1","","","24","3964","226","&#9761;","elianto","#3366ff99","-1","-1","1","+10","[]","0","0","2","","","","","","","",""
"pit-trial","43","445239","0.0-2.0-11.1-1.1","battery-v0.2","","""event"",""trial"",""time""
""fullscreenenter"",""1"",""4742""
","
","
","""event"",""trial"",""time""
""fullscreenenter"",""1"",""4742""
","
","","","-1","","","24","3964","226","&#9761;","elianto","#3366ff99","-1","-1","1","+10","[]","0","0","2","","","","","","","",""
"pit-trial","44","450101","0.0-2.0-11.1-2.1","battery-v0.2","","""event"",""trial"",""time""
""fullscreenenter"",""1"",""4742""
","
","
","""event"",""trial"",""time""
""fullscreenenter"",""1"",""4742""
","
","","","-1","","","24","3964","226","&#9761;","elianto","#3366ff99","-1","-1","1","+10","[]","0","0","2","","","","","","","",""
"pit-trial","45","454961","0.0-2.0-11.1-3.1","battery-v0.2","","""event"",""trial"",""time""
""fullscreenenter"",""1"",""4742""
","
","
","""event"",""trial"",""time""
""fullscreenenter"",""1"",""4742""
","
","","","-1","","","24","3964","226","&#9761;","elianto","#3366ff99","-1","-1","1","0","[]","0","0","2","","","","","","","",""
"pit-trial","46","459824","0.0-2.0-11.1-4.1","battery-v0.2","","""event"",""trial"",""time""
""fullscreenenter"",""1"",""4742""
","
","
","""event"",""trial"",""time""
""fullscreenenter"",""1"",""4742""
","
","","","-1","","","24","3964","226","&#9761;","elianto","#3366ff99","-1","-1","1","+10","[]","0","0","2","","","","","","","",""
"pit-trial","47","464685","0.0-2.0-11.2-0.2","battery-v0.2","","""event"",""trial"",""time""
""fullscreenenter"",""1"",""4742""
","
","
","""event"",""trial"",""time""
""fullscreenenter"",""1"",""4742""
","
","","","-1","","","24","3964","226","&#9761;","elianto","#3366ff99","-1","-1","1","+10","[]","0","0","2","","","","","","","",""
"pit-trial","48","469546","0.0-2.0-11.2-1.2","battery-v0.2","","""event"",""trial"",""time""
""fullscreenenter"",""1"",""4742""
","
","
","""event"",""trial"",""time""
""fullscreenenter"",""1"",""4742""
","
","","","-1","","","24","3964","226","&#9761;","elianto","#3366ff99","-1","-1","1","+10","[]","0","0","2","","","","","","","",""
"pit-trial","49","474404","0.0-2.0-11.2-2.2","battery-v0.2","","""event"",""trial"",""time""
""fullscreenenter"",""1"",""4742""
","
","
","""event"",""trial"",""time""
""fullscreenenter"",""1"",""4742""
","
","","","-1","","","24","3964","226","&#9761;","elianto","#3366ff99","-1","-1","1","+10","[]","0","0","2","","","","","","","",""
"pit-trial","50","479268","0.0-2.0-11.2-3.2","battery-v0.2","","""event"",""trial"",""time""
""fullscreenenter"",""1"",""4742""
","
","
","""event"",""trial"",""time""
""fullscreenenter"",""1"",""4742""
","
","","","-1","","","24","3964","226","&#9761;","elianto","#3366ff99","-1","-1","1","0","[]","0","0","2","","","","","","","",""
"pit-trial","51","484128","0.0-2.0-11.2-4.2","battery-v0.2","","""event"",""trial"",""time""
""fullscreenenter"",""1"",""4742""
","
","
","""event"",""trial"",""time""
""fullscreenenter"",""1"",""4742""
","
","","","-1","","","24","3964","226","&#9761;","elianto","#3366ff99","-1","-1","1","+10","[]","0","0","2","","","","","","","",""
"pit-trial","52","488992","0.0-2.0-11.3-0.3","battery-v0.2","","""event"",""trial"",""time""
""fullscreenenter"",""1"",""4742""
","
","
","""event"",""trial"",""time""
""fullscreenenter"",""1"",""4742""
","
","","","-1","","","24","3964","226","&#9761;","elianto","#3366ff99","-1","-1","1","+10","[]","0","0","2","","","","","","","",""
"pit-trial","53","493854","0.0-2.0-11.3-1.3","battery-v0.2","","""event"",""trial"",""time""
""fullscreenenter"",""1"",""4742""
","
","
","""event"",""trial"",""time""
""fullscreenenter"",""1"",""4742""
","
","","","-1","","","24","3964","226","&#9761;","elianto","#3366ff99","-1","-1","1","+10","[]","0","0","2","","","","","","","",""
"pit-trial","54","498718","0.0-2.0-11.3-2.3","battery-v0.2","","""event"",""trial"",""time""
""fullscreenenter"",""1"",""4742""
","
","
","""event"",""trial"",""time""
""fullscreenenter"",""1"",""4742""
","
","","","-1","","","24","3964","226","&#9761;","elianto","#3366ff99","-1","-1","1","+10","[]","0","0","2","","","","","","","",""
"pit-trial","55","503581","0.0-2.0-11.3-3.3","battery-v0.2","","""event"",""trial"",""time""
""fullscreenenter"",""1"",""4742""
","
","
","""event"",""trial"",""time""
""fullscreenenter"",""1"",""4742""
","
","","","-1","","","24","3964","226","&#9761;","elianto","#3366ff99","-1","-1","1","0","[]","0","0","2","","","","","","","",""
"pit-trial","56","508444","0.0-2.0-11.3-4.3","battery-v0.2","","""event"",""trial"",""time""
""fullscreenenter"",""1"",""4742""
","
","
","""event"",""trial"",""time""
""fullscreenenter"",""1"",""4742""
","
","","","-1","","","24","3964","226","&#9761;","elianto","#3366ff99","-1","-1","1","+10","[]","0","0","2","","","","","","","",""
"call-function","57","508447","0.0-2.0-12.0","battery-v0.2","","""event"",""trial"",""time""
""fullscreenenter"",""1"",""4742""
","
","
","""event"",""trial"",""time""
""fullscreenenter"",""1"",""4742""
","
","","","","","","","","","","","","","","","","","","","","","","","","","","",""
"pit-instructions","58","551920","0.0-2.0-13.0","battery-v0.2","","""event"",""trial"",""time""
""fullscreenenter"",""1"",""4742""
","
","
","""event"",""trial"",""time""
""fullscreenenter"",""1"",""4742""
","
","","[{""page_index"":0,""viewing_time"":14437.399999999441},{""page_index"":1,""viewing_time"":8150.5},{""page_index"":2,""viewing_time"":5466.4000000003725},{""page_index"":3,""viewing_time"":10467.5},{""page_index"":4,""viewing_time"":4951.0999999996275}]","43474.09999999963","","","","","","","","","","","","","","","","","","","","","","","",""
"pit-trial","59","556031","0.0-2.0-14.0-0.0","battery-v0.2","","""event"",""trial"",""time""
""fullscreenenter"",""1"",""4742""
","
","
","""event"",""trial"",""time""
""fullscreenenter"",""1"",""4742""
","
","","","1251.0999999996275","","","24","3964","226","&#9826;","elianto","#f73b6a7A","-1"," ","0","-10","[2103.0999999996275]","1","0","3","","","","","","","",""
"pit-trial","60","560894","0.0-2.0-14.0-1.0","battery-v0.2","","""event"",""trial"",""time""
""fullscreenenter"",""1"",""4742""
","
","
","""event"",""trial"",""time""
""fullscreenenter"",""1"",""4742""
","
","","","-1","","","24","3964","226","&#9826;","elianto","#f73b6a7A","-1","-1","1","0","[]","0","0","3","","","","","","","",""
"pit-trial","61","565753","0.0-2.0-14.0-2.0","battery-v0.2","","""event"",""trial"",""time""
""fullscreenenter"",""1"",""4742""
","
","
","""event"",""trial"",""time""
""fullscreenenter"",""1"",""4742""
","
","","","-1","","","24","3964","226","&#9826;","elianto","#f73b6a7A","-1","-1","1","0","[]","0","0","3","","","","","","","",""
"pit-trial","62","570617","0.0-2.0-14.0-3.0","battery-v0.2","","""event"",""trial"",""time""
""fullscreenenter"",""1"",""4742""
","
","
","""event"",""trial"",""time""
""fullscreenenter"",""1"",""4742""
","
","","","-1","","","24","3964","226","&#9826;","elianto","#f73b6a7A","-1","-1","1","-10","[]","0","0","3","","","","","","","",""
"pit-trial","63","575478","0.0-2.0-14.0-4.0","battery-v0.2","","""event"",""trial"",""time""
""fullscreenenter"",""1"",""4742""
","
","
","""event"",""trial"",""time""
""fullscreenenter"",""1"",""4742""
","
","","","-1","","","24","3964","226","&#9826;","elianto","#f73b6a7A","-1","-1","1","0","[]","0","0","3","","","","","","","",""
"pit-trial","64","580341","0.0-2.0-14.1-0.1","battery-v0.2","","""event"",""trial"",""time""
""fullscreenenter"",""1"",""4742""
","
","
","""event"",""trial"",""time""
""fullscreenenter"",""1"",""4742""
","
","","","-1","","","24","3964","226","&#9826;","elianto","#f73b6a7A","-1","-1","1","0","[]","0","0","3","","","","","","","",""
"pit-trial","65","585203","0.0-2.0-14.1-1.1","battery-v0.2","","""event"",""trial"",""time""
""fullscreenenter"",""1"",""4742""
","
","
","""event"",""trial"",""time""
""fullscreenenter"",""1"",""4742""
","
","","","-1","","","24","3964","226","&#9826;","elianto","#f73b6a7A","-1","-1","1","0","[]","0","0","3","","","","","","","",""
"pit-trial","66","590061","0.0-2.0-14.1-2.1","battery-v0.2","","""event"",""trial"",""time""
""fullscreenenter"",""1"",""4742""
","
","
","""event"",""trial"",""time""
""fullscreenenter"",""1"",""4742""
","
","","","-1","","","24","3964","226","&#9826;","elianto","#f73b6a7A","-1","-1","1","0","[]","0","0","3","","","","","","","",""
"pit-trial","67","594920","0.0-2.0-14.1-3.1","battery-v0.2","","""event"",""trial"",""time""
""fullscreenenter"",""1"",""4742""
","
","
","""event"",""trial"",""time""
""fullscreenenter"",""1"",""4742""
","
","","","-1","","","24","3964","226","&#9826;","elianto","#f73b6a7A","-1","-1","1","-10","[]","0","0","3","","","","","","","",""
"pit-trial","68","599782","0.0-2.0-14.1-4.1","battery-v0.2","","""event"",""trial"",""time""
""fullscreenenter"",""1"",""4742""
","
","
","""event"",""trial"",""time""
""fullscreenenter"",""1"",""4742""
","
","","","-1","","","24","3964","226","&#9826;","elianto","#f73b6a7A","-1","-1","1","0","[]","0","0","3","","","","","","","",""
"pit-trial","69","604642","0.0-2.0-14.2-0.2","battery-v0.2","","""event"",""trial"",""time""
""fullscreenenter"",""1"",""4742""
","
","
","""event"",""trial"",""time""
""fullscreenenter"",""1"",""4742""
","
","","","-1","","","24","3964","226","&#9826;","elianto","#f73b6a7A","-1","-1","1","0","[]","0","0","3","","","","","","","",""
"pit-trial","70","609501","0.0-2.0-14.2-1.2","battery-v0.2","","""event"",""trial"",""time""
""fullscreenenter"",""1"",""4742""
","
","
","""event"",""trial"",""time""
""fullscreenenter"",""1"",""4742""
","
","","","-1","","","24","3964","226","&#9826;","elianto","#f73b6a7A","-1","-1","1","0","[]","0","0","3","","","","","","","",""
"pit-trial","71","614362","0.0-2.0-14.2-2.2","battery-v0.2","","""event"",""trial"",""time""
""fullscreenenter"",""1"",""4742""
","
","
","""event"",""trial"",""time""
""fullscreenenter"",""1"",""4742""
","
","","","-1","","","24","3964","226","&#9826;","elianto","#f73b6a7A","-1","-1","1","0","[]","0","0","3","","","","","","","",""
"pit-trial","72","619223","0.0-2.0-14.2-3.2","battery-v0.2","","""event"",""trial"",""time""
""fullscreenenter"",""1"",""4742""
","
","
","""event"",""trial"",""time""
""fullscreenenter"",""1"",""4742""
","
","","","-1","","","24","3964","226","&#9826;","elianto","#f73b6a7A","-1","-1","1","-10","[]","0","0","3","","","","","","","",""
"pit-trial","73","624087","0.0-2.0-14.2-4.2","battery-v0.2","","""event"",""trial"",""time""
""fullscreenenter"",""1"",""4742""
","
","
","""event"",""trial"",""time""
""fullscreenenter"",""1"",""4742""
","
","","","-1","","","24","3964","226","&#9826;","elianto","#f73b6a7A","-1","-1","1","0","[]","0","0","3","","","","","","","",""
"pit-trial","74","628951","0.0-2.0-14.3-0.3","battery-v0.2","","""event"",""trial"",""time""
""fullscreenenter"",""1"",""4742""
","
","
","""event"",""trial"",""time""
""fullscreenenter"",""1"",""4742""
","
","","","-1","","","24","3964","226","&#9826;","elianto","#f73b6a7A","-1","-1","1","0","[]","0","0","3","","","","","","","",""
"pit-trial","75","633813","0.0-2.0-14.3-1.3","battery-v0.2","","""event"",""trial"",""time""
""fullscreenenter"",""1"",""4742""
","
","
","""event"",""trial"",""time""
""fullscreenenter"",""1"",""4742""
","
","","","-1","","","24","3964","226","&#9826;","elianto","#f73b6a7A","-1","-1","1","0","[]","0","0","3","","","","","","","",""
"pit-trial","76","638673","0.0-2.0-14.3-2.3","battery-v0.2","","""event"",""trial"",""time""
""fullscreenenter"",""1"",""4742""
","
","
","""event"",""trial"",""time""
""fullscreenenter"",""1"",""4742""
","
","","","-1","","","24","3964","226","&#9826;","elianto","#f73b6a7A","-1","-1","1","0","[]","0","0","3","","","","","","","",""
"pit-trial","77","643537","0.0-2.0-14.3-3.3","battery-v0.2","","""event"",""trial"",""time""
""fullscreenenter"",""1"",""4742""
","
","
","""event"",""trial"",""time""
""fullscreenenter"",""1"",""4742""
","
","","","-1","","","24","3964","226","&#9826;","elianto","#f73b6a7A","-1","-1","1","-10","[]","0","0","3","","","","","","","",""
"pit-trial","78","648396","0.0-2.0-14.3-4.3","battery-v0.2","","""event"",""trial"",""time""
""fullscreenenter"",""1"",""4742""
","
","
","""event"",""trial"",""time""
""fullscreenenter"",""1"",""4742""
","
","","","-1","","","24","3964","226","&#9826;","elianto","#f73b6a7A","-1","-1","1","0","[]","0","0","3","","","","","","","",""
"call-function","79","648400","0.0-2.0-15.0","battery-v0.2","","""event"",""trial"",""time""
""fullscreenenter"",""1"",""4742""
","
","
","""event"",""trial"",""time""
""fullscreenenter"",""1"",""4742""
","
","","","","","","","","","","","","","","","","","","","","","","","","","","",""
"pit-instructions","80","677103","0.0-2.0-16.0","battery-v0.2","","""event"",""trial"",""time""
""fullscreenenter"",""1"",""4742""
","
","
","""event"",""trial"",""time""
""fullscreenenter"",""1"",""4742""
","
","","[{""page_index"":0,""viewing_time"":9867.5},{""page_index"":1,""viewing_time"":8200},{""page_index"":2,""viewing_time"":5500.299999999814},{""page_index"":3,""viewing_time"":5133.700000000186}]","28702.700000000186","","","","","","","","","","","","","","","","","","","","","","","",""
"pit-trial","81","680415","0.0-2.0-17.0-0.0","battery-v0.2","","""event"",""trial"",""time""
""fullscreenenter"",""1"",""4742""
","
","
","""event"",""trial"",""time""
""fullscreenenter"",""1"",""4742""
","
","","","453.5","","","24","3964","226","&#9789;","elianto","#f73b6a7A"," "," ","1","0","[1304]","1","0","4","","","","","","","",""
"pit-trial","82","685276","0.0-2.0-17.0-1.0","battery-v0.2","","""event"",""trial"",""time""
""fullscreenenter"",""1"",""4742""
","
","
","""event"",""trial"",""time""
""fullscreenenter"",""1"",""4742""
","
","","","-1","","","24","3964","226","&#9789;","elianto","#f73b6a7A"," ","-1","0","-10","[]","0","0","4","","","","","","","",""
"pit-trial","83","688440","0.0-2.0-17.0-2.0","battery-v0.2","","""event"",""trial"",""time""
""fullscreenenter"",""1"",""4742""
","
","
","""event"",""trial"",""time""
""fullscreenenter"",""1"",""4742""
","
","","","305.19999999925494","","","24","3964","226","&#9789;","elianto","#f73b6a7A"," "," ","1","0","[1157.2999999998137]","1","0","4","","","","","","","",""
"pit-trial","84","691654","0.0-2.0-17.0-3.0","battery-v0.2","","""event"",""trial"",""time""
""fullscreenenter"",""1"",""4742""
","
","
","""event"",""trial"",""time""
""fullscreenenter"",""1"",""4742""
","
","","","353.5","","","24","3964","226","&#9789;","elianto","#f73b6a7A"," "," ","1","-10","[1206]","1","0","4","","","","","","","",""
"pit-trial","85","694741","0.0-2.0-17.0-4.0","battery-v0.2","","""event"",""trial"",""time""
""fullscreenenter"",""1"",""4742""
","
","
","""event"",""trial"",""time""
""fullscreenenter"",""1"",""4742""
","
","","","227.70000000018626","","","24","3964","226","&#9789;","elianto","#f73b6a7A"," "," ","1","0","[1078.5999999996275]","1","0","4","","","","","","","",""
"pit-trial","86","697754","0.0-2.0-17.1-0.1","battery-v0.2","","""event"",""trial"",""time""
""fullscreenenter"",""1"",""4742""
","
","
","""event"",""trial"",""time""
""fullscreenenter"",""1"",""4742""
","
","","","152.40000000037253","","","24","3964","226","&#9789;","elianto","#f73b6a7A"," "," ","1","0","[1004.5999999996275]","1","0","4","","","","","","","",""
"pit-trial","87","700807","0.0-2.0-17.1-1.1","battery-v0.2","","""event"",""trial"",""time""
""fullscreenenter"",""1"",""4742""
","
","
","""event"",""trial"",""time""
""fullscreenenter"",""1"",""4742""
","
","","","193.30000000074506","","","24","3964","226","&#9789;","elianto","#f73b6a7A"," "," ","1","0","[1044]","1","0","4","","","","","","","",""
"pit-trial","88","703898","0.0-2.0-17.1-2.1","battery-v0.2","","""event"",""trial"",""time""
""fullscreenenter"",""1"",""4742""
","
","
","""event"",""trial"",""time""
""fullscreenenter"",""1"",""4742""
","
","","","230.09999999962747","","","24","3964","226","&#9789;","elianto","#f73b6a7A"," "," ","1","0","[1082.2999999998137]","1","0","4","","","","","","","",""
"pit-trial","89","706980","0.0-2.0-17.1-3.1","battery-v0.2","","""event"",""trial"",""time""
""fullscreenenter"",""1"",""4742""
","
","
","""event"",""trial"",""time""
""fullscreenenter"",""1"",""4742""
","
","","","220.79999999981374","","","24","3964","226","&#9789;","elianto","#f73b6a7A"," "," ","1","-10","[1071.7999999998137]","1","0","4","","","","","","","",""
"pit-trial","90","709878","0.0-2.0-17.1-4.1","battery-v0.2","","""event"",""trial"",""time""
""fullscreenenter"",""1"",""4742""
","
","
","""event"",""trial"",""time""
""fullscreenenter"",""1"",""4742""
","
","","","42.299999999813735","","","24","3964","226","&#9789;","elianto","#f73b6a7A"," "," ","1","0","[892.7999999998137]","1","0","4","","","","","","","",""
"pit-trial","91","712790","0.0-2.0-17.2-0.2","battery-v0.2","","""event"",""trial"",""time""
""fullscreenenter"",""1"",""4742""
","
","
","""event"",""trial"",""time""
""fullscreenenter"",""1"",""4742""
","
","","","51.09999999962747","","","24","3964","226","&#9789;","elianto","#f73b6a7A"," "," ","1","0","[901.7000000001863]","1","0","4","","","","","","","",""
"pit-trial","92","715856","0.0-2.0-17.2-1.2","battery-v0.2","","""event"",""trial"",""time""
""fullscreenenter"",""1"",""4742""
","
","
","""event"",""trial"",""time""
""fullscreenenter"",""1"",""4742""
","
","","","207.69999999925494","","","24","3964","226","&#9789;","elianto","#f73b6a7A"," "," ","1","0","[1060]","1","0","4","","","","","","","",""
"pit-trial","93","718848","0.0-2.0-17.2-2.2","battery-v0.2","","""event"",""trial"",""time""
""fullscreenenter"",""1"",""4742""
","
","
","""event"",""trial"",""time""
""fullscreenenter"",""1"",""4742""
","
","","","134.29999999981374","","","24","3964","226","&#9789;","elianto","#f73b6a7A"," "," ","1","0","[985.3999999994412]","1","0","4","","","","","","","",""
"pit-trial","94","721872","0.0-2.0-17.2-3.2","battery-v0.2","","""event"",""trial"",""time""
""fullscreenenter"",""1"",""4742""
","
","
","""event"",""trial"",""time""
""fullscreenenter"",""1"",""4742""
","
","","","165.70000000018626","","","24","3964","226","&#9789;","elianto","#f73b6a7A"," "," ","1","-10","[1016.7000000001863]","1","0","4","","","","","","","",""
"pit-trial","95","724917","0.0-2.0-17.2-4.2","battery-v0.2","","""event"",""trial"",""time""
""fullscreenenter"",""1"",""4742""
","
","
","""event"",""trial"",""time""
""fullscreenenter"",""1"",""4742""
","
","","","185.29999999981374","","","24","3964","226","&#9789;","elianto","#f73b6a7A"," "," ","1","0","[1038.0999999996275]","1","0","4","","","","","","","",""
"pit-trial","96","727955","0.0-2.0-17.3-0.3","battery-v0.2","","""event"",""trial"",""time""
""fullscreenenter"",""1"",""4742""
","
","
","""event"",""trial"",""time""
""fullscreenenter"",""1"",""4742""
","
","","","178.3999999994412","","","24","3964","226","&#9789;","elianto","#f73b6a7A"," "," ","1","0","[1030.2999999998137]","1","0","4","","","","","","","",""
"pit-trial","97","731324","0.0-2.0-17.3-1.3","battery-v0.2","","""event"",""trial"",""time""
""fullscreenenter"",""1"",""4742""
","
","
","""event"",""trial"",""time""
""fullscreenenter"",""1"",""4742""
","
","","","510.59999999962747","","","24","3964","226","&#9789;","elianto","#f73b6a7A"," "," ","1","0","[1362.9000000003725]","1","0","4","","","","","","","",""
"pit-trial","98","734652","0.0-2.0-17.3-2.3","battery-v0.2","","""event"",""trial"",""time""
""fullscreenenter"",""1"",""4742""
","
","
","""event"",""trial"",""time""
""fullscreenenter"",""1"",""4742""
","
","","","469.59999999962747","","","24","3964","226","&#9789;","elianto","#f73b6a7A"," "," ","1","0","[1321.5]","1","0","4","","","","","","","",""
"pit-trial","99","737764","0.0-2.0-17.3-3.3","battery-v0.2","","""event"",""trial"",""time""
""fullscreenenter"",""1"",""4742""
","
","
","""event"",""trial"",""time""
""fullscreenenter"",""1"",""4742""
","
","","","254.29999999981374","","","24","3964","226","&#9789;","elianto","#f73b6a7A"," "," ","1","-10","[1105.7000000001863]","1","0","4","","","","","","","",""
"pit-trial","100","740871","0.0-2.0-17.3-4.3","battery-v0.2","","""event"",""trial"",""time""
""fullscreenenter"",""1"",""4742""
","
","
","""event"",""trial"",""time""
""fullscreenenter"",""1"",""4742""
","
","","","250.59999999962747","","","24","3964","226","&#9789;","elianto","#f73b6a7A"," "," ","1","0","[1100.5999999996275]","1","0","4","","","","","","","",""
"call-function","101","740876","0.0-2.0-18.0","battery-v0.2","","""event"",""trial"",""time""
""fullscreenenter"",""1"",""4742""
","
","
","""event"",""trial"",""time""
""fullscreenenter"",""1"",""4742""
","
","","","","","","","","","","","","","","","","","","","","","","","","","","",""
"pit-instructions","102","816687","0.0-2.0-19.0","battery-v0.2","","""event"",""trial"",""time""
""fullscreenenter"",""1"",""4742""
","
","
","""event"",""trial"",""time""
""fullscreenenter"",""1"",""4742""
","
","","[{""page_index"":0,""viewing_time"":6609},{""page_index"":1,""viewing_time"":7184.0999999996275},{""page_index"":2,""viewing_time"":14217.099999999627},{""page_index"":3,""viewing_time"":9016.300000000745},{""page_index"":4,""viewing_time"":9417.5},{""page_index"":5,""viewing_time"":8450.299999999814},{""page_index"":6,""viewing_time"":9300.700000000186},{""page_index"":7,""viewing_time"":7100.5999999996275},{""page_index"":8,""viewing_time"":4516.4000000003725}]","75813.19999999925","","","","","","","","","","","","","","","","","","","","","","","",""
"pit-comprehension","103","821851","0.0-2.0-20.0-0.0","battery-v0.2","","""event"",""trial"",""time""
""fullscreenenter"",""1"",""4742""
","
","
","""event"",""trial"",""time""
""fullscreenenter"",""1"",""4742""
","
","","","5158.100000000559","[""SPACE""]","0","24","3964","226","","","","","","","","","","","","","","","","","","",""
"pit-instructions","104","824485","0.0-2.0-20.0-1.0","battery-v0.2","","""event"",""trial"",""time""
""fullscreenenter"",""1"",""4742""
","
","
","""event"",""trial"",""time""
""fullscreenenter"",""1"",""4742""
","
","","[{""page_index"":0,""viewing_time"":2612.9000000003725}]","2613.2000000001863","","","","","","","","","","","","","","","","","","","","","","","",""
"pit-comprehension","105","830687","0.0-2.0-21.0-0.0","battery-v0.2","","""event"",""trial"",""time""
""fullscreenenter"",""1"",""4742""
","
","
","""event"",""trial"",""time""
""fullscreenenter"",""1"",""4742""
","
","","","6199.200000000186","[""10""]","0","24","3964","226","","","","","","","","","","","","","","","","","","",""
"pit-instructions","106","834067","0.0-2.0-21.0-1.0","battery-v0.2","","""event"",""trial"",""time""
""fullscreenenter"",""1"",""4742""
","
","
","""event"",""trial"",""time""
""fullscreenenter"",""1"",""4742""
","
","","[{""page_index"":0,""viewing_time"":3352.0999999996275}]","3352.2999999998137","","","","","","","","","","","","","","","","","","","","","","","",""
"pit-comprehension","107","841952","0.0-2.0-22.0-0.0","battery-v0.2","","""event"",""trial"",""time""
""fullscreenenter"",""1"",""4742""
","
","
","""event"",""trial"",""time""
""fullscreenenter"",""1"",""4742""
","
","","","7882.5","[""0""]","0","24","3964","226","","","","","","","","","","","","","","","","","","",""
"pit-instructions","108","845988","0.0-2.0-22.0-1.0","battery-v0.2","","""event"",""trial"",""time""
""fullscreenenter"",""1"",""4742""
","
","
","""event"",""trial"",""time""
""fullscreenenter"",""1"",""4742""
","
","","[{""page_index"":0,""viewing_time"":4012.699999999255}]","4013.5","","","","","","","","","","","","","","","","","","","","","","","",""
"pit-comprehension","109","856435","0.0-2.0-23.0-0.0","battery-v0.2","","""event"",""trial"",""time""
""fullscreenenter"",""1"",""4742""
","
","
","""event"",""trial"",""time""
""fullscreenenter"",""1"",""4742""
","
","","","10442.700000000186","[""True""]","0","24","3964","226","","","","","","","","","","","","","","","","","","",""
"pit-instructions","110","858820","0.0-2.0-23.0-1.0","battery-v0.2","","""event"",""trial"",""time""
""fullscreenenter"",""1"",""4742""
","
","
","""event"",""trial"",""time""
""fullscreenenter"",""1"",""4742""
","
","","[{""page_index"":0,""viewing_time"":2361.2999999998137}]","2361.9000000003725","","","","","","","","","","","","","","","","","","","","","","","",""
"pit-comprehension","111","866404","0.0-2.0-24.0-0.0","battery-v0.2","","""event"",""trial"",""time""
""fullscreenenter"",""1"",""4742""
","
","
","""event"",""trial"",""time""
""fullscreenenter"",""1"",""4742""
","
","","","7580.899999999441","[""True""]","0","24","3964","226","","","","","","","","","","","","","","","","","","",""
"pit-instructions","112","868537","0.0-2.0-24.0-1.0","battery-v0.2","","""event"",""trial"",""time""
""fullscreenenter"",""1"",""4742""
","
","
","""event"",""trial"",""time""
""fullscreenenter"",""1"",""4742""
","
","","[{""page_index"":0,""viewing_time"":2105.9000000003725}]","2106.5999999996275","","","","","","","","","","","","","","","","","","","","","","","",""
"pit-comprehension","113","875087","0.0-2.0-25.0-0.0","battery-v0.2","","""event"",""trial"",""time""
""fullscreenenter"",""1"",""4742""
","
","
","""event"",""trial"",""time""
""fullscreenenter"",""1"",""4742""
","
","","","6545.399999999441","[""True""]","0","24","3964","226","","","","","","","","","","","","","","","","","","",""
"pit-instructions","114","877418","0.0-2.0-25.0-1.0","battery-v0.2","","""event"",""trial"",""time""
""fullscreenenter"",""1"",""4742""
","
","
","""event"",""trial"",""time""
""fullscreenenter"",""1"",""4742""
","
","","[{""page_index"":0,""viewing_time"":2304}]","2304.2000000001863","","","","","","","","","","","","","","","","","","","","","","","",""
"pit-comprehension","115","883518","0.0-2.0-26.0-0.0","battery-v0.2","","""event"",""trial"",""time""
""fullscreenenter"",""1"",""4742""
","
","
","""event"",""trial"",""time""
""fullscreenenter"",""1"",""4742""
","
","","","6099.0999999996275","[""False""]","0","24","3964","226","","","","","","","","","","","","","","","","","","",""
"pit-instructions","116","885885","0.0-2.0-26.0-1.0","battery-v0.2","","""event"",""trial"",""time""
""fullscreenenter"",""1"",""4742""
","
","
","""event"",""trial"",""time""
""fullscreenenter"",""1"",""4742""
","
","","[{""page_index"":0,""viewing_time"":2342.5}]","2342.899999999441","","","","","","","","","","","","","","","","","","","","","","","",""
"pit-instructions","117","903120","0.0-3.0","battery-v0.2","","""event"",""trial"",""time""
""fullscreenenter"",""1"",""4742""
","
","
","""event"",""trial"",""time""
""fullscreenenter"",""1"",""4742""
","
","","[{""page_index"":0,""viewing_time"":4032.5999999996275},{""page_index"":1,""viewing_time"":5350.800000000745},{""page_index"":2,""viewing_time"":7850.299999999814}]","17234.5","","","","","","","","","","","","","","","","","","","","","","","",""
"pit-trial","118","907233","0.0-4.0","battery-v0.2","","""event"",""trial"",""time""
""fullscreenenter"",""1"",""4742""
","
","
","""event"",""trial"",""time""
""fullscreenenter"",""1"",""4742""
","
","","","1249.9000000003725","","","24","3964","226","&#9728;","elianto","#f73b6a7A","-1"," ","0","0","[2102.100000000559]","1","1","","","3964","1","0","4","lose","no-go","1"
"pit-trial","119","911364","0.0-5.0","battery-v0.2","","""event"",""trial"",""time""
""fullscreenenter"",""1"",""4742""
","
","
","""event"",""trial"",""time""
""fullscreenenter"",""1"",""4742""
","
","","","1275","","","24","3964","226","&#9752;","elianto","#f73b6a7A"," "," ","1","-10","[2125.5]","1","1","","","3964","2","3","3","lose","go","1"
"pit-trial","120","915135","0.0-6.0","battery-v0.2","","""event"",""trial"",""time""
""fullscreenenter"",""1"",""4742""
","
","
","""event"",""trial"",""time""
""fullscreenenter"",""1"",""4742""
","
","","","912.7000000001863","","","24","3964","226","&#9733;","elianto","#3366ff99","-1"," ","0","0","[1763.2000000001863]","1","1","","","3964","3","2","2","win","no-go","0"
"pit-trial","121","919141","0.0-7.0","battery-v0.2","","""event"",""trial"",""time""
""fullscreenenter"",""1"",""4742""
","
","
","""event"",""trial"",""time""
""fullscreenenter"",""1"",""4742""
","
","","","1148.300000000745","","","24","3964","226","&#9730;","elianto","#3366ff99"," "," ","1","+10","[1999.5]","1","1","","","3964","4","1","1","win","go","0"
"pit-trial","122","924004","0.0-8.0","battery-v0.2","","""event"",""trial"",""time""
""fullscreenenter"",""1"",""4742""
","
","
","""event"",""trial"",""time""
""fullscreenenter"",""1"",""4742""
","
","","","-1","","","24","3964","226","&#9752;","elianto","#f73b6a7A"," ","-1","0","-10","[]","0","1","","","3964","5","3","3","lose","go","0"
"pit-trial","123","928864","0.0-9.0","battery-v0.2","","""event"",""trial"",""time""
""fullscreenenter"",""1"",""4742""
","
","
","""event"",""trial"",""time""
""fullscreenenter"",""1"",""4742""
","
","","","-1","","","24","3964","226","&#9733;","elianto","#3366ff99","-1","-1","1","+10","[]","0","1","","","3964","6","2","2","win","no-go","0"
"pit-trial","124","932706","0.0-10.0","battery-v0.2","","""event"",""trial"",""time""
""fullscreenenter"",""1"",""4742""
","
","
","""event"",""trial"",""time""
""fullscreenenter"",""1"",""4742""
","
","","","985.2000000001863","","","24","3964","226","&#9728;","elianto","#f73b6a7A","-1"," ","0","-10","[1835.5]","1","1","","","3964","7","0","4","lose","no-go","0"
"pit-trial","125","937569","0.0-11.0","battery-v0.2","","""event"",""trial"",""time""
""fullscreenenter"",""1"",""4742""
","
","
","""event"",""trial"",""time""
""fullscreenenter"",""1"",""4742""
","
","","","-1","","","24","3964","226","&#9730;","elianto","#3366ff99"," ","-1","0","0","[]","0","1","","","3964","8","1","1","win","go","0"
"pit-trial","126","941435","0.0-12.0","battery-v0.2","","""event"",""trial"",""time""
""fullscreenenter"",""1"",""4742""
","
","
","""event"",""trial"",""time""
""fullscreenenter"",""1"",""4742""
","
","","","1005.6000000005588","","","24","3964","226","&#9733;","elianto","#3366ff99","-1"," ","0","+10","[1857.199999999255]","1","1","","","3964","9","2","2","win","no-go","1"
"pit-trial","127","945387","0.0-13.0","battery-v0.2","","""event"",""trial"",""time""
""fullscreenenter"",""1"",""4742""
","
","
","""event"",""trial"",""time""
""fullscreenenter"",""1"",""4742""
","
","","","1093.4000000003725","","","24","3964","226","&#9730;","elianto","#3366ff99"," "," ","1","+10","[1944.9000000003725]","1","1","","","3964","10","1","1","win","go","0"
"pit-trial","128","950250","0.0-14.0","battery-v0.2","","""event"",""trial"",""time""
""fullscreenenter"",""1"",""4742""
","
","
","""event"",""trial"",""time""
""fullscreenenter"",""1"",""4742""
","
","","","-1","","","24","3964","226","&#9752;","elianto","#f73b6a7A"," ","-1","0","-10","[]","0","1","","","3964","11","3","3","lose","go","0"
"pit-trial","129","954736","0.0-15.0","battery-v0.2","","""event"",""trial"",""time""
""fullscreenenter"",""1"",""4742""
","
","
","""event"",""trial"",""time""
""fullscreenenter"",""1"",""4742""
","
","","","1625.7999999998137","","","24","3964","226","&#9728;","elianto","#f73b6a7A","-1"," ","0","-10","[2476.7000000001863]","1","1","","","3964","12","0","4","lose","no-go","0"
"pit-trial","130","959599","0.0-16.0","battery-v0.2","","""event"",""trial"",""time""
""fullscreenenter"",""1"",""4742""
","
","
","""event"",""trial"",""time""
""fullscreenenter"",""1"",""4742""
","
","","","-1","","","24","3964","226","&#9728;","elianto","#f73b6a7A","-1","-1","1","0","[]","0","1","","","3964","13","0","4","lose","no-go","0"
"pit-trial","131","963214","0.0-17.0","battery-v0.2","","""event"",""trial"",""time""
""fullscreenenter"",""1"",""4742""
","
","
","""event"",""trial"",""time""
""fullscreenenter"",""1"",""4742""
","
","","","754.7999999998137","","","24","3964","226","&#9733;","elianto","#3366ff99","-1"," ","0","+10","[1605.6000000005588]","1","1","","","3964","14","2","2","win","no-go","1"
"pit-trial","132","966843","0.0-18.0","battery-v0.2","","""event"",""trial"",""time""
""fullscreenenter"",""1"",""4742""
","
","
","""event"",""trial"",""time""
""fullscreenenter"",""1"",""4742""
","
","","","772","","","24","3964","226","&#9730;","elianto","#3366ff99"," "," ","1","+10","[1622]","1","1","","","3964","15","1","1","win","go","0"
"pit-trial","133","970581","0.0-19.0","battery-v0.2","","""event"",""trial"",""time""
""fullscreenenter"",""1"",""4742""
","
","
","""event"",""trial"",""time""
""fullscreenenter"",""1"",""4742""
","
","","","879.7000000001863","","","24","3964","226","&#9752;","elianto","#f73b6a7A"," "," ","1","-10","[1730.4000000003725]","1","1","","","3964","16","3","3","lose","go","1"
"pit-trial","134","974242","0.0-20.0","battery-v0.2","","""event"",""trial"",""time""
""fullscreenenter"",""1"",""4742""
","
","
","""event"",""trial"",""time""
""fullscreenenter"",""1"",""4742""
","
","","","804.1000000005588","","","24","3964","226","&#9733;","elianto","#3366ff99","-1"," ","0","0","[1654.2000000001863]","1","1","","","3964","17","2","2","win","no-go","0"
"pit-trial","135","979103","0.0-21.0","battery-v0.2","","""event"",""trial"",""time""
""fullscreenenter"",""1"",""4742""
","
","
","""event"",""trial"",""time""
""fullscreenenter"",""1"",""4742""
","
","","","-1","","","24","3964","226","&#9728;","elianto","#f73b6a7A","-1","-1","1","-10","[]","0","1","","","3964","18","0","4","lose","no-go","1"
"pit-trial","136","982777","0.0-22.0","battery-v0.2","","""event"",""trial"",""time""
""fullscreenenter"",""1"",""4742""
","
","
","""event"",""trial"",""time""
""fullscreenenter"",""1"",""4742""
","
","","","814.3000000007451","","","24","3964","226","&#9730;","elianto","#3366ff99"," "," ","1","+10","[1665.7999999998137]","1","1","","","3964","19","1","1","win","go","0"
"pit-trial","137","987641","0.0-23.0","battery-v0.2","","""event"",""trial"",""time""
""fullscreenenter"",""1"",""4742""
","
","
","""event"",""trial"",""time""
""fullscreenenter"",""1"",""4742""
","
","","","-1","","","24","3964","226","&#9752;","elianto","#f73b6a7A"," ","-1","0","-10","[]","0","1","","","3964","20","3","3","lose","go","0"
"pit-instructions","138","1000838","0.0-24.0","battery-v0.2","","""event"",""trial"",""time""
""fullscreenenter"",""1"",""4742""
","
","
","""event"",""trial"",""time""
""fullscreenenter"",""1"",""4742""
","
","","[{""page_index"":0,""viewing_time"":6058.9000000003725},{""page_index"":1,""viewing_time"":7133.9000000003725}]","13193.700000000186","","","","","","","","","","","","","","","","","","","","","","","",""
"pit-trial","139","1004582","0.0-25.0","battery-v0.2","","""event"",""trial"",""time""
""fullscreenenter"",""1"",""4742""
","
","
","""event"",""trial"",""time""
""fullscreenenter"",""1"",""4742""
","
","","","881.8999999994412","","","24","3964","226","b","elianto","#f73b6a7A","-1"," ","0","0","[1734.7999999998137]","1","2","","","3964","21","3","4","lose","no-go","1"
"pit-trial","140","1009305","0.0-26.0","battery-v0.2","","""event"",""trial"",""time""
""fullscreenenter"",""1"",""4742""
","
","
","""event"",""trial"",""time""
""fullscreenenter"",""1"",""4742""
","
","","","1863.1000000005588","","","24","3964","226","t","elianto","#f73b6a7A"," "," ","1","0","[2713.9000000003725]","1","2","","","3964","22","2","3","lose","go","0"
"pit-trial","141","1013242","0.0-27.0","battery-v0.2","","""event"",""trial"",""time""
""fullscreenenter"",""1"",""4742""
","
","
","""event"",""trial"",""time""
""fullscreenenter"",""1"",""4742""
","
","","","1077.5","","","24","3964","226","n","elianto","#f73b6a7A"," "," ","1","0","[1929.5999999996275]","1","2","","","3964","23","0","3","lose","go","0"
"pit-trial","142","1017101","0.0-28.0","battery-v0.2","","""event"",""trial"",""time""
""fullscreenenter"",""1"",""4742""
","
","
","""event"",""trial"",""time""
""fullscreenenter"",""1"",""4742""
","
","","","1002.7999999998137","","","24","3964","226","f","elianto","#3366ff99","-1"," ","0","0","[1853.9000000003725]","1","2","","","3964","24","1","2","win","no-go","0"
"pit-trial","143","1021027","0.0-29.0","battery-v0.2","","""event"",""trial"",""time""
""fullscreenenter"",""1"",""4742""
","
","
","""event"",""trial"",""time""
""fullscreenenter"",""1"",""4742""
","
","","","1070.7000000001863","","","24","3964","226","n","elianto","#f73b6a7A"," "," ","1","0","[1921.5999999996275]","1","2","","","3964","25","0","3","lose","go","0"
"pit-trial","144","1025887","0.0-30.0","battery-v0.2","","""event"",""trial"",""time""
""fullscreenenter"",""1"",""4742""
","
","
","""event"",""trial"",""time""
""fullscreenenter"",""1"",""4742""
","
","","","-1","","","24","3964","226","f","elianto","#3366ff99","-1","-1","1","+10","[]","0","2","","","3964","26","1","2","win","no-go","0"
"pit-trial","145","1029496","0.0-31.0","battery-v0.2","","""event"",""trial"",""time""
""fullscreenenter"",""1"",""4742""
","
","
","""event"",""trial"",""time""
""fullscreenenter"",""1"",""4742""
","
","","","752.5","","","24","3964","226","t","elianto","#f73b6a7A"," "," ","1","0","[1603.7999999998137]","1","2","","","3964","27","2","3","lose","go","0"
"pit-trial","146","1033217","0.0-32.0","battery-v0.2","","""event"",""trial"",""time""
""fullscreenenter"",""1"",""4742""
","
","
","""event"",""trial"",""time""
""fullscreenenter"",""1"",""4742""
","
","","","861.3999999994412","","","24","3964","226","b","elianto","#f73b6a7A","-1"," ","0","-10","[1711.5]","1","2","","","3964","28","3","4","lose","no-go","0"
"pit-trial","147","1037443","0.0-33.0","battery-v0.2","","""event"",""trial"",""time""
""fullscreenenter"",""1"",""4742""
","
","
","""event"",""trial"",""time""
""fullscreenenter"",""1"",""4742""
","
","","","1367.3999999994412","","","24","3964","226","b","elianto","#f73b6a7A","-1"," ","0","-10","[2218.4000000003725]","1","2","","","3964","29","3","4","lose","no-go","0"
"pit-trial","148","1041308","0.0-34.0","battery-v0.2","","""event"",""trial"",""time""
""fullscreenenter"",""1"",""4742""
","
","
","""event"",""trial"",""time""
""fullscreenenter"",""1"",""4742""
","
","","","1003.2000000001863","","","24","3964","226","t","elianto","#f73b6a7A"," "," ","1","0","[1855]","1","2","","","3964","30","2","3","lose","go","0"
"pit-trial","149","1045606","0.0-35.0","battery-v0.2","","""event"",""trial"",""time""
""fullscreenenter"",""1"",""4742""
","
","
","""event"",""trial"",""time""
""fullscreenenter"",""1"",""4742""
","
","","","1439.5999999996275","","","24","3964","226","n","elianto","#f73b6a7A"," "," ","1","-10","[2292]","1","2","","","3964","31","0","3","lose","go","1"
"pit-trial","150","1050470","0.0-36.0","battery-v0.2","","""event"",""trial"",""time""
""fullscreenenter"",""1"",""4742""
","
","
","""event"",""trial"",""time""
""fullscreenenter"",""1"",""4742""
","
","","","-1","","","24","3964","226","f","elianto","#3366ff99","-1","-1","1","+10","[]","0","2","","","3964","32","1","2","win","no-go","0"
"pit-trial","151","1053879","0.0-37.0","battery-v0.2","","""event"",""trial"",""time""
""fullscreenenter"",""1"",""4742""
","
","
","""event"",""trial"",""time""
""fullscreenenter"",""1"",""4742""
","
","","","550.0999999996275","","","24","3964","226","b","elianto","#f73b6a7A","-1"," ","0","-10","[1402]","1","2","","","3964","33","3","4","lose","no-go","0"
"pit-trial","152","1057408","0.0-38.0","battery-v0.2","","""event"",""trial"",""time""
""fullscreenenter"",""1"",""4742""
","
","
","""event"",""trial"",""time""
""fullscreenenter"",""1"",""4742""
","
","","","671.5","","","24","3964","226","t","elianto","#f73b6a7A"," "," ","1","0","[1521.5]","1","2","","","3964","34","2","3","lose","go","0"
"pit-trial","153","1061013","0.0-39.0","battery-v0.2","","""event"",""trial"",""time""
""fullscreenenter"",""1"",""4742""
","
","
","""event"",""trial"",""time""
""fullscreenenter"",""1"",""4742""
","
","","","746.5","","","24","3964","226","n","elianto","#f73b6a7A"," "," ","1","0","[1599]","1","2","","","3964","35","0","3","lose","go","0"
"pit-trial","154","1065877","0.0-40.0","battery-v0.2","","""event"",""trial"",""time""
""fullscreenenter"",""1"",""4742""
","
","
","""event"",""trial"",""time""
""fullscreenenter"",""1"",""4742""
","
","","","-1","","","24","3964","226","f","elianto","#3366ff99","-1","-1","1","+10","[]","0","2","","","3964","36","1","2","win","no-go","0"
"pit-trial","155","1070741","0.0-41.0","battery-v0.2","","""event"",""trial"",""time""
""fullscreenenter"",""1"",""4742""
","
","
","""event"",""trial"",""time""
""fullscreenenter"",""1"",""4742""
","
","","","-1","","","24","3964","226","f","elianto","#3366ff99","-1","-1","1","+10","[]","0","2","","","3964","37","1","2","win","no-go","0"
"pit-trial","156","1074661","0.0-42.0","battery-v0.2","","""event"",""trial"",""time""
""fullscreenenter"",""1"",""4742""
","
","
","""event"",""trial"",""time""
""fullscreenenter"",""1"",""4742""
","
","","","1058.5","","","24","3964","226","t","elianto","#f73b6a7A"," "," ","1","0","[1910.800000000745]","1","2","","","3964","38","2","3","lose","go","0"
"pit-trial","157","1078134","0.0-43.0","battery-v0.2","","""event"",""trial"",""time""
""fullscreenenter"",""1"",""4742""
","
","
","""event"",""trial"",""time""
""fullscreenenter"",""1"",""4742""
","
","","","616.5","","","24","3964","226","n","elianto","#f73b6a7A"," "," ","1","0","[1466.8999999994412]","1","2","","","3964","39","0","3","lose","go","0"
"pit-trial","158","1082993","0.0-44.0","battery-v0.2","","""event"",""trial"",""time""
""fullscreenenter"",""1"",""4742""
","
","
","""event"",""trial"",""time""
""fullscreenenter"",""1"",""4742""
","
","","","-1","","","24","3964","226","b","elianto","#f73b6a7A","-1","-1","1","0","[]","0","2","","","3964","40","3","4","lose","no-go","0"
"pit-trial","159","1086698","0.0-45.0","battery-v0.2","","""event"",""trial"",""time""
""fullscreenenter"",""1"",""4742""
","
","
","""event"",""trial"",""time""
""fullscreenenter"",""1"",""4742""
","
","","","845.1000000005588","","","24","3964","226","n","elianto","#f73b6a7A"," "," ","1","0","[1698]","1","2","","","3964","41","0","3","lose","go","0"
"pit-trial","160","1091561","0.0-46.0","battery-v0.2","","""event"",""trial"",""time""
""fullscreenenter"",""1"",""4742""
","
","
","""event"",""trial"",""time""
""fullscreenenter"",""1"",""4742""
","
","","","-1","","","24","3964","226","f","elianto","#3366ff99","-1","-1","1","0","[]","0","2","","","3964","42","1","2","win","no-go","1"
"pit-trial","161","1095365","0.0-47.0","battery-v0.2","","""event"",""trial"",""time""
""fullscreenenter"",""1"",""4742""
","
","
","""event"",""trial"",""time""
""fullscreenenter"",""1"",""4742""
","
","","","946.3999999994412","","","24","3964","226","t","elianto","#f73b6a7A"," "," ","1","-10","[1796.3999999994412]","1","2","","","3964","43","2","3","lose","go","1"
"pit-trial","162","1100229","0.0-48.0","battery-v0.2","","""event"",""trial"",""time""
""fullscreenenter"",""1"",""4742""
","
","
","""event"",""trial"",""time""
""fullscreenenter"",""1"",""4742""
","
","","","-1","","","24","3964","226","b","elianto","#f73b6a7A","-1","-1","1","0","[]","0","2","","","3964","44","3","4","lose","no-go","0"
"pit-trial","163","1104473","0.0-49.0","battery-v0.2","","""event"",""trial"",""time""
""fullscreenenter"",""1"",""4742""
","
","
","""event"",""trial"",""time""
""fullscreenenter"",""1"",""4742""
","
","","","1384","","","24","3964","226","b","elianto","#f73b6a7A","-1"," ","0","-10","[2234.0999999996275]","1","2","","","3964","45","3","4","lose","no-go","0"
"pit-trial","164","1108596","0.0-50.0","battery-v0.2","","""event"",""trial"",""time""
""fullscreenenter"",""1"",""4742""
","
","
","""event"",""trial"",""time""
""fullscreenenter"",""1"",""4742""
","
","","","1263.300000000745","","","24","3964","226","t","elianto","#f73b6a7A"," "," ","1","0","[2115.399999999441]","1","2","","","3964","46","2","3","lose","go","0"
"pit-trial","165","1113459","0.0-51.0","battery-v0.2","","""event"",""trial"",""time""
""fullscreenenter"",""1"",""4742""
","
","
","""event"",""trial"",""time""
""fullscreenenter"",""1"",""4742""
","
","","","-1","","","24","3964","226","f","elianto","#3366ff99","-1","-1","1","0","[]","0","2","","","3964","47","1","2","win","no-go","1"
"pit-trial","166","1117068","0.0-52.0","battery-v0.2","","""event"",""trial"",""time""
""fullscreenenter"",""1"",""4742""
","
","
","""event"",""trial"",""time""
""fullscreenenter"",""1"",""4742""
","
","","","748.2000000001863","","","24","3964","226","n","elianto","#f73b6a7A"," "," ","1","0","[1599.800000000745]","1","2","","","3964","48","0","3","lose","go","0"
"pit-trial","167","1120670","0.0-53.0","battery-v0.2","","""event"",""trial"",""time""
""fullscreenenter"",""1"",""4742""
","
","
","""event"",""trial"",""time""
""fullscreenenter"",""1"",""4742""
","
","","","742.2999999998137","","","24","3964","226","n","elianto","#f73b6a7A"," "," ","1","-10","[1592.5]","1","2","","","3964","49","0","3","lose","go","1"
"pit-trial","168","1125534","0.0-54.0","battery-v0.2","","""event"",""trial"",""time""
""fullscreenenter"",""1"",""4742""
","
","
","""event"",""trial"",""time""
""fullscreenenter"",""1"",""4742""
","
","","","-1","","","24","3964","226","b","elianto","#f73b6a7A","-1","-1","1","0","[]","0","2","","","3964","50","3","4","lose","no-go","0"
"pit-trial","169","1129557","0.0-55.0","battery-v0.2","","""event"",""trial"",""time""
""fullscreenenter"",""1"",""4742""
","
","
","""event"",""trial"",""time""
""fullscreenenter"",""1"",""4742""
","
","","","1164","","","24","3964","226","t","elianto","#f73b6a7A"," "," ","1","0","[2014.9000000003725]","1","2","","","3964","51","2","3","lose","go","0"
"pit-trial","170","1134419","0.0-56.0","battery-v0.2","","""event"",""trial"",""time""
""fullscreenenter"",""1"",""4742""
","
","
","""event"",""trial"",""time""
""fullscreenenter"",""1"",""4742""
","
","","","-1","","","24","3964","226","f","elianto","#3366ff99","-1","-1","1","+10","[]","0","2","","","3964","52","1","2","win","no-go","0"
"pit-trial","171","1139283","0.0-57.0","battery-v0.2","","""event"",""trial"",""time""
""fullscreenenter"",""1"",""4742""
","
","
","""event"",""trial"",""time""
""fullscreenenter"",""1"",""4742""
","
","","","-1","","","24","3964","226","b","elianto","#f73b6a7A","-1","-1","1","0","[]","0","2","","","3964","53","3","4","lose","no-go","0"
"pit-trial","172","1143013","0.0-58.0","battery-v0.2","","""event"",""trial"",""time""
""fullscreenenter"",""1"",""4742""
","
","
","""event"",""trial"",""time""
""fullscreenenter"",""1"",""4742""
","
","","","870","","","24","3964","226","t","elianto","#f73b6a7A"," "," ","1","-10","[1720.3999999994412]","1","2","","","3964","54","2","3","lose","go","1"
"pit-trial","173","1147874","0.0-59.0","battery-v0.2","","""event"",""trial"",""time""
""fullscreenenter"",""1"",""4742""
","
","
","""event"",""trial"",""time""
""fullscreenenter"",""1"",""4742""
","
","","","-1","","","24","3964","226","f","elianto","#3366ff99","-1","-1","1","+10","[]","0","2","","","3964","55","1","2","win","no-go","0"
"pit-trial","174","1151683","0.0-60.0","battery-v0.2","","""event"",""trial"",""time""
""fullscreenenter"",""1"",""4742""
","
","
","""event"",""trial"",""time""
""fullscreenenter"",""1"",""4742""
","
","","","950.9000000003725","","","24","3964","226","n","elianto","#f73b6a7A"," "," ","1","0","[1803.5999999996275]","1","2","","","3964","56","0","3","lose","go","0"
"pit-trial","175","1155942","0.0-61.0","battery-v0.2","","""event"",""trial"",""time""
""fullscreenenter"",""1"",""4742""
","
","
","""event"",""trial"",""time""
""fullscreenenter"",""1"",""4742""
","
","","","1400","","","24","3964","226","t","elianto","#f73b6a7A"," "," ","1","-10","[2251]","1","2","","","3964","57","2","3","lose","go","1"
"pit-trial","176","1159661","0.0-62.0","battery-v0.2","","""event"",""trial"",""time""
""fullscreenenter"",""1"",""4742""
","
","
","""event"",""trial"",""time""
""fullscreenenter"",""1"",""4742""
","
","","","859.6000000005588","","","24","3964","226","n","elianto","#f73b6a7A"," "," ","1","0","[1711.699999999255]","1","2","","","3964","58","0","3","lose","go","0"
"pit-trial","177","1164230","0.0-63.0","battery-v0.2","","""event"",""trial"",""time""
""fullscreenenter"",""1"",""4742""
","
","
","""event"",""trial"",""time""
""fullscreenenter"",""1"",""4742""
","
","","","1709.9000000003725","","","24","3964","226","c","elianto","#3366ff99"," "," ","1","0","[2560.0999999996275]","1","2","","","3964","59","4","1","win","go","1"
"pit-trial","178","1169089","0.0-64.0","battery-v0.2","","""event"",""trial"",""time""
""fullscreenenter"",""1"",""4742""
","
","
","""event"",""trial"",""time""
""fullscreenenter"",""1"",""4742""
","
","","","-1","","","24","3964","226","b","elianto","#f73b6a7A","-1","-1","1","0","[]","0","2","","","3964","60","3","4","lose","no-go","0"
"pit-trial","179","1173948","0.0-65.0","battery-v0.2","","""event"",""trial"",""time""
""fullscreenenter"",""1"",""4742""
","
","
","""event"",""trial"",""time""
""fullscreenenter"",""1"",""4742""
","
","","","-1","","","24","3964","226","b","elianto","#f73b6a7A","-1","-1","1","0","[]","0","2","","","3964","61","3","4","lose","no-go","0"
"pit-trial","180","1178811","0.0-66.0","battery-v0.2","","""event"",""trial"",""time""
""fullscreenenter"",""1"",""4742""
","
","
","""event"",""trial"",""time""
""fullscreenenter"",""1"",""4742""
","
","","","-1","","","24","3964","226","t","elianto","#f73b6a7A"," ","-1","0","-10","[]","0","2","","","3964","62","2","3","lose","go","0"
"pit-trial","181","1183674","0.0-67.0","battery-v0.2","","""event"",""trial"",""time""
""fullscreenenter"",""1"",""4742""
","
","
","""event"",""trial"",""time""
""fullscreenenter"",""1"",""4742""
","
","","","-1","","","24","3964","226","f","elianto","#3366ff99","-1","-1","1","+10","[]","0","2","","","3964","63","1","2","win","no-go","0"
"pit-trial","182","1188536","0.0-68.0","battery-v0.2","","""event"",""trial"",""time""
""fullscreenenter"",""1"",""4742""
","
","
","""event"",""trial"",""time""
""fullscreenenter"",""1"",""4742""
","
","","","-1","","","24","3964","226","c","elianto","#3366ff99"," ","-1","0","+10","[]","0","2","","","3964","64","4","1","win","go","1"
"pit-trial","183","1193397","0.0-69.0","battery-v0.2","","""event"",""trial"",""time""
""fullscreenenter"",""1"",""4742""
","
","
","""event"",""trial"",""time""
""fullscreenenter"",""1"",""4742""
","
","","","-1","","","24","3964","226","f","elianto","#3366ff99","-1","-1","1","+10","[]","0","2","","","3964","65","1","2","win","no-go","0"
"pit-trial","184","1198257","0.0-70.0","battery-v0.2","","""event"",""trial"",""time""
""fullscreenenter"",""1"",""4742""
","
","
","""event"",""trial"",""time""
""fullscreenenter"",""1"",""4742""
","
","","","-1","","","24","3964","226","b","elianto","#f73b6a7A","-1","-1","1","0","[]","0","2","","","3964","66","3","4","lose","no-go","0"
"pit-trial","185","1203120","0.0-71.0","battery-v0.2","","""event"",""trial"",""time""
""fullscreenenter"",""1"",""4742""
","
","
","""event"",""trial"",""time""
""fullscreenenter"",""1"",""4742""
","
","","","-1","","","24","3964","226","z","elianto","#3366ff99","-1","-1","1","0","[]","0","2","","","3964","67","5","2","win","no-go","1"
"pit-trial","186","1207983","0.0-72.0","battery-v0.2","","""event"",""trial"",""time""
""fullscreenenter"",""1"",""4742""
","
","
","""event"",""trial"",""time""
""fullscreenenter"",""1"",""4742""
","
","","","-1","","","24","3964","226","c","elianto","#3366ff99"," ","-1","0","0","[]","0","2","","","3964","68","4","1","win","go","0"
"pit-trial","187","1212847","0.0-73.0","battery-v0.2","","""event"",""trial"",""time""
""fullscreenenter"",""1"",""4742""
","
","
","""event"",""trial"",""time""
""fullscreenenter"",""1"",""4742""
","
","","","-1","","","24","3964","226","c","elianto","#3366ff99"," ","-1","0","0","[]","0","2","","","3964","69","4","1","win","go","0"
"pit-trial","188","1217710","0.0-74.0","battery-v0.2","","""event"",""trial"",""time""
""fullscreenenter"",""1"",""4742""
","
","
","""event"",""trial"",""time""
""fullscreenenter"",""1"",""4742""
","
","","","-1","","","24","3964","226","f","elianto","#3366ff99","-1","-1","1","+10","[]","0","2","","","3964","70","1","2","win","no-go","0"
"pit-trial","189","1222570","0.0-75.0","battery-v0.2","","""event"",""trial"",""time""
""fullscreenenter"",""1"",""4742""
","
","
","""event"",""trial"",""time""
""fullscreenenter"",""1"",""4742""
","
","","","-1","","","24","3964","226","z","elianto","#3366ff99","-1","-1","1","0","[]","0","2","","","3964","71","5","2","win","no-go","1"
"pit-trial","190","1226755","0.0-76.0","battery-v0.2","","""event"",""trial"",""time""
""fullscreenenter"",""1"",""4742""
","
","
","""event"",""trial"",""time""
""fullscreenenter"",""1"",""4742""
","
","","","1326.2999999998137","","","24","3964","226","t","elianto","#f73b6a7A"," "," ","1","0","[2177.5]","1","2","","","3964","72","2","3","lose","go","0"
"pit-trial","191","1230190","0.0-77.0","battery-v0.2","","""event"",""trial"",""time""
""fullscreenenter"",""1"",""4742""
","
","
","""event"",""trial"",""time""
""fullscreenenter"",""1"",""4742""
","
","","","580.3000000007451","","","24","3964","226","z","elianto","#3366ff99","-1"," ","0","0","[1431]","1","2","","","3964","73","5","2","win","no-go","0"
"pit-trial","192","1235055","0.0-78.0","battery-v0.2","","""event"",""trial"",""time""
""fullscreenenter"",""1"",""4742""
","
","
","""event"",""trial"",""time""
""fullscreenenter"",""1"",""4742""
","
","","","-1","","","24","3964","226","f","elianto","#3366ff99","-1","-1","1","0","[]","0","2","","","3964","74","1","2","win","no-go","1"
"pit-trial","193","1238668","0.0-79.0","battery-v0.2","","""event"",""trial"",""time""
""fullscreenenter"",""1"",""4742""
","
","
","""event"",""trial"",""time""
""fullscreenenter"",""1"",""4742""
","
","","","752.0999999996275","","","24","3964","226","c","elianto","#3366ff99"," "," ","1","+10","[1604.2000000001863]","1","2","","","3964","75","4","1","win","go","0"
"pit-trial","194","1243529","0.0-80.0","battery-v0.2","","""event"",""trial"",""time""
""fullscreenenter"",""1"",""4742""
","
","
","""event"",""trial"",""time""
""fullscreenenter"",""1"",""4742""
","
","","","-1","","","24","3964","226","b","elianto","#f73b6a7A","-1","-1","1","0","[]","0","2","","","3964","76","3","4","lose","no-go","0"
"pit-trial","195","1247582","0.0-81.0","battery-v0.2","","""event"",""trial"",""time""
""fullscreenenter"",""1"",""4742""
","
","
","""event"",""trial"",""time""
""fullscreenenter"",""1"",""4742""
","
","","","1195","","","24","3964","226","c","elianto","#3366ff99"," "," ","1","+10","[2045]","1","2","","","3964","77","4","1","win","go","0"
"pit-trial","196","1251598","0.0-82.0","battery-v0.2","","""event"",""trial"",""time""
""fullscreenenter"",""1"",""4742""
","
","
","""event"",""trial"",""time""
""fullscreenenter"",""1"",""4742""
","
","","","1161.0999999996275","","","24","3964","226","z","elianto","#3366ff99","-1"," ","0","0","[2011.4000000003725]","1","2","","","3964","78","5","2","win","no-go","0"
"pit-trial","197","1256459","0.0-83.0","battery-v0.2","","""event"",""trial"",""time""
""fullscreenenter"",""1"",""4742""
","
","
","""event"",""trial"",""time""
""fullscreenenter"",""1"",""4742""
","
","","","-1","","","24","3964","226","b","elianto","#f73b6a7A","-1","-1","1","0","[]","0","2","","","3964","79","3","4","lose","no-go","0"
"pit-trial","198","1260352","0.0-84.0","battery-v0.2","","""event"",""trial"",""time""
""fullscreenenter"",""1"",""4742""
","
","
","""event"",""trial"",""time""
""fullscreenenter"",""1"",""4742""
","
","","","1033.0999999996275","","","24","3964","226","c","elianto","#3366ff99"," "," ","1","+10","[1885.2999999998137]","1","2","","","3964","80","4","1","win","go","0"
"pit-trial","199","1265213","0.0-85.0","battery-v0.2","","""event"",""trial"",""time""
""fullscreenenter"",""1"",""4742""
","
","
","""event"",""trial"",""time""
""fullscreenenter"",""1"",""4742""
","
","","","-1","","","24","3964","226","b","elianto","#f73b6a7A","-1","-1","1","-10","[]","0","2","","","3964","81","3","4","lose","no-go","1"
"pit-trial","200","1269253","0.0-86.0","battery-v0.2","","""event"",""trial"",""time""
""fullscreenenter"",""1"",""4742""
","
","
","""event"",""trial"",""time""
""fullscreenenter"",""1"",""4742""
","
","","","1182.2999999998137","","","24","3964","226","y","elianto","#f73b6a7A","-1"," ","0","-10","[2032.5]","1","2","","","3964","82","7","4","lose","no-go","0"
"pit-trial","201","1274115","0.0-87.0","battery-v0.2","","""event"",""trial"",""time""
""fullscreenenter"",""1"",""4742""
","
","
","""event"",""trial"",""time""
""fullscreenenter"",""1"",""4742""
","
","","","-1","","","24","3964","226","z","elianto","#3366ff99","-1","-1","1","+10","[]","0","2","","","3964","83","5","2","win","no-go","0"
"pit-trial","202","1277684","0.0-88.0","battery-v0.2","","""event"",""trial"",""time""
""fullscreenenter"",""1"",""4742""
","
","
","""event"",""trial"",""time""
""fullscreenenter"",""1"",""4742""
","
","","","710.5","","","24","3964","226","c","elianto","#3366ff99"," "," ","1","+10","[1560.7999999998137]","1","2","","","3964","84","4","1","win","go","0"
"pit-trial","203","1281486","0.0-89.0","battery-v0.2","","""event"",""trial"",""time""
""fullscreenenter"",""1"",""4742""
","
","
","""event"",""trial"",""time""
""fullscreenenter"",""1"",""4742""
","
","","","945.7000000001863","","","24","3964","226","c","elianto","#3366ff99"," "," ","1","+10","[1796.2999999998137]","1","2","","","3964","85","4","1","win","go","0"
"pit-trial","204","1286348","0.0-90.0","battery-v0.2","","""event"",""trial"",""time""
""fullscreenenter"",""1"",""4742""
","
","
","""event"",""trial"",""time""
""fullscreenenter"",""1"",""4742""
","
","","","-1","","","24","3964","226","y","elianto","#f73b6a7A","-1","-1","1","-10","[]","0","2","","","3964","86","7","4","lose","no-go","1"
"pit-trial","205","1290416","0.0-91.0","battery-v0.2","","""event"",""trial"",""time""
""fullscreenenter"",""1"",""4742""
","
","
","""event"",""trial"",""time""
""fullscreenenter"",""1"",""4742""
","
","","","1208.800000000745","","","24","3964","226","h","elianto","#f73b6a7A"," "," ","1","0","[2059.100000000559]","1","2","","","3964","87","6","3","lose","go","0"
"pit-trial","206","1295276","0.0-92.0","battery-v0.2","","""event"",""trial"",""time""
""fullscreenenter"",""1"",""4742""
","
","
","""event"",""trial"",""time""
""fullscreenenter"",""1"",""4742""
","
","","","-1","","","24","3964","226","z","elianto","#3366ff99","-1","-1","1","+10","[]","0","2","","","3964","88","5","2","win","no-go","0"
"pit-trial","207","1300140","0.0-93.0","battery-v0.2","","""event"",""trial"",""time""
""fullscreenenter"",""1"",""4742""
","
","
","""event"",""trial"",""time""
""fullscreenenter"",""1"",""4742""
","
","","","-1","","","24","3964","226","z","elianto","#3366ff99","-1","-1","1","+10","[]","0","2","","","3964","89","5","2","win","no-go","0"
"pit-trial","208","1303660","0.0-94.0","battery-v0.2","","""event"",""trial"",""time""
""fullscreenenter"",""1"",""4742""
","
","
","""event"",""trial"",""time""
""fullscreenenter"",""1"",""4742""
","
","","","663.0999999996275","","","24","3964","226","c","elianto","#3366ff99"," "," ","1","+10","[1514.4000000003725]","1","2","","","3964","90","4","1","win","go","0"
"pit-trial","209","1307664","0.0-95.0","battery-v0.2","","""event"",""trial"",""time""
""fullscreenenter"",""1"",""4742""
","
","
","""event"",""trial"",""time""
""fullscreenenter"",""1"",""4742""
","
","","","1144.5999999996275","","","24","3964","226","h","elianto","#f73b6a7A"," "," ","1","0","[1996.2000000001863]","1","2","","","3964","91","6","3","lose","go","0"
"pit-trial","210","1311601","0.0-96.0","battery-v0.2","","""event"",""trial"",""time""
""fullscreenenter"",""1"",""4742""
","
","
","""event"",""trial"",""time""
""fullscreenenter"",""1"",""4742""
","
","","","1077.7999999998137","","","24","3964","226","y","elianto","#f73b6a7A","-1"," ","0","-10","[1927.7999999998137]","1","2","","","3964","92","7","4","lose","no-go","0"
"pit-trial","211","1316464","0.0-97.0","battery-v0.2","","""event"",""trial"",""time""
""fullscreenenter"",""1"",""4742""
","
","
","""event"",""trial"",""time""
""fullscreenenter"",""1"",""4742""
","
","","","-1","","","24","3964","226","y","elianto","#f73b6a7A","-1","-1","1","-10","[]","0","2","","","3964","93","7","4","lose","no-go","1"
"pit-trial","212","1320326","0.0-98.0","battery-v0.2","","""event"",""trial"",""time""
""fullscreenenter"",""1"",""4742""
","
","
","""event"",""trial"",""time""
""fullscreenenter"",""1"",""4742""
","
","","","1001.8999999994412","","","24","3964","226","h","elianto","#f73b6a7A"," "," ","1","0","[1852.0999999996275]","1","2","","","3964","94","6","3","lose","go","0"
"pit-trial","213","1325189","0.0-99.0","battery-v0.2","","""event"",""trial"",""time""
""fullscreenenter"",""1"",""4742""
","
","
","""event"",""trial"",""time""
""fullscreenenter"",""1"",""4742""
","
","","","-1","","","24","3964","226","r","elianto","#3366ff99"," ","-1","0","0","[]","0","2","","","3964","95","8","1","win","go","0"
"pit-trial","214","1329915","0.0-100.0","battery-v0.2","","""event"",""trial"",""time""
""fullscreenenter"",""1"",""4742""
","
","
","""event"",""trial"",""time""
""fullscreenenter"",""1"",""4742""
","
","","","1866.7999999998137","","","24","3964","226","z","elianto","#3366ff99","-1"," ","0","+10","[2717.0999999996275]","1","2","","","3964","96","5","2","win","no-go","1"
"pit-trial","215","1334335","0.0-101.0","battery-v0.2","","""event"",""trial"",""time""
""fullscreenenter"",""1"",""4742""
","
","
","""event"",""trial"",""time""
""fullscreenenter"",""1"",""4742""
","
","","","1561.2000000001863","","","24","3964","226","r","elianto","#3366ff99"," "," ","1","+10","[2411.399999999441]","1","2","","","3964","97","8","1","win","go","0"
"pit-trial","216","1339194","0.0-102.0","battery-v0.2","","""event"",""trial"",""time""
""fullscreenenter"",""1"",""4742""
","
","
","""event"",""trial"",""time""
""fullscreenenter"",""1"",""4742""
","
","","","-1","","","24","3964","226","z","elianto","#3366ff99","-1","-1","1","+10","[]","0","2","","","3964","98","5","2","win","no-go","0"
"pit-trial","217","1343312","0.0-103.0","battery-v0.2","","""event"",""trial"",""time""
""fullscreenenter"",""1"",""4742""
","
","
","""event"",""trial"",""time""
""fullscreenenter"",""1"",""4742""
","
","","","1263","","","24","3964","226","y","elianto","#f73b6a7A","-1"," ","0","-10","[2114.9000000003725]","1","2","","","3964","99","7","4","lose","no-go","0"
"pit-trial","218","1346971","0.0-104.0","battery-v0.2","","""event"",""trial"",""time""
""fullscreenenter"",""1"",""4742""
","
","
","""event"",""trial"",""time""
""fullscreenenter"",""1"",""4742""
","
","","","802.2000000001863","","","24","3964","226","h","elianto","#f73b6a7A"," "," ","1","0","[1652.7999999998137]","1","2","","","3964","100","6","3","lose","go","0"
"pit-trial","219","1351833","0.0-105.0","battery-v0.2","","""event"",""trial"",""time""
""fullscreenenter"",""1"",""4742""
","
","
","""event"",""trial"",""time""
""fullscreenenter"",""1"",""4742""
","
","","","-1","","","24","3964","226","z","elianto","#3366ff99","-1","-1","1","+10","[]","0","2","","","3964","101","5","2","win","no-go","0"
"pit-trial","220","1355499","0.0-106.0","battery-v0.2","","""event"",""trial"",""time""
""fullscreenenter"",""1"",""4742""
","
","
","""event"",""trial"",""time""
""fullscreenenter"",""1"",""4742""
","
","","","808.1999999992549","","","24","3964","226","r","elianto","#3366ff99"," "," ","1","+10","[1658.7999999998137]","1","2","","","3964","102","8","1","win","go","0"
"pit-trial","221","1359191","0.0-107.0","battery-v0.2","","""event"",""trial"",""time""
""fullscreenenter"",""1"",""4742""
","
","
","""event"",""trial"",""time""
""fullscreenenter"",""1"",""4742""
","
","","","835.3000000007451","","","24","3964","226","y","elianto","#f73b6a7A","-1"," ","0","-10","[1686.0999999996275]","1","2","","","3964","103","7","4","lose","no-go","0"
"pit-trial","222","1363377","0.0-108.0","battery-v0.2","","""event"",""trial"",""time""
""fullscreenenter"",""1"",""4742""
","
","
","""event"",""trial"",""time""
""fullscreenenter"",""1"",""4742""
","
","","","1327.7000000001863","","","24","3964","226","m","elianto","#3366ff99"," "," ","1","+10","[2179.2000000001863]","1","2","","","3964","104","9","1","win","go","0"
"pit-trial","223","1366953","0.0-109.0","battery-v0.2","","""event"",""trial"",""time""
""fullscreenenter"",""1"",""4742""
","
","
","""event"",""trial"",""time""
""fullscreenenter"",""1"",""4742""
","
","","","714.5999999996275","","","24","3964","226","h","elianto","#f73b6a7A"," "," ","1","0","[1567.7999999998137]","1","2","","","3964","105","6","3","lose","go","0"
"pit-trial","224","1370925","0.0-110.0","battery-v0.2","","""event"",""trial"",""time""
""fullscreenenter"",""1"",""4742""
","
","
","""event"",""trial"",""time""
""fullscreenenter"",""1"",""4742""
","
","","","1116","","","24","3964","226","r","elianto","#3366ff99"," "," ","1","0","[1967]","1","2","","","3964","106","8","1","win","go","1"
"pit-trial","225","1374762","0.0-111.0","battery-v0.2","","""event"",""trial"",""time""
""fullscreenenter"",""1"",""4742""
","
","
","""event"",""trial"",""time""
""fullscreenenter"",""1"",""4742""
","
","","","978.8999999994412","","","24","3964","226","m","elianto","#3366ff99"," "," ","1","+10","[1830]","1","2","","","3964","107","9","1","win","go","0"
"pit-trial","226","1378385","0.0-112.0","battery-v0.2","","""event"",""trial"",""time""
""fullscreenenter"",""1"",""4742""
","
","
","""event"",""trial"",""time""
""fullscreenenter"",""1"",""4742""
","
","","","765","","","24","3964","226","c","elianto","#3366ff99"," "," ","1","0","[1619]","1","2","","","3964","108","4","1","win","go","1"
"pit-trial","227","1382113","0.0-113.0","battery-v0.2","","""event"",""trial"",""time""
""fullscreenenter"",""1"",""4742""
","
","
","""event"",""trial"",""time""
""fullscreenenter"",""1"",""4742""
","
","","","869.5999999996275","","","24","3964","226","h","elianto","#f73b6a7A"," "," ","1","0","[1719.7000000001863]","1","2","","","3964","109","6","3","lose","go","0"
"pit-trial","228","1386971","0.0-114.0","battery-v0.2","","""event"",""trial"",""time""
""fullscreenenter"",""1"",""4742""
","
","
","""event"",""trial"",""time""
""fullscreenenter"",""1"",""4742""
","
","","","-1","","","24","3964","226","z","elianto","#3366ff99","-1","-1","1","0","[]","0","2","","","3964","110","5","2","win","no-go","1"
"pit-trial","229","1390693","0.0-115.0","battery-v0.2","","""event"",""trial"",""time""
""fullscreenenter"",""1"",""4742""
","
","
","""event"",""trial"",""time""
""fullscreenenter"",""1"",""4742""
","
","","","862.9000000003725","","","24","3964","226","r","elianto","#3366ff99"," "," ","1","+10","[1715.1000000005588]","1","2","","","3964","111","8","1","win","go","0"
"pit-trial","230","1394257","0.0-116.0","battery-v0.2","","""event"",""trial"",""time""
""fullscreenenter"",""1"",""4742""
","
","
","""event"",""trial"",""time""
""fullscreenenter"",""1"",""4742""
","
","","","706.9000000003725","","","24","3964","226","m","elianto","#3366ff99"," "," ","1","+10","[1557.4000000003725]","1","2","","","3964","112","9","1","win","go","0"
"pit-trial","231","1398426","0.0-117.0","battery-v0.2","","""event"",""trial"",""time""
""fullscreenenter"",""1"",""4742""
","
","
","""event"",""trial"",""time""
""fullscreenenter"",""1"",""4742""
","
","","","1310.4000000003725","","","24","3964","226","r","elianto","#3366ff99"," "," ","1","0","[2162.9000000003725]","1","2","","","3964","113","8","1","win","go","1"
"pit-trial","232","1402071","0.0-118.0","battery-v0.2","","""event"",""trial"",""time""
""fullscreenenter"",""1"",""4742""
","
","
","""event"",""trial"",""time""
""fullscreenenter"",""1"",""4742""
","
","","","786","","","24","3964","226","h","elianto","#f73b6a7A"," "," ","1","-10","[1637.2999999998137]","1","2","","","3964","114","6","3","lose","go","1"
"pit-trial","233","1406933","0.0-119.0","battery-v0.2","","""event"",""trial"",""time""
""fullscreenenter"",""1"",""4742""
","
","
","""event"",""trial"",""time""
""fullscreenenter"",""1"",""4742""
","
","","","-1","","","24","3964","226","z","elianto","#3366ff99","-1","-1","1","+10","[]","0","2","","","3964","115","5","2","win","no-go","0"
"pit-trial","234","1410484","0.0-120.0","battery-v0.2","","""event"",""trial"",""time""
""fullscreenenter"",""1"",""4742""
","
","
","""event"",""trial"",""time""
""fullscreenenter"",""1"",""4742""
","
","","","690.5999999996275","","","24","3964","226","m","elianto","#3366ff99"," "," ","1","+10","[1541.8999999994412]","1","2","","","3964","116","9","1","win","go","0"
"pit-trial","235","1414654","0.0-121.0","battery-v0.2","","""event"",""trial"",""time""
""fullscreenenter"",""1"",""4742""
","
","
","""event"",""trial"",""time""
""fullscreenenter"",""1"",""4742""
","
","","","1309.3999999994412","","","24","3964","226","h","elianto","#f73b6a7A"," "," ","1","0","[2161.2999999998137]","1","2","","","3964","117","6","3","lose","go","0"
"pit-trial","236","1418407","0.0-122.0","battery-v0.2","","""event"",""trial"",""time""
""fullscreenenter"",""1"",""4742""
","
","
","""event"",""trial"",""time""
""fullscreenenter"",""1"",""4742""
","
","","","894.7000000001863","","","24","3964","226","r","elianto","#3366ff99"," "," ","1","+10","[1746.1000000005588]","1","2","","","3964","118","8","1","win","go","0"
"pit-trial","237","1421956","0.0-123.0","battery-v0.2","","""event"",""trial"",""time""
""fullscreenenter"",""1"",""4742""
","
","
","""event"",""trial"",""time""
""fullscreenenter"",""1"",""4742""
","
","","","687.5","","","24","3964","226","m","elianto","#3366ff99"," "," ","1","+10","[1540]","1","2","","","3964","119","9","1","win","go","0"
"pit-trial","238","1426818","0.0-124.0","battery-v0.2","","""event"",""trial"",""time""
""fullscreenenter"",""1"",""4742""
","
","
","""event"",""trial"",""time""
""fullscreenenter"",""1"",""4742""
","
","","","-1","","","24","3964","226","z","elianto","#3366ff99","-1","-1","1","+10","[]","0","2","","","3964","120","5","2","win","no-go","0"
"pit-trial","239","1430473","0.0-125.0","battery-v0.2","","""event"",""trial"",""time""
""fullscreenenter"",""1"",""4742""
","
","
","""event"",""trial"",""time""
""fullscreenenter"",""1"",""4742""
","
","","","796.2999999998137","","","24","3964","226","m","elianto","#3366ff99"," "," ","1","+10","[1647]","1","2","","","3964","121","9","1","win","go","0"
"pit-trial","240","1433859","0.0-126.0","battery-v0.2","","""event"",""trial"",""time""
""fullscreenenter"",""1"",""4742""
","
","
","""event"",""trial"",""time""
""fullscreenenter"",""1"",""4742""
","
","","","523.9000000003725","","","24","3964","226","r","elianto","#3366ff99"," "," ","1","0","[1376.2999999998137]","1","2","","","3964","122","8","1","win","go","1"
"pit-trial","241","1437571","0.0-127.0","battery-v0.2","","""event"",""trial"",""time""
""fullscreenenter"",""1"",""4742""
","
","
","""event"",""trial"",""time""
""fullscreenenter"",""1"",""4742""
","
","","","852.7999999998137","","","24","3964","226","h","elianto","#f73b6a7A"," "," ","1","0","[1704]","1","2","","","3964","123","6","3","lose","go","0"
"pit-trial","242","1442435","0.0-128.0","battery-v0.2","","""event"",""trial"",""time""
""fullscreenenter"",""1"",""4742""
","
","
","""event"",""trial"",""time""
""fullscreenenter"",""1"",""4742""
","
","","","-1","","","24","3964","226","y","elianto","#f73b6a7A","-1","-1","1","0","[]","0","2","","","3964","124","7","4","lose","no-go","0"
"pit-trial","243","1446130","0.0-129.0","battery-v0.2","","""event"",""trial"",""time""
""fullscreenenter"",""1"",""4742""
","
","
","""event"",""trial"",""time""
""fullscreenenter"",""1"",""4742""
","
","","","834.7000000001863","","","24","3964","226","h","elianto","#f73b6a7A"," "," ","1","-10","[1686.5]","1","2","","","3964","125","6","3","lose","go","1"
"pit-trial","244","1449948","0.0-130.0","battery-v0.2","","""event"",""trial"",""time""
""fullscreenenter"",""1"",""4742""
","
","
","""event"",""trial"",""time""
""fullscreenenter"",""1"",""4742""
","
","","","959.5999999996275","","","24","3964","226","r","elianto","#3366ff99"," "," ","1","+10","[1809.6000000005588]","1","2","","","3964","126","8","1","win","go","0"
"pit-trial","245","1454807","0.0-131.0","battery-v0.2","","""event"",""trial"",""time""
""fullscreenenter"",""1"",""4742""
","
","
","""event"",""trial"",""time""
""fullscreenenter"",""1"",""4742""
","
","","","-1","","","24","3964","226","y","elianto","#f73b6a7A","-1","-1","1","0","[]","0","2","","","3964","127","7","4","lose","no-go","0"
"pit-trial","246","1458337","0.0-132.0","battery-v0.2","","""event"",""trial"",""time""
""fullscreenenter"",""1"",""4742""
","
","
","""event"",""trial"",""time""
""fullscreenenter"",""1"",""4742""
","
","","","672.9000000003725","","","24","3964","226","m","elianto","#3366ff99"," "," ","1","+10","[1525.2999999998137]","1","2","","","3964","128","9","1","win","go","0"
"pit-trial","247","1462055","0.0-133.0","battery-v0.2","","""event"",""trial"",""time""
""fullscreenenter"",""1"",""4742""
","
","
","""event"",""trial"",""time""
""fullscreenenter"",""1"",""4742""
","
","","","860.0999999996275","","","24","3964","226","r","elianto","#3366ff99"," "," ","1","0","[1710.2000000001863]","1","2","","","3964","129","8","1","win","go","1"
"pit-trial","248","1465511","0.0-134.0","battery-v0.2","","""event"",""trial"",""time""
""fullscreenenter"",""1"",""4742""
","
","
","""event"",""trial"",""time""
""fullscreenenter"",""1"",""4742""
","
","","","597.0999999996275","","","24","3964","226","m","elianto","#3366ff99"," "," ","1","+10","[1448.2999999998137]","1","2","","","3964","130","9","1","win","go","0"
"pit-trial","249","1470374","0.0-135.0","battery-v0.2","","""event"",""trial"",""time""
""fullscreenenter"",""1"",""4742""
","
","
","""event"",""trial"",""time""
""fullscreenenter"",""1"",""4742""
","
","","","-1","","","24","3964","226","y","elianto","#f73b6a7A","-1","-1","1","0","[]","0","2","","","3964","131","7","4","lose","no-go","0"
"pit-trial","250","1474093","0.0-136.0","battery-v0.2","","""event"",""trial"",""time""
""fullscreenenter"",""1"",""4742""
","
","
","""event"",""trial"",""time""
""fullscreenenter"",""1"",""4742""
","
","","","860.2999999998137","","","24","3964","226","h","elianto","#f73b6a7A"," "," ","1","0","[1712.7999999998137]","1","2","","","3964","132","6","3","lose","go","0"
"pit-trial","251","1477691","0.0-137.0","battery-v0.2","","""event"",""trial"",""time""
""fullscreenenter"",""1"",""4742""
","
","
","""event"",""trial"",""time""
""fullscreenenter"",""1"",""4742""
","
","","","741.6000000005588","","","24","3964","226","r","elianto","#3366ff99"," "," ","1","+10","[1591.8999999994412]","1","2","","","3964","133","8","1","win","go","0"
"pit-trial","252","1482552","0.0-138.0","battery-v0.2","","""event"",""trial"",""time""
""fullscreenenter"",""1"",""4742""
","
","
","""event"",""trial"",""time""
""fullscreenenter"",""1"",""4742""
","
","","","-1","","","24","3964","226","y","elianto","#f73b6a7A","-1","-1","1","0","[]","0","2","","","3964","134","7","4","lose","no-go","0"
"pit-trial","253","1486036","0.0-139.0","battery-v0.2","","""event"",""trial"",""time""
""fullscreenenter"",""1"",""4742""
","
","
","""event"",""trial"",""time""
""fullscreenenter"",""1"",""4742""
","
","","","624.6000000005588","","","24","3964","226","m","elianto","#3366ff99"," "," ","1","+10","[1475.8999999994412]","1","2","","","3964","135","9","1","win","go","0"
"pit-trial","254","1489792","0.0-140.0","battery-v0.2","","""event"",""trial"",""time""
""fullscreenenter"",""1"",""4742""
","
","
","""event"",""trial"",""time""
""fullscreenenter"",""1"",""4742""
","
","","","896.2999999998137","","","24","3964","226","h","elianto","#f73b6a7A"," "," ","1","0","[1747.5]","1","2","","","3964","136","6","3","lose","go","0"
"pit-trial","255","1493488","0.0-141.0","battery-v0.2","","""event"",""trial"",""time""
""fullscreenenter"",""1"",""4742""
","
","
","""event"",""trial"",""time""
""fullscreenenter"",""1"",""4742""
","
","","","837.2000000001863","","","24","3964","226","r","elianto","#3366ff99"," "," ","1","0","[1688.4000000003725]","1","2","","","3964","137","8","1","win","go","1"
"pit-trial","256","1498352","0.0-142.0","battery-v0.2","","""event"",""trial"",""time""
""fullscreenenter"",""1"",""4742""
","
","
","""event"",""trial"",""time""
""fullscreenenter"",""1"",""4742""
","
","","","-1","","","24","3964","226","y","elianto","#f73b6a7A","-1","-1","1","0","[]","0","2","","","3964","138","7","4","lose","no-go","0"
"pit-trial","257","1502053","0.0-143.0","battery-v0.2","","""event"",""trial"",""time""
""fullscreenenter"",""1"",""4742""
","
","
","""event"",""trial"",""time""
""fullscreenenter"",""1"",""4742""
","
","","","841.5999999996275","","","24","3964","226","h","elianto","#f73b6a7A"," "," ","1","0","[1692.7999999998137]","1","2","","","3964","139","6","3","lose","go","0"
"pit-trial","258","1505535","0.0-144.0","battery-v0.2","","""event"",""trial"",""time""
""fullscreenenter"",""1"",""4742""
","
","
","""event"",""trial"",""time""
""fullscreenenter"",""1"",""4742""
","
","","","624.8000000007451","","","24","3964","226","m","elianto","#3366ff99"," "," ","1","+10","[1476.7999999998137]","1","2","","","3964","140","9","1","win","go","0"
"pit-instructions","259","1692705","0.0-145.0","battery-v0.2","","""event"",""trial"",""time""
""fullscreenenter"",""1"",""4742""
","
","
","""event"",""trial"",""time""
""fullscreenenter"",""1"",""4742""
","
","","[{""page_index"":0,""viewing_time"":179038.09999999963},{""page_index"":1,""viewing_time"":8135.299999999814}]","187174.7999999998","","","","","","","","","","","","","","","","","","","","","","","",""
"pit-trial","260","1697565","0.0-146.0","battery-v0.2","","""event"",""trial"",""time""
""fullscreenenter"",""1"",""4742""
","
","
","""event"",""trial"",""time""
""fullscreenenter"",""1"",""4742""
","
","","","-1","","","24","3964","226","j","elianto","#f73b6a7A","-1","-1","1","0","[]","0","3","","","3964","141","0","4","lose","no-go","0"
"pit-trial","261","1702429","0.0-147.0","battery-v0.2","","""event"",""trial"",""time""
""fullscreenenter"",""1"",""4742""
","
","
","""event"",""trial"",""time""
""fullscreenenter"",""1"",""4742""
","
","","","-1","","","24","3964","226","w","elianto","#f73b6a7A"," ","-1","0","-10","[]","0","3","","","3964","142","3","3","lose","go","0"
"pit-trial","262","1707290","0.0-148.0","battery-v0.2","","""event"",""trial"",""time""
""fullscreenenter"",""1"",""4742""
","
","
","""event"",""trial"",""time""
""fullscreenenter"",""1"",""4742""
","
","","","-1","","","24","3964","226","e","elianto","#f73b6a7A","-1","-1","1","0","[]","0","3","","","3964","143","2","4","lose","no-go","0"
"pit-trial","263","1711143","0.0-149.0","battery-v0.2","","""event"",""trial"",""time""
""fullscreenenter"",""1"",""4742""
","
","
","""event"",""trial"",""time""
""fullscreenenter"",""1"",""4742""
","
","","","991.5","","","24","3964","226","d","elianto","#3366ff99"," "," ","1","+10","[1843.8999999994412]","1","3","","","3964","144","1","1","win","go","0"
"pit-trial","264","1714741","0.0-150.0","battery-v0.2","","""event"",""trial"",""time""
""fullscreenenter"",""1"",""4742""
","
","
","""event"",""trial"",""time""
""fullscreenenter"",""1"",""4742""
","
","","","738.2999999998137","","","24","3964","226","d","elianto","#3366ff99"," "," ","1","+10","[1588.5999999996275]","1","3","","","3964","145","1","1","win","go","0"
"pit-trial","265","1719602","0.0-151.0","battery-v0.2","","""event"",""trial"",""time""
""fullscreenenter"",""1"",""4742""
","
","
","""event"",""trial"",""time""
""fullscreenenter"",""1"",""4742""
","
","","","-1","","","24","3964","226","j","elianto","#f73b6a7A","-1","-1","1","0","[]","0","3","","","3964","146","0","4","lose","no-go","0"
"pit-trial","266","1724464","0.0-152.0","battery-v0.2","","""event"",""trial"",""time""
""fullscreenenter"",""1"",""4742""
","
","
","""event"",""trial"",""time""
""fullscreenenter"",""1"",""4742""
","
","","","-1","","","24","3964","226","e","elianto","#f73b6a7A","-1","-1","1","-10","[]","0","3","","","3964","147","2","4","lose","no-go","1"
"pit-trial","267","1727995","0.0-153.0","battery-v0.2","","""event"",""trial"",""time""
""fullscreenenter"",""1"",""4742""
","
","
","""event"",""trial"",""time""
""fullscreenenter"",""1"",""4742""
","
","","","673.8999999994412","","","24","3964","226","w","elianto","#f73b6a7A"," "," ","1","0","[1524.1000000005588]","1","3","","","3964","148","3","3","lose","go","0"
"pit-trial","268","1732854","0.0-154.0","battery-v0.2","","""event"",""trial"",""time""
""fullscreenenter"",""1"",""4742""
","
","
","""event"",""trial"",""time""
