"trial_type","trial_index","time_elapsed","internal_node_id","task_version","subject_id","interactions","blur_events","focus_events","fullscreenenter_events","fullscreenexit_events","success","view_history","rt","responses","num_errors","age","subject","participantId","rune","rune_set","hex","correct","choice","accuracy","outcome","keys","total_keys","block","practice","value","sub","trial","stimulus","robot","valence","action","sham"
"pavlovia","0","19","0.0-0.0","battery-v0.2","","""event"",""trial"",""time""
""fullscreenenter"",""1"",""3286""
","
","
","""event"",""trial"",""time""
""fullscreenenter"",""1"",""3286""
","
","","","","","","","","","","","","","","","","","","","","","","","","","","",""
"fullscreen","1","4262","0.0-1.0","battery-v0.2","","""event"",""trial"",""time""
""fullscreenenter"",""1"",""3286""
","
","
","""event"",""trial"",""time""
""fullscreenenter"",""1"",""3286""
","
","true","","","","","","","","","","","","","","","","","","","","","","","","","",""
"pit-instructions","2","9654","0.0-2.0-0.0","battery-v0.2","","""event"",""trial"",""time""
""fullscreenenter"",""1"",""3286""
","
","
","""event"",""trial"",""time""
""fullscreenenter"",""1"",""3286""
","
","","[{""page_index"":0,""viewing_time"":5387.800000011921}]","5388.400000035763","","","","","","","","","","","","","","","","","","","","","","","",""
"pit-comprehension","3","12841","0.0-2.0-1.0-0.0","battery-v0.2","","""event"",""trial"",""time""
""fullscreenenter"",""1"",""3286""
","
","
","""event"",""trial"",""time""
""fullscreenenter"",""1"",""3286""
","
","","","3182.199999988079","[""shark""]","0","21","19571","6936","","","","","","","","","","","","","","","","","","",""
"pit-instructions","4","14230","0.0-2.0-1.0-1.0","battery-v0.2","","""event"",""trial"",""time""
""fullscreenenter"",""1"",""3286""
","
","
","""event"",""trial"",""time""
""fullscreenenter"",""1"",""3286""
","
","","[{""page_index"":0,""viewing_time"":1351.300000011921}]","1351.699999988079","","","","","","","","","","","","","","","","","","","","","","","",""
"pit-comprehension","5","16664","0.0-2.0-2.0-0.0","battery-v0.2","","""event"",""trial"",""time""
""fullscreenenter"",""1"",""3286""
","
","
","""event"",""trial"",""time""
""fullscreenenter"",""1"",""3286""
","
","","","2430.5","[""tiger""]","0","21","19571","6936","","","","","","","","","","","","","","","","","","",""
"pit-instructions","6","18000","0.0-2.0-2.0-1.0","battery-v0.2","","""event"",""trial"",""time""
""fullscreenenter"",""1"",""3286""
","
","
","""event"",""trial"",""time""
""fullscreenenter"",""1"",""3286""
","
","","[{""page_index"":0,""viewing_time"":1333.800000011921}]","1334.3999999761581","","","","","","","","","","","","","","","","","","","","","","","",""
"pit-instructions","7","129460","0.0-2.0-3.0","battery-v0.2","","""event"",""trial"",""time""
""fullscreenenter"",""1"",""3286""
","
","
","""event"",""trial"",""time""
""fullscreenenter"",""1"",""3286""
","
","","[{""page_index"":0,""viewing_time"":8906},{""page_index"":1,""viewing_time"":13227.699999988079},{""page_index"":2,""viewing_time"":7904.899999976158},{""page_index"":3,""viewing_time"":6115.400000035763},{""page_index"":4,""viewing_time"":5203.599999964237},{""page_index"":5,""viewing_time"":5665.900000035763},{""page_index"":6,""viewing_time"":6741.399999976158},{""page_index"":7,""viewing_time"":10019.400000035763},{""page_index"":8,""viewing_time"":8332.699999988079},{""page_index"":9,""viewing_time"":8863.699999988079},{""page_index"":10,""viewing_time"":7211},{""page_index"":11,""viewing_time"":7460.300000011921},{""page_index"":12,""viewing_time"":7260.300000011921},{""page_index"":13,""viewing_time"":8543.699999988079}]","111456.59999996424","","","","","","","","","","","","","","","","","","","","","","","",""
"pit-trial","8","134337","0.0-2.0-4.0-0.0","battery-v0.2","","""event"",""trial"",""time""
""fullscreenenter"",""1"",""3286""
","
","
","""event"",""trial"",""time""
""fullscreenenter"",""1"",""3286""
","
","","","-1","","","21","19571","6936","&#9784;","elianto","#FFFFF080"," ","-1","0","&#10060","[]","0","0","0","","","","","","","",""
"pit-trial","9","137597","0.0-2.0-4.1-0.1","battery-v0.2","","""event"",""trial"",""time""
""fullscreenenter"",""1"",""3286""
","
","
","""event"",""trial"",""time""
""fullscreenenter"",""1"",""3286""
","
","","","395.89999997615814","","","21","19571","6936","&#9784;","elianto","#FFFFF080"," "," ","1","&#10004","[1247.6000000238419]","1","0","0","","","","","","","",""
"pit-trial","10","140849","0.0-2.0-4.2-0.2","battery-v0.2","","""event"",""trial"",""time""
""fullscreenenter"",""1"",""3286""
","
","
","""event"",""trial"",""time""
""fullscreenenter"",""1"",""3286""
","
","","","387.30000001192093","","","21","19571","6936","&#9784;","elianto","#FFFFF080"," "," ","1","&#10004","[1240.199999988079]","1","0","0","","","","","","","",""
"pit-trial","11","144152","0.0-2.0-4.3-0.3","battery-v0.2","","""event"",""trial"",""time""
""fullscreenenter"",""1"",""3286""
","
","
","""event"",""trial"",""time""
""fullscreenenter"",""1"",""3286""
","
","","","443.60000002384186","","","21","19571","6936","&#9784;","elianto","#FFFFF080"," "," ","1","&#10004","[1294.7000000476837]","1","0","0","","","","","","","",""
"pit-trial","12","147480","0.0-2.0-4.4-0.4","battery-v0.2","","""event"",""trial"",""time""
""fullscreenenter"",""1"",""3286""
","
","
","""event"",""trial"",""time""
""fullscreenenter"",""1"",""3286""
","
","","","459.5","","","21","19571","6936","&#9784;","elianto","#FFFFF080"," "," ","1","&#10004","[1317.2000000476837]","1","0","0","","","","","","","",""
"pit-instructions","13","169582","0.0-2.0-5.0","battery-v0.2","","""event"",""trial"",""time""
""fullscreenenter"",""1"",""3286""
","
","
","""event"",""trial"",""time""
""fullscreenenter"",""1"",""3286""
","
","","[{""page_index"":0,""viewing_time"":5314.900000035763},{""page_index"":1,""viewing_time"":5358.099999964237},{""page_index"":2,""viewing_time"":5893.5},{""page_index"":3,""viewing_time"":5530.5}]","22097.400000035763","","","","","","","","","","","","","","","","","","","","","","","",""
"pit-trial","14","174451","0.0-2.0-6.0-0.0","battery-v0.2","","""event"",""trial"",""time""
""fullscreenenter"",""1"",""3286""
","
","
","""event"",""trial"",""time""
""fullscreenenter"",""1"",""3286""
","
","","","-1","","","21","19571","6936","&#9854;","elianto","#FFFFF080","-1","-1","1","&#10004","[]","0","0","1","","","","","","","",""
"pit-trial","15","179319","0.0-2.0-6.1-0.1","battery-v0.2","","""event"",""trial"",""time""
""fullscreenenter"",""1"",""3286""
","
","
","""event"",""trial"",""time""
""fullscreenenter"",""1"",""3286""
","
","","","-1","","","21","19571","6936","&#9854;","elianto","#FFFFF080","-1","-1","1","&#10004","[]","0","0","1","","","","","","","",""
"pit-trial","16","184188","0.0-2.0-6.2-0.2","battery-v0.2","","""event"",""trial"",""time""
""fullscreenenter"",""1"",""3286""
","
","
","""event"",""trial"",""time""
""fullscreenenter"",""1"",""3286""
","
","","","-1","","","21","19571","6936","&#9854;","elianto","#FFFFF080","-1","-1","1","&#10004","[]","0","0","1","","","","","","","",""
"pit-trial","17","189064","0.0-2.0-6.3-0.3","battery-v0.2","","""event"",""trial"",""time""
""fullscreenenter"",""1"",""3286""
","
","
","""event"",""trial"",""time""
""fullscreenenter"",""1"",""3286""
","
","","","-1","","","21","19571","6936","&#9854;","elianto","#FFFFF080","-1","-1","1","&#10004","[]","0","0","1","","","","","","","",""
"pit-trial","18","193937","0.0-2.0-6.4-0.4","battery-v0.2","","""event"",""trial"",""time""
""fullscreenenter"",""1"",""3286""
","
","
","""event"",""trial"",""time""
""fullscreenenter"",""1"",""3286""
","
","","","-1","","","21","19571","6936","&#9854;","elianto","#FFFFF080","-1","-1","1","&#10004","[]","0","0","1","","","","","","","",""
"pit-instructions","19","314516","0.0-2.0-7.0","battery-v0.2","","""event"",""trial"",""time""
""fullscreenenter"",""1"",""3286""
","
","
","""event"",""trial"",""time""
""fullscreenenter"",""1"",""3286""
","
","","[{""page_index"":0,""viewing_time"":6386.399999976158},{""page_index"":1,""viewing_time"":7130.200000047684},{""page_index"":2,""viewing_time"":6391.799999952316},{""page_index"":3,""viewing_time"":6762.200000047684},{""page_index"":4,""viewing_time"":6091.299999952316},{""page_index"":5,""viewing_time"":5588.200000047684},{""page_index"":6,""viewing_time"":4899.799999952316},{""page_index"":7,""viewing_time"":8067.900000035763},{""page_index"":8,""viewing_time"":6982.599999964237},{""page_index"":9,""viewing_time"":6280.400000035763},{""page_index"":10,""viewing_time"":6811.399999976158},{""page_index"":11,""viewing_time"":5157.400000035763},{""page_index"":12,""viewing_time"":6650.899999976158},{""page_index"":13,""viewing_time"":6943.399999976158},{""page_index"":14,""viewing_time"":7416.100000023842},{""page_index"":15,""viewing_time"":7252.899999976158},{""page_index"":16,""viewing_time"":8409.900000035763},{""page_index"":17,""viewing_time"":7350.599999964237}]","120573.89999997616","","","","","","","","","","","","","","","","","","","","","","","",""
"pit-trial","20","318892","0.0-2.0-8.0-0.0","battery-v0.2","","""event"",""trial"",""time""
""fullscreenenter"",""1"",""3286""
","
","
","""event"",""trial"",""time""
""fullscreenenter"",""1"",""3286""
","
","","","1512.5999999642372","","","21","19571","6936","&#9776;","elianto","#3366ff99"," "," ","1","+10","[2369.800000011921]","1","0","1","","","","","","","",""
"pit-trial","21","322726","0.0-2.0-8.0-1.0","battery-v0.2","","""event"",""trial"",""time""
""fullscreenenter"",""1"",""3286""
","
","
","""event"",""trial"",""time""
""fullscreenenter"",""1"",""3286""
","
","","","974.6999999880791","","","21","19571","6936","&#9776;","elianto","#3366ff99"," "," ","1","+10","[1826.699999988079]","1","0","1","","","","","","","",""
"pit-trial","22","326027","0.0-2.0-8.0-2.0","battery-v0.2","","""event"",""trial"",""time""
""fullscreenenter"",""1"",""3286""
","
","
","""event"",""trial"",""time""
""fullscreenenter"",""1"",""3286""
","
","","","442.60000002384186","","","21","19571","6936","&#9776;","elianto","#3366ff99"," "," ","1","+10","[1294.0999999642372]","1","0","1","","","","","","","",""
"pit-trial","23","329292","0.0-2.0-8.0-3.0","battery-v0.2","","""event"",""trial"",""time""
""fullscreenenter"",""1"",""3286""
","
","
","""event"",""trial"",""time""
""fullscreenenter"",""1"",""3286""
","
","","","403","","","21","19571","6936","&#9776;","elianto","#3366ff99"," "," ","1","0","[1253.0999999642372]","1","0","1","","","","","","","",""
"pit-trial","24","332618","0.0-2.0-8.0-4.0","battery-v0.2","","""event"",""trial"",""time""
""fullscreenenter"",""1"",""3286""
","
","
","""event"",""trial"",""time""
""fullscreenenter"",""1"",""3286""
","
","","","468.39999997615814","","","21","19571","6936","&#9776;","elianto","#3366ff99"," "," ","1","+10","[1320.800000011921]","1","0","1","","","","","","","",""
"pit-trial","25","335968","0.0-2.0-8.1-0.1","battery-v0.2","","""event"",""trial"",""time""
""fullscreenenter"",""1"",""3286""
","
","
","""event"",""trial"",""time""
""fullscreenenter"",""1"",""3286""
","
","","","490","","","21","19571","6936","&#9776;","elianto","#3366ff99"," "," ","1","+10","[1344.5]","1","0","1","","","","","","","",""
"pit-trial","26","339295","0.0-2.0-8.1-1.1","battery-v0.2","","""event"",""trial"",""time""
""fullscreenenter"",""1"",""3286""
","
","
","""event"",""trial"",""time""
""fullscreenenter"",""1"",""3286""
","
","","","471.60000002384186","","","21","19571","6936","&#9776;","elianto","#3366ff99"," "," ","1","+10","[1322.699999988079]","1","0","1","","","","","","","",""
"pit-trial","27","342680","0.0-2.0-8.1-2.1","battery-v0.2","","""event"",""trial"",""time""
""fullscreenenter"",""1"",""3286""
","
","
","""event"",""trial"",""time""
""fullscreenenter"",""1"",""3286""
","
","","","528","","","21","19571","6936","&#9776;","elianto","#3366ff99"," "," ","1","+10","[1378.3999999761581]","1","0","1","","","","","","","",""
"pit-trial","28","346189","0.0-2.0-8.1-3.1","battery-v0.2","","""event"",""trial"",""time""
""fullscreenenter"",""1"",""3286""
","
","
","""event"",""trial"",""time""
""fullscreenenter"",""1"",""3286""
","
","","","645.3999999761581","","","21","19571","6936","&#9776;","elianto","#3366ff99"," "," ","1","0","[1504.8999999761581]","1","0","1","","","","","","","",""
"pit-trial","29","349482","0.0-2.0-8.1-4.1","battery-v0.2","","""event"",""trial"",""time""
""fullscreenenter"",""1"",""3286""
","
","
","""event"",""trial"",""time""
""fullscreenenter"",""1"",""3286""
","
","","","433.19999998807907","","","21","19571","6936","&#9776;","elianto","#3366ff99"," "," ","1","+10","[1284.4000000357628]","1","0","1","","","","","","","",""
"pit-trial","30","352948","0.0-2.0-8.2-0.2","battery-v0.2","","""event"",""trial"",""time""
""fullscreenenter"",""1"",""3286""
","
","
","""event"",""trial"",""time""
""fullscreenenter"",""1"",""3286""
","
","","","599.1999999880791","","","21","19571","6936","&#9776;","elianto","#3366ff99"," "," ","1","+10","[1456.699999988079]","1","0","1","","","","","","","",""
"pit-trial","31","356147","0.0-2.0-8.2-1.2","battery-v0.2","","""event"",""trial"",""time""
""fullscreenenter"",""1"",""3286""
","
","
","""event"",""trial"",""time""
""fullscreenenter"",""1"",""3286""
","
","","","332.9000000357628","","","21","19571","6936","&#9776;","elianto","#3366ff99"," "," ","1","+10","[1188.3999999761581]","1","0","1","","","","","","","",""
"pit-trial","32","359351","0.0-2.0-8.2-2.2","battery-v0.2","","""event"",""trial"",""time""
""fullscreenenter"",""1"",""3286""
","
","
","""event"",""trial"",""time""
""fullscreenenter"",""1"",""3286""
","
","","","346","","","21","19571","6936","&#9776;","elianto","#3366ff99"," "," ","1","+10","[1198.8999999761581]","1","0","1","","","","","","","",""
"pit-trial","33","362547","0.0-2.0-8.2-3.2","battery-v0.2","","""event"",""trial"",""time""
""fullscreenenter"",""1"",""3286""
","
","
","""event"",""trial"",""time""
""fullscreenenter"",""1"",""3286""
","
","","","332.69999998807907","","","21","19571","6936","&#9776;","elianto","#3366ff99"," "," ","1","0","[1187.300000011921]","1","0","1","","","","","","","",""
"pit-trial","34","365652","0.0-2.0-8.2-4.2","battery-v0.2","","""event"",""trial"",""time""
""fullscreenenter"",""1"",""3286""
","
","
","""event"",""trial"",""time""
""fullscreenenter"",""1"",""3286""
","
","","","243.0999999642372","","","21","19571","6936","&#9776;","elianto","#3366ff99"," "," ","1","+10","[1094.9000000357628]","1","0","1","","","","","","","",""
"call-function","35","365654","0.0-2.0-9.0","battery-v0.2","","""event"",""trial"",""time""
""fullscreenenter"",""1"",""3286""
","
","
","""event"",""trial"",""time""
""fullscreenenter"",""1"",""3286""
","
","","","","","","","","","","","","","","","","","","","","","","","","","","",""
"pit-instructions","36","409664","0.0-2.0-10.0","battery-v0.2","","""event"",""trial"",""time""
""fullscreenenter"",""1"",""3286""
","
","
","""event"",""trial"",""time""
""fullscreenenter"",""1"",""3286""
","
","","[{""page_index"":0,""viewing_time"":6791.5},{""page_index"":1,""viewing_time"":9521.599999964237},{""page_index"":2,""viewing_time"":9785.699999988079},{""page_index"":3,""viewing_time"":9866.300000011921},{""page_index"":4,""viewing_time"":8052.600000023842}]","44018.5","","","","","","","","","","","","","","","","","","","","","","","",""
"pit-trial","37","413248","0.0-2.0-11.0-0.0","battery-v0.2","","""event"",""trial"",""time""
""fullscreenenter"",""1"",""3286""
","
","
","""event"",""trial"",""time""
""fullscreenenter"",""1"",""3286""
","
","","","714.1999999880791","","","21","19571","6936","&#9761;","elianto","#3366ff99","-1"," ","0","0","[1566.2000000476837]","1","0","2","","","","","","","",""
"pit-trial","38","416435","0.0-2.0-11.0-1.0","battery-v0.2","","""event"",""trial"",""time""
""fullscreenenter"",""1"",""3286""
","
","
","""event"",""trial"",""time""
""fullscreenenter"",""1"",""3286""
","
","","","321.80000001192093","","","21","19571","6936","&#9761;","elianto","#3366ff99","-1"," ","0","0","[1172.4000000357628]","1","0","2","","","","","","","",""
"pit-trial","39","421304","0.0-2.0-11.0-2.0","battery-v0.2","","""event"",""trial"",""time""
""fullscreenenter"",""1"",""3286""
","
","
","""event"",""trial"",""time""
""fullscreenenter"",""1"",""3286""
","
","","","-1","","","21","19571","6936","&#9761;","elianto","#3366ff99","-1","-1","1","+10","[]","0","0","2","","","","","","","",""
"pit-trial","40","425434","0.0-2.0-11.0-3.0","battery-v0.2","","""event"",""trial"",""time""
""fullscreenenter"",""1"",""3286""
","
","
","""event"",""trial"",""time""
""fullscreenenter"",""1"",""3286""
","
","","","1260.9000000357628","","","21","19571","6936","&#9761;","elianto","#3366ff99","-1"," ","0","+10","[2118.899999976158]","1","0","2","","","","","","","",""
"pit-trial","41","429097","0.0-2.0-11.0-4.0","battery-v0.2","","""event"",""trial"",""time""
""fullscreenenter"",""1"",""3286""
","
","
","""event"",""trial"",""time""
""fullscreenenter"",""1"",""3286""
","
","","","793.5","","","21","19571","6936","&#9761;","elianto","#3366ff99","-1"," ","0","0","[1652.800000011921]","1","0","2","","","","","","","",""
"pit-trial","42","433963","0.0-2.0-11.1-0.1","battery-v0.2","","""event"",""trial"",""time""
""fullscreenenter"",""1"",""3286""
","
","
","""event"",""trial"",""time""
""fullscreenenter"",""1"",""3286""
","
","","","-1","","","21","19571","6936","&#9761;","elianto","#3366ff99","-1","-1","1","+10","[]","0","0","2","","","","","","","",""
"pit-trial","43","438843","0.0-2.0-11.1-1.1","battery-v0.2","","""event"",""trial"",""time""
""fullscreenenter"",""1"",""3286""
","
","
","""event"",""trial"",""time""
""fullscreenenter"",""1"",""3286""
","
","","","-1","","","21","19571","6936","&#9761;","elianto","#3366ff99","-1","-1","1","+10","[]","0","0","2","","","","","","","",""
"pit-trial","44","443707","0.0-2.0-11.1-2.1","battery-v0.2","","""event"",""trial"",""time""
""fullscreenenter"",""1"",""3286""
","
","
","""event"",""trial"",""time""
""fullscreenenter"",""1"",""3286""
","
","","","-1","","","21","19571","6936","&#9761;","elianto","#3366ff99","-1","-1","1","+10","[]","0","0","2","","","","","","","",""
"pit-trial","45","448576","0.0-2.0-11.1-3.1","battery-v0.2","","""event"",""trial"",""time""
""fullscreenenter"",""1"",""3286""
","
","
","""event"",""trial"",""time""
""fullscreenenter"",""1"",""3286""
","
","","","-1","","","21","19571","6936","&#9761;","elianto","#3366ff99","-1","-1","1","0","[]","0","0","2","","","","","","","",""
"pit-trial","46","453451","0.0-2.0-11.1-4.1","battery-v0.2","","""event"",""trial"",""time""
""fullscreenenter"",""1"",""3286""
","
","
","""event"",""trial"",""time""
""fullscreenenter"",""1"",""3286""
","
","","","-1","","","21","19571","6936","&#9761;","elianto","#3366ff99","-1","-1","1","+10","[]","0","0","2","","","","","","","",""
"pit-trial","47","458314","0.0-2.0-11.2-0.2","battery-v0.2","","""event"",""trial"",""time""
""fullscreenenter"",""1"",""3286""
","
","
","""event"",""trial"",""time""
""fullscreenenter"",""1"",""3286""
","
","","","-1","","","21","19571","6936","&#9761;","elianto","#3366ff99","-1","-1","1","+10","[]","0","0","2","","","","","","","",""
"pit-trial","48","463182","0.0-2.0-11.2-1.2","battery-v0.2","","""event"",""trial"",""time""
""fullscreenenter"",""1"",""3286""
","
","
","""event"",""trial"",""time""
""fullscreenenter"",""1"",""3286""
","
","","","-1","","","21","19571","6936","&#9761;","elianto","#3366ff99","-1","-1","1","+10","[]","0","0","2","","","","","","","",""
"pit-trial","49","468049","0.0-2.0-11.2-2.2","battery-v0.2","","""event"",""trial"",""time""
""fullscreenenter"",""1"",""3286""
","
","
","""event"",""trial"",""time""
""fullscreenenter"",""1"",""3286""
","
","","","-1","","","21","19571","6936","&#9761;","elianto","#3366ff99","-1","-1","1","+10","[]","0","0","2","","","","","","","",""
"pit-trial","50","472919","0.0-2.0-11.2-3.2","battery-v0.2","","""event"",""trial"",""time""
""fullscreenenter"",""1"",""3286""
","
","
","""event"",""trial"",""time""
""fullscreenenter"",""1"",""3286""
","
","","","-1","","","21","19571","6936","&#9761;","elianto","#3366ff99","-1","-1","1","0","[]","0","0","2","","","","","","","",""
"pit-trial","51","477785","0.0-2.0-11.2-4.2","battery-v0.2","","""event"",""trial"",""time""
""fullscreenenter"",""1"",""3286""
","
","
","""event"",""trial"",""time""
""fullscreenenter"",""1"",""3286""
","
","","","-1","","","21","19571","6936","&#9761;","elianto","#3366ff99","-1","-1","1","+10","[]","0","0","2","","","","","","","",""
"pit-trial","52","482647","0.0-2.0-11.3-0.3","battery-v0.2","","""event"",""trial"",""time""
""fullscreenenter"",""1"",""3286""
","
","
","""event"",""trial"",""time""
""fullscreenenter"",""1"",""3286""
","
","","","-1","","","21","19571","6936","&#9761;","elianto","#3366ff99","-1","-1","1","+10","[]","0","0","2","","","","","","","",""
"pit-trial","53","487506","0.0-2.0-11.3-1.3","battery-v0.2","","""event"",""trial"",""time""
""fullscreenenter"",""1"",""3286""
","
","
","""event"",""trial"",""time""
""fullscreenenter"",""1"",""3286""
","
","","","-1","","","21","19571","6936","&#9761;","elianto","#3366ff99","-1","-1","1","+10","[]","0","0","2","","","","","","","",""
"pit-trial","54","492366","0.0-2.0-11.3-2.3","battery-v0.2","","""event"",""trial"",""time""
""fullscreenenter"",""1"",""3286""
","
","
","""event"",""trial"",""time""
""fullscreenenter"",""1"",""3286""
","
","","","-1","","","21","19571","6936","&#9761;","elianto","#3366ff99","-1","-1","1","+10","[]","0","0","2","","","","","","","",""
"pit-trial","55","497231","0.0-2.0-11.3-3.3","battery-v0.2","","""event"",""trial"",""time""
""fullscreenenter"",""1"",""3286""
","
","
","""event"",""trial"",""time""
""fullscreenenter"",""1"",""3286""
","
","","","-1","","","21","19571","6936","&#9761;","elianto","#3366ff99","-1","-1","1","0","[]","0","0","2","","","","","","","",""
"pit-trial","56","502108","0.0-2.0-11.3-4.3","battery-v0.2","","""event"",""trial"",""time""
""fullscreenenter"",""1"",""3286""
","
","
","""event"",""trial"",""time""
""fullscreenenter"",""1"",""3286""
","
","","","-1","","","21","19571","6936","&#9761;","elianto","#3366ff99","-1","-1","1","+10","[]","0","0","2","","","","","","","",""
"call-function","57","502110","0.0-2.0-12.0","battery-v0.2","","""event"",""trial"",""time""
""fullscreenenter"",""1"",""3286""
","
","
","""event"",""trial"",""time""
""fullscreenenter"",""1"",""3286""
","
","","","","","","","","","","","","","","","","","","","","","","","","","","",""
"pit-instructions","58","537143","0.0-2.0-13.0","battery-v0.2","","""event"",""trial"",""time""
""fullscreenenter"",""1"",""3286""
","
","
","""event"",""trial"",""time""
""fullscreenenter"",""1"",""3286""
","
","","[{""page_index"":0,""viewing_time"":8116.699999988079},{""page_index"":1,""viewing_time"":7441.300000011921},{""page_index"":2,""viewing_time"":3556.600000023842},{""page_index"":3,""viewing_time"":10826.099999964237},{""page_index"":4,""viewing_time"":5089}]","35030.19999998808","","","","","","","","","","","","","","","","","","","","","","","",""
"pit-trial","59","540620","0.0-2.0-14.0-0.0","battery-v0.2","","""event"",""trial"",""time""
""fullscreenenter"",""1"",""3286""
","
","
","""event"",""trial"",""time""
""fullscreenenter"",""1"",""3286""
","
","","","610.1000000238419","","","21","19571","6936","&#9826;","elianto","#f73b6a7A","-1"," ","0","-10","[1468.1000000238419]","1","0","3","","","","","","","",""
"pit-trial","60","543802","0.0-2.0-14.0-1.0","battery-v0.2","","""event"",""trial"",""time""
""fullscreenenter"",""1"",""3286""
","
","
","""event"",""trial"",""time""
""fullscreenenter"",""1"",""3286""
","
","","","320","","","21","19571","6936","&#9826;","elianto","#f73b6a7A","-1"," ","0","-10","[1170.5]","1","0","3","","","","","","","",""
"pit-trial","61","548674","0.0-2.0-14.0-2.0","battery-v0.2","","""event"",""trial"",""time""
""fullscreenenter"",""1"",""3286""
","
","
","""event"",""trial"",""time""
""fullscreenenter"",""1"",""3286""
","
","","","-1","","","21","19571","6936","&#9826;","elianto","#f73b6a7A","-1","-1","1","0","[]","0","0","3","","","","","","","",""
"pit-trial","62","553554","0.0-2.0-14.0-3.0","battery-v0.2","","""event"",""trial"",""time""
""fullscreenenter"",""1"",""3286""
","
","
","""event"",""trial"",""time""
""fullscreenenter"",""1"",""3286""
","
","","","-1","","","21","19571","6936","&#9826;","elianto","#f73b6a7A","-1","-1","1","-10","[]","0","0","3","","","","","","","",""
"pit-trial","63","558433","0.0-2.0-14.0-4.0","battery-v0.2","","""event"",""trial"",""time""
""fullscreenenter"",""1"",""3286""
","
","
","""event"",""trial"",""time""
""fullscreenenter"",""1"",""3286""
","
","","","-1","","","21","19571","6936","&#9826;","elianto","#f73b6a7A","-1","-1","1","0","[]","0","0","3","","","","","","","",""
"pit-trial","64","563306","0.0-2.0-14.1-0.1","battery-v0.2","","""event"",""trial"",""time""
""fullscreenenter"",""1"",""3286""
","
","
","""event"",""trial"",""time""
""fullscreenenter"",""1"",""3286""
","
","","","-1","","","21","19571","6936","&#9826;","elianto","#f73b6a7A","-1","-1","1","0","[]","0","0","3","","","","","","","",""
"pit-trial","65","568167","0.0-2.0-14.1-1.1","battery-v0.2","","""event"",""trial"",""time""
""fullscreenenter"",""1"",""3286""
","
","
","""event"",""trial"",""time""
""fullscreenenter"",""1"",""3286""
","
","","","-1","","","21","19571","6936","&#9826;","elianto","#f73b6a7A","-1","-1","1","0","[]","0","0","3","","","","","","","",""
"pit-trial","66","573035","0.0-2.0-14.1-2.1","battery-v0.2","","""event"",""trial"",""time""
""fullscreenenter"",""1"",""3286""
","
","
","""event"",""trial"",""time""
""fullscreenenter"",""1"",""3286""
","
","","","-1","","","21","19571","6936","&#9826;","elianto","#f73b6a7A","-1","-1","1","0","[]","0","0","3","","","","","","","",""
"pit-trial","67","577906","0.0-2.0-14.1-3.1","battery-v0.2","","""event"",""trial"",""time""
""fullscreenenter"",""1"",""3286""
","
","
","""event"",""trial"",""time""
""fullscreenenter"",""1"",""3286""
","
","","","-1","","","21","19571","6936","&#9826;","elianto","#f73b6a7A","-1","-1","1","-10","[]","0","0","3","","","","","","","",""
"pit-trial","68","582782","0.0-2.0-14.1-4.1","battery-v0.2","","""event"",""trial"",""time""
""fullscreenenter"",""1"",""3286""
","
","
","""event"",""trial"",""time""
""fullscreenenter"",""1"",""3286""
","
","","","-1","","","21","19571","6936","&#9826;","elianto","#f73b6a7A","-1","-1","1","0","[]","0","0","3","","","","","","","",""
"pit-trial","69","587646","0.0-2.0-14.2-0.2","battery-v0.2","","""event"",""trial"",""time""
""fullscreenenter"",""1"",""3286""
","
","
","""event"",""trial"",""time""
""fullscreenenter"",""1"",""3286""
","
","","","-1","","","21","19571","6936","&#9826;","elianto","#f73b6a7A","-1","-1","1","0","[]","0","0","3","","","","","","","",""
"pit-trial","70","592511","0.0-2.0-14.2-1.2","battery-v0.2","","""event"",""trial"",""time""
""fullscreenenter"",""1"",""3286""
","
","
","""event"",""trial"",""time""
""fullscreenenter"",""1"",""3286""
","
","","","-1","","","21","19571","6936","&#9826;","elianto","#f73b6a7A","-1","-1","1","0","[]","0","0","3","","","","","","","",""
"pit-trial","71","597364","0.0-2.0-14.2-2.2","battery-v0.2","","""event"",""trial"",""time""
""fullscreenenter"",""1"",""3286""
","
","
","""event"",""trial"",""time""
""fullscreenenter"",""1"",""3286""
","
","","","-1","","","21","19571","6936","&#9826;","elianto","#f73b6a7A","-1","-1","1","0","[]","0","0","3","","","","","","","",""
"pit-trial","72","602222","0.0-2.0-14.2-3.2","battery-v0.2","","""event"",""trial"",""time""
""fullscreenenter"",""1"",""3286""
","
","
","""event"",""trial"",""time""
""fullscreenenter"",""1"",""3286""
","
","","","-1","","","21","19571","6936","&#9826;","elianto","#f73b6a7A","-1","-1","1","-10","[]","0","0","3","","","","","","","",""
"pit-trial","73","607093","0.0-2.0-14.2-4.2","battery-v0.2","","""event"",""trial"",""time""
""fullscreenenter"",""1"",""3286""
","
","
","""event"",""trial"",""time""
""fullscreenenter"",""1"",""3286""
","
","","","-1","","","21","19571","6936","&#9826;","elianto","#f73b6a7A","-1","-1","1","0","[]","0","0","3","","","","","","","",""
"pit-trial","74","611960","0.0-2.0-14.3-0.3","battery-v0.2","","""event"",""trial"",""time""
""fullscreenenter"",""1"",""3286""
","
","
","""event"",""trial"",""time""
""fullscreenenter"",""1"",""3286""
","
","","","-1","","","21","19571","6936","&#9826;","elianto","#f73b6a7A","-1","-1","1","0","[]","0","0","3","","","","","","","",""
"pit-trial","75","616829","0.0-2.0-14.3-1.3","battery-v0.2","","""event"",""trial"",""time""
""fullscreenenter"",""1"",""3286""
","
","
","""event"",""trial"",""time""
""fullscreenenter"",""1"",""3286""
","
","","","-1","","","21","19571","6936","&#9826;","elianto","#f73b6a7A","-1","-1","1","0","[]","0","0","3","","","","","","","",""
"pit-trial","76","621695","0.0-2.0-14.3-2.3","battery-v0.2","","""event"",""trial"",""time""
""fullscreenenter"",""1"",""3286""
","
","
","""event"",""trial"",""time""
""fullscreenenter"",""1"",""3286""
","
","","","-1","","","21","19571","6936","&#9826;","elianto","#f73b6a7A","-1","-1","1","0","[]","0","0","3","","","","","","","",""
"pit-trial","77","626561","0.0-2.0-14.3-3.3","battery-v0.2","","""event"",""trial"",""time""
""fullscreenenter"",""1"",""3286""
","
","
","""event"",""trial"",""time""
""fullscreenenter"",""1"",""3286""
","
","","","-1","","","21","19571","6936","&#9826;","elianto","#f73b6a7A","-1","-1","1","-10","[]","0","0","3","","","","","","","",""
"pit-trial","78","631436","0.0-2.0-14.3-4.3","battery-v0.2","","""event"",""trial"",""time""
""fullscreenenter"",""1"",""3286""
","
","
","""event"",""trial"",""time""
""fullscreenenter"",""1"",""3286""
","
","","","-1","","","21","19571","6936","&#9826;","elianto","#f73b6a7A","-1","-1","1","0","[]","0","0","3","","","","","","","",""
"call-function","79","631438","0.0-2.0-15.0","battery-v0.2","","""event"",""trial"",""time""
""fullscreenenter"",""1"",""3286""
","
","
","""event"",""trial"",""time""
""fullscreenenter"",""1"",""3286""
","
","","","","","","","","","","","","","","","","","","","","","","","","","","",""
"pit-instructions","80","660689","0.0-2.0-16.0","battery-v0.2","","""event"",""trial"",""time""
""fullscreenenter"",""1"",""3286""
","
","
","""event"",""trial"",""time""
""fullscreenenter"",""1"",""3286""
","
","","[{""page_index"":0,""viewing_time"":11115},{""page_index"":1,""viewing_time"":8286.200000047684},{""page_index"":2,""viewing_time"":4529.099999964237},{""page_index"":3,""viewing_time"":5316.800000011921}]","29247.5","","","","","","","","","","","","","","","","","","","","","","","",""
"pit-trial","81","663928","0.0-2.0-17.0-0.0","battery-v0.2","","""event"",""trial"",""time""
""fullscreenenter"",""1"",""3286""
","
","
","""event"",""trial"",""time""
""fullscreenenter"",""1"",""3286""
","
","","","368.69999998807907","","","21","19571","6936","&#9789;","elianto","#f73b6a7A"," "," ","1","0","[1226.9000000357628]","1","0","4","","","","","","","",""
"pit-trial","82","667006","0.0-2.0-17.0-1.0","battery-v0.2","","""event"",""trial"",""time""
""fullscreenenter"",""1"",""3286""
","
","
","""event"",""trial"",""time""
""fullscreenenter"",""1"",""3286""
","
","","","210.69999998807907","","","21","19571","6936","&#9789;","elianto","#f73b6a7A"," "," ","1","0","[1061.699999988079]","1","0","4","","","","","","","",""
"pit-trial","83","670075","0.0-2.0-17.0-2.0","battery-v0.2","","""event"",""trial"",""time""
""fullscreenenter"",""1"",""3286""
","
","
","""event"",""trial"",""time""
""fullscreenenter"",""1"",""3286""
","
","","","209.4000000357628","","","21","19571","6936","&#9789;","elianto","#f73b6a7A"," "," ","1","0","[1063.199999988079]","1","0","4","","","","","","","",""
"pit-trial","84","673205","0.0-2.0-17.0-3.0","battery-v0.2","","""event"",""trial"",""time""
""fullscreenenter"",""1"",""3286""
","
","
","""event"",""trial"",""time""
""fullscreenenter"",""1"",""3286""
","
","","","263.69999998807907","","","21","19571","6936","&#9789;","elianto","#f73b6a7A"," "," ","1","-10","[1118.699999988079]","1","0","4","","","","","","","",""
"pit-trial","85","676784","0.0-2.0-17.0-4.0","battery-v0.2","","""event"",""trial"",""time""
""fullscreenenter"",""1"",""3286""
","
","
","""event"",""trial"",""time""
""fullscreenenter"",""1"",""3286""
","
","","","711.3000000119209","","","21","19571","6936","&#9789;","elianto","#f73b6a7A"," "," ","1","0","[854.1000000238419,1565.5]","2","0","4","","","","","","","",""
"pit-trial","86","680024","0.0-2.0-17.1-0.1","battery-v0.2","","""event"",""trial"",""time""
""fullscreenenter"",""1"",""3286""
","
","
","""event"",""trial"",""time""
""fullscreenenter"",""1"",""3286""
","
","","","373.2999999523163","","","21","19571","6936","&#9789;","elianto","#f73b6a7A"," "," ","1","0","[1233.7999999523163]","1","0","4","","","","","","","",""
"pit-trial","87","683521","0.0-2.0-17.1-1.1","battery-v0.2","","""event"",""trial"",""time""
""fullscreenenter"",""1"",""3286""
","
","
","""event"",""trial"",""time""
""fullscreenenter"",""1"",""3286""
","
","","","630.4000000357628","","","21","19571","6936","&#9789;","elianto","#f73b6a7A"," "," ","1","0","[1486.199999988079]","1","0","4","","","","","","","",""
"pit-trial","88","686740","0.0-2.0-17.1-2.1","battery-v0.2","","""event"",""trial"",""time""
""fullscreenenter"",""1"",""3286""
","
","
","""event"",""trial"",""time""
""fullscreenenter"",""1"",""3286""
","
","","","353.39999997615814","","","21","19571","6936","&#9789;","elianto","#f73b6a7A"," "," ","1","0","[1208.8999999761581]","1","0","4","","","","","","","",""
"pit-trial","89","689869","0.0-2.0-17.1-3.1","battery-v0.2","","""event"",""trial"",""time""
""fullscreenenter"",""1"",""3286""
","
","
","""event"",""trial"",""time""
""fullscreenenter"",""1"",""3286""
","
","","","263.19999998807907","","","21","19571","6936","&#9789;","elianto","#f73b6a7A"," "," ","1","-10","[1115.800000011921]","1","0","4","","","","","","","",""
"pit-trial","90","693019","0.0-2.0-17.1-4.1","battery-v0.2","","""event"",""trial"",""time""
""fullscreenenter"",""1"",""3286""
","
","
","""event"",""trial"",""time""
""fullscreenenter"",""1"",""3286""
","
","","","295.5","","","21","19571","6936","&#9789;","elianto","#f73b6a7A"," "," ","1","0","[1145.5999999642372]","1","0","4","","","","","","","",""
"pit-trial","91","696275","0.0-2.0-17.2-0.2","battery-v0.2","","""event"",""trial"",""time""
""fullscreenenter"",""1"",""3286""
","
","
","""event"",""trial"",""time""
""fullscreenenter"",""1"",""3286""
","
","","","394.19999998807907","","","21","19571","6936","&#9789;","elianto","#f73b6a7A"," "," ","1","0","[1245.699999988079]","1","0","4","","","","","","","",""
"pit-trial","92","699721","0.0-2.0-17.2-1.2","battery-v0.2","","""event"",""trial"",""time""
""fullscreenenter"",""1"",""3286""
","
","
","""event"",""trial"",""time""
""fullscreenenter"",""1"",""3286""
","
","","","588.3000000119209","","","21","19571","6936","&#9789;","elianto","#f73b6a7A"," "," ","1","0","[1442.5999999642372]","1","0","4","","","","","","","",""
"pit-trial","93","702770","0.0-2.0-17.2-2.2","battery-v0.2","","""event"",""trial"",""time""
""fullscreenenter"",""1"",""3286""
","
","
","""event"",""trial"",""time""
""fullscreenenter"",""1"",""3286""
","
","","","185.80000001192093","","","21","19571","6936","&#9789;","elianto","#f73b6a7A"," "," ","1","0","[1042.800000011921]","1","0","4","","","","","","","",""
"pit-trial","94","706286","0.0-2.0-17.2-3.2","battery-v0.2","","""event"",""trial"",""time""
""fullscreenenter"",""1"",""3286""
","
","
","""event"",""trial"",""time""
""fullscreenenter"",""1"",""3286""
","
","","","659.5","","","21","19571","6936","&#9789;","elianto","#f73b6a7A"," "," ","1","-10","[698.6000000238419,1510]","2","0","4","","","","","","","",""
"pit-trial","95","709761","0.0-2.0-17.2-4.2","battery-v0.2","","""event"",""trial"",""time""
""fullscreenenter"",""1"",""3286""
","
","
","""event"",""trial"",""time""
""fullscreenenter"",""1"",""3286""
","
","","","610.8999999761581","","","21","19571","6936","&#9789;","elianto","#f73b6a7A"," "," ","1","0","[1467]","1","0","4","","","","","","","",""
"pit-trial","96","713156","0.0-2.0-17.3-0.3","battery-v0.2","","""event"",""trial"",""time""
""fullscreenenter"",""1"",""3286""
","
","
","""event"",""trial"",""time""
""fullscreenenter"",""1"",""3286""
","
","","","540.1999999880791","","","21","19571","6936","&#9789;","elianto","#f73b6a7A"," "," ","1","0","[1390.800000011921]","1","0","4","","","","","","","",""
"pit-trial","97","716373","0.0-2.0-17.3-1.3","battery-v0.2","","""event"",""trial"",""time""
""fullscreenenter"",""1"",""3286""
","
","
","""event"",""trial"",""time""
""fullscreenenter"",""1"",""3286""
","
","","","356.39999997615814","","","21","19571","6936","&#9789;","elianto","#f73b6a7A"," "," ","1","0","[1210.800000011921]","1","0","4","","","","","","","",""
"pit-trial","98","721231","0.0-2.0-17.3-2.3","battery-v0.2","","""event"",""trial"",""time""
""fullscreenenter"",""1"",""3286""
","
","
","""event"",""trial"",""time""
""fullscreenenter"",""1"",""3286""
","
","","","-1","","","21","19571","6936","&#9789;","elianto","#f73b6a7A"," ","-1","0","-10","[2876.899999976158]","1","0","4","","","","","","","",""
"pit-trial","99","724147","0.0-2.0-17.3-3.3","battery-v0.2","","""event"",""trial"",""time""
""fullscreenenter"",""1"",""3286""
","
","
","""event"",""trial"",""time""
""fullscreenenter"",""1"",""3286""
","
","","","60.5","","","21","19571","6936","&#9789;","elianto","#f73b6a7A"," "," ","1","-10","[911.5999999642372]","1","0","4","","","","","","","",""
"pit-trial","100","727113","0.0-2.0-17.3-4.3","battery-v0.2","","""event"",""trial"",""time""
""fullscreenenter"",""1"",""3286""
","
","
","""event"",""trial"",""time""
""fullscreenenter"",""1"",""3286""
","
","","","104.5","","","21","19571","6936","&#9789;","elianto","#f73b6a7A"," "," ","1","0","[956.1999999880791]","1","0","4","","","","","","","",""
"call-function","101","727115","0.0-2.0-18.0","battery-v0.2","","""event"",""trial"",""time""
""fullscreenenter"",""1"",""3286""
","
","
","""event"",""trial"",""time""
""fullscreenenter"",""1"",""3286""
","
","","","","","","","","","","","","","","","","","","","","","","","","","","",""
"pit-instructions","102","827657","0.0-2.0-19.0","battery-v0.2","","""event"",""trial"",""time""
""fullscreenenter"",""1"",""3286""
","
","
","""event"",""trial"",""time""
""fullscreenenter"",""1"",""3286""
","
","","[{""page_index"":0,""viewing_time"":6915.800000011921},{""page_index"":1,""viewing_time"":12556.699999988079},{""page_index"":2,""viewing_time"":1247.199999988079},{""page_index"":1,""viewing_time"":10574.199999988079},{""page_index"":2,""viewing_time"":13008.300000011921},{""page_index"":3,""viewing_time"":8112.100000023842},{""page_index"":4,""viewing_time"":8789.899999976158},{""page_index"":5,""viewing_time"":10227.399999976158},{""page_index"":6,""viewing_time"":10101.900000035763},{""page_index"":7,""viewing_time"":8900.300000011921},{""page_index"":8,""viewing_time"":10106.099999964237}]","100540.39999997616","","","","","","","","","","","","","","","","","","","","","","","",""
"pit-comprehension","103","833906","0.0-2.0-20.0-0.0","battery-v0.2","","""event"",""trial"",""time""
""fullscreenenter"",""1"",""3286""
","
","
","""event"",""trial"",""time""
""fullscreenenter"",""1"",""3286""
","
","","","6245.5","[""SPACE""]","0","21","19571","6936","","","","","","","","","","","","","","","","","","",""
"pit-instructions","104","836531","0.0-2.0-20.0-1.0","battery-v0.2","","""event"",""trial"",""time""
""fullscreenenter"",""1"",""3286""
","
","
","""event"",""trial"",""time""
""fullscreenenter"",""1"",""3286""
","
","","[{""page_index"":0,""viewing_time"":2589.800000011921}]","2590.300000011921","","","","","","","","","","","","","","","","","","","","","","","",""
"pit-comprehension","105","844165","0.0-2.0-21.0-0.0","battery-v0.2","","""event"",""trial"",""time""
""fullscreenenter"",""1"",""3286""
","
","
","""event"",""trial"",""time""
""fullscreenenter"",""1"",""3286""
","
","","","7630.799999952316","[""10""]","0","21","19571","6936","","","","","","","","","","","","","","","","","","",""
"pit-instructions","106","845976","0.0-2.0-21.0-1.0","battery-v0.2","","""event"",""trial"",""time""
""fullscreenenter"",""1"",""3286""
","
","
","""event"",""trial"",""time""
""fullscreenenter"",""1"",""3286""
","
","","[{""page_index"":0,""viewing_time"":1779}]","1779.6000000238419","","","","","","","","","","","","","","","","","","","","","","","",""
"pit-comprehension","107","856139","0.0-2.0-22.0-0.0","battery-v0.2","","""event"",""trial"",""time""
""fullscreenenter"",""1"",""3286""
","
","
","""event"",""trial"",""time""
""fullscreenenter"",""1"",""3286""
","
","","","10159.699999988079","[""0""]","0","21","19571","6936","","","","","","","","","","","","","","","","","","",""
"pit-instructions","108","859135","0.0-2.0-22.0-1.0","battery-v0.2","","""event"",""trial"",""time""
""fullscreenenter"",""1"",""3286""
","
","
","""event"",""trial"",""time""
""fullscreenenter"",""1"",""3286""
","
","","[{""page_index"":0,""viewing_time"":2962.399999976158}]","2962.800000011921","","","","","","","","","","","","","","","","","","","","","","","",""
"pit-comprehension","109","879270","0.0-2.0-23.0-0.0","battery-v0.2","","""event"",""trial"",""time""
""fullscreenenter"",""1"",""3286""
","
","
","""event"",""trial"",""time""
""fullscreenenter"",""1"",""3286""
","
","","","20132.899999976158","[""True""]","0","21","19571","6936","","","","","","","","","","","","","","","","","","",""
"pit-instructions","110","881148","0.0-2.0-23.0-1.0","battery-v0.2","","""event"",""trial"",""time""
""fullscreenenter"",""1"",""3286""
","
","
","""event"",""trial"",""time""
""fullscreenenter"",""1"",""3286""
","
","","[{""page_index"":0,""viewing_time"":1837.9000000357628}]","1838.5","","","","","","","","","","","","","","","","","","","","","","","",""
"pit-comprehension","111","890052","0.0-2.0-24.0-0.0","battery-v0.2","","""event"",""trial"",""time""
""fullscreenenter"",""1"",""3286""
","
","
","""event"",""trial"",""time""
""fullscreenenter"",""1"",""3286""
","
","","","8901.199999988079","[""True""]","0","21","19571","6936","","","","","","","","","","","","","","","","","","",""
"pit-instructions","112","896556","0.0-2.0-24.0-1.0","battery-v0.2","","""event"",""trial"",""time""
""fullscreenenter"",""1"",""3286""
","
","
","""event"",""trial"",""time""
""fullscreenenter"",""1"",""3286""
","
","","[{""page_index"":0,""viewing_time"":6470.199999988079}]","6470.599999964237","","","","","","","","","","","","","","","","","","","","","","","",""
"pit-comprehension","113","912503","0.0-2.0-25.0-0.0","battery-v0.2","","""event"",""trial"",""time""
""fullscreenenter"",""1"",""3286""
","
","
","""event"",""trial"",""time""
""fullscreenenter"",""1"",""3286""
","
","","","15943.199999988079","[""True""]","0","21","19571","6936","","","","","","","","","","","","","","","","","","",""
"pit-instructions","114","913920","0.0-2.0-25.0-1.0","battery-v0.2","","""event"",""trial"",""time""
""fullscreenenter"",""1"",""3286""
","
","
","""event"",""trial"",""time""
""fullscreenenter"",""1"",""3286""
","
","","[{""page_index"":0,""viewing_time"":1384.1000000238419}]","1384.5","","","","","","","","","","","","","","","","","","","","","","","",""
"pit-comprehension","115","918586","0.0-2.0-26.0-0.0","battery-v0.2","","""event"",""trial"",""time""
""fullscreenenter"",""1"",""3286""
","
","
","""event"",""trial"",""time""
""fullscreenenter"",""1"",""3286""
","
","","","4662.900000035763","[""False""]","0","21","19571","6936","","","","","","","","","","","","","","","","","","",""
"pit-instructions","116","920155","0.0-2.0-26.0-1.0","battery-v0.2","","""event"",""trial"",""time""
""fullscreenenter"",""1"",""3286""
","
","
","""event"",""trial"",""time""
""fullscreenenter"",""1"",""3286""
","
","","[{""page_index"":0,""viewing_time"":1524.5}]","1525","","","","","","","","","","","","","","","","","","","","","","","",""
"pit-instructions","117","944479","0.0-3.0","battery-v0.2","","""event"",""trial"",""time""
""fullscreenenter"",""1"",""3286""
","
","
","""event"",""trial"",""time""
""fullscreenenter"",""1"",""3286""
","
","","[{""page_index"":0,""viewing_time"":10734.900000035763},{""page_index"":1,""viewing_time"":5527.399999976158},{""page_index"":2,""viewing_time"":8059.400000035763}]","24322.100000023842","","","","","","","","","","","","","","","","","","","","","","","",""
"pit-trial","118","948405","0.0-4.0","battery-v0.2","","""event"",""trial"",""time""
""fullscreenenter"",""1"",""3286""
","
","
","""event"",""trial"",""time""
""fullscreenenter"",""1"",""3286""
","
","","","1061.4000000357628","","","21","19571","6936","&#9728;","elianto","#f73b6a7A","-1"," ","0","-10","[1917.1000000238419]","1","1","","","19571","1","0","4","lose","no-go","0"
"pit-trial","119","952932","0.0-5.0","battery-v0.2","","""event"",""trial"",""time""
""fullscreenenter"",""1"",""3286""
","
","
","""event"",""trial"",""time""
""fullscreenenter"",""1"",""3286""
","
","","","1659.7999999523163","","","21","19571","6936","&#9730;","elianto","#3366ff99"," "," ","1","+10","[2509.699999988079]","1","1","","","19571","2","1","1","win","go","0"
"pit-trial","120","956949","0.0-6.0","battery-v0.2","","""event"",""trial"",""time""
""fullscreenenter"",""1"",""3286""
","
","
","""event"",""trial"",""time""
""fullscreenenter"",""1"",""3286""
","
","","","1153.699999988079","","","21","19571","6936","&#9752;","elianto","#f73b6a7A"," "," ","1","0","[2009]","1","1","","","19571","3","3","3","lose","go","0"
"pit-trial","121","960548","0.0-7.0","battery-v0.2","","""event"",""trial"",""time""
""fullscreenenter"",""1"",""3286""
","
","
","""event"",""trial"",""time""
""fullscreenenter"",""1"",""3286""
","
","","","736.2000000476837","","","21","19571","6936","&#9733;","elianto","#3366ff99","-1"," ","0","0","[1590.9000000357628]","1","1","","","19571","4","2","2","win","no-go","0"
"pit-trial","122","964335","0.0-8.0","battery-v0.2","","""event"",""trial"",""time""
""fullscreenenter"",""1"",""3286""
","
","
","""event"",""trial"",""time""
""fullscreenenter"",""1"",""3286""
","
","","","911.8999999761581","","","21","19571","6936","&#9730;","elianto","#3366ff99"," "," ","1","+10","[1768]","1","1","","","19571","5","1","1","win","go","0"
"pit-trial","123","968474","0.0-9.0","battery-v0.2","","""event"",""trial"",""time""
""fullscreenenter"",""1"",""3286""
","
","
","""event"",""trial"",""time""
""fullscreenenter"",""1"",""3286""
","
","","","1274.699999988079","","","21","19571","6936","&#9752;","elianto","#f73b6a7A"," "," ","1","0","[2128]","1","1","","","19571","6","3","3","lose","go","0"
"pit-trial","124","973358","0.0-10.0","battery-v0.2","","""event"",""trial"",""time""
""fullscreenenter"",""1"",""3286""
","
","
","""event"",""trial"",""time""
""fullscreenenter"",""1"",""3286""
","
","","","-1","","","21","19571","6936","&#9733;","elianto","#3366ff99","-1","-1","1","0","[2951]","1","1","","","19571","7","2","2","win","no-go","1"
"pit-trial","125","976914","0.0-11.0","battery-v0.2","","""event"",""trial"",""time""
""fullscreenenter"",""1"",""3286""
","
","
","""event"",""trial"",""time""
""fullscreenenter"",""1"",""3286""
","
","","","694.6999999880791","","","21","19571","6936","&#9728;","elianto","#f73b6a7A","-1"," ","0","0","[1546.199999988079]","1","1","","","19571","8","0","4","lose","no-go","1"
"pit-trial","126","980304","0.0-12.0","battery-v0.2","","""event"",""trial"",""time""
""fullscreenenter"",""1"",""3286""
","
","
","""event"",""trial"",""time""
""fullscreenenter"",""1"",""3286""
","
","","","530","","","21","19571","6936","&#9730;","elianto","#3366ff99"," "," ","1","+10","[1384.7000000476837]","1","1","","","19571","9","1","1","win","go","0"
"pit-trial","127","985163","0.0-13.0","battery-v0.2","","""event"",""trial"",""time""
""fullscreenenter"",""1"",""3286""
","
","
","""event"",""trial"",""time""
""fullscreenenter"",""1"",""3286""
","
","","","-1","","","21","19571","6936","&#9733;","elianto","#3366ff99","-1","-1","1","0","[]","0","1","","","19571","10","2","2","win","no-go","1"
"pit-trial","128","990023","0.0-14.0","battery-v0.2","","""event"",""trial"",""time""
""fullscreenenter"",""1"",""3286""
","
","
","""event"",""trial"",""time""
""fullscreenenter"",""1"",""3286""
","
","","","-1","","","21","19571","6936","&#9728;","elianto","#f73b6a7A","-1","-1","1","0","[]","0","1","","","19571","11","0","4","lose","no-go","0"
"pit-trial","129","993950","0.0-15.0","battery-v0.2","","""event"",""trial"",""time""
""fullscreenenter"",""1"",""3286""
","
","
","""event"",""trial"",""time""
""fullscreenenter"",""1"",""3286""
","
","","","1064.199999988079","","","21","19571","6936","&#9752;","elianto","#f73b6a7A"," "," ","1","-10","[1915.5]","1","1","","","19571","12","3","3","lose","go","1"
"pit-trial","130","997662","0.0-16.0","battery-v0.2","","""event"",""trial"",""time""
""fullscreenenter"",""1"",""3286""
","
","
","""event"",""trial"",""time""
""fullscreenenter"",""1"",""3286""
","
","","","853.8000000119209","","","21","19571","6936","&#9728;","elianto","#f73b6a7A","-1"," ","0","0","[1707.7999999523163]","1","1","","","19571","13","0","4","lose","no-go","1"
"pit-trial","131","1001618","0.0-17.0","battery-v0.2","","""event"",""trial"",""time""
""fullscreenenter"",""1"",""3286""
","
","
","""event"",""trial"",""time""
""fullscreenenter"",""1"",""3286""
","
","","","1086.1000000238419","","","21","19571","6936","&#9733;","elianto","#3366ff99","-1"," ","0","0","[1937.800000011921]","1","1","","","19571","14","2","2","win","no-go","0"
"pit-trial","132","1005254","0.0-18.0","battery-v0.2","","""event"",""trial"",""time""
""fullscreenenter"",""1"",""3286""
","
","
","""event"",""trial"",""time""
""fullscreenenter"",""1"",""3286""
","
","","","779.5","","","21","19571","6936","&#9730;","elianto","#3366ff99"," "," ","1","0","[1630.6000000238419]","1","1","","","19571","15","1","1","win","go","1"
"pit-trial","133","1010126","0.0-19.0","battery-v0.2","","""event"",""trial"",""time""
""fullscreenenter"",""1"",""3286""
","
","
","""event"",""trial"",""time""
""fullscreenenter"",""1"",""3286""
","
","","","-1","","","21","19571","6936","&#9752;","elianto","#f73b6a7A"," ","-1","0","-10","[2914.599999964237]","1","1","","","19571","16","3","3","lose","go","0"
"pit-trial","134","1013896","0.0-20.0","battery-v0.2","","""event"",""trial"",""time""
""fullscreenenter"",""1"",""3286""
","
","
","""event"",""trial"",""time""
""fullscreenenter"",""1"",""3286""
","
","","","906.8000000119209","","","21","19571","6936","&#9730;","elianto","#3366ff99"," "," ","1","+10","[1764.0999999642372]","1","1","","","19571","17","1","1","win","go","0"
"pit-trial","135","1018754","0.0-21.0","battery-v0.2","","""event"",""trial"",""time""
""fullscreenenter"",""1"",""3286""
","
","
","""event"",""trial"",""time""
""fullscreenenter"",""1"",""3286""
","
","","","-1","","","21","19571","6936","&#9728;","elianto","#f73b6a7A","-1","-1","1","0","[]","0","1","","","19571","18","0","4","lose","no-go","0"
"pit-trial","136","1023502","0.0-22.0","battery-v0.2","","""event"",""trial"",""time""
""fullscreenenter"",""1"",""3286""
","
","
","""event"",""trial"",""time""
""fullscreenenter"",""1"",""3286""
","
","","","1891.4000000357628","","","21","19571","6936","&#9752;","elianto","#f73b6a7A"," "," ","1","0","[44.60000002384186,2742]","2","1","","","19571","19","3","3","lose","go","0"
"pit-trial","137","1028368","0.0-23.0","battery-v0.2","","""event"",""trial"",""time""
""fullscreenenter"",""1"",""3286""
","
","
","""event"",""trial"",""time""
""fullscreenenter"",""1"",""3286""
","
","","","-1","","","21","19571","6936","&#9733;","elianto","#3366ff99","-1","-1","1","+10","[]","0","1","","","19571","20","2","2","win","no-go","0"
"pit-instructions","138","1041611","0.0-24.0","battery-v0.2","","""event"",""trial"",""time""
""fullscreenenter"",""1"",""3286""
","
","
","""event"",""trial"",""time""
""fullscreenenter"",""1"",""3286""
","
","","[{""page_index"":0,""viewing_time"":7022.899999976158},{""page_index"":1,""viewing_time"":6218.5}]","13241.899999976158","","","","","","","","","","","","","","","","","","","","","","","",""
"pit-trial","139","1046443","0.0-25.0","battery-v0.2","","""event"",""trial"",""time""
""fullscreenenter"",""1"",""3286""
","
","
","""event"",""trial"",""time""
""fullscreenenter"",""1"",""3286""
","
","","","1966.199999988079","","","21","19571","6936","b","elianto","#f73b6a7A","-1"," ","0","-10","[2816.899999976158]","1","2","","","19571","21","3","4","lose","no-go","0"
"pit-trial","140","1050466","0.0-26.0","battery-v0.2","","""event"",""trial"",""time""
""fullscreenenter"",""1"",""3286""
","
","
","""event"",""trial"",""time""
""fullscreenenter"",""1"",""3286""
","
","","","1155.699999988079","","","21","19571","6936","t","elianto","#f73b6a7A"," "," ","1","0","[2010]","1","2","","","19571","22","2","3","lose","go","0"
"pit-trial","141","1054276","0.0-27.0","battery-v0.2","","""event"",""trial"",""time""
""fullscreenenter"",""1"",""3286""
","
","
","""event"",""trial"",""time""
""fullscreenenter"",""1"",""3286""
","
","","","948.6999999880791","","","21","19571","6936","n","elianto","#f73b6a7A"," "," ","1","0","[1802.5]","1","2","","","19571","23","0","3","lose","go","0"
"pit-trial","142","1057970","0.0-28.0","battery-v0.2","","""event"",""trial"",""time""
""fullscreenenter"",""1"",""3286""
","
","
","""event"",""trial"",""time""
""fullscreenenter"",""1"",""3286""
","
","","","832.5","","","21","19571","6936","f","elianto","#3366ff99","-1"," ","0","+10","[1683.9000000357628]","1","2","","","19571","24","1","2","win","no-go","1"
"pit-trial","143","1061580","0.0-29.0","battery-v0.2","","""event"",""trial"",""time""
""fullscreenenter"",""1"",""3286""
","
","
","""event"",""trial"",""time""
""fullscreenenter"",""1"",""3286""
","
","","","742.6000000238419","","","21","19571","6936","f","elianto","#3366ff99","-1"," ","0","0","[1602.199999988079]","1","2","","","19571","25","1","2","win","no-go","0"
"pit-trial","144","1065260","0.0-30.0","battery-v0.2","","""event"",""trial"",""time""
""fullscreenenter"",""1"",""3286""
","
","
","""event"",""trial"",""time""
""fullscreenenter"",""1"",""3286""
","
","","","808.6999999880791","","","21","19571","6936","t","elianto","#f73b6a7A"," "," ","1","0","[1660]","1","2","","","19571","26","2","3","lose","go","0"
"pit-trial","145","1068786","0.0-31.0","battery-v0.2","","""event"",""trial"",""time""
""fullscreenenter"",""1"",""3286""
","
","
","""event"",""trial"",""time""
""fullscreenenter"",""1"",""3286""
","
","","","656.4000000357628","","","21","19571","6936","b","elianto","#f73b6a7A","-1"," ","0","-10","[1509.800000011921]","1","2","","","19571","27","3","4","lose","no-go","0"
"pit-trial","146","1072432","0.0-32.0","battery-v0.2","","""event"",""trial"",""time""
""fullscreenenter"",""1"",""3286""
","
","
","""event"",""trial"",""time""
""fullscreenenter"",""1"",""3286""
","
","","","776.6999999880791","","","21","19571","6936","n","elianto","#f73b6a7A"," "," ","1","0","[1627.800000011921]","1","2","","","19571","28","0","3","lose","go","0"
"pit-trial","147","1077302","0.0-33.0","battery-v0.2","","""event"",""trial"",""time""
""fullscreenenter"",""1"",""3286""
","
","
","""event"",""trial"",""time""
""fullscreenenter"",""1"",""3286""
","
","","","-1","","","21","19571","6936","b","elianto","#f73b6a7A","-1","-1","1","0","[]","0","2","","","19571","29","3","4","lose","no-go","0"
"pit-trial","148","1080931","0.0-34.0","battery-v0.2","","""event"",""trial"",""time""
""fullscreenenter"",""1"",""3286""
","
","
","""event"",""trial"",""time""
""fullscreenenter"",""1"",""3286""
","
","","","775","","","21","19571","6936","t","elianto","#f73b6a7A"," "," ","1","0","[1625.300000011921]","1","2","","","19571","30","2","3","lose","go","0"
"pit-trial","149","1085790","0.0-35.0","battery-v0.2","","""event"",""trial"",""time""
""fullscreenenter"",""1"",""3286""
","
","
","""event"",""trial"",""time""
""fullscreenenter"",""1"",""3286""
","
","","","-1","","","21","19571","6936","f","elianto","#3366ff99","-1","-1","1","+10","[]","0","2","","","19571","31","1","2","win","no-go","0"
"pit-trial","150","1089783","0.0-36.0","battery-v0.2","","""event"",""trial"",""time""
""fullscreenenter"",""1"",""3286""
","
","
","""event"",""trial"",""time""
""fullscreenenter"",""1"",""3286""
","
","","","1126.8999999761581","","","21","19571","6936","n","elianto","#f73b6a7A"," "," ","1","0","[1982.199999988079]","1","2","","","19571","32","0","3","lose","go","0"
"pit-trial","151","1094645","0.0-37.0","battery-v0.2","","""event"",""trial"",""time""
""fullscreenenter"",""1"",""3286""
","
","
","""event"",""trial"",""time""
""fullscreenenter"",""1"",""3286""
","
","","","-1","","","21","19571","6936","b","elianto","#f73b6a7A","-1","-1","1","-10","[]","0","2","","","19571","33","3","4","lose","no-go","1"
"pit-trial","152","1098849","0.0-38.0","battery-v0.2","","""event"",""trial"",""time""
""fullscreenenter"",""1"",""3286""
","
","
","""event"",""trial"",""time""
""fullscreenenter"",""1"",""3286""
","
","","","1340.800000011921","","","21","19571","6936","t","elianto","#f73b6a7A"," "," ","1","0","[2192.199999988079]","1","2","","","19571","34","2","3","lose","go","0"
"pit-trial","153","1103714","0.0-39.0","battery-v0.2","","""event"",""trial"",""time""
""fullscreenenter"",""1"",""3286""
","
","
","""event"",""trial"",""time""
""fullscreenenter"",""1"",""3286""
","
","","","-1","","","21","19571","6936","f","elianto","#3366ff99","-1","-1","1","+10","[2861.2000000476837]","1","2","","","19571","35","1","2","win","no-go","0"
"pit-trial","154","1108104","0.0-40.0","battery-v0.2","","""event"",""trial"",""time""
""fullscreenenter"",""1"",""3286""
","
","
","""event"",""trial"",""time""
""fullscreenenter"",""1"",""3286""
","
","","","1534.5999999642372","","","21","19571","6936","n","elianto","#f73b6a7A"," "," ","1","0","[2384.800000011921]","1","2","","","19571","36","0","3","lose","go","0"
"pit-trial","155","1112964","0.0-41.0","battery-v0.2","","""event"",""trial"",""time""
""fullscreenenter"",""1"",""3286""
","
","
","""event"",""trial"",""time""
""fullscreenenter"",""1"",""3286""
","
","","","-1","","","21","19571","6936","t","elianto","#f73b6a7A"," ","-1","0","-10","[]","0","2","","","19571","37","2","3","lose","go","0"
"pit-trial","156","1117825","0.0-42.0","battery-v0.2","","""event"",""trial"",""time""
""fullscreenenter"",""1"",""3286""
","
","
","""event"",""trial"",""time""
""fullscreenenter"",""1"",""3286""
","
","","","-1","","","21","19571","6936","n","elianto","#f73b6a7A"," ","-1","0","-10","[]","0","2","","","19571","38","0","3","lose","go","0"
"pit-trial","157","1122691","0.0-43.0","battery-v0.2","","""event"",""trial"",""time""
""fullscreenenter"",""1"",""3286""
","
","
","""event"",""trial"",""time""
""fullscreenenter"",""1"",""3286""
","
","","","-1","","","21","19571","6936","b","elianto","#f73b6a7A","-1","-1","1","-10","[]","0","2","","","19571","39","3","4","lose","no-go","1"
"pit-trial","158","1126274","0.0-44.0","battery-v0.2","","""event"",""trial"",""time""
""fullscreenenter"",""1"",""3286""
","
","
","""event"",""trial"",""time""
""fullscreenenter"",""1"",""3286""
","
","","","706.7000000476837","","","21","19571","6936","f","elianto","#3366ff99","-1"," ","0","+10","[1564.699999988079]","1","2","","","19571","40","1","2","win","no-go","1"
"pit-trial","159","1130990","0.0-45.0","battery-v0.2","","""event"",""trial"",""time""
""fullscreenenter"",""1"",""3286""
","
","
","""event"",""trial"",""time""
""fullscreenenter"",""1"",""3286""
","
","","","1848.699999988079","","","21","19571","6936","n","elianto","#f73b6a7A"," "," ","1","0","[2699.199999988079]","1","2","","","19571","41","0","3","lose","go","0"
"pit-trial","160","1134788","0.0-46.0","battery-v0.2","","""event"",""trial"",""time""
""fullscreenenter"",""1"",""3286""
","
","
","""event"",""trial"",""time""
""fullscreenenter"",""1"",""3286""
","
","","","928.7999999523163","","","21","19571","6936","f","elianto","#3366ff99","-1"," ","0","0","[1779]","1","2","","","19571","42","1","2","win","no-go","0"
"pit-trial","161","1139053","0.0-47.0","battery-v0.2","","""event"",""trial"",""time""
""fullscreenenter"",""1"",""3286""
","
","
","""event"",""trial"",""time""
""fullscreenenter"",""1"",""3286""
","
","","","1402.5","","","21","19571","6936","t","elianto","#f73b6a7A"," "," ","1","-10","[2257.400000035763]","1","2","","","19571","43","2","3","lose","go","1"
"pit-trial","162","1143926","0.0-48.0","battery-v0.2","","""event"",""trial"",""time""
""fullscreenenter"",""1"",""3286""
","
","
","""event"",""trial"",""time""
""fullscreenenter"",""1"",""3286""
","
","","","-1","","","21","19571","6936","b","elianto","#f73b6a7A","-1","-1","1","-10","[]","0","2","","","19571","44","3","4","lose","no-go","1"
"pit-trial","163","1147968","0.0-49.0","battery-v0.2","","""event"",""trial"",""time""
""fullscreenenter"",""1"",""3286""
","
","
","""event"",""trial"",""time""
""fullscreenenter"",""1"",""3286""
","
","","","1180.3999999761581","","","21","19571","6936","t","elianto","#f73b6a7A"," "," ","1","0","[2035.5999999642372]","1","2","","","19571","45","2","3","lose","go","0"
"pit-trial","164","1151382","0.0-50.0","battery-v0.2","","""event"",""trial"",""time""
""fullscreenenter"",""1"",""3286""
","
","
","""event"",""trial"",""time""
""fullscreenenter"",""1"",""3286""
","
","","","554","","","21","19571","6936","n","elianto","#f73b6a7A"," "," ","1","0","[1404.300000011921]","1","2","","","19571","46","0","3","lose","go","0"
"pit-trial","165","1156254","0.0-51.0","battery-v0.2","","""event"",""trial"",""time""
""fullscreenenter"",""1"",""3286""
","
","
","""event"",""trial"",""time""
""fullscreenenter"",""1"",""3286""
","
","","","-1","","","21","19571","6936","b","elianto","#f73b6a7A","-1","-1","1","0","[3426.300000011921]","1","2","","","19571","47","3","4","lose","no-go","0"
"pit-trial","166","1160293","0.0-52.0","battery-v0.2","","""event"",""trial"",""time""
""fullscreenenter"",""1"",""3286""
","
","
","""event"",""trial"",""time""
""fullscreenenter"",""1"",""3286""
","
","","","1179.9000000357628","","","21","19571","6936","f","elianto","#3366ff99","-1"," ","0","0","[2031.199999988079]","1","2","","","19571","48","1","2","win","no-go","0"
"pit-trial","167","1165154","0.0-53.0","battery-v0.2","","""event"",""trial"",""time""
""fullscreenenter"",""1"",""3286""
","
","
","""event"",""trial"",""time""
""fullscreenenter"",""1"",""3286""
","
","","","-1","","","21","19571","6936","f","elianto","#3366ff99","-1","-1","1","0","[778.0999999642372,3345.599999964237]","2","2","","","19571","49","1","2","win","no-go","1"
"pit-trial","168","1170021","0.0-54.0","battery-v0.2","","""event"",""trial"",""time""
""fullscreenenter"",""1"",""3286""
","
","
","""event"",""trial"",""time""
""fullscreenenter"",""1"",""3286""
","
","","","-1","","","21","19571","6936","b","elianto","#f73b6a7A","-1","-1","1","0","[]","0","2","","","19571","50","3","4","lose","no-go","0"
"pit-trial","169","1173707","0.0-55.0","battery-v0.2","","""event"",""trial"",""time""
""fullscreenenter"",""1"",""3286""
","
","
","""event"",""trial"",""time""
""fullscreenenter"",""1"",""3286""
","
","","","830.3999999761581","","","21","19571","6936","n","elianto","#f73b6a7A"," "," ","1","0","[1680.6000000238419]","1","2","","","19571","51","0","3","lose","go","0"
"pit-trial","170","1177447","0.0-56.0","battery-v0.2","","""event"",""trial"",""time""
""fullscreenenter"",""1"",""3286""
","
","
","""event"",""trial"",""time""
""fullscreenenter"",""1"",""3286""
","
","","","881.8999999761581","","","21","19571","6936","t","elianto","#f73b6a7A"," "," ","1","0","[1735.7999999523163]","1","2","","","19571","52","2","3","lose","go","0"
"pit-trial","171","1180898","0.0-57.0","battery-v0.2","","""event"",""trial"",""time""
""fullscreenenter"",""1"",""3286""
","
","
","""event"",""trial"",""time""
""fullscreenenter"",""1"",""3286""
","
","","","591.8999999761581","","","21","19571","6936","n","elianto","#f73b6a7A"," "," ","1","0","[1442.800000011921]","1","2","","","19571","53","0","3","lose","go","0"
"pit-trial","172","1185766","0.0-58.0","battery-v0.2","","""event"",""trial"",""time""
""fullscreenenter"",""1"",""3286""
","
","
","""event"",""trial"",""time""
""fullscreenenter"",""1"",""3286""
","
","","","-1","","","21","19571","6936","t","elianto","#f73b6a7A"," ","-1","0","-10","[]","0","2","","","19571","54","2","3","lose","go","0"
"pit-trial","173","1190479","0.0-59.0","battery-v0.2","","""event"",""trial"",""time""
""fullscreenenter"",""1"",""3286""
","
","
","""event"",""trial"",""time""
""fullscreenenter"",""1"",""3286""
","
","","","1852.8999999761581","","","21","19571","6936","f","elianto","#3366ff99","-1"," ","0","0","[2703.399999976158]","1","2","","","19571","55","1","2","win","no-go","0"
"pit-trial","174","1195344","0.0-60.0","battery-v0.2","","""event"",""trial"",""time""
""fullscreenenter"",""1"",""3286""
","
","
","""event"",""trial"",""time""
""fullscreenenter"",""1"",""3286""
","
","","","-1","","","21","19571","6936","b","elianto","#f73b6a7A","-1","-1","1","0","[]","0","2","","","19571","56","3","4","lose","no-go","0"
"pit-trial","175","1200216","0.0-61.0","battery-v0.2","","""event"",""trial"",""time""
""fullscreenenter"",""1"",""3286""
","
","
","""event"",""trial"",""time""
""fullscreenenter"",""1"",""3286""
","
","","","-1","","","21","19571","6936","b","elianto","#f73b6a7A","-1","-1","1","0","[]","0","2","","","19571","57","3","4","lose","no-go","0"
"pit-trial","176","1204310","0.0-62.0","battery-v0.2","","""event"",""trial"",""time""
""fullscreenenter"",""1"",""3286""
","
","
","""event"",""trial"",""time""
""fullscreenenter"",""1"",""3286""
","
","","","1237.199999988079","","","21","19571","6936","t","elianto","#f73b6a7A"," "," ","1","0","[2088.699999988079]","1","2","","","19571","58","2","3","lose","go","0"
"pit-trial","177","1207956","0.0-63.0","battery-v0.2","","""event"",""trial"",""time""
""fullscreenenter"",""1"",""3286""
","
","
","""event"",""trial"",""time""
""fullscreenenter"",""1"",""3286""
","
","","","778.7000000476837","","","21","19571","6936","n","elianto","#f73b6a7A"," "," ","1","-10","[1631.1000000238419]","1","2","","","19571","59","0","3","lose","go","1"
"pit-trial","178","1211699","0.0-64.0","battery-v0.2","","""event"",""trial"",""time""
""fullscreenenter"",""1"",""3286""
","
","
","""event"",""trial"",""time""
""fullscreenenter"",""1"",""3286""
","
","","","880.6999999880791","","","21","19571","6936","c","elianto","#3366ff99"," "," ","1","+10","[1737.300000011921]","1","2","","","19571","60","4","1","win","go","0"
"pit-trial","179","1216568","0.0-65.0","battery-v0.2","","""event"",""trial"",""time""
""fullscreenenter"",""1"",""3286""
","
","
","""event"",""trial"",""time""
""fullscreenenter"",""1"",""3286""
","
","","","-1","","","21","19571","6936","t","elianto","#f73b6a7A"," ","-1","0","-10","[]","0","2","","","19571","61","2","3","lose","go","0"
"pit-trial","180","1220225","0.0-66.0","battery-v0.2","","""event"",""trial"",""time""
""fullscreenenter"",""1"",""3286""
","
","
","""event"",""trial"",""time""
""fullscreenenter"",""1"",""3286""
","
","","","793.1999999880791","","","21","19571","6936","b","elianto","#f73b6a7A","-1"," ","0","-10","[1649.5]","1","2","","","19571","62","3","4","lose","no-go","0"
"pit-trial","181","1224258","0.0-67.0","battery-v0.2","","""event"",""trial"",""time""
""fullscreenenter"",""1"",""3286""
","
","
","""event"",""trial"",""time""
""fullscreenenter"",""1"",""3286""
","
","","","1163.5","","","21","19571","6936","c","elianto","#3366ff99"," "," ","1","+10","[2016.300000011921]","1","2","","","19571","63","4","1","win","go","0"
"pit-trial","182","1228157","0.0-68.0","battery-v0.2","","""event"",""trial"",""time""
""fullscreenenter"",""1"",""3286""
","
","
","""event"",""trial"",""time""
""fullscreenenter"",""1"",""3286""
","
","","","1036.0999999642372","","","21","19571","6936","f","elianto","#3366ff99","-1"," ","0","0","[1886.800000011921]","1","2","","","19571","64","1","2","win","no-go","0"
"pit-trial","183","1231853","0.0-69.0","battery-v0.2","","""event"",""trial"",""time""
""fullscreenenter"",""1"",""3286""
","
","
","""event"",""trial"",""time""
""fullscreenenter"",""1"",""3286""
","
","","","833.4000000357628","","","21","19571","6936","z","elianto","#3366ff99","-1"," ","0","0","[1687.4000000357628]","1","2","","","19571","65","5","2","win","no-go","0"
"pit-trial","184","1236723","0.0-70.0","battery-v0.2","","""event"",""trial"",""time""
""fullscreenenter"",""1"",""3286""
","
","
","""event"",""trial"",""time""
""fullscreenenter"",""1"",""3286""
","
","","","-1","","","21","19571","6936","b","elianto","#f73b6a7A","-1","-1","1","-10","[]","0","2","","","19571","66","3","4","lose","no-go","1"
"pit-trial","185","1240355","0.0-71.0","battery-v0.2","","""event"",""trial"",""time""
""fullscreenenter"",""1"",""3286""
","
","
","""event"",""trial"",""time""
""fullscreenenter"",""1"",""3286""
","
","","","769.8000000119209","","","21","19571","6936","f","elianto","#3366ff99","-1"," ","0","0","[1624.5]","1","2","","","19571","67","1","2","win","no-go","0"
"pit-trial","186","1244399","0.0-72.0","battery-v0.2","","""event"",""trial"",""time""
""fullscreenenter"",""1"",""3286""
","
","
","""event"",""trial"",""time""
""fullscreenenter"",""1"",""3286""
","
","","","1184.300000011921","","","21","19571","6936","c","elianto","#3366ff99"," "," ","1","+10","[2037.699999988079]","1","2","","","19571","68","4","1","win","go","0"
"pit-trial","187","1248053","0.0-73.0","battery-v0.2","","""event"",""trial"",""time""
""fullscreenenter"",""1"",""3286""
","
","
","""event"",""trial"",""time""
""fullscreenenter"",""1"",""3286""
","
","","","790.7999999523163","","","21","19571","6936","c","elianto","#3366ff99"," "," ","1","0","[1642.1000000238419]","1","2","","","19571","69","4","1","win","go","1"
"pit-trial","188","1252926","0.0-74.0","battery-v0.2","","""event"",""trial"",""time""
""fullscreenenter"",""1"",""3286""
","
","
","""event"",""trial"",""time""
""fullscreenenter"",""1"",""3286""
","
","","","-1","","","21","19571","6936","f","elianto","#3366ff99","-1","-1","1","+10","[]","0","2","","","19571","70","1","2","win","no-go","0"
"pit-trial","189","1257783","0.0-75.0","battery-v0.2","","""event"",""trial"",""time""
""fullscreenenter"",""1"",""3286""
","
","
","""event"",""trial"",""time""
""fullscreenenter"",""1"",""3286""
","
","","","-1","","","21","19571","6936","t","elianto","#f73b6a7A"," ","-1","0","0","[3015.899999976158]","1","2","","","19571","71","2","3","lose","go","1"
"pit-trial","190","1261467","0.0-76.0","battery-v0.2","","""event"",""trial"",""time""
""fullscreenenter"",""1"",""3286""
","
","
","""event"",""trial"",""time""
""fullscreenenter"",""1"",""3286""
","
","","","816.7999999523163","","","21","19571","6936","z","elianto","#3366ff99","-1"," ","0","+10","[1667.800000011921]","1","2","","","19571","72","5","2","win","no-go","1"
"pit-trial","191","1266332","0.0-77.0","battery-v0.2","","""event"",""trial"",""time""
""fullscreenenter"",""1"",""3286""
","
","
","""event"",""trial"",""time""
""fullscreenenter"",""1"",""3286""
","
","","","-1","","","21","19571","6936","b","elianto","#f73b6a7A","-1","-1","1","0","[]","0","2","","","19571","73","3","4","lose","no-go","0"
"pit-trial","192","1270523","0.0-78.0","battery-v0.2","","""event"",""trial"",""time""
""fullscreenenter"",""1"",""3286""
","
","
","""event"",""trial"",""time""
""fullscreenenter"",""1"",""3286""
","
","","","1336.199999988079","","","21","19571","6936","f","elianto","#3366ff99","-1"," ","0","0","[2186.400000035763]","1","2","","","19571","74","1","2","win","no-go","0"
"pit-trial","193","1274558","0.0-79.0","battery-v0.2","","""event"",""trial"",""time""
""fullscreenenter"",""1"",""3286""
","
","
","""event"",""trial"",""time""
""fullscreenenter"",""1"",""3286""
","
","","","1175.5","","","21","19571","6936","z","elianto","#3366ff99","-1"," ","0","0","[2030]","1","2","","","19571","75","5","2","win","no-go","0"
"pit-trial","194","1278539","0.0-80.0","battery-v0.2","","""event"",""trial"",""time""
""fullscreenenter"",""1"",""3286""
","
","
","""event"",""trial"",""time""
""fullscreenenter"",""1"",""3286""
","
","","","1124","","","21","19571","6936","c","elianto","#3366ff99"," "," ","1","+10","[1976.199999988079]","1","2","","","19571","76","4","1","win","go","0"
"pit-trial","195","1283393","0.0-81.0","battery-v0.2","","""event"",""trial"",""time""
""fullscreenenter"",""1"",""3286""
","
","
","""event"",""trial"",""time""
""fullscreenenter"",""1"",""3286""
","
","","","-1","","","21","19571","6936","b","elianto","#f73b6a7A","-1","-1","1","0","[]","0","2","","","19571","77","3","4","lose","no-go","0"
"pit-trial","196","1287034","0.0-82.0","battery-v0.2","","""event"",""trial"",""time""
""fullscreenenter"",""1"",""3286""
","
","
","""event"",""trial"",""time""
""fullscreenenter"",""1"",""3286""
","
","","","779.8000000119209","","","21","19571","6936","c","elianto","#3366ff99"," "," ","1","+10","[1630.800000011921]","1","2","","","19571","78","4","1","win","go","0"
"pit-trial","197","1290796","0.0-83.0","battery-v0.2","","""event"",""trial"",""time""
""fullscreenenter"",""1"",""3286""
","
","
","""event"",""trial"",""time""
""fullscreenenter"",""1"",""3286""
","
","","","905.3000000119209","","","21","19571","6936","z","elianto","#3366ff99","-1"," ","0","0","[1755.300000011921]","1","2","","","19571","79","5","2","win","no-go","0"
"pit-trial","198","1294619","0.0-84.0","battery-v0.2","","""event"",""trial"",""time""
""fullscreenenter"",""1"",""3286""
","
","
","""event"",""trial"",""time""
""fullscreenenter"",""1"",""3286""
","
","","","963.1000000238419","","","21","19571","6936","c","elianto","#3366ff99"," "," ","1","0","[1814.300000011921]","1","2","","","19571","80","4","1","win","go","1"
"pit-trial","199","1299476","0.0-85.0","battery-v0.2","","""event"",""trial"",""time""
""fullscreenenter"",""1"",""3286""
","
","
","""event"",""trial"",""time""
""fullscreenenter"",""1"",""3286""
","
","","","-1","","","21","19571","6936","b","elianto","#f73b6a7A","-1","-1","1","0","[]","0","2","","","19571","81","3","4","lose","no-go","0"
"pit-trial","200","1303430","0.0-86.0","battery-v0.2","","""event"",""trial"",""time""
""fullscreenenter"",""1"",""3286""
","
","
","""event"",""trial"",""time""
""fullscreenenter"",""1"",""3286""
","
","","","1095.7000000476837","","","21","19571","6936","y","elianto","#f73b6a7A","-1"," ","0","0","[1946.9000000357628]","1","2","","","19571","82","7","4","lose","no-go","1"
"pit-trial","201","1308302","0.0-87.0","battery-v0.2","","""event"",""trial"",""time""
""fullscreenenter"",""1"",""3286""
","
","
","""event"",""trial"",""time""
""fullscreenenter"",""1"",""3286""
","
","","","-1","","","21","19571","6936","z","elianto","#3366ff99","-1","-1","1","+10","[]","0","2","","","19571","83","5","2","win","no-go","0"
"pit-trial","202","1312285","0.0-88.0","battery-v0.2","","""event"",""trial"",""time""
""fullscreenenter"",""1"",""3286""
","
","
","""event"",""trial"",""time""
""fullscreenenter"",""1"",""3286""
","
","","","1123.5","","","21","19571","6936","c","elianto","#3366ff99"," "," ","1","+10","[1975.800000011921]","1","2","","","19571","84","4","1","win","go","0"
"pit-trial","203","1315547","0.0-89.0","battery-v0.2","","""event"",""trial"",""time""
""fullscreenenter"",""1"",""3286""
","
","
","""event"",""trial"",""time""
""fullscreenenter"",""1"",""3286""
","
","","","400.4000000357628","","","21","19571","6936","z","elianto","#3366ff99","-1"," ","0","0","[1252.800000011921]","1","2","","","19571","85","5","2","win","no-go","0"
"pit-trial","204","1319278","0.0-90.0","battery-v0.2","","""event"",""trial"",""time""
""fullscreenenter"",""1"",""3286""
","
","
","""event"",""trial"",""time""
""fullscreenenter"",""1"",""3286""
","
","","","866","","","21","19571","6936","c","elianto","#3366ff99"," "," ","1","+10","[1724.2999999523163]","1","2","","","19571","86","4","1","win","go","0"
"pit-trial","205","1322519","0.0-91.0","battery-v0.2","","""event"",""trial"",""time""
""fullscreenenter"",""1"",""3286""
","
","
","""event"",""trial"",""time""
""fullscreenenter"",""1"",""3286""
","
","","","381","","","21","19571","6936","y","elianto","#f73b6a7A","-1"," ","0","-10","[215.19999998807907,1232.3999999761581]","2","2","","","19571","87","7","4","lose","no-go","0"
"pit-trial","206","1326489","0.0-92.0","battery-v0.2","","""event"",""trial"",""time""
""fullscreenenter"",""1"",""3286""
","
","
","""event"",""trial"",""time""
""fullscreenenter"",""1"",""3286""
","
","","","1106","","","21","19571","6936","h","elianto","#f73b6a7A"," "," ","1","0","[1959.5]","1","2","","","19571","88","6","3","lose","go","0"
"pit-trial","207","1330907","0.0-93.0","battery-v0.2","","""event"",""trial"",""time""
""fullscreenenter"",""1"",""3286""
","
","
","""event"",""trial"",""time""
""fullscreenenter"",""1"",""3286""
","
","","","1558","","","21","19571","6936","z","elianto","#3366ff99","-1"," ","0","0","[2410.5]","1","2","","","19571","89","5","2","win","no-go","0"
"pit-trial","208","1335496","0.0-94.0","battery-v0.2","","""event"",""trial"",""time""
""fullscreenenter"",""1"",""3286""
","
","
","""event"",""trial"",""time""
""fullscreenenter"",""1"",""3286""
","
","","","1730.800000011921","","","21","19571","6936","c","elianto","#3366ff99"," "," ","1","0","[2582.5]","1","2","","","19571","90","4","1","win","go","1"
"pit-trial","209","1340356","0.0-95.0","battery-v0.2","","""event"",""trial"",""time""
""fullscreenenter"",""1"",""3286""
","
","
","""event"",""trial"",""time""
""fullscreenenter"",""1"",""3286""
","
","","","-1","","","21","19571","6936","h","elianto","#f73b6a7A"," ","-1","0","-10","[]","0","2","","","19571","91","6","3","lose","go","0"
"pit-trial","210","1344384","0.0-96.0","battery-v0.2","","""event"",""trial"",""time""
""fullscreenenter"",""1"",""3286""
","
","
","""event"",""trial"",""time""
""fullscreenenter"",""1"",""3286""
","
","","","1170.800000011921","","","21","19571","6936","y","elianto","#f73b6a7A","-1"," ","0","-10","[2021.8999999761581]","1","2","","","19571","92","7","4","lose","no-go","0"
"pit-trial","211","1347956","0.0-97.0","battery-v0.2","","""event"",""trial"",""time""
""fullscreenenter"",""1"",""3286""
","
","
","""event"",""trial"",""time""
""fullscreenenter"",""1"",""3286""
","
","","","710.6999999880791","","","21","19571","6936","h","elianto","#f73b6a7A"," "," ","1","-10","[1564.3999999761581]","1","2","","","19571","93","6","3","lose","go","1"
"pit-trial","212","1352820","0.0-98.0","battery-v0.2","","""event"",""trial"",""time""
""fullscreenenter"",""1"",""3286""
","
","
","""event"",""trial"",""time""
""fullscreenenter"",""1"",""3286""
","
","","","-1","","","21","19571","6936","z","elianto","#3366ff99","-1","-1","1","+10","[]","0","2","","","19571","94","5","2","win","no-go","0"
"pit-trial","213","1356543","0.0-99.0","battery-v0.2","","""event"",""trial"",""time""
""fullscreenenter"",""1"",""3286""
","
","
","""event"",""trial"",""time""
""fullscreenenter"",""1"",""3286""
","
","","","865.8000000119209","","","21","19571","6936","r","elianto","#3366ff99"," "," ","1","+10","[1716.300000011921]","1","2","","","19571","95","8","1","win","go","0"
"pit-trial","214","1361415","0.0-100.0","battery-v0.2","","""event"",""trial"",""time""
""fullscreenenter"",""1"",""3286""
","
","
","""event"",""trial"",""time""
""fullscreenenter"",""1"",""3286""
","
","","","-1","","","21","19571","6936","y","elianto","#f73b6a7A","-1","-1","1","0","[]","0","2","","","19571","96","7","4","lose","no-go","0"
"pit-trial","215","1366275","0.0-101.0","battery-v0.2","","""event"",""trial"",""time""
""fullscreenenter"",""1"",""3286""
","
","
","""event"",""trial"",""time""
""fullscreenenter"",""1"",""3286""
","
","","","-1","","","21","19571","6936","y","elianto","#f73b6a7A","-1","-1","1","0","[]","0","2","","","19571","97","7","4","lose","no-go","0"
"pit-trial","216","1371150","0.0-102.0","battery-v0.2","","""event"",""trial"",""time""
""fullscreenenter"",""1"",""3286""
","
","
","""event"",""trial"",""time""
""fullscreenenter"",""1"",""3286""
","
","","","-1","","","21","19571","6936","z","elianto","#3366ff99","-1","-1","1","0","[]","0","2","","","19571","98","5","2","win","no-go","1"
"pit-trial","217","1374859","0.0-103.0","battery-v0.2","","""event"",""trial"",""time""
""fullscreenenter"",""1"",""3286""
","
","
","""event"",""trial"",""time""
""fullscreenenter"",""1"",""3286""
","
","","","840.8000000119209","","","21","19571","6936","r","elianto","#3366ff99"," "," ","1","+10","[469,1697.5]","2","2","","","19571","99","8","1","win","go","0"
"pit-trial","218","1379723","0.0-104.0","battery-v0.2","","""event"",""trial"",""time""
""fullscreenenter"",""1"",""3286""
","
","
","""event"",""trial"",""time""
""fullscreenenter"",""1"",""3286""
","
","","","-1","","","21","19571","6936","h","elianto","#f73b6a7A"," ","-1","0","-10","[4596.399999976158]","1","2","","","19571","100","6","3","lose","go","0"
"pit-trial","219","1383485","0.0-105.0","battery-v0.2","","""event"",""trial"",""time""
""fullscreenenter"",""1"",""3286""
","
","
","""event"",""trial"",""time""
""fullscreenenter"",""1"",""3286""
","
","","","896.9000000357628","","","21","19571","6936","m","elianto","#3366ff99"," "," ","1","+10","[1749.800000011921]","1","2","","","19571","101","9","1","win","go","0"
"pit-trial","220","1388350","0.0-106.0","battery-v0.2","","""event"",""trial"",""time""
""fullscreenenter"",""1"",""3286""
","
","
","""event"",""trial"",""time""
""fullscreenenter"",""1"",""3286""
","
","","","-1","","","21","19571","6936","z","elianto","#3366ff99","-1","-1","1","+10","[]","0","2","","","19571","102","5","2","win","no-go","0"
"pit-trial","221","1393220","0.0-107.0","battery-v0.2","","""event"",""trial"",""time""
""fullscreenenter"",""1"",""3286""
","
","
","""event"",""trial"",""time""
""fullscreenenter"",""1"",""3286""
","
","","","-1","","","21","19571","6936","y","elianto","#f73b6a7A","-1","-1","1","0","[]","0","2","","","19571","103","7","4","lose","no-go","0"
"pit-trial","222","1397283","0.0-108.0","battery-v0.2","","""event"",""trial"",""time""
""fullscreenenter"",""1"",""3286""
","
","
","""event"",""trial"",""time""
""fullscreenenter"",""1"",""3286""
","
","","","1199.800000011921","","","21","19571","6936","r","elianto","#3366ff99"," "," ","1","+10","[2053.699999988079]","1","2","","","19571","104","8","1","win","go","0"
"pit-trial","223","1401634","0.0-109.0","battery-v0.2","","""event"",""trial"",""time""
""fullscreenenter"",""1"",""3286""
","
","
","""event"",""trial"",""time""
""fullscreenenter"",""1"",""3286""
","
","","","1496.699999988079","","","21","19571","6936","c","elianto","#3366ff99"," "," ","1","+10","[2346.7999999523163]","1","2","","","19571","105","4","1","win","go","0"
"pit-trial","224","1406496","0.0-110.0","battery-v0.2","","""event"",""trial"",""time""
""fullscreenenter"",""1"",""3286""
","
","
","""event"",""trial"",""time""
""fullscreenenter"",""1"",""3286""
","
","","","-1","","","21","19571","6936","h","elianto","#f73b6a7A"," ","-1","0","0","[3158.900000035763]","1","2","","","19571","106","6","3","lose","go","1"
"pit-trial","225","1410167","0.0-111.0","battery-v0.2","","""event"",""trial"",""time""
""fullscreenenter"",""1"",""3286""
","
","
","""event"",""trial"",""time""
""fullscreenenter"",""1"",""3286""
","
","","","810.1000000238419","","","21","19571","6936","r","elianto","#3366ff99"," "," ","1","0","[1661.300000011921]","1","2","","","19571","107","8","1","win","go","1"
"pit-trial","226","1414664","0.0-112.0","battery-v0.2","","""event"",""trial"",""time""
""fullscreenenter"",""1"",""3286""
","
","
","""event"",""trial"",""time""
""fullscreenenter"",""1"",""3286""
","
","","","1621.199999988079","","","21","19571","6936","m","elianto","#3366ff99"," "," ","1","+10","[2478.2999999523163]","1","2","","","19571","108","9","1","win","go","0"
"pit-trial","227","1418892","0.0-113.0","battery-v0.2","","""event"",""trial"",""time""
""fullscreenenter"",""1"",""3286""
","
","
","""event"",""trial"",""time""
""fullscreenenter"",""1"",""3286""
","
","","","1363.5","","","21","19571","6936","z","elianto","#3366ff99","-1"," ","0","0","[2220]","1","2","","","19571","109","5","2","win","no-go","0"
"pit-trial","228","1422502","0.0-114.0","battery-v0.2","","""event"",""trial"",""time""
""fullscreenenter"",""1"",""3286""
","
","
","""event"",""trial"",""time""
""fullscreenenter"",""1"",""3286""
","
","","","745.6000000238419","","","21","19571","6936","r","elianto","#3366ff99"," "," ","1","+10","[1598.300000011921]","1","2","","","19571","110","8","1","win","go","0"
"pit-trial","229","1427366","0.0-115.0","battery-v0.2","","""event"",""trial"",""time""
""fullscreenenter"",""1"",""3286""
","
","
","""event"",""trial"",""time""
""fullscreenenter"",""1"",""3286""
","
","","","-1","","","21","19571","6936","h","elianto","#f73b6a7A"," ","-1","0","-10","[]","0","2","","","19571","111","6","3","lose","go","0"
"pit-trial","230","1430964","0.0-116.0","battery-v0.2","","""event"",""trial"",""time""
""fullscreenenter"",""1"",""3286""
","
","
","""event"",""trial"",""time""
""fullscreenenter"",""1"",""3286""
","
","","","732","","","21","19571","6936","m","elianto","#3366ff99"," "," ","1","+10","[1587.3999999761581]","1","2","","","19571","112","9","1","win","go","0"
"pit-trial","231","1435064","0.0-117.0","battery-v0.2","","""event"",""trial"",""time""
""fullscreenenter"",""1"",""3286""
","
","
","""event"",""trial"",""time""
""fullscreenenter"",""1"",""3286""
","
","","","1228.6000000238419","","","21","19571","6936","z","elianto","#3366ff99","-1"," ","0","+10","[2086]","1","2","","","19571","113","5","2","win","no-go","1"
"pit-trial","232","1439072","0.0-118.0","battery-v0.2","","""event"",""trial"",""time""
""fullscreenenter"",""1"",""3286""
","
","
","""event"",""trial"",""time""
""fullscreenenter"",""1"",""3286""
","
","","","1146.1000000238419","","","21","19571","6936","r","elianto","#3366ff99"," "," ","1","+10","[1998.8999999761581]","1","2","","","19571","114","8","1","win","go","0"
"pit-trial","233","1443943","0.0-119.0","battery-v0.2","","""event"",""trial"",""time""
""fullscreenenter"",""1"",""3286""
","
","
","""event"",""trial"",""time""
""fullscreenenter"",""1"",""3286""
","
","","","-1","","","21","19571","6936","h","elianto","#f73b6a7A"," ","-1","0","0","[]","0","2","","","19571","115","6","3","lose","go","1"
"pit-trial","234","1447945","0.0-120.0","battery-v0.2","","""event"",""trial"",""time""
""fullscreenenter"",""1"",""3286""
","
","
","""event"",""trial"",""time""
""fullscreenenter"",""1"",""3286""
","
","","","1138.7000000476837","","","21","19571","6936","m","elianto","#3366ff99"," "," ","1","+10","[1989.8999999761581]","1","2","","","19571","116","9","1","win","go","0"
"pit-trial","235","1451952","0.0-121.0","battery-v0.2","","""event"",""trial"",""time""
""fullscreenenter"",""1"",""3286""
","
","
","""event"",""trial"",""time""
""fullscreenenter"",""1"",""3286""
","
","","","1150.7999999523163","","","21","19571","6936","z","elianto","#3366ff99","-1"," ","0","0","[2003.199999988079]","1","2","","","19571","117","5","2","win","no-go","0"
"pit-trial","236","1456813","0.0-122.0","battery-v0.2","","""event"",""trial"",""time""
""fullscreenenter"",""1"",""3286""
","
","
","""event"",""trial"",""time""
""fullscreenenter"",""1"",""3286""
","
","","","-1","","","21","19571","6936","h","elianto","#f73b6a7A"," ","-1","0","-10","[]","0","2","","","19571","118","6","3","lose","go","0"
"pit-trial","237","1461199","0.0-123.0","battery-v0.2","","""event"",""trial"",""time""
""fullscreenenter"",""1"",""3286""
","
","
","""event"",""trial"",""time""
""fullscreenenter"",""1"",""3286""
","
","","","1527.199999988079","","","21","19571","6936","m","elianto","#3366ff99"," "," ","1","+10","[2379.900000035763]","1","2","","","19571","119","9","1","win","go","0"
"pit-trial","238","1465033","0.0-124.0","battery-v0.2","","""event"",""trial"",""time""
""fullscreenenter"",""1"",""3286""
","
","
","""event"",""trial"",""time""
""fullscreenenter"",""1"",""3286""
","
","","","970.3999999761581","","","21","19571","6936","r","elianto","#3366ff99"," "," ","1","+10","[1825.199999988079]","1","2","","","19571","120","8","1","win","go","0"
"pit-trial","239","1468480","0.0-125.0","battery-v0.2","","""event"",""trial"",""time""
""fullscreenenter"",""1"",""3286""
","
","
","""event"",""trial"",""time""
""fullscreenenter"",""1"",""3286""
","
","","","589.7999999523163","","","21","19571","6936","r","elianto","#3366ff99"," "," ","1","+10","[1443.5]","1","2","","","19571","121","8","1","win","go","0"
"pit-trial","240","1473344","0.0-126.0","battery-v0.2","","""event"",""trial"",""time""
""fullscreenenter"",""1"",""3286""
","
","
","""event"",""trial"",""time""
""fullscreenenter"",""1"",""3286""
","
","","","-1","","","21","19571","6936","h","elianto","#f73b6a7A"," ","-1","0","-10","[2914.300000011921]","1","2","","","19571","122","6","3","lose","go","0"
"pit-trial","241","1476806","0.0-127.0","battery-v0.2","","""event"",""trial"",""time""
""fullscreenenter"",""1"",""3286""
","
","
","""event"",""trial"",""time""
""fullscreenenter"",""1"",""3286""
","
","","","609.4000000357628","","","21","19571","6936","y","elianto","#f73b6a7A","-1"," ","0","-10","[1459.5]","1","2","","","19571","123","7","4","lose","no-go","0"
"pit-trial","242","1480401","0.0-128.0","battery-v0.2","","""event"",""trial"",""time""
""fullscreenenter"",""1"",""3286""
","
","
","""event"",""trial"",""time""
""fullscreenenter"",""1"",""3286""
","
","","","738","","","21","19571","6936","m","elianto","#3366ff99"," "," ","1","+10","[1589.699999988079]","1","2","","","19571","124","9","1","win","go","0"
"pit-trial","243","1485266","0.0-129.0","battery-v0.2","","""event"",""trial"",""time""
""fullscreenenter"",""1"",""3286""
","
","
","""event"",""trial"",""time""
""fullscreenenter"",""1"",""3286""
","
","","","-1","","","21","19571","6936","y","elianto","#f73b6a7A","-1","-1","1","0","[]","0","2","","","19571","125","7","4","lose","no-go","0"
"pit-trial","244","1490130","0.0-130.0","battery-v0.2","","""event"",""trial"",""time""
""fullscreenenter"",""1"",""3286""
","
","
","""event"",""trial"",""time""
""fullscreenenter"",""1"",""3286""
","
","","","-1","","","21","19571","6936","r","elianto","#3366ff99"," ","-1","0","+10","[]","0","2","","","19571","126","8","1","win","go","1"
"pit-trial","245","1494629","0.0-131.0","battery-v0.2","","""event"",""trial"",""time""
""fullscreenenter"",""1"",""3286""
","
","
","""event"",""trial"",""time""
""fullscreenenter"",""1"",""3286""
","
","","","1642","","","21","19571","6936","h","elianto","#f73b6a7A"," "," ","1","0","[2496.199999988079]","1","2","","","19571","127","6","3","lose","go","0"
"pit-trial","246","1498204","0.0-132.0","battery-v0.2","","""event"",""trial"",""time""
""fullscreenenter"",""1"",""3286""
","
","
","""event"",""trial"",""time""
""fullscreenenter"",""1"",""3286""
","
","","","715.8000000119209","","","21","19571","6936","m","elianto","#3366ff99"," "," ","1","+10","[1570.800000011921]","1","2","","","19571","128","9","1","win","go","0"
"pit-trial","247","1502138","0.0-133.0","battery-v0.2","","""event"",""trial"",""time""
""fullscreenenter"",""1"",""3286""
","
","
","""event"",""trial"",""time""
""fullscreenenter"",""1"",""3286""
","
","","","1078","","","21","19571","6936","h","elianto","#f73b6a7A"," "," ","1","0","[1929.199999988079]","1","2","","","19571","129","6","3","lose","go","0"
"pit-trial","248","1506997","0.0-134.0","battery-v0.2","","""event"",""trial"",""time""
""fullscreenenter"",""1"",""3286""
","
","
","""event"",""trial"",""time""
""fullscreenenter"",""1"",""3286""
","
","","","-1","","","21","19571","6936","r","elianto","#3366ff99"," ","-1","0","+10","[]","0","2","","","19571","130","8","1","win","go","1"
"pit-trial","249","1510510","0.0-135.0","battery-v0.2","","""event"",""trial"",""time""
""fullscreenenter"",""1"",""3286""
","
","
","""event"",""trial"",""time""
""fullscreenenter"",""1"",""3286""
","
","","","655.8000000119209","","","21","19571","6936","m","elianto","#3366ff99"," "," ","1","+10","[1508.4000000357628]","1","2","","","19571","131","9","1","win","go","0"
"pit-trial","250","1515382","0.0-136.0","battery-v0.2","","""event"",""trial"",""time""
""fullscreenenter"",""1"",""3286""
","
","
","""event"",""trial"",""time""
""fullscreenenter"",""1"",""3286""
","
","","","-1","","","21","19571","6936","y","elianto","#f73b6a7A","-1","-1","1","-10","[]","0","2","","","19571","132","7","4","lose","no-go","1"
"pit-trial","251","1519290","0.0-137.0","battery-v0.2","","""event"",""trial"",""time""
""fullscreenenter"",""1"",""3286""
","
","
","""event"",""trial"",""time""
""fullscreenenter"",""1"",""3286""
","
","","","1042.6000000238419","","","21","19571","6936","r","elianto","#3366ff99"," "," ","1","+10","[1894.699999988079]","1","2","","","19571","133","8","1","win","go","0"
"pit-trial","252","1523616","0.0-138.0","battery-v0.2","","""event"",""trial"",""time""
""fullscreenenter"",""1"",""3286""
","
","
","""event"",""trial"",""time""
""fullscreenenter"",""1"",""3286""
","
","","","1457.800000011921","","","21","19571","6936","h","elianto","#f73b6a7A"," "," ","1","0","[2309.199999988079]","1","2","","","19571","134","6","3","lose","go","0"
"pit-trial","253","1527205","0.0-139.0","battery-v0.2","","""event"",""trial"",""time""
""fullscreenenter"",""1"",""3286""
","
","
","""event"",""trial"",""time""
""fullscreenenter"",""1"",""3286""
","
","","","726.8000000119209","","","21","19571","6936","m","elianto","#3366ff99"," "," ","1","0","[1578]","1","2","","","19571","135","9","1","win","go","1"
"pit-trial","254","1532070","0.0-140.0","battery-v0.2","","""event"",""trial"",""time""
""fullscreenenter"",""1"",""3286""
","
","
","""event"",""trial"",""time""
""fullscreenenter"",""1"",""3286""
","
","","","-1","","","21","19571","6936","y","elianto","#f73b6a7A","-1","-1","1","-10","[]","0","2","","","19571","136","7","4","lose","no-go","1"
"pit-trial","255","1535566","0.0-141.0","battery-v0.2","","""event"",""trial"",""time""
""fullscreenenter"",""1"",""3286""
","
","
","""event"",""trial"",""time""
""fullscreenenter"",""1"",""3286""
","
","","","643.1999999880791","","","21","19571","6936","y","elianto","#f73b6a7A","-1"," ","0","-10","[1493.699999988079]","1","2","","","19571","137","7","4","lose","no-go","0"
"pit-trial","256","1538963","0.0-142.0","battery-v0.2","","""event"",""trial"",""time""
""fullscreenenter"",""1"",""3286""
","
","
","""event"",""trial"",""time""
""fullscreenenter"",""1"",""3286""
","
","","","535.8000000119209","","","21","19571","6936","h","elianto","#f73b6a7A"," "," ","1","0","[1386.300000011921]","1","2","","","19571","138","6","3","lose","go","0"
"pit-trial","257","1543068","0.0-143.0","battery-v0.2","","""event"",""trial"",""time""
""fullscreenenter"",""1"",""3286""
","
","
","""event"",""trial"",""time""
""fullscreenenter"",""1"",""3286""
","
","","","1250.199999988079","","","21","19571","6936","m","elianto","#3366ff99"," "," ","1","+10","[2100.699999988079]","1","2","","","19571","139","9","1","win","go","0"
"pit-trial","258","1546649","0.0-144.0","battery-v0.2","","""event"",""trial"",""time""
""fullscreenenter"",""1"",""3286""
","
","
","""event"",""trial"",""time""
""fullscreenenter"",""1"",""3286""
","
","","","719.8000000119209","","","21","19571","6936","r","elianto","#3366ff99"," "," ","1","+10","[1570.9000000357628]","1","2","","","19571","140","8","1","win","go","0"
"pit-instructions","259","1636535","0.0-145.0","battery-v0.2","","""event"",""trial"",""time""
""fullscreenenter"",""1"",""3286""
","
","
","""event"",""trial"",""time""
""fullscreenenter"",""1"",""3286""
","
","","[{""page_index"":0,""viewing_time"":79365.40000003576},{""page_index"":1,""viewing_time"":10519.199999988079}]","89885.19999998808","","","","","","","","","","","","","","","","","","","","","","","",""
"pit-trial","260","1640541","0.0-146.0","battery-v0.2","","""event"",""trial"",""time""
""fullscreenenter"",""1"",""3286""
","
","
","""event"",""trial"",""time""
""fullscreenenter"",""1"",""3286""
","
","","","1148.0999999642372","","","21","19571","6936","j","elianto","#f73b6a7A","-1"," ","0","-10","[1999.800000011921]","1","3","","","19571","141","0","4","lose","no-go","0"
"pit-trial","261","1644335","0.0-147.0","battery-v0.2","","""event"",""trial"",""time""
""fullscreenenter"",""1"",""3286""
","
","
","""event"",""trial"",""time""
""fullscreenenter"",""1"",""3286""
","
","","","924.6999999880791","","","21","19571","6936","w","elianto","#f73b6a7A"," "," ","1","0","[1780.5999999642372]","1","3","","","19571","142","3","3","lose","go","0"
"pit-trial","262","1648025","0.0-148.0","battery-v0.2","","""event"",""trial"",""time""
""fullscreenenter"",""1"",""3286""
","
","
","""event"",""trial"",""time""
""fullscreenenter"",""1"",""3286""
","
","","","827.9000000357628","","","21","19571","6936","e","elianto","#f73b6a7A","-1"," ","0","-10","[1680.800000011921]","1","3","","","19571","143","2","4","lose","no-go","0"
"pit-trial","263","1651864","0.0-149.0","battery-v0.2","","""event"",""trial"",""time""
""fullscreenenter"",""1"",""3286""
","
","
","""event"",""trial"",""time""
""fullscreenenter"",""1"",""3286""
","
","","","972.5","","","21","19571","6936","d","elianto","#3366ff99"," "," ","1","+10","[1828.300000011921]","1","3","","","19571","144","1","1","win","go","0"
"pit-trial","264","1655674","0.0-150.0","battery-v0.2","","""event"",""trial"",""time""
""fullscreenenter"",""1"",""3286""
","
","
","""event"",""trial"",""time""
""fullscreenenter"",""1"",""3286""
","
