"trial_type","trial_index","time_elapsed","internal_node_id","task_version","subject_id","interactions","blur_events","focus_events","fullscreenenter_events","fullscreenexit_events","success","view_history","rt","responses","num_errors","age","subject","participantId","rune","rune_set","hex","correct","choice","accuracy","outcome","keys","total_keys","block","practice","value","sub","trial","stimulus","robot","valence","action","sham"
"pavlovia","0","25","0.0-0.0","battery-v0.2","","""event"",""trial"",""time""
""fullscreenenter"",""1"",""1794""
","
","
","""event"",""trial"",""time""
""fullscreenenter"",""1"",""1794""
","
","","","","","","","","","","","","","","","","","","","","","","","","","","",""
"fullscreen","1","2764","0.0-1.0","battery-v0.2","","""event"",""trial"",""time""
""fullscreenenter"",""1"",""1794""
","
","
","""event"",""trial"",""time""
""fullscreenenter"",""1"",""1794""
","
","true","","","","","","","","","","","","","","","","","","","","","","","","","",""
"pit-instructions","2","6447","0.0-2.0-0.0","battery-v0.2","","""event"",""trial"",""time""
""fullscreenenter"",""1"",""1794""
","
","
","""event"",""trial"",""time""
""fullscreenenter"",""1"",""1794""
","
","","[{""page_index"":0,""viewing_time"":3678.699999809265}]","3679.5","","","","","","","","","","","","","","","","","","","","","","","",""
"pit-comprehension","3","9272","0.0-2.0-1.0-0.0","battery-v0.2","","""event"",""trial"",""time""
""fullscreenenter"",""1"",""1794""
","
","
","""event"",""trial"",""time""
""fullscreenenter"",""1"",""1794""
","
","","","2821.7000000476837","[""shark""]","0","23","5781","329","","","","","","","","","","","","","","","","","","",""
"pit-instructions","4","12024","0.0-2.0-1.0-1.0","battery-v0.2","","""event"",""trial"",""time""
""fullscreenenter"",""1"",""1794""
","
","
","""event"",""trial"",""time""
""fullscreenenter"",""1"",""1794""
","
","","[{""page_index"":0,""viewing_time"":2727.100000143051}]","2727.2000000476837","","","","","","","","","","","","","","","","","","","","","","","",""
"pit-comprehension","5","14592","0.0-2.0-2.0-0.0","battery-v0.2","","""event"",""trial"",""time""
""fullscreenenter"",""1"",""1794""
","
","
","""event"",""trial"",""time""
""fullscreenenter"",""1"",""1794""
","
","","","2565","[""tiger""]","0","23","5781","329","","","","","","","","","","","","","","","","","","",""
"pit-instructions","6","16281","0.0-2.0-2.0-1.0","battery-v0.2","","""event"",""trial"",""time""
""fullscreenenter"",""1"",""1794""
","
","
","""event"",""trial"",""time""
""fullscreenenter"",""1"",""1794""
","
","","[{""page_index"":0,""viewing_time"":1686.7000000476837}]","1686.9000000953674","","","","","","","","","","","","","","","","","","","","","","","",""
"pit-instructions","7","149465","0.0-2.0-3.0","battery-v0.2","","""event"",""trial"",""time""
""fullscreenenter"",""1"",""1794""
","
","
","""event"",""trial"",""time""
""fullscreenenter"",""1"",""1794""
","
","","[{""page_index"":0,""viewing_time"":8563.699999809265},{""page_index"":1,""viewing_time"":9181.200000047684},{""page_index"":2,""viewing_time"":6076.700000047684},{""page_index"":3,""viewing_time"":5246.900000095367},{""page_index"":4,""viewing_time"":5183.799999952316},{""page_index"":5,""viewing_time"":5126.299999952316},{""page_index"":6,""viewing_time"":7192.700000047684},{""page_index"":7,""viewing_time"":6336.599999904633},{""page_index"":8,""viewing_time"":6459.900000095367},{""page_index"":9,""viewing_time"":7773.5},{""page_index"":10,""viewing_time"":45916},{""page_index"":11,""viewing_time"":7077.599999904633},{""page_index"":12,""viewing_time"":7982.200000047684},{""page_index"":13,""viewing_time"":5060.599999904633}]","133177.89999985695","","","","","","","","","","","","","","","","","","","","","","","",""
"pit-trial","8","153261","0.0-2.0-4.0-0.0","battery-v0.2","","""event"",""trial"",""time""
""fullscreenenter"",""1"",""1794""
","
","
","""event"",""trial"",""time""
""fullscreenenter"",""1"",""1794""
","
","","","939","","","23","5781","329","&#9784;","elianto","#FFFFF080"," "," ","1","&#10004","[1790.8999998569489]","1","0","0","","","","","","","",""
"pit-trial","9","156725","0.0-2.0-4.1-0.1","battery-v0.2","","""event"",""trial"",""time""
""fullscreenenter"",""1"",""1794""
","
","
","""event"",""trial"",""time""
""fullscreenenter"",""1"",""1794""
","
","","","610.6000001430511","","","23","5781","329","&#9784;","elianto","#FFFFF080"," "," ","1","&#10004","[1460.6000001430511,1527.7999999523163]","2","0","0","","","","","","","",""
"pit-trial","10","160231","0.0-2.0-4.2-0.2","battery-v0.2","","""event"",""trial"",""time""
""fullscreenenter"",""1"",""1794""
","
","
","""event"",""trial"",""time""
""fullscreenenter"",""1"",""1794""
","
","","","645.7999999523163","","","23","5781","329","&#9784;","elianto","#FFFFF080"," "," ","1","&#10004","[1499.7999999523163]","1","0","0","","","","","","","",""
"pit-trial","11","163706","0.0-2.0-4.3-0.3","battery-v0.2","","""event"",""trial"",""time""
""fullscreenenter"",""1"",""1794""
","
","
","""event"",""trial"",""time""
""fullscreenenter"",""1"",""1794""
","
","","","617.1000001430511","","","23","5781","329","&#9784;","elianto","#FFFFF080"," "," ","1","&#10004","[1469.5999999046326]","1","0","0","","","","","","","",""
"pit-trial","12","167214","0.0-2.0-4.4-0.4","battery-v0.2","","""event"",""trial"",""time""
""fullscreenenter"",""1"",""1794""
","
","
","""event"",""trial"",""time""
""fullscreenenter"",""1"",""1794""
","
","","","654.2000000476837","","","23","5781","329","&#9784;","elianto","#FFFFF080"," "," ","1","&#10004","[1504.1000001430511]","1","0","0","","","","","","","",""
"pit-instructions","13","187346","0.0-2.0-5.0","battery-v0.2","","""event"",""trial"",""time""
""fullscreenenter"",""1"",""1794""
","
","
","""event"",""trial"",""time""
""fullscreenenter"",""1"",""1794""
","
","","[{""page_index"":0,""viewing_time"":4665},{""page_index"":1,""viewing_time"":5022.700000047684},{""page_index"":2,""viewing_time"":4868.799999952316},{""page_index"":3,""viewing_time"":5572.400000095367}]","20129.10000014305","","","","","","","","","","","","","","","","","","","","","","","",""
"pit-trial","14","192202","0.0-2.0-6.0-0.0","battery-v0.2","","""event"",""trial"",""time""
""fullscreenenter"",""1"",""1794""
","
","
","""event"",""trial"",""time""
""fullscreenenter"",""1"",""1794""
","
","","","-1","","","23","5781","329","&#9854;","elianto","#FFFFF080","-1","-1","1","&#10004","[]","0","0","1","","","","","","","",""
"pit-trial","15","197059","0.0-2.0-6.1-0.1","battery-v0.2","","""event"",""trial"",""time""
""fullscreenenter"",""1"",""1794""
","
","
","""event"",""trial"",""time""
""fullscreenenter"",""1"",""1794""
","
","","","-1","","","23","5781","329","&#9854;","elianto","#FFFFF080","-1","-1","1","&#10004","[]","0","0","1","","","","","","","",""
"pit-trial","16","201918","0.0-2.0-6.2-0.2","battery-v0.2","","""event"",""trial"",""time""
""fullscreenenter"",""1"",""1794""
","
","
","""event"",""trial"",""time""
""fullscreenenter"",""1"",""1794""
","
","","","-1","","","23","5781","329","&#9854;","elianto","#FFFFF080","-1","-1","1","&#10004","[]","0","0","1","","","","","","","",""
"pit-trial","17","206776","0.0-2.0-6.3-0.3","battery-v0.2","","""event"",""trial"",""time""
""fullscreenenter"",""1"",""1794""
","
","
","""event"",""trial"",""time""
""fullscreenenter"",""1"",""1794""
","
","","","-1","","","23","5781","329","&#9854;","elianto","#FFFFF080","-1","-1","1","&#10004","[]","0","0","1","","","","","","","",""
"pit-trial","18","211635","0.0-2.0-6.4-0.4","battery-v0.2","","""event"",""trial"",""time""
""fullscreenenter"",""1"",""1794""
""fullscreenexit"",""19"",""299019""
""blur"",""19"",""303853""
""focus"",""19"",""653172""
","""event"",""trial"",""time""
""blur"",""19"",""303853""
","""event"",""trial"",""time""
""focus"",""19"",""653172""
","""event"",""trial"",""time""
""fullscreenenter"",""1"",""1794""
","""event"",""trial"",""time""
""fullscreenexit"",""19"",""299019""
","","","-1","","","23","5781","329","&#9854;","elianto","#FFFFF080","-1","-1","1","&#10004","[]","0","0","1","","","","","","","",""
"pit-instructions","19","858430","0.0-2.0-7.0","battery-v0.2","","""event"",""trial"",""time""
""fullscreenenter"",""1"",""1794""
""fullscreenexit"",""19"",""299019""
""blur"",""19"",""303853""
""focus"",""19"",""653172""
","""event"",""trial"",""time""
""blur"",""19"",""303853""
","""event"",""trial"",""time""
""focus"",""19"",""653172""
","""event"",""trial"",""time""
""fullscreenenter"",""1"",""1794""
","""event"",""trial"",""time""
""fullscreenexit"",""19"",""299019""
","","[{""page_index"":0,""viewing_time"":6907.299999952316},{""page_index"":1,""viewing_time"":8198.099999904633},{""page_index"":2,""viewing_time"":428539},{""page_index"":3,""viewing_time"":8990.700000047684},{""page_index"":4,""viewing_time"":5415.200000047684},{""page_index"":5,""viewing_time"":6072.799999952316},{""page_index"":6,""viewing_time"":4393.299999952316},{""page_index"":7,""viewing_time"":9202},{""page_index"":8,""viewing_time"":7095.400000095367},{""page_index"":9,""viewing_time"":6269.399999856949},{""page_index"":10,""viewing_time"":9541},{""page_index"":11,""viewing_time"":5114.200000047684},{""page_index"":12,""viewing_time"":97826.5},{""page_index"":13,""viewing_time"":7744.299999952316},{""page_index"":14,""viewing_time"":10533.700000047684},{""page_index"":15,""viewing_time"":8336.5},{""page_index"":16,""viewing_time"":6975.400000095367},{""page_index"":17,""viewing_time"":9616.599999904633}]","646772.1999998093","","","","","","","","","","","","","","","","","","","","","","","",""
"pit-trial","20","861988","0.0-2.0-8.0-0.0","battery-v0.2","","""event"",""trial"",""time""
""fullscreenenter"",""1"",""1794""
""fullscreenexit"",""19"",""299019""
""blur"",""19"",""303853""
""focus"",""19"",""653172""
","""event"",""trial"",""time""
""blur"",""19"",""303853""
","""event"",""trial"",""time""
""focus"",""19"",""653172""
","""event"",""trial"",""time""
""fullscreenenter"",""1"",""1794""
","""event"",""trial"",""time""
""fullscreenexit"",""19"",""299019""
","","","702","","","23","5781","329","&#9776;","elianto","#3366ff99"," "," ","1","+10","[1554]","1","0","1","","","","","","","",""
"pit-trial","21","865700","0.0-2.0-8.0-1.0","battery-v0.2","","""event"",""trial"",""time""
""fullscreenenter"",""1"",""1794""
""fullscreenexit"",""19"",""299019""
""blur"",""19"",""303853""
""focus"",""19"",""653172""
","""event"",""trial"",""time""
""blur"",""19"",""303853""
","""event"",""trial"",""time""
""focus"",""19"",""653172""
","""event"",""trial"",""time""
""fullscreenenter"",""1"",""1794""
","""event"",""trial"",""time""
""fullscreenexit"",""19"",""299019""
","","","857","","","23","5781","329","&#9776;","elianto","#3366ff99"," "," ","1","+10","[1708.3000001907349]","1","0","1","","","","","","","",""
"pit-trial","22","869390","0.0-2.0-8.0-2.0","battery-v0.2","","""event"",""trial"",""time""
""fullscreenenter"",""1"",""1794""
""fullscreenexit"",""19"",""299019""
""blur"",""19"",""303853""
""focus"",""19"",""653172""
","""event"",""trial"",""time""
""blur"",""19"",""303853""
","""event"",""trial"",""time""
""focus"",""19"",""653172""
","""event"",""trial"",""time""
""fullscreenenter"",""1"",""1794""
","""event"",""trial"",""time""
""fullscreenexit"",""19"",""299019""
","","","833.5999999046326","","","23","5781","329","&#9776;","elianto","#3366ff99"," "," ","1","+10","[1685.9000000953674]","1","0","1","","","","","","","",""
"pit-trial","23","872834","0.0-2.0-8.0-3.0","battery-v0.2","","""event"",""trial"",""time""
""fullscreenenter"",""1"",""1794""
""fullscreenexit"",""19"",""299019""
""blur"",""19"",""303853""
""focus"",""19"",""653172""
","""event"",""trial"",""time""
""blur"",""19"",""303853""
","""event"",""trial"",""time""
""focus"",""19"",""653172""
","""event"",""trial"",""time""
""fullscreenenter"",""1"",""1794""
","""event"",""trial"",""time""
""fullscreenexit"",""19"",""299019""
","","","588.2000000476837","","","23","5781","329","&#9776;","elianto","#3366ff99"," "," ","1","0","[1441.2000000476837]","1","0","1","","","","","","","",""
"pit-trial","24","876272","0.0-2.0-8.0-4.0","battery-v0.2","","""event"",""trial"",""time""
""fullscreenenter"",""1"",""1794""
""fullscreenexit"",""19"",""299019""
""blur"",""19"",""303853""
""focus"",""19"",""653172""
","""event"",""trial"",""time""
""blur"",""19"",""303853""
","""event"",""trial"",""time""
""focus"",""19"",""653172""
","""event"",""trial"",""time""
""fullscreenenter"",""1"",""1794""
","""event"",""trial"",""time""
""fullscreenexit"",""19"",""299019""
","","","586","","","23","5781","329","&#9776;","elianto","#3366ff99"," "," ","1","+10","[1436.1000001430511]","1","0","1","","","","","","","",""
"pit-trial","25","879891","0.0-2.0-8.1-0.1","battery-v0.2","","""event"",""trial"",""time""
""fullscreenenter"",""1"",""1794""
""fullscreenexit"",""19"",""299019""
""blur"",""19"",""303853""
""focus"",""19"",""653172""
","""event"",""trial"",""time""
""blur"",""19"",""303853""
","""event"",""trial"",""time""
""focus"",""19"",""653172""
","""event"",""trial"",""time""
""fullscreenenter"",""1"",""1794""
","""event"",""trial"",""time""
""fullscreenexit"",""19"",""299019""
","","","759.7000000476837","","","23","5781","329","&#9776;","elianto","#3366ff99"," "," ","1","+10","[1611.7000000476837]","1","0","1","","","","","","","",""
"pit-trial","26","883450","0.0-2.0-8.1-1.1","battery-v0.2","","""event"",""trial"",""time""
""fullscreenenter"",""1"",""1794""
""fullscreenexit"",""19"",""299019""
""blur"",""19"",""303853""
""focus"",""19"",""653172""
","""event"",""trial"",""time""
""blur"",""19"",""303853""
","""event"",""trial"",""time""
""focus"",""19"",""653172""
","""event"",""trial"",""time""
""fullscreenenter"",""1"",""1794""
","""event"",""trial"",""time""
""fullscreenexit"",""19"",""299019""
","","","701.7000000476837","","","23","5781","329","&#9776;","elianto","#3366ff99"," "," ","1","+10","[1552.2999999523163]","1","0","1","","","","","","","",""
"pit-trial","27","886939","0.0-2.0-8.1-2.1","battery-v0.2","","""event"",""trial"",""time""
""fullscreenenter"",""1"",""1794""
""fullscreenexit"",""19"",""299019""
""blur"",""19"",""303853""
""focus"",""19"",""653172""
","""event"",""trial"",""time""
""blur"",""19"",""303853""
","""event"",""trial"",""time""
""focus"",""19"",""653172""
","""event"",""trial"",""time""
""fullscreenenter"",""1"",""1794""
","""event"",""trial"",""time""
""fullscreenexit"",""19"",""299019""
","","","636.3999998569489","","","23","5781","329","&#9776;","elianto","#3366ff99"," "," ","1","+10","[1487.2000000476837]","1","0","1","","","","","","","",""
"pit-trial","28","890434","0.0-2.0-8.1-3.1","battery-v0.2","","""event"",""trial"",""time""
""fullscreenenter"",""1"",""1794""
""fullscreenexit"",""19"",""299019""
""blur"",""19"",""303853""
""focus"",""19"",""653172""
","""event"",""trial"",""time""
""blur"",""19"",""303853""
","""event"",""trial"",""time""
""focus"",""19"",""653172""
","""event"",""trial"",""time""
""fullscreenenter"",""1"",""1794""
","""event"",""trial"",""time""
""fullscreenexit"",""19"",""299019""
","","","638.2000000476837","","","23","5781","329","&#9776;","elianto","#3366ff99"," "," ","1","0","[1488.7000000476837]","1","0","1","","","","","","","",""
"pit-trial","29","893900","0.0-2.0-8.1-4.1","battery-v0.2","","""event"",""trial"",""time""
""fullscreenenter"",""1"",""1794""
""fullscreenexit"",""19"",""299019""
""blur"",""19"",""303853""
""focus"",""19"",""653172""
","""event"",""trial"",""time""
""blur"",""19"",""303853""
","""event"",""trial"",""time""
""focus"",""19"",""653172""
","""event"",""trial"",""time""
""fullscreenenter"",""1"",""1794""
","""event"",""trial"",""time""
""fullscreenexit"",""19"",""299019""
","","","613.0999999046326","","","23","5781","329","&#9776;","elianto","#3366ff99"," "," ","1","+10","[1463.5999999046326]","1","0","1","","","","","","","",""
"pit-trial","30","897331","0.0-2.0-8.2-0.2","battery-v0.2","","""event"",""trial"",""time""
""fullscreenenter"",""1"",""1794""
""fullscreenexit"",""19"",""299019""
""blur"",""19"",""303853""
""focus"",""19"",""653172""
","""event"",""trial"",""time""
""blur"",""19"",""303853""
","""event"",""trial"",""time""
""focus"",""19"",""653172""
","""event"",""trial"",""time""
""fullscreenenter"",""1"",""1794""
","""event"",""trial"",""time""
""fullscreenexit"",""19"",""299019""
","","","570.7000000476837","","","23","5781","329","&#9776;","elianto","#3366ff99"," "," ","1","+10","[1422.4000000953674]","1","0","1","","","","","","","",""
"pit-trial","31","900866","0.0-2.0-8.2-1.2","battery-v0.2","","""event"",""trial"",""time""
""fullscreenenter"",""1"",""1794""
""fullscreenexit"",""19"",""299019""
""blur"",""19"",""303853""
""focus"",""19"",""653172""
","""event"",""trial"",""time""
""blur"",""19"",""303853""
","""event"",""trial"",""time""
""focus"",""19"",""653172""
","""event"",""trial"",""time""
""fullscreenenter"",""1"",""1794""
","""event"",""trial"",""time""
""fullscreenexit"",""19"",""299019""
","","","683.3999998569489","","","23","5781","329","&#9776;","elianto","#3366ff99"," "," ","1","+10","[1533.4000000953674]","1","0","1","","","","","","","",""
"pit-trial","32","904384","0.0-2.0-8.2-2.2","battery-v0.2","","""event"",""trial"",""time""
""fullscreenenter"",""1"",""1794""
""fullscreenexit"",""19"",""299019""
""blur"",""19"",""303853""
""focus"",""19"",""653172""
","""event"",""trial"",""time""
""blur"",""19"",""303853""
","""event"",""trial"",""time""
""focus"",""19"",""653172""
","""event"",""trial"",""time""
""fullscreenenter"",""1"",""1794""
","""event"",""trial"",""time""
""fullscreenexit"",""19"",""299019""
","","","660.7999999523163","","","23","5781","329","&#9776;","elianto","#3366ff99"," "," ","1","+10","[1512.0999999046326]","1","0","1","","","","","","","",""
"pit-trial","33","908035","0.0-2.0-8.2-3.2","battery-v0.2","","""event"",""trial"",""time""
""fullscreenenter"",""1"",""1794""
""fullscreenexit"",""19"",""299019""
""blur"",""19"",""303853""
""focus"",""19"",""653172""
","""event"",""trial"",""time""
""blur"",""19"",""303853""
","""event"",""trial"",""time""
""focus"",""19"",""653172""
","""event"",""trial"",""time""
""fullscreenenter"",""1"",""1794""
","""event"",""trial"",""time""
""fullscreenexit"",""19"",""299019""
","","","798.6000001430511","","","23","5781","329","&#9776;","elianto","#3366ff99"," "," ","1","0","[1649.5]","1","0","1","","","","","","","",""
"pit-trial","34","911530","0.0-2.0-8.2-4.2","battery-v0.2","","""event"",""trial"",""time""
""fullscreenenter"",""1"",""1794""
""fullscreenexit"",""19"",""299019""
""blur"",""19"",""303853""
""focus"",""19"",""653172""
","""event"",""trial"",""time""
""blur"",""19"",""303853""
","""event"",""trial"",""time""
""focus"",""19"",""653172""
","""event"",""trial"",""time""
""fullscreenenter"",""1"",""1794""
","""event"",""trial"",""time""
""fullscreenexit"",""19"",""299019""
","","","637.5999999046326","","","23","5781","329","&#9776;","elianto","#3366ff99"," "," ","1","+10","[1487.9000000953674]","1","0","1","","","","","","","",""
"call-function","35","911531","0.0-2.0-9.0","battery-v0.2","","""event"",""trial"",""time""
""fullscreenenter"",""1"",""1794""
""fullscreenexit"",""19"",""299019""
""blur"",""19"",""303853""
""focus"",""19"",""653172""
","""event"",""trial"",""time""
""blur"",""19"",""303853""
","""event"",""trial"",""time""
""focus"",""19"",""653172""
","""event"",""trial"",""time""
""fullscreenenter"",""1"",""1794""
","""event"",""trial"",""time""
""fullscreenexit"",""19"",""299019""
","","","","","","","","","","","","","","","","","","","","","","","","","","",""
"pit-instructions","36","951172","0.0-2.0-10.0","battery-v0.2","","""event"",""trial"",""time""
""fullscreenenter"",""1"",""1794""
""fullscreenexit"",""19"",""299019""
""blur"",""19"",""303853""
""focus"",""19"",""653172""
","""event"",""trial"",""time""
""blur"",""19"",""303853""
","""event"",""trial"",""time""
""focus"",""19"",""653172""
","""event"",""trial"",""time""
""fullscreenenter"",""1"",""1794""
","""event"",""trial"",""time""
""fullscreenexit"",""19"",""299019""
","","[{""page_index"":0,""viewing_time"":5928.700000047684},{""page_index"":1,""viewing_time"":7591.5},{""page_index"":2,""viewing_time"":9314.400000095367},{""page_index"":3,""viewing_time"":8897.799999952316},{""page_index"":4,""viewing_time"":7905.899999856949}]","39638.60000014305","","","","","","","","","","","","","","","","","","","","","","","",""
"pit-trial","37","955309","0.0-2.0-11.0-0.0","battery-v0.2","","""event"",""trial"",""time""
""fullscreenenter"",""1"",""1794""
""fullscreenexit"",""19"",""299019""
""blur"",""19"",""303853""
""focus"",""19"",""653172""
","""event"",""trial"",""time""
""blur"",""19"",""303853""
","""event"",""trial"",""time""
""focus"",""19"",""653172""
","""event"",""trial"",""time""
""fullscreenenter"",""1"",""1794""
","""event"",""trial"",""time""
""fullscreenexit"",""19"",""299019""
","","","1280.7000000476837","","","23","5781","329","&#9761;","elianto","#3366ff99","-1"," ","0","0","[2133.9000000953674]","1","0","2","","","","","","","",""
"pit-trial","38","958792","0.0-2.0-11.0-1.0","battery-v0.2","","""event"",""trial"",""time""
""fullscreenenter"",""1"",""1794""
""fullscreenexit"",""19"",""299019""
""blur"",""19"",""303853""
""focus"",""19"",""653172""
","""event"",""trial"",""time""
""blur"",""19"",""303853""
","""event"",""trial"",""time""
""focus"",""19"",""653172""
","""event"",""trial"",""time""
""fullscreenenter"",""1"",""1794""
","""event"",""trial"",""time""
""fullscreenexit"",""19"",""299019""
","","","626","","","23","5781","329","&#9761;","elianto","#3366ff99","-1"," ","0","0","[1476]","1","0","2","","","","","","","",""
"pit-trial","39","963652","0.0-2.0-11.0-2.0","battery-v0.2","","""event"",""trial"",""time""
""fullscreenenter"",""1"",""1794""
""fullscreenexit"",""19"",""299019""
""blur"",""19"",""303853""
""focus"",""19"",""653172""
","""event"",""trial"",""time""
""blur"",""19"",""303853""
","""event"",""trial"",""time""
""focus"",""19"",""653172""
","""event"",""trial"",""time""
""fullscreenenter"",""1"",""1794""
","""event"",""trial"",""time""
""fullscreenexit"",""19"",""299019""
","","","-1","","","23","5781","329","&#9761;","elianto","#3366ff99","-1","-1","1","+10","[]","0","0","2","","","","","","","",""
"pit-trial","40","968510","0.0-2.0-11.0-3.0","battery-v0.2","","""event"",""trial"",""time""
""fullscreenenter"",""1"",""1794""
""fullscreenexit"",""19"",""299019""
""blur"",""19"",""303853""
""focus"",""19"",""653172""
","""event"",""trial"",""time""
""blur"",""19"",""303853""
","""event"",""trial"",""time""
""focus"",""19"",""653172""
","""event"",""trial"",""time""
""fullscreenenter"",""1"",""1794""
","""event"",""trial"",""time""
""fullscreenexit"",""19"",""299019""
","","","-1","","","23","5781","329","&#9761;","elianto","#3366ff99","-1","-1","1","0","[]","0","0","2","","","","","","","",""
"pit-trial","41","973364","0.0-2.0-11.0-4.0","battery-v0.2","","""event"",""trial"",""time""
""fullscreenenter"",""1"",""1794""
""fullscreenexit"",""19"",""299019""
""blur"",""19"",""303853""
""focus"",""19"",""653172""
","""event"",""trial"",""time""
""blur"",""19"",""303853""
","""event"",""trial"",""time""
""focus"",""19"",""653172""
","""event"",""trial"",""time""
""fullscreenenter"",""1"",""1794""
","""event"",""trial"",""time""
""fullscreenexit"",""19"",""299019""
","","","-1","","","23","5781","329","&#9761;","elianto","#3366ff99","-1","-1","1","+10","[]","0","0","2","","","","","","","",""
"pit-trial","42","978223","0.0-2.0-11.1-0.1","battery-v0.2","","""event"",""trial"",""time""
""fullscreenenter"",""1"",""1794""
""fullscreenexit"",""19"",""299019""
""blur"",""19"",""303853""
""focus"",""19"",""653172""
","""event"",""trial"",""time""
""blur"",""19"",""303853""
","""event"",""trial"",""time""
""focus"",""19"",""653172""
","""event"",""trial"",""time""
""fullscreenenter"",""1"",""1794""
","""event"",""trial"",""time""
""fullscreenexit"",""19"",""299019""
","","","-1","","","23","5781","329","&#9761;","elianto","#3366ff99","-1","-1","1","+10","[]","0","0","2","","","","","","","",""
"pit-trial","43","983084","0.0-2.0-11.1-1.1","battery-v0.2","","""event"",""trial"",""time""
""fullscreenenter"",""1"",""1794""
""fullscreenexit"",""19"",""299019""
""blur"",""19"",""303853""
""focus"",""19"",""653172""
","""event"",""trial"",""time""
""blur"",""19"",""303853""
","""event"",""trial"",""time""
""focus"",""19"",""653172""
","""event"",""trial"",""time""
""fullscreenenter"",""1"",""1794""
","""event"",""trial"",""time""
""fullscreenexit"",""19"",""299019""
","","","-1","","","23","5781","329","&#9761;","elianto","#3366ff99","-1","-1","1","+10","[]","0","0","2","","","","","","","",""
"pit-trial","44","987949","0.0-2.0-11.1-2.1","battery-v0.2","","""event"",""trial"",""time""
""fullscreenenter"",""1"",""1794""
""fullscreenexit"",""19"",""299019""
""blur"",""19"",""303853""
""focus"",""19"",""653172""
","""event"",""trial"",""time""
""blur"",""19"",""303853""
","""event"",""trial"",""time""
""focus"",""19"",""653172""
","""event"",""trial"",""time""
""fullscreenenter"",""1"",""1794""
","""event"",""trial"",""time""
""fullscreenexit"",""19"",""299019""
","","","-1","","","23","5781","329","&#9761;","elianto","#3366ff99","-1","-1","1","+10","[]","0","0","2","","","","","","","",""
"pit-trial","45","992811","0.0-2.0-11.1-3.1","battery-v0.2","","""event"",""trial"",""time""
""fullscreenenter"",""1"",""1794""
""fullscreenexit"",""19"",""299019""
""blur"",""19"",""303853""
""focus"",""19"",""653172""
","""event"",""trial"",""time""
""blur"",""19"",""303853""
","""event"",""trial"",""time""
""focus"",""19"",""653172""
","""event"",""trial"",""time""
""fullscreenenter"",""1"",""1794""
","""event"",""trial"",""time""
""fullscreenexit"",""19"",""299019""
","","","-1","","","23","5781","329","&#9761;","elianto","#3366ff99","-1","-1","1","0","[]","0","0","2","","","","","","","",""
"pit-trial","46","997673","0.0-2.0-11.1-4.1","battery-v0.2","","""event"",""trial"",""time""
""fullscreenenter"",""1"",""1794""
""fullscreenexit"",""19"",""299019""
""blur"",""19"",""303853""
""focus"",""19"",""653172""
","""event"",""trial"",""time""
""blur"",""19"",""303853""
","""event"",""trial"",""time""
""focus"",""19"",""653172""
","""event"",""trial"",""time""
""fullscreenenter"",""1"",""1794""
","""event"",""trial"",""time""
""fullscreenexit"",""19"",""299019""
","","","-1","","","23","5781","329","&#9761;","elianto","#3366ff99","-1","-1","1","+10","[]","0","0","2","","","","","","","",""
"pit-trial","47","1002534","0.0-2.0-11.2-0.2","battery-v0.2","","""event"",""trial"",""time""
""fullscreenenter"",""1"",""1794""
""fullscreenexit"",""19"",""299019""
""blur"",""19"",""303853""
""focus"",""19"",""653172""
","""event"",""trial"",""time""
""blur"",""19"",""303853""
","""event"",""trial"",""time""
""focus"",""19"",""653172""
","""event"",""trial"",""time""
""fullscreenenter"",""1"",""1794""
","""event"",""trial"",""time""
""fullscreenexit"",""19"",""299019""
","","","-1","","","23","5781","329","&#9761;","elianto","#3366ff99","-1","-1","1","+10","[]","0","0","2","","","","","","","",""
"pit-trial","48","1007395","0.0-2.0-11.2-1.2","battery-v0.2","","""event"",""trial"",""time""
""fullscreenenter"",""1"",""1794""
""fullscreenexit"",""19"",""299019""
""blur"",""19"",""303853""
""focus"",""19"",""653172""
","""event"",""trial"",""time""
""blur"",""19"",""303853""
","""event"",""trial"",""time""
""focus"",""19"",""653172""
","""event"",""trial"",""time""
""fullscreenenter"",""1"",""1794""
","""event"",""trial"",""time""
""fullscreenexit"",""19"",""299019""
","","","-1","","","23","5781","329","&#9761;","elianto","#3366ff99","-1","-1","1","+10","[]","0","0","2","","","","","","","",""
"pit-trial","49","1012249","0.0-2.0-11.2-2.2","battery-v0.2","","""event"",""trial"",""time""
""fullscreenenter"",""1"",""1794""
""fullscreenexit"",""19"",""299019""
""blur"",""19"",""303853""
""focus"",""19"",""653172""
","""event"",""trial"",""time""
""blur"",""19"",""303853""
","""event"",""trial"",""time""
""focus"",""19"",""653172""
","""event"",""trial"",""time""
""fullscreenenter"",""1"",""1794""
","""event"",""trial"",""time""
""fullscreenexit"",""19"",""299019""
","","","-1","","","23","5781","329","&#9761;","elianto","#3366ff99","-1","-1","1","+10","[]","0","0","2","","","","","","","",""
"pit-trial","50","1017109","0.0-2.0-11.2-3.2","battery-v0.2","","""event"",""trial"",""time""
""fullscreenenter"",""1"",""1794""
""fullscreenexit"",""19"",""299019""
""blur"",""19"",""303853""
""focus"",""19"",""653172""
","""event"",""trial"",""time""
""blur"",""19"",""303853""
","""event"",""trial"",""time""
""focus"",""19"",""653172""
","""event"",""trial"",""time""
""fullscreenenter"",""1"",""1794""
","""event"",""trial"",""time""
""fullscreenexit"",""19"",""299019""
","","","-1","","","23","5781","329","&#9761;","elianto","#3366ff99","-1","-1","1","0","[]","0","0","2","","","","","","","",""
"pit-trial","51","1021969","0.0-2.0-11.2-4.2","battery-v0.2","","""event"",""trial"",""time""
""fullscreenenter"",""1"",""1794""
""fullscreenexit"",""19"",""299019""
""blur"",""19"",""303853""
""focus"",""19"",""653172""
","""event"",""trial"",""time""
""blur"",""19"",""303853""
","""event"",""trial"",""time""
""focus"",""19"",""653172""
","""event"",""trial"",""time""
""fullscreenenter"",""1"",""1794""
","""event"",""trial"",""time""
""fullscreenexit"",""19"",""299019""
","","","-1","","","23","5781","329","&#9761;","elianto","#3366ff99","-1","-1","1","+10","[]","0","0","2","","","","","","","",""
"pit-trial","52","1026828","0.0-2.0-11.3-0.3","battery-v0.2","","""event"",""trial"",""time""
""fullscreenenter"",""1"",""1794""
""fullscreenexit"",""19"",""299019""
""blur"",""19"",""303853""
""focus"",""19"",""653172""
","""event"",""trial"",""time""
""blur"",""19"",""303853""
","""event"",""trial"",""time""
""focus"",""19"",""653172""
","""event"",""trial"",""time""
""fullscreenenter"",""1"",""1794""
","""event"",""trial"",""time""
""fullscreenexit"",""19"",""299019""
","","","-1","","","23","5781","329","&#9761;","elianto","#3366ff99","-1","-1","1","+10","[]","0","0","2","","","","","","","",""
"pit-trial","53","1031687","0.0-2.0-11.3-1.3","battery-v0.2","","""event"",""trial"",""time""
""fullscreenenter"",""1"",""1794""
""fullscreenexit"",""19"",""299019""
""blur"",""19"",""303853""
""focus"",""19"",""653172""
","""event"",""trial"",""time""
""blur"",""19"",""303853""
","""event"",""trial"",""time""
""focus"",""19"",""653172""
","""event"",""trial"",""time""
""fullscreenenter"",""1"",""1794""
","""event"",""trial"",""time""
""fullscreenexit"",""19"",""299019""
","","","-1","","","23","5781","329","&#9761;","elianto","#3366ff99","-1","-1","1","+10","[]","0","0","2","","","","","","","",""
"pit-trial","54","1036546","0.0-2.0-11.3-2.3","battery-v0.2","","""event"",""trial"",""time""
""fullscreenenter"",""1"",""1794""
""fullscreenexit"",""19"",""299019""
""blur"",""19"",""303853""
""focus"",""19"",""653172""
","""event"",""trial"",""time""
""blur"",""19"",""303853""
","""event"",""trial"",""time""
""focus"",""19"",""653172""
","""event"",""trial"",""time""
""fullscreenenter"",""1"",""1794""
","""event"",""trial"",""time""
""fullscreenexit"",""19"",""299019""
","","","-1","","","23","5781","329","&#9761;","elianto","#3366ff99","-1","-1","1","+10","[]","0","0","2","","","","","","","",""
"pit-trial","55","1041405","0.0-2.0-11.3-3.3","battery-v0.2","","""event"",""trial"",""time""
""fullscreenenter"",""1"",""1794""
""fullscreenexit"",""19"",""299019""
""blur"",""19"",""303853""
""focus"",""19"",""653172""
","""event"",""trial"",""time""
""blur"",""19"",""303853""
","""event"",""trial"",""time""
""focus"",""19"",""653172""
","""event"",""trial"",""time""
""fullscreenenter"",""1"",""1794""
","""event"",""trial"",""time""
""fullscreenexit"",""19"",""299019""
","","","-1","","","23","5781","329","&#9761;","elianto","#3366ff99","-1","-1","1","0","[]","0","0","2","","","","","","","",""
"pit-trial","56","1046265","0.0-2.0-11.3-4.3","battery-v0.2","","""event"",""trial"",""time""
""fullscreenenter"",""1"",""1794""
""fullscreenexit"",""19"",""299019""
""blur"",""19"",""303853""
""focus"",""19"",""653172""
","""event"",""trial"",""time""
""blur"",""19"",""303853""
","""event"",""trial"",""time""
""focus"",""19"",""653172""
","""event"",""trial"",""time""
""fullscreenenter"",""1"",""1794""
","""event"",""trial"",""time""
""fullscreenexit"",""19"",""299019""
","","","-1","","","23","5781","329","&#9761;","elianto","#3366ff99","-1","-1","1","+10","[]","0","0","2","","","","","","","",""
"call-function","57","1046266","0.0-2.0-12.0","battery-v0.2","","""event"",""trial"",""time""
""fullscreenenter"",""1"",""1794""
""fullscreenexit"",""19"",""299019""
""blur"",""19"",""303853""
""focus"",""19"",""653172""
","""event"",""trial"",""time""
""blur"",""19"",""303853""
","""event"",""trial"",""time""
""focus"",""19"",""653172""
","""event"",""trial"",""time""
""fullscreenenter"",""1"",""1794""
","""event"",""trial"",""time""
""fullscreenexit"",""19"",""299019""
","","","","","","","","","","","","","","","","","","","","","","","","","","",""
"pit-instructions","58","1078336","0.0-2.0-13.0","battery-v0.2","","""event"",""trial"",""time""
""fullscreenenter"",""1"",""1794""
""fullscreenexit"",""19"",""299019""
""blur"",""19"",""303853""
""focus"",""19"",""653172""
","""event"",""trial"",""time""
""blur"",""19"",""303853""
","""event"",""trial"",""time""
""focus"",""19"",""653172""
","""event"",""trial"",""time""
""fullscreenenter"",""1"",""1794""
","""event"",""trial"",""time""
""fullscreenexit"",""19"",""299019""
","","[{""page_index"":0,""viewing_time"":5487},{""page_index"":1,""viewing_time"":7447},{""page_index"":2,""viewing_time"":3324.7000000476837},{""page_index"":3,""viewing_time"":10439.599999904633},{""page_index"":4,""viewing_time"":5370.099999904633}]","32068.599999904633","","","","","","","","","","","","","","","","","","","","","","","",""
"pit-trial","59","1081873","0.0-2.0-14.0-0.0","battery-v0.2","","""event"",""trial"",""time""
""fullscreenenter"",""1"",""1794""
""fullscreenexit"",""19"",""299019""
""blur"",""19"",""303853""
""focus"",""19"",""653172""
","""event"",""trial"",""time""
""blur"",""19"",""303853""
","""event"",""trial"",""time""
""focus"",""19"",""653172""
","""event"",""trial"",""time""
""fullscreenenter"",""1"",""1794""
","""event"",""trial"",""time""
""fullscreenexit"",""19"",""299019""
","","","685.0999999046326","","","23","5781","329","&#9826;","elianto","#f73b6a7A","-1"," ","0","-10","[1535.2999999523163]","1","0","3","","","","","","","",""
"pit-trial","60","1086729","0.0-2.0-14.0-1.0","battery-v0.2","","""event"",""trial"",""time""
""fullscreenenter"",""1"",""1794""
""fullscreenexit"",""19"",""299019""
""blur"",""19"",""303853""
""focus"",""19"",""653172""
","""event"",""trial"",""time""
""blur"",""19"",""303853""
","""event"",""trial"",""time""
""focus"",""19"",""653172""
","""event"",""trial"",""time""
""fullscreenenter"",""1"",""1794""
","""event"",""trial"",""time""
""fullscreenexit"",""19"",""299019""
","","","-1","","","23","5781","329","&#9826;","elianto","#f73b6a7A","-1","-1","1","0","[]","0","0","3","","","","","","","",""
"pit-trial","61","1091586","0.0-2.0-14.0-2.0","battery-v0.2","","""event"",""trial"",""time""
""fullscreenenter"",""1"",""1794""
""fullscreenexit"",""19"",""299019""
""blur"",""19"",""303853""
""focus"",""19"",""653172""
","""event"",""trial"",""time""
""blur"",""19"",""303853""
","""event"",""trial"",""time""
""focus"",""19"",""653172""
","""event"",""trial"",""time""
""fullscreenenter"",""1"",""1794""
","""event"",""trial"",""time""
""fullscreenexit"",""19"",""299019""
","","","-1","","","23","5781","329","&#9826;","elianto","#f73b6a7A","-1","-1","1","0","[]","0","0","3","","","","","","","",""
"pit-trial","62","1096444","0.0-2.0-14.0-3.0","battery-v0.2","","""event"",""trial"",""time""
""fullscreenenter"",""1"",""1794""
""fullscreenexit"",""19"",""299019""
""blur"",""19"",""303853""
""focus"",""19"",""653172""
","""event"",""trial"",""time""
""blur"",""19"",""303853""
","""event"",""trial"",""time""
""focus"",""19"",""653172""
","""event"",""trial"",""time""
""fullscreenenter"",""1"",""1794""
","""event"",""trial"",""time""
""fullscreenexit"",""19"",""299019""
","","","-1","","","23","5781","329","&#9826;","elianto","#f73b6a7A","-1","-1","1","-10","[]","0","0","3","","","","","","","",""
"pit-trial","63","1101299","0.0-2.0-14.0-4.0","battery-v0.2","","""event"",""trial"",""time""
""fullscreenenter"",""1"",""1794""
""fullscreenexit"",""19"",""299019""
""blur"",""19"",""303853""
""focus"",""19"",""653172""
","""event"",""trial"",""time""
""blur"",""19"",""303853""
","""event"",""trial"",""time""
""focus"",""19"",""653172""
","""event"",""trial"",""time""
""fullscreenenter"",""1"",""1794""
","""event"",""trial"",""time""
""fullscreenexit"",""19"",""299019""
","","","-1","","","23","5781","329","&#9826;","elianto","#f73b6a7A","-1","-1","1","0","[]","0","0","3","","","","","","","",""
"pit-trial","64","1106157","0.0-2.0-14.1-0.1","battery-v0.2","","""event"",""trial"",""time""
""fullscreenenter"",""1"",""1794""
""fullscreenexit"",""19"",""299019""
""blur"",""19"",""303853""
""focus"",""19"",""653172""
","""event"",""trial"",""time""
""blur"",""19"",""303853""
","""event"",""trial"",""time""
""focus"",""19"",""653172""
","""event"",""trial"",""time""
""fullscreenenter"",""1"",""1794""
","""event"",""trial"",""time""
""fullscreenexit"",""19"",""299019""
","","","-1","","","23","5781","329","&#9826;","elianto","#f73b6a7A","-1","-1","1","0","[]","0","0","3","","","","","","","",""
"pit-trial","65","1111015","0.0-2.0-14.1-1.1","battery-v0.2","","""event"",""trial"",""time""
""fullscreenenter"",""1"",""1794""
""fullscreenexit"",""19"",""299019""
""blur"",""19"",""303853""
""focus"",""19"",""653172""
","""event"",""trial"",""time""
""blur"",""19"",""303853""
","""event"",""trial"",""time""
""focus"",""19"",""653172""
","""event"",""trial"",""time""
""fullscreenenter"",""1"",""1794""
","""event"",""trial"",""time""
""fullscreenexit"",""19"",""299019""
","","","-1","","","23","5781","329","&#9826;","elianto","#f73b6a7A","-1","-1","1","0","[]","0","0","3","","","","","","","",""
"pit-trial","66","1115874","0.0-2.0-14.1-2.1","battery-v0.2","","""event"",""trial"",""time""
""fullscreenenter"",""1"",""1794""
""fullscreenexit"",""19"",""299019""
""blur"",""19"",""303853""
""focus"",""19"",""653172""
","""event"",""trial"",""time""
""blur"",""19"",""303853""
","""event"",""trial"",""time""
""focus"",""19"",""653172""
","""event"",""trial"",""time""
""fullscreenenter"",""1"",""1794""
","""event"",""trial"",""time""
""fullscreenexit"",""19"",""299019""
","","","-1","","","23","5781","329","&#9826;","elianto","#f73b6a7A","-1","-1","1","0","[]","0","0","3","","","","","","","",""
"pit-trial","67","1120733","0.0-2.0-14.1-3.1","battery-v0.2","","""event"",""trial"",""time""
""fullscreenenter"",""1"",""1794""
""fullscreenexit"",""19"",""299019""
""blur"",""19"",""303853""
""focus"",""19"",""653172""
","""event"",""trial"",""time""
""blur"",""19"",""303853""
","""event"",""trial"",""time""
""focus"",""19"",""653172""
","""event"",""trial"",""time""
""fullscreenenter"",""1"",""1794""
","""event"",""trial"",""time""
""fullscreenexit"",""19"",""299019""
","","","-1","","","23","5781","329","&#9826;","elianto","#f73b6a7A","-1","-1","1","-10","[]","0","0","3","","","","","","","",""
"pit-trial","68","1125592","0.0-2.0-14.1-4.1","battery-v0.2","","""event"",""trial"",""time""
""fullscreenenter"",""1"",""1794""
""fullscreenexit"",""19"",""299019""
""blur"",""19"",""303853""
""focus"",""19"",""653172""
","""event"",""trial"",""time""
""blur"",""19"",""303853""
","""event"",""trial"",""time""
""focus"",""19"",""653172""
","""event"",""trial"",""time""
""fullscreenenter"",""1"",""1794""
","""event"",""trial"",""time""
""fullscreenexit"",""19"",""299019""
","","","-1","","","23","5781","329","&#9826;","elianto","#f73b6a7A","-1","-1","1","0","[]","0","0","3","","","","","","","",""
"pit-trial","69","1130451","0.0-2.0-14.2-0.2","battery-v0.2","","""event"",""trial"",""time""
""fullscreenenter"",""1"",""1794""
""fullscreenexit"",""19"",""299019""
""blur"",""19"",""303853""
""focus"",""19"",""653172""
","""event"",""trial"",""time""
""blur"",""19"",""303853""
","""event"",""trial"",""time""
""focus"",""19"",""653172""
","""event"",""trial"",""time""
""fullscreenenter"",""1"",""1794""
","""event"",""trial"",""time""
""fullscreenexit"",""19"",""299019""
","","","-1","","","23","5781","329","&#9826;","elianto","#f73b6a7A","-1","-1","1","0","[]","0","0","3","","","","","","","",""
"pit-trial","70","1135310","0.0-2.0-14.2-1.2","battery-v0.2","","""event"",""trial"",""time""
""fullscreenenter"",""1"",""1794""
""fullscreenexit"",""19"",""299019""
""blur"",""19"",""303853""
""focus"",""19"",""653172""
","""event"",""trial"",""time""
""blur"",""19"",""303853""
","""event"",""trial"",""time""
""focus"",""19"",""653172""
","""event"",""trial"",""time""
""fullscreenenter"",""1"",""1794""
","""event"",""trial"",""time""
""fullscreenexit"",""19"",""299019""
","","","-1","","","23","5781","329","&#9826;","elianto","#f73b6a7A","-1","-1","1","0","[]","0","0","3","","","","","","","",""
"pit-trial","71","1140169","0.0-2.0-14.2-2.2","battery-v0.2","","""event"",""trial"",""time""
""fullscreenenter"",""1"",""1794""
""fullscreenexit"",""19"",""299019""
""blur"",""19"",""303853""
""focus"",""19"",""653172""
","""event"",""trial"",""time""
""blur"",""19"",""303853""
","""event"",""trial"",""time""
""focus"",""19"",""653172""
","""event"",""trial"",""time""
""fullscreenenter"",""1"",""1794""
","""event"",""trial"",""time""
""fullscreenexit"",""19"",""299019""
","","","-1","","","23","5781","329","&#9826;","elianto","#f73b6a7A","-1","-1","1","0","[]","0","0","3","","","","","","","",""
"pit-trial","72","1145028","0.0-2.0-14.2-3.2","battery-v0.2","","""event"",""trial"",""time""
""fullscreenenter"",""1"",""1794""
""fullscreenexit"",""19"",""299019""
""blur"",""19"",""303853""
""focus"",""19"",""653172""
","""event"",""trial"",""time""
""blur"",""19"",""303853""
","""event"",""trial"",""time""
""focus"",""19"",""653172""
","""event"",""trial"",""time""
""fullscreenenter"",""1"",""1794""
","""event"",""trial"",""time""
""fullscreenexit"",""19"",""299019""
","","","-1","","","23","5781","329","&#9826;","elianto","#f73b6a7A","-1","-1","1","-10","[]","0","0","3","","","","","","","",""
"pit-trial","73","1149887","0.0-2.0-14.2-4.2","battery-v0.2","","""event"",""trial"",""time""
""fullscreenenter"",""1"",""1794""
""fullscreenexit"",""19"",""299019""
""blur"",""19"",""303853""
""focus"",""19"",""653172""
","""event"",""trial"",""time""
""blur"",""19"",""303853""
","""event"",""trial"",""time""
""focus"",""19"",""653172""
","""event"",""trial"",""time""
""fullscreenenter"",""1"",""1794""
","""event"",""trial"",""time""
""fullscreenexit"",""19"",""299019""
","","","-1","","","23","5781","329","&#9826;","elianto","#f73b6a7A","-1","-1","1","0","[]","0","0","3","","","","","","","",""
"pit-trial","74","1154746","0.0-2.0-14.3-0.3","battery-v0.2","","""event"",""trial"",""time""
""fullscreenenter"",""1"",""1794""
""fullscreenexit"",""19"",""299019""
""blur"",""19"",""303853""
""focus"",""19"",""653172""
","""event"",""trial"",""time""
""blur"",""19"",""303853""
","""event"",""trial"",""time""
""focus"",""19"",""653172""
","""event"",""trial"",""time""
""fullscreenenter"",""1"",""1794""
","""event"",""trial"",""time""
""fullscreenexit"",""19"",""299019""
","","","-1","","","23","5781","329","&#9826;","elianto","#f73b6a7A","-1","-1","1","0","[]","0","0","3","","","","","","","",""
"pit-trial","75","1159606","0.0-2.0-14.3-1.3","battery-v0.2","","""event"",""trial"",""time""
""fullscreenenter"",""1"",""1794""
""fullscreenexit"",""19"",""299019""
""blur"",""19"",""303853""
""focus"",""19"",""653172""
","""event"",""trial"",""time""
""blur"",""19"",""303853""
","""event"",""trial"",""time""
""focus"",""19"",""653172""
","""event"",""trial"",""time""
""fullscreenenter"",""1"",""1794""
","""event"",""trial"",""time""
""fullscreenexit"",""19"",""299019""
","","","-1","","","23","5781","329","&#9826;","elianto","#f73b6a7A","-1","-1","1","0","[]","0","0","3","","","","","","","",""
"pit-trial","76","1164463","0.0-2.0-14.3-2.3","battery-v0.2","","""event"",""trial"",""time""
""fullscreenenter"",""1"",""1794""
""fullscreenexit"",""19"",""299019""
""blur"",""19"",""303853""
""focus"",""19"",""653172""
","""event"",""trial"",""time""
""blur"",""19"",""303853""
","""event"",""trial"",""time""
""focus"",""19"",""653172""
","""event"",""trial"",""time""
""fullscreenenter"",""1"",""1794""
","""event"",""trial"",""time""
""fullscreenexit"",""19"",""299019""
","","","-1","","","23","5781","329","&#9826;","elianto","#f73b6a7A","-1","-1","1","0","[]","0","0","3","","","","","","","",""
"pit-trial","77","1169316","0.0-2.0-14.3-3.3","battery-v0.2","","""event"",""trial"",""time""
""fullscreenenter"",""1"",""1794""
""fullscreenexit"",""19"",""299019""
""blur"",""19"",""303853""
""focus"",""19"",""653172""
","""event"",""trial"",""time""
""blur"",""19"",""303853""
","""event"",""trial"",""time""
""focus"",""19"",""653172""
","""event"",""trial"",""time""
""fullscreenenter"",""1"",""1794""
","""event"",""trial"",""time""
""fullscreenexit"",""19"",""299019""
","","","-1","","","23","5781","329","&#9826;","elianto","#f73b6a7A","-1","-1","1","-10","[]","0","0","3","","","","","","","",""
"pit-trial","78","1174175","0.0-2.0-14.3-4.3","battery-v0.2","","""event"",""trial"",""time""
""fullscreenenter"",""1"",""1794""
""fullscreenexit"",""19"",""299019""
""blur"",""19"",""303853""
""focus"",""19"",""653172""
","""event"",""trial"",""time""
""blur"",""19"",""303853""
","""event"",""trial"",""time""
""focus"",""19"",""653172""
","""event"",""trial"",""time""
""fullscreenenter"",""1"",""1794""
","""event"",""trial"",""time""
""fullscreenexit"",""19"",""299019""
","","","-1","","","23","5781","329","&#9826;","elianto","#f73b6a7A","-1","-1","1","0","[]","0","0","3","","","","","","","",""
"call-function","79","1174177","0.0-2.0-15.0","battery-v0.2","","""event"",""trial"",""time""
""fullscreenenter"",""1"",""1794""
""fullscreenexit"",""19"",""299019""
""blur"",""19"",""303853""
""focus"",""19"",""653172""
","""event"",""trial"",""time""
""blur"",""19"",""303853""
","""event"",""trial"",""time""
""focus"",""19"",""653172""
","""event"",""trial"",""time""
""fullscreenenter"",""1"",""1794""
","""event"",""trial"",""time""
""fullscreenexit"",""19"",""299019""
","","","","","","","","","","","","","","","","","","","","","","","","","","",""
"pit-instructions","80","1201482","0.0-2.0-16.0","battery-v0.2","","""event"",""trial"",""time""
""fullscreenenter"",""1"",""1794""
""fullscreenexit"",""19"",""299019""
""blur"",""19"",""303853""
""focus"",""19"",""653172""
","""event"",""trial"",""time""
""blur"",""19"",""303853""
","""event"",""trial"",""time""
""focus"",""19"",""653172""
","""event"",""trial"",""time""
""fullscreenenter"",""1"",""1794""
","""event"",""trial"",""time""
""fullscreenexit"",""19"",""299019""
","","[{""page_index"":0,""viewing_time"":6549.399999856949},{""page_index"":1,""viewing_time"":8505.100000143051},{""page_index"":2,""viewing_time"":6028.799999952316},{""page_index"":3,""viewing_time"":6221.099999904633}]","27304.599999904633","","","","","","","","","","","","","","","","","","","","","","","",""
"pit-trial","81","1204845","0.0-2.0-17.0-0.0","battery-v0.2","","""event"",""trial"",""time""
""fullscreenenter"",""1"",""1794""
""fullscreenexit"",""19"",""299019""
""blur"",""19"",""303853""
""focus"",""19"",""653172""
","""event"",""trial"",""time""
""blur"",""19"",""303853""
","""event"",""trial"",""time""
""focus"",""19"",""653172""
","""event"",""trial"",""time""
""fullscreenenter"",""1"",""1794""
","""event"",""trial"",""time""
""fullscreenexit"",""19"",""299019""
","","","508.2999999523163","","","23","5781","329","&#9789;","elianto","#f73b6a7A"," "," ","1","0","[1359]","1","0","4","","","","","","","",""
"pit-trial","82","1208119","0.0-2.0-17.0-1.0","battery-v0.2","","""event"",""trial"",""time""
""fullscreenenter"",""1"",""1794""
""fullscreenexit"",""19"",""299019""
""blur"",""19"",""303853""
""focus"",""19"",""653172""
","""event"",""trial"",""time""
""blur"",""19"",""303853""
","""event"",""trial"",""time""
""focus"",""19"",""653172""
","""event"",""trial"",""time""
""fullscreenenter"",""1"",""1794""
","""event"",""trial"",""time""
""fullscreenexit"",""19"",""299019""
","","","422.09999990463257","","","23","5781","329","&#9789;","elianto","#f73b6a7A"," "," ","1","0","[1272.2000000476837]","1","0","4","","","","","","","",""
"pit-trial","83","1211451","0.0-2.0-17.0-2.0","battery-v0.2","","""event"",""trial"",""time""
""fullscreenenter"",""1"",""1794""
""fullscreenexit"",""19"",""299019""
""blur"",""19"",""303853""
""focus"",""19"",""653172""
","""event"",""trial"",""time""
""blur"",""19"",""303853""
","""event"",""trial"",""time""
""focus"",""19"",""653172""
","""event"",""trial"",""time""
""fullscreenenter"",""1"",""1794""
","""event"",""trial"",""time""
""fullscreenexit"",""19"",""299019""
","","","476.59999990463257","","","23","5781","329","&#9789;","elianto","#f73b6a7A"," "," ","1","0","[1326.7000000476837]","1","0","4","","","","","","","",""
"pit-trial","84","1214679","0.0-2.0-17.0-3.0","battery-v0.2","","""event"",""trial"",""time""
""fullscreenenter"",""1"",""1794""
""fullscreenexit"",""19"",""299019""
""blur"",""19"",""303853""
""focus"",""19"",""653172""
","""event"",""trial"",""time""
""blur"",""19"",""303853""
","""event"",""trial"",""time""
""focus"",""19"",""653172""
","""event"",""trial"",""time""
""fullscreenenter"",""1"",""1794""
","""event"",""trial"",""time""
""fullscreenexit"",""19"",""299019""
","","","372","","","23","5781","329","&#9789;","elianto","#f73b6a7A"," "," ","1","-10","[1222.7999999523163]","1","0","4","","","","","","","",""
"pit-trial","85","1217996","0.0-2.0-17.0-4.0","battery-v0.2","","""event"",""trial"",""time""
""fullscreenenter"",""1"",""1794""
""fullscreenexit"",""19"",""299019""
""blur"",""19"",""303853""
""focus"",""19"",""653172""
","""event"",""trial"",""time""
""blur"",""19"",""303853""
","""event"",""trial"",""time""
""focus"",""19"",""653172""
","""event"",""trial"",""time""
""fullscreenenter"",""1"",""1794""
","""event"",""trial"",""time""
""fullscreenexit"",""19"",""299019""
","","","460.40000009536743","","","23","5781","329","&#9789;","elianto","#f73b6a7A"," "," ","1","0","[1312.6000001430511]","1","0","4","","","","","","","",""
"pit-trial","86","1221229","0.0-2.0-17.1-0.1","battery-v0.2","","""event"",""trial"",""time""
""fullscreenenter"",""1"",""1794""
""fullscreenexit"",""19"",""299019""
""blur"",""19"",""303853""
""focus"",""19"",""653172""
","""event"",""trial"",""time""
""blur"",""19"",""303853""
","""event"",""trial"",""time""
""focus"",""19"",""653172""
","""event"",""trial"",""time""
""fullscreenenter"",""1"",""1794""
","""event"",""trial"",""time""
""fullscreenexit"",""19"",""299019""
","","","379.59999990463257","","","23","5781","329","&#9789;","elianto","#f73b6a7A"," "," ","1","0","[1229.8999998569489]","1","0","4","","","","","","","",""
"pit-trial","87","1224489","0.0-2.0-17.1-1.1","battery-v0.2","","""event"",""trial"",""time""
""fullscreenenter"",""1"",""1794""
""fullscreenexit"",""19"",""299019""
""blur"",""19"",""303853""
""focus"",""19"",""653172""
","""event"",""trial"",""time""
""blur"",""19"",""303853""
","""event"",""trial"",""time""
""focus"",""19"",""653172""
","""event"",""trial"",""time""
""fullscreenenter"",""1"",""1794""
","""event"",""trial"",""time""
""fullscreenexit"",""19"",""299019""
","","","400.90000009536743","","","23","5781","329","&#9789;","elianto","#f73b6a7A"," "," ","1","0","[1254.5]","1","0","4","","","","","","","",""
"pit-trial","88","1227810","0.0-2.0-17.1-2.1","battery-v0.2","","""event"",""trial"",""time""
""fullscreenenter"",""1"",""1794""
""fullscreenexit"",""19"",""299019""
""blur"",""19"",""303853""
""focus"",""19"",""653172""
","""event"",""trial"",""time""
""blur"",""19"",""303853""
","""event"",""trial"",""time""
""focus"",""19"",""653172""
","""event"",""trial"",""time""
""fullscreenenter"",""1"",""1794""
","""event"",""trial"",""time""
""fullscreenexit"",""19"",""299019""
","","","466.09999990463257","","","23","5781","329","&#9789;","elianto","#f73b6a7A"," "," ","1","0","[1316.5999999046326]","1","0","4","","","","","","","",""
"pit-trial","89","1231032","0.0-2.0-17.1-3.1","battery-v0.2","","""event"",""trial"",""time""
""fullscreenenter"",""1"",""1794""
""fullscreenexit"",""19"",""299019""
""blur"",""19"",""303853""
""focus"",""19"",""653172""
","""event"",""trial"",""time""
""blur"",""19"",""303853""
","""event"",""trial"",""time""
""focus"",""19"",""653172""
","""event"",""trial"",""time""
""fullscreenenter"",""1"",""1794""
","""event"",""trial"",""time""
""fullscreenexit"",""19"",""299019""
","","","369.5","","","23","5781","329","&#9789;","elianto","#f73b6a7A"," "," ","1","-10","[1220.7000000476837]","1","0","4","","","","","","","",""
"pit-trial","90","1234232","0.0-2.0-17.1-4.1","battery-v0.2","","""event"",""trial"",""time""
""fullscreenenter"",""1"",""1794""
""fullscreenexit"",""19"",""299019""
""blur"",""19"",""303853""
""focus"",""19"",""653172""
","""event"",""trial"",""time""
""blur"",""19"",""303853""
","""event"",""trial"",""time""
""focus"",""19"",""653172""
","""event"",""trial"",""time""
""fullscreenenter"",""1"",""1794""
","""event"",""trial"",""time""
""fullscreenexit"",""19"",""299019""
","","","341.5","","","23","5781","329","&#9789;","elianto","#f73b6a7A"," "," ","1","0","[1194.5]","1","0","4","","","","","","","",""
"pit-trial","91","1237407","0.0-2.0-17.2-0.2","battery-v0.2","","""event"",""trial"",""time""
""fullscreenenter"",""1"",""1794""
""fullscreenexit"",""19"",""299019""
""blur"",""19"",""303853""
""focus"",""19"",""653172""
","""event"",""trial"",""time""
""blur"",""19"",""303853""
","""event"",""trial"",""time""
""focus"",""19"",""653172""
","""event"",""trial"",""time""
""fullscreenenter"",""1"",""1794""
","""event"",""trial"",""time""
""fullscreenexit"",""19"",""299019""
","","","320.7999999523163","","","23","5781","329","&#9789;","elianto","#f73b6a7A"," "," ","1","0","[1172.6999998092651]","1","0","4","","","","","","","",""
"pit-trial","92","1240635","0.0-2.0-17.2-1.2","battery-v0.2","","""event"",""trial"",""time""
""fullscreenenter"",""1"",""1794""
""fullscreenexit"",""19"",""299019""
""blur"",""19"",""303853""
""focus"",""19"",""653172""
","""event"",""trial"",""time""
""blur"",""19"",""303853""
","""event"",""trial"",""time""
""focus"",""19"",""653172""
","""event"",""trial"",""time""
""fullscreenenter"",""1"",""1794""
","""event"",""trial"",""time""
""fullscreenexit"",""19"",""299019""
","","","371.2999999523163","","","23","5781","329","&#9789;","elianto","#f73b6a7A"," "," ","1","0","[1221.6999998092651]","1","0","4","","","","","","","",""
"pit-trial","93","1243729","0.0-2.0-17.2-2.2","battery-v0.2","","""event"",""trial"",""time""
""fullscreenenter"",""1"",""1794""
""fullscreenexit"",""19"",""299019""
""blur"",""19"",""303853""
""focus"",""19"",""653172""
","""event"",""trial"",""time""
""blur"",""19"",""303853""
","""event"",""trial"",""time""
""focus"",""19"",""653172""
","""event"",""trial"",""time""
""fullscreenenter"",""1"",""1794""
","""event"",""trial"",""time""
""fullscreenexit"",""19"",""299019""
","","","238.60000014305115","","","23","5781","329","&#9789;","elianto","#f73b6a7A"," "," ","1","0","[1090.2999999523163]","1","0","4","","","","","","","",""
"pit-trial","94","1246892","0.0-2.0-17.2-3.2","battery-v0.2","","""event"",""trial"",""time""
""fullscreenenter"",""1"",""1794""
""fullscreenexit"",""19"",""299019""
""blur"",""19"",""303853""
""focus"",""19"",""653172""
","""event"",""trial"",""time""
""blur"",""19"",""303853""
","""event"",""trial"",""time""
""focus"",""19"",""653172""
","""event"",""trial"",""time""
""fullscreenenter"",""1"",""1794""
","""event"",""trial"",""time""
""fullscreenexit"",""19"",""299019""
","","","309.2999999523163","","","23","5781","329","&#9789;","elianto","#f73b6a7A"," "," ","1","-10","[1160.7000000476837]","1","0","4","","","","","","","",""
"pit-trial","95","1250045","0.0-2.0-17.2-4.2","battery-v0.2","","""event"",""trial"",""time""
""fullscreenenter"",""1"",""1794""
""fullscreenexit"",""19"",""299019""
""blur"",""19"",""303853""
""focus"",""19"",""653172""
","""event"",""trial"",""time""
""blur"",""19"",""303853""
","""event"",""trial"",""time""
""focus"",""19"",""653172""
","""event"",""trial"",""time""
""fullscreenenter"",""1"",""1794""
","""event"",""trial"",""time""
""fullscreenexit"",""19"",""299019""
","","","294.2000000476837","","","23","5781","329","&#9789;","elianto","#f73b6a7A"," "," ","1","0","[1146.7000000476837]","1","0","4","","","","","","","",""
"pit-trial","96","1253060","0.0-2.0-17.3-0.3","battery-v0.2","","""event"",""trial"",""time""
""fullscreenenter"",""1"",""1794""
""fullscreenexit"",""19"",""299019""
""blur"",""19"",""303853""
""focus"",""19"",""653172""
","""event"",""trial"",""time""
""blur"",""19"",""303853""
","""event"",""trial"",""time""
""focus"",""19"",""653172""
","""event"",""trial"",""time""
""fullscreenenter"",""1"",""1794""
","""event"",""trial"",""time""
""fullscreenexit"",""19"",""299019""
","","","159.70000004768372","","","23","5781","329","&#9789;","elianto","#f73b6a7A"," "," ","1","0","[1013.1000001430511]","1","0","4","","","","","","","",""
"pit-trial","97","1256099","0.0-2.0-17.3-1.3","battery-v0.2","","""event"",""trial"",""time""
""fullscreenenter"",""1"",""1794""
""fullscreenexit"",""19"",""299019""
""blur"",""19"",""303853""
""focus"",""19"",""653172""
","""event"",""trial"",""time""
""blur"",""19"",""303853""
","""event"",""trial"",""time""
""focus"",""19"",""653172""
","""event"",""trial"",""time""
""fullscreenenter"",""1"",""1794""
","""event"",""trial"",""time""
""fullscreenexit"",""19"",""299019""
","","","184.09999990463257","","","23","5781","329","&#9789;","elianto","#f73b6a7A"," "," ","1","0","[1034.5]","1","0","4","","","","","","","",""
"pit-trial","98","1259240","0.0-2.0-17.3-2.3","battery-v0.2","","""event"",""trial"",""time""
""fullscreenenter"",""1"",""1794""
""fullscreenexit"",""19"",""299019""
""blur"",""19"",""303853""
""focus"",""19"",""653172""
","""event"",""trial"",""time""
""blur"",""19"",""303853""
","""event"",""trial"",""time""
""focus"",""19"",""653172""
","""event"",""trial"",""time""
""fullscreenenter"",""1"",""1794""
","""event"",""trial"",""time""
""fullscreenexit"",""19"",""299019""
","","","284.40000009536743","","","23","5781","329","&#9789;","elianto","#f73b6a7A"," "," ","1","0","[1134.5]","1","0","4","","","","","","","",""
"pit-trial","99","1262375","0.0-2.0-17.3-3.3","battery-v0.2","","""event"",""trial"",""time""
""fullscreenenter"",""1"",""1794""
""fullscreenexit"",""19"",""299019""
""blur"",""19"",""303853""
""focus"",""19"",""653172""
","""event"",""trial"",""time""
""blur"",""19"",""303853""
","""event"",""trial"",""time""
""focus"",""19"",""653172""
","""event"",""trial"",""time""
""fullscreenenter"",""1"",""1794""
","""event"",""trial"",""time""
""fullscreenexit"",""19"",""299019""
","","","279.7999999523163","","","23","5781","329","&#9789;","elianto","#f73b6a7A"," "," ","1","-10","[1130.5]","1","0","4","","","","","","","",""
"pit-trial","100","1265551","0.0-2.0-17.3-4.3","battery-v0.2","","""event"",""trial"",""time""
""fullscreenenter"",""1"",""1794""
""fullscreenexit"",""19"",""299019""
""blur"",""19"",""303853""
""focus"",""19"",""653172""
","""event"",""trial"",""time""
""blur"",""19"",""303853""
","""event"",""trial"",""time""
""focus"",""19"",""653172""
","""event"",""trial"",""time""
""fullscreenenter"",""1"",""1794""
","""event"",""trial"",""time""
""fullscreenexit"",""19"",""299019""
","","","321.2999999523163","","","23","5781","329","&#9789;","elianto","#f73b6a7A"," "," ","1","0","[1171.5]","1","0","4","","","","","","","",""
"call-function","101","1265553","0.0-2.0-18.0","battery-v0.2","","""event"",""trial"",""time""
""fullscreenenter"",""1"",""1794""
""fullscreenexit"",""19"",""299019""
""blur"",""19"",""303853""
""focus"",""19"",""653172""
","""event"",""trial"",""time""
""blur"",""19"",""303853""
","""event"",""trial"",""time""
""focus"",""19"",""653172""
","""event"",""trial"",""time""
""fullscreenenter"",""1"",""1794""
","""event"",""trial"",""time""
""fullscreenexit"",""19"",""299019""
","","","","","","","","","","","","","","","","","","","","","","","","","","",""
"pit-instructions","102","1343810","0.0-2.0-19.0","battery-v0.2","","""event"",""trial"",""time""
""fullscreenenter"",""1"",""1794""
""fullscreenexit"",""19"",""299019""
""blur"",""19"",""303853""
""focus"",""19"",""653172""
","""event"",""trial"",""time""
""blur"",""19"",""303853""
","""event"",""trial"",""time""
""focus"",""19"",""653172""
","""event"",""trial"",""time""
""fullscreenenter"",""1"",""1794""
","""event"",""trial"",""time""
""fullscreenexit"",""19"",""299019""
","","[{""page_index"":0,""viewing_time"":6476.900000095367},{""page_index"":1,""viewing_time"":5740.299999952316},{""page_index"":2,""viewing_time"":13925},{""page_index"":3,""viewing_time"":7643.600000143051},{""page_index"":4,""viewing_time"":8898.299999952316},{""page_index"":5,""viewing_time"":9345},{""page_index"":6,""viewing_time"":9725.599999904633},{""page_index"":7,""viewing_time"":11817.100000143051},{""page_index"":8,""viewing_time"":4682.199999809265}]","78254.20000004768","","","","","","","","","","","","","","","","","","","","","","","",""
"pit-comprehension","103","1348873","0.0-2.0-20.0-0.0","battery-v0.2","","""event"",""trial"",""time""
""fullscreenenter"",""1"",""1794""
""fullscreenexit"",""19"",""299019""
""blur"",""19"",""303853""
""focus"",""19"",""653172""
","""event"",""trial"",""time""
""blur"",""19"",""303853""
","""event"",""trial"",""time""
""focus"",""19"",""653172""
","""event"",""trial"",""time""
""fullscreenenter"",""1"",""1794""
","""event"",""trial"",""time""
""fullscreenexit"",""19"",""299019""
","","","5060.299999952316","[""SPACE""]","0","23","5781","329","","","","","","","","","","","","","","","","","","",""
"pit-instructions","104","1351471","0.0-2.0-20.0-1.0","battery-v0.2","","""event"",""trial"",""time""
""fullscreenenter"",""1"",""1794""
""fullscreenexit"",""19"",""299019""
""blur"",""19"",""303853""
""focus"",""19"",""653172""
","""event"",""trial"",""time""
""blur"",""19"",""303853""
","""event"",""trial"",""time""
""focus"",""19"",""653172""
","""event"",""trial"",""time""
""fullscreenenter"",""1"",""1794""
","""event"",""trial"",""time""
""fullscreenexit"",""19"",""299019""
","","[{""page_index"":0,""viewing_time"":2551.0999999046326}]","2551.399999856949","","","","","","","","","","","","","","","","","","","","","","","",""
"pit-comprehension","105","1357162","0.0-2.0-21.0-0.0","battery-v0.2","","""event"",""trial"",""time""
""fullscreenenter"",""1"",""1794""
""fullscreenexit"",""19"",""299019""
""blur"",""19"",""303853""
""focus"",""19"",""653172""
","""event"",""trial"",""time""
""blur"",""19"",""303853""
","""event"",""trial"",""time""
""focus"",""19"",""653172""
","""event"",""trial"",""time""
""fullscreenenter"",""1"",""1794""
","""event"",""trial"",""time""
""fullscreenexit"",""19"",""299019""
","","","5687.699999809265","[""10""]","0","23","5781","329","","","","","","","","","","","","","","","","","","",""
"pit-instructions","106","1358916","0.0-2.0-21.0-1.0","battery-v0.2","","""event"",""trial"",""time""
""fullscreenenter"",""1"",""1794""
""fullscreenexit"",""19"",""299019""
""blur"",""19"",""303853""
""focus"",""19"",""653172""
","""event"",""trial"",""time""
""blur"",""19"",""303853""
","""event"",""trial"",""time""
""focus"",""19"",""653172""
","""event"",""trial"",""time""
""fullscreenenter"",""1"",""1794""
","""event"",""trial"",""time""
""fullscreenexit"",""19"",""299019""
","","[{""page_index"":0,""viewing_time"":1713.4000000953674}]","1713.7000000476837","","","","","","","","","","","","","","","","","","","","","","","",""
"pit-comprehension","107","1365218","0.0-2.0-22.0-0.0","battery-v0.2","","""event"",""trial"",""time""
""fullscreenenter"",""1"",""1794""
""fullscreenexit"",""19"",""299019""
""blur"",""19"",""303853""
""focus"",""19"",""653172""
","""event"",""trial"",""time""
""blur"",""19"",""303853""
","""event"",""trial"",""time""
""focus"",""19"",""653172""
","""event"",""trial"",""time""
""fullscreenenter"",""1"",""1794""
","""event"",""trial"",""time""
""fullscreenexit"",""19"",""299019""
","","","6299.899999856949","[""0""]","0","23","5781","329","","","","","","","","","","","","","","","","","","",""
"pit-instructions","108","1367561","0.0-2.0-22.0-1.0","battery-v0.2","","""event"",""trial"",""time""
""fullscreenenter"",""1"",""1794""
""fullscreenexit"",""19"",""299019""
""blur"",""19"",""303853""
""focus"",""19"",""653172""
","""event"",""trial"",""time""
""blur"",""19"",""303853""
","""event"",""trial"",""time""
""focus"",""19"",""653172""
","""event"",""trial"",""time""
""fullscreenenter"",""1"",""1794""
","""event"",""trial"",""time""
""fullscreenexit"",""19"",""299019""
","","[{""page_index"":0,""viewing_time"":2300.899999856949}]","2301","","","","","","","","","","","","","","","","","","","","","","","",""
"pit-comprehension","109","1381926","0.0-2.0-23.0-0.0","battery-v0.2","","""event"",""trial"",""time""
""fullscreenenter"",""1"",""1794""
""fullscreenexit"",""19"",""299019""
""blur"",""19"",""303853""
""focus"",""19"",""653172""
","""event"",""trial"",""time""
""blur"",""19"",""303853""
","""event"",""trial"",""time""
""focus"",""19"",""653172""
","""event"",""trial"",""time""
""fullscreenenter"",""1"",""1794""
","""event"",""trial"",""time""
""fullscreenexit"",""19"",""299019""
","","","14362.099999904633","[""True""]","0","23","5781","329","","","","","","","","","","","","","","","","","","",""
"pit-instructions","110","1384324","0.0-2.0-23.0-1.0","battery-v0.2","","""event"",""trial"",""time""
""fullscreenenter"",""1"",""1794""
""fullscreenexit"",""19"",""299019""
""blur"",""19"",""303853""
""focus"",""19"",""653172""
","""event"",""trial"",""time""
""blur"",""19"",""303853""
","""event"",""trial"",""time""
""focus"",""19"",""653172""
","""event"",""trial"",""time""
""fullscreenenter"",""1"",""1794""
","""event"",""trial"",""time""
""fullscreenexit"",""19"",""299019""
","","[{""page_index"":0,""viewing_time"":2350.399999856949}]","2350.5999999046326","","","","","","","","","","","","","","","","","","","","","","","",""
"pit-comprehension","111","1391921","0.0-2.0-24.0-0.0","battery-v0.2","","""event"",""trial"",""time""
""fullscreenenter"",""1"",""1794""
""fullscreenexit"",""19"",""299019""
""blur"",""19"",""303853""
""focus"",""19"",""653172""
","""event"",""trial"",""time""
""blur"",""19"",""303853""
","""event"",""trial"",""time""
""focus"",""19"",""653172""
","""event"",""trial"",""time""
""fullscreenenter"",""1"",""1794""
","""event"",""trial"",""time""
""fullscreenexit"",""19"",""299019""
","","","7595","[""True""]","0","23","5781","329","","","","","","","","","","","","","","","","","","",""
"pit-instructions","112","1394102","0.0-2.0-24.0-1.0","battery-v0.2","","""event"",""trial"",""time""
""fullscreenenter"",""1"",""1794""
""fullscreenexit"",""19"",""299019""
""blur"",""19"",""303853""
""focus"",""19"",""653172""
","""event"",""trial"",""time""
""blur"",""19"",""303853""
","""event"",""trial"",""time""
""focus"",""19"",""653172""
","""event"",""trial"",""time""
""fullscreenenter"",""1"",""1794""
","""event"",""trial"",""time""
""fullscreenexit"",""19"",""299019""
","","[{""page_index"":0,""viewing_time"":2126.899999856949}]","2127","","","","","","","","","","","","","","","","","","","","","","","",""
"pit-comprehension","113","1400508","0.0-2.0-25.0-0.0","battery-v0.2","","""event"",""trial"",""time""
""fullscreenenter"",""1"",""1794""
""fullscreenexit"",""19"",""299019""
""blur"",""19"",""303853""
""focus"",""19"",""653172""
","""event"",""trial"",""time""
""blur"",""19"",""303853""
","""event"",""trial"",""time""
""focus"",""19"",""653172""
","""event"",""trial"",""time""
""fullscreenenter"",""1"",""1794""
","""event"",""trial"",""time""
""fullscreenexit"",""19"",""299019""
","","","6403.900000095367","[""True""]","0","23","5781","329","","","","","","","","","","","","","","","","","","",""
"pit-instructions","114","1402568","0.0-2.0-25.0-1.0","battery-v0.2","","""event"",""trial"",""time""
""fullscreenenter"",""1"",""1794""
""fullscreenexit"",""19"",""299019""
""blur"",""19"",""303853""
""focus"",""19"",""653172""
","""event"",""trial"",""time""
""blur"",""19"",""303853""
","""event"",""trial"",""time""
""focus"",""19"",""653172""
","""event"",""trial"",""time""
""fullscreenenter"",""1"",""1794""
","""event"",""trial"",""time""
""fullscreenexit"",""19"",""299019""
","","[{""page_index"":0,""viewing_time"":2015.0999999046326}]","2015.2999999523163","","","","","","","","","","","","","","","","","","","","","","","",""
"pit-comprehension","115","1407824","0.0-2.0-26.0-0.0","battery-v0.2","","""event"",""trial"",""time""
""fullscreenenter"",""1"",""1794""
""fullscreenexit"",""19"",""299019""
""blur"",""19"",""303853""
""focus"",""19"",""653172""
","""event"",""trial"",""time""
""blur"",""19"",""303853""
","""event"",""trial"",""time""
""focus"",""19"",""653172""
","""event"",""trial"",""time""
""fullscreenenter"",""1"",""1794""
","""event"",""trial"",""time""
""fullscreenexit"",""19"",""299019""
","","","5254.100000143051","[""False""]","0","23","5781","329","","","","","","","","","","","","","","","","","","",""
"pit-instructions","116","1409860","0.0-2.0-26.0-1.0","battery-v0.2","","""event"",""trial"",""time""
""fullscreenenter"",""1"",""1794""
""fullscreenexit"",""19"",""299019""
""blur"",""19"",""303853""
""focus"",""19"",""653172""
","""event"",""trial"",""time""
""blur"",""19"",""303853""
","""event"",""trial"",""time""
""focus"",""19"",""653172""
","""event"",""trial"",""time""
""fullscreenenter"",""1"",""1794""
","""event"",""trial"",""time""
""fullscreenexit"",""19"",""299019""
","","[{""page_index"":0,""viewing_time"":1993.5}]","1993.7999999523163","","","","","","","","","","","","","","","","","","","","","","","",""
"pit-instructions","117","1426660","0.0-3.0","battery-v0.2","","""event"",""trial"",""time""
""fullscreenenter"",""1"",""1794""
""fullscreenexit"",""19"",""299019""
""blur"",""19"",""303853""
""focus"",""19"",""653172""
","""event"",""trial"",""time""
""blur"",""19"",""303853""
","""event"",""trial"",""time""
""focus"",""19"",""653172""
","""event"",""trial"",""time""
""fullscreenenter"",""1"",""1794""
","""event"",""trial"",""time""
""fullscreenexit"",""19"",""299019""
","","[{""page_index"":0,""viewing_time"":3966.7000000476837},{""page_index"":1,""viewing_time"":5432.900000095367},{""page_index"":2,""viewing_time"":7398.200000047684}]","16798","","","","","","","","","","","","","","","","","","","","","","","",""
"pit-trial","118","1430309","0.0-4.0","battery-v0.2","","""event"",""trial"",""time""
""fullscreenenter"",""1"",""1794""
""fullscreenexit"",""19"",""299019""
""blur"",""19"",""303853""
""focus"",""19"",""653172""
","""event"",""trial"",""time""
""blur"",""19"",""303853""
","""event"",""trial"",""time""
""focus"",""19"",""653172""
","""event"",""trial"",""time""
""fullscreenenter"",""1"",""1794""
","""event"",""trial"",""time""
""fullscreenexit"",""19"",""299019""
","","","788.5999999046326","","","23","5781","329","&#9730;","elianto","#3366ff99"," "," ","1","+10","[1639]","1","1","","","5781","1","1","1","win","go","0"
"pit-trial","119","1434371","0.0-5.0","battery-v0.2","","""event"",""trial"",""time""
""fullscreenenter"",""1"",""1794""
""fullscreenexit"",""19"",""299019""
""blur"",""19"",""303853""
""focus"",""19"",""653172""
","""event"",""trial"",""time""
""blur"",""19"",""303853""
","""event"",""trial"",""time""
""focus"",""19"",""653172""
","""event"",""trial"",""time""
""fullscreenenter"",""1"",""1794""
","""event"",""trial"",""time""
""fullscreenexit"",""19"",""299019""
","","","1202.2999999523163","","","23","5781","329","&#9752;","elianto","#f73b6a7A"," "," ","1","-10","[2052.9000000953674]","1","1","","","5781","2","3","3","lose","go","1"
"pit-trial","120","1438442","0.0-6.0","battery-v0.2","","""event"",""trial"",""time""
""fullscreenenter"",""1"",""1794""
""fullscreenexit"",""19"",""299019""
""blur"",""19"",""303853""
""focus"",""19"",""653172""
","""event"",""trial"",""time""
""blur"",""19"",""303853""
","""event"",""trial"",""time""
""focus"",""19"",""653172""
","""event"",""trial"",""time""
""fullscreenenter"",""1"",""1794""
","""event"",""trial"",""time""
""fullscreenexit"",""19"",""299019""
","","","1212.7999999523163","","","23","5781","329","&#9728;","elianto","#f73b6a7A","-1"," ","0","-10","[2066]","1","1","","","5781","3","0","4","lose","no-go","0"
"pit-trial","121","1442715","0.0-7.0","battery-v0.2","","""event"",""trial"",""time""
""fullscreenenter"",""1"",""1794""
""fullscreenexit"",""19"",""299019""
""blur"",""19"",""303853""
""focus"",""19"",""653172""
","""event"",""trial"",""time""
""blur"",""19"",""303853""
","""event"",""trial"",""time""
""focus"",""19"",""653172""
","""event"",""trial"",""time""
""fullscreenenter"",""1"",""1794""
","""event"",""trial"",""time""
""fullscreenexit"",""19"",""299019""
","","","1420.4000000953674","","","23","5781","329","&#9733;","elianto","#3366ff99","-1"," ","0","0","[2270.600000143051]","1","1","","","5781","4","2","2","win","no-go","0"
"pit-trial","122","1446494","0.0-8.0","battery-v0.2","","""event"",""trial"",""time""
""fullscreenenter"",""1"",""1794""
""fullscreenexit"",""19"",""299019""
""blur"",""19"",""303853""
""focus"",""19"",""653172""
","""event"",""trial"",""time""
""blur"",""19"",""303853""
","""event"",""trial"",""time""
""focus"",""19"",""653172""
","""event"",""trial"",""time""
""fullscreenenter"",""1"",""1794""
","""event"",""trial"",""time""
""fullscreenexit"",""19"",""299019""
","","","927.2000000476837","","","23","5781","329","&#9733;","elianto","#3366ff99","-1"," ","0","0","[1777.5]","1","1","","","5781","5","2","2","win","no-go","0"
"pit-trial","123","1450709","0.0-9.0","battery-v0.2","","""event"",""trial"",""time""
""fullscreenenter"",""1"",""1794""
""fullscreenexit"",""19"",""299019""
""blur"",""19"",""303853""
""focus"",""19"",""653172""
","""event"",""trial"",""time""
""blur"",""19"",""303853""
","""event"",""trial"",""time""
""focus"",""19"",""653172""
","""event"",""trial"",""time""
""fullscreenenter"",""1"",""1794""
","""event"",""trial"",""time""
""fullscreenexit"",""19"",""299019""
","","","1361.1000001430511","","","23","5781","329","&#9728;","elianto","#f73b6a7A","-1"," ","0","-10","[2211.7999999523163]","1","1","","","5781","6","0","4","lose","no-go","0"
"pit-trial","124","1455564","0.0-10.0","battery-v0.2","","""event"",""trial"",""time""
""fullscreenenter"",""1"",""1794""
""fullscreenexit"",""19"",""299019""
""blur"",""19"",""303853""
""focus"",""19"",""653172""
","""event"",""trial"",""time""
""blur"",""19"",""303853""
","""event"",""trial"",""time""
""focus"",""19"",""653172""
","""event"",""trial"",""time""
""fullscreenenter"",""1"",""1794""
","""event"",""trial"",""time""
""fullscreenexit"",""19"",""299019""
","","","-1","","","23","5781","329","&#9752;","elianto","#f73b6a7A"," ","-1","0","0","[]","0","1","","","5781","7","3","3","lose","go","1"
"pit-trial","125","1459272","0.0-11.0","battery-v0.2","","""event"",""trial"",""time""
""fullscreenenter"",""1"",""1794""
""fullscreenexit"",""19"",""299019""
""blur"",""19"",""303853""
""focus"",""19"",""653172""
","""event"",""trial"",""time""
""blur"",""19"",""303853""
","""event"",""trial"",""time""
""focus"",""19"",""653172""
","""event"",""trial"",""time""
""fullscreenenter"",""1"",""1794""
","""event"",""trial"",""time""
""fullscreenexit"",""19"",""299019""
","","","852","","","23","5781","329","&#9730;","elianto","#3366ff99"," "," ","1","+10","[1702.5]","1","1","","","5781","8","1","1","win","go","0"
"pit-trial","126","1464131","0.0-12.0","battery-v0.2","","""event"",""trial"",""time""
""fullscreenenter"",""1"",""1794""
""fullscreenexit"",""19"",""299019""
""blur"",""19"",""303853""
""focus"",""19"",""653172""
","""event"",""trial"",""time""
""blur"",""19"",""303853""
","""event"",""trial"",""time""
""focus"",""19"",""653172""
","""event"",""trial"",""time""
""fullscreenenter"",""1"",""1794""
","""event"",""trial"",""time""
""fullscreenexit"",""19"",""299019""
","","","-1","","","23","5781","329","&#9752;","elianto","#f73b6a7A"," ","-1","0","-10","[]","0","1","","","5781","9","3","3","lose","go","0"
"pit-trial","127","1467848","0.0-13.0","battery-v0.2","","""event"",""trial"",""time""
""fullscreenenter"",""1"",""1794""
""fullscreenexit"",""19"",""299019""
""blur"",""19"",""303853""
""focus"",""19"",""653172""
","""event"",""trial"",""time""
""blur"",""19"",""303853""
","""event"",""trial"",""time""
""focus"",""19"",""653172""
","""event"",""trial"",""time""
""fullscreenenter"",""1"",""1794""
","""event"",""trial"",""time""
""fullscreenexit"",""19"",""299019""
","","","859.1000001430511","","","23","5781","329","&#9730;","elianto","#3366ff99"," "," ","1","+10","[1711.6000001430511]","1","1","","","5781","10","1","1","win","go","0"
"pit-trial","128","1471921","0.0-14.0","battery-v0.2","","""event"",""trial"",""time""
""fullscreenenter"",""1"",""1794""
""fullscreenexit"",""19"",""299019""
""blur"",""19"",""303853""
""focus"",""19"",""653172""
","""event"",""trial"",""time""
""blur"",""19"",""303853""
","""event"",""trial"",""time""
""focus"",""19"",""653172""
","""event"",""trial"",""time""
""fullscreenenter"",""1"",""1794""
","""event"",""trial"",""time""
""fullscreenexit"",""19"",""299019""
","","","1217","","","23","5781","329","&#9733;","elianto","#3366ff99","-1"," ","0","0","[2067.5]","1","1","","","5781","11","2","2","win","no-go","0"
"pit-trial","129","1476775","0.0-15.0","battery-v0.2","","""event"",""trial"",""time""
""fullscreenenter"",""1"",""1794""
""fullscreenexit"",""19"",""299019""
""blur"",""19"",""303853""
""focus"",""19"",""653172""
","""event"",""trial"",""time""
""blur"",""19"",""303853""
","""event"",""trial"",""time""
""focus"",""19"",""653172""
","""event"",""trial"",""time""
""fullscreenenter"",""1"",""1794""
","""event"",""trial"",""time""
""fullscreenexit"",""19"",""299019""
","","","-1","","","23","5781","329","&#9728;","elianto","#f73b6a7A","-1","-1","1","0","[]","0","1","","","5781","12","0","4","lose","no-go","0"
"pit-trial","130","1480722","0.0-16.0","battery-v0.2","","""event"",""trial"",""time""
""fullscreenenter"",""1"",""1794""
""fullscreenexit"",""19"",""299019""
""blur"",""19"",""303853""
""focus"",""19"",""653172""
","""event"",""trial"",""time""
""blur"",""19"",""303853""
","""event"",""trial"",""time""
""focus"",""19"",""653172""
","""event"",""trial"",""time""
""fullscreenenter"",""1"",""1794""
","""event"",""trial"",""time""
""fullscreenexit"",""19"",""299019""
","","","1090.6999998092651","","","23","5781","329","&#9728;","elianto","#f73b6a7A","-1"," ","0","0","[1941.0999999046326]","1","1","","","5781","13","0","4","lose","no-go","1"
"pit-trial","131","1484415","0.0-17.0","battery-v0.2","","""event"",""trial"",""time""
""fullscreenenter"",""1"",""1794""
""fullscreenexit"",""19"",""299019""
""blur"",""19"",""303853""
""focus"",""19"",""653172""
","""event"",""trial"",""time""
""blur"",""19"",""303853""
","""event"",""trial"",""time""
""focus"",""19"",""653172""
","""event"",""trial"",""time""
""fullscreenenter"",""1"",""1794""
","""event"",""trial"",""time""
""fullscreenexit"",""19"",""299019""
","","","836","","","23","5781","329","&#9730;","elianto","#3366ff99"," "," ","1","0","[1687.2999999523163]","1","1","","","5781","14","1","1","win","go","1"
"pit-trial","132","1489176","0.0-18.0","battery-v0.2","","""event"",""trial"",""time""
""fullscreenenter"",""1"",""1794""
""fullscreenexit"",""19"",""299019""
""blur"",""19"",""303853""
""focus"",""19"",""653172""
","""event"",""trial"",""time""
""blur"",""19"",""303853""
","""event"",""trial"",""time""
""focus"",""19"",""653172""
","""event"",""trial"",""time""
""fullscreenenter"",""1"",""1794""
","""event"",""trial"",""time""
""fullscreenexit"",""19"",""299019""
","","","1906.5999999046326","","","23","5781","329","&#9752;","elianto","#f73b6a7A"," "," ","1","-10","[2758.2999999523163]","1","1","","","5781","15","3","3","lose","go","1"
"pit-trial","133","1494034","0.0-19.0","battery-v0.2","","""event"",""trial"",""time""
""fullscreenenter"",""1"",""1794""
""fullscreenexit"",""19"",""299019""
""blur"",""19"",""303853""
""focus"",""19"",""653172""
","""event"",""trial"",""time""
""blur"",""19"",""303853""
","""event"",""trial"",""time""
""focus"",""19"",""653172""
","""event"",""trial"",""time""
""fullscreenenter"",""1"",""1794""
","""event"",""trial"",""time""
""fullscreenexit"",""19"",""299019""
","","","-1","","","23","5781","329","&#9733;","elianto","#3366ff99","-1","-1","1","+10","[]","0","1","","","5781","16","2","2","win","no-go","0"
"pit-trial","134","1497749","0.0-20.0","battery-v0.2","","""event"",""trial"",""time""
""fullscreenenter"",""1"",""1794""
""fullscreenexit"",""19"",""299019""
""blur"",""19"",""303853""
""focus"",""19"",""653172""
","""event"",""trial"",""time""
""blur"",""19"",""303853""
","""event"",""trial"",""time""
""focus"",""19"",""653172""
","""event"",""trial"",""time""
""fullscreenenter"",""1"",""1794""
","""event"",""trial"",""time""
""fullscreenexit"",""19"",""299019""
","","","859.9000000953674","","","23","5781","329","&#9730;","elianto","#3366ff99"," "," ","1","0","[1711.7999999523163]","1","1","","","5781","17","1","1","win","go","1"
"pit-trial","135","1501778","0.0-21.0","battery-v0.2","","""event"",""trial"",""time""
""fullscreenenter"",""1"",""1794""
""fullscreenexit"",""19"",""299019""
""blur"",""19"",""303853""
""focus"",""19"",""653172""
","""event"",""trial"",""time""
""blur"",""19"",""303853""
","""event"",""trial"",""time""
""focus"",""19"",""653172""
","""event"",""trial"",""time""
""fullscreenenter"",""1"",""1794""
","""event"",""trial"",""time""
""fullscreenexit"",""19"",""299019""
","","","1175.7999999523163","","","23","5781","329","&#9728;","elianto","#f73b6a7A","-1"," ","0","-10","[2026.6000001430511]","1","1","","","5781","18","0","4","lose","no-go","0"
"pit-trial","136","1506637","0.0-22.0","battery-v0.2","","""event"",""trial"",""time""
""fullscreenenter"",""1"",""1794""
""fullscreenexit"",""19"",""299019""
""blur"",""19"",""303853""
""focus"",""19"",""653172""
","""event"",""trial"",""time""
""blur"",""19"",""303853""
","""event"",""trial"",""time""
""focus"",""19"",""653172""
","""event"",""trial"",""time""
""fullscreenenter"",""1"",""1794""
","""event"",""trial"",""time""
""fullscreenexit"",""19"",""299019""
","","","-1","","","23","5781","329","&#9733;","elianto","#3366ff99","-1","-1","1","+10","[]","0","1","","","5781","19","2","2","win","no-go","0"
"pit-trial","137","1511496","0.0-23.0","battery-v0.2","","""event"",""trial"",""time""
""fullscreenenter"",""1"",""1794""
""fullscreenexit"",""19"",""299019""
""blur"",""19"",""303853""
""focus"",""19"",""653172""
","""event"",""trial"",""time""
""blur"",""19"",""303853""
","""event"",""trial"",""time""
""focus"",""19"",""653172""
","""event"",""trial"",""time""
""fullscreenenter"",""1"",""1794""
","""event"",""trial"",""time""
""fullscreenexit"",""19"",""299019""
","","","-1","","","23","5781","329","&#9752;","elianto","#f73b6a7A"," ","-1","0","-10","[]","0","1","","","5781","20","3","3","lose","go","0"
"pit-instructions","138","1523942","0.0-24.0","battery-v0.2","","""event"",""trial"",""time""
""fullscreenenter"",""1"",""1794""
""fullscreenexit"",""19"",""299019""
""blur"",""19"",""303853""
""focus"",""19"",""653172""
","""event"",""trial"",""time""
""blur"",""19"",""303853""
","""event"",""trial"",""time""
""focus"",""19"",""653172""
","""event"",""trial"",""time""
""fullscreenenter"",""1"",""1794""
","""event"",""trial"",""time""
""fullscreenexit"",""19"",""299019""
","","[{""page_index"":0,""viewing_time"":5629.400000095367},{""page_index"":1,""viewing_time"":6815}]","12444.700000047684","","","","","","","","","","","","","","","","","","","","","","","",""
"pit-trial","139","1527968","0.0-25.0","battery-v0.2","","""event"",""trial"",""time""
""fullscreenenter"",""1"",""1794""
""fullscreenexit"",""19"",""299019""
""blur"",""19"",""303853""
""focus"",""19"",""653172""
","""event"",""trial"",""time""
""blur"",""19"",""303853""
","""event"",""trial"",""time""
""focus"",""19"",""653172""
","""event"",""trial"",""time""
""fullscreenenter"",""1"",""1794""
","""event"",""trial"",""time""
""fullscreenexit"",""19"",""299019""
","","","1169.6000001430511","","","23","5781","329","r","elianto","#3366ff99"," "," ","1","+10","[2023]","1","2","","","5781","21","1","1","win","go","0"
"pit-trial","140","1532129","0.0-26.0","battery-v0.2","","""event"",""trial"",""time""
""fullscreenenter"",""1"",""1794""
""fullscreenexit"",""19"",""299019""
""blur"",""19"",""303853""
""focus"",""19"",""653172""
","""event"",""trial"",""time""
""blur"",""19"",""303853""
","""event"",""trial"",""time""
""focus"",""19"",""653172""
","""event"",""trial"",""time""
""fullscreenenter"",""1"",""1794""
","""event"",""trial"",""time""
""fullscreenexit"",""19"",""299019""
","","","1304.2000000476837","","","23","5781","329","m","elianto","#f73b6a7A","-1"," ","0","-10","[2154.5999999046326]","1","2","","","5781","22","0","4","lose","no-go","0"
"pit-trial","141","1536079","0.0-27.0","battery-v0.2","","""event"",""trial"",""time""
""fullscreenenter"",""1"",""1794""
""fullscreenexit"",""19"",""299019""
""blur"",""19"",""303853""
""focus"",""19"",""653172""
","""event"",""trial"",""time""
""blur"",""19"",""303853""
","""event"",""trial"",""time""
""focus"",""19"",""653172""
","""event"",""trial"",""time""
""fullscreenenter"",""1"",""1794""
","""event"",""trial"",""time""
""fullscreenexit"",""19"",""299019""
","","","1093.2000000476837","","","23","5781","329","h","elianto","#f73b6a7A"," "," ","1","0","[1945.6000001430511]","1","2","","","5781","23","3","3","lose","go","0"
"pit-trial","142","1540233","0.0-28.0","battery-v0.2","","""event"",""trial"",""time""
""fullscreenenter"",""1"",""1794""
""fullscreenexit"",""19"",""299019""
""blur"",""19"",""303853""
""focus"",""19"",""653172""
","""event"",""trial"",""time""
""blur"",""19"",""303853""
","""event"",""trial"",""time""
""focus"",""19"",""653172""
","""event"",""trial"",""time""
""fullscreenenter"",""1"",""1794""
","""event"",""trial"",""time""
""fullscreenexit"",""19"",""299019""
","","","1298.5","","","23","5781","329","y","elianto","#f73b6a7A","-1"," ","0","-10","[2150]","1","2","","","5781","24","2","4","lose","no-go","0"
"pit-trial","143","1544221","0.0-29.0","battery-v0.2","","""event"",""trial"",""time""
""fullscreenenter"",""1"",""1794""
""fullscreenexit"",""19"",""299019""
""blur"",""19"",""303853""
""focus"",""19"",""653172""
","""event"",""trial"",""time""
""blur"",""19"",""303853""
","""event"",""trial"",""time""
""focus"",""19"",""653172""
","""event"",""trial"",""time""
""fullscreenenter"",""1"",""1794""
","""event"",""trial"",""time""
""fullscreenexit"",""19"",""299019""
","","","1130.7000000476837","","","23","5781","329","h","elianto","#f73b6a7A"," "," ","1","-10","[1983.2999999523163]","1","2","","","5781","25","3","3","lose","go","1"
"pit-trial","144","1548215","0.0-30.0","battery-v0.2","","""event"",""trial"",""time""
""fullscreenenter"",""1"",""1794""
""fullscreenexit"",""19"",""299019""
""blur"",""19"",""303853""
""focus"",""19"",""653172""
","""event"",""trial"",""time""
""blur"",""19"",""303853""
","""event"",""trial"",""time""
""focus"",""19"",""653172""
","""event"",""trial"",""time""
""fullscreenenter"",""1"",""1794""
","""event"",""trial"",""time""
""fullscreenexit"",""19"",""299019""
","","","1139.5999999046326","","","23","5781","329","m","elianto","#f73b6a7A","-1"," ","0","0","[1989.9000000953674]","1","2","","","5781","26","0","4","lose","no-go","1"
"pit-trial","145","1553074","0.0-31.0","battery-v0.2","","""event"",""trial"",""time""
""fullscreenenter"",""1"",""1794""
""fullscreenexit"",""19"",""299019""
""blur"",""19"",""303853""
""focus"",""19"",""653172""
","""event"",""trial"",""time""
""blur"",""19"",""303853""
","""event"",""trial"",""time""
""focus"",""19"",""653172""
","""event"",""trial"",""time""
""fullscreenenter"",""1"",""1794""
","""event"",""trial"",""time""
""fullscreenexit"",""19"",""299019""
","","","-1","","","23","5781","329","y","elianto","#f73b6a7A","-1","-1","1","0","[]","0","2","","","5781","27","2","4","lose","no-go","0"
"pit-trial","146","1556929","0.0-32.0","battery-v0.2","","""event"",""trial"",""time""
""fullscreenenter"",""1"",""1794""
""fullscreenexit"",""19"",""299019""
""blur"",""19"",""303853""
""focus"",""19"",""653172""
","""event"",""trial"",""time""
""blur"",""19"",""303853""
","""event"",""trial"",""time""
""focus"",""19"",""653172""
","""event"",""trial"",""time""
""fullscreenenter"",""1"",""1794""
","""event"",""trial"",""time""
""fullscreenexit"",""19"",""299019""
","","","999.6999998092651","","","23","5781","329","r","elianto","#3366ff99"," "," ","1","0","[1850.5]","1","2","","","5781","28","1","1","win","go","1"
"pit-trial","147","1561185","0.0-33.0","battery-v0.2","","""event"",""trial"",""time""
""fullscreenenter"",""1"",""1794""
""fullscreenexit"",""19"",""299019""
""blur"",""19"",""303853""
""focus"",""19"",""653172""
","""event"",""trial"",""time""
""blur"",""19"",""303853""
","""event"",""trial"",""time""
""focus"",""19"",""653172""
","""event"",""trial"",""time""
""fullscreenenter"",""1"",""1794""
","""event"",""trial"",""time""
""fullscreenexit"",""19"",""299019""
","","","1400.6999998092651","","","23","5781","329","y","elianto","#f73b6a7A","-1"," ","0","-10","[2251]","1","2","","","5781","29","2","4","lose","no-go","0"
"pit-trial","148","1565538","0.0-34.0","battery-v0.2","","""event"",""trial"",""time""
""fullscreenenter"",""1"",""1794""
""fullscreenexit"",""19"",""299019""
""blur"",""19"",""303853""
""focus"",""19"",""653172""
","""event"",""trial"",""time""
""blur"",""19"",""303853""
","""event"",""trial"",""time""
""focus"",""19"",""653172""
","""event"",""trial"",""time""
""fullscreenenter"",""1"",""1794""
","""event"",""trial"",""time""
""fullscreenexit"",""19"",""299019""
","","","1497.4000000953674","","","23","5781","329","h","elianto","#f73b6a7A"," "," ","1","0","[2348.5]","1","2","","","5781","30","3","3","lose","go","0"
"pit-trial","149","1569585","0.0-35.0","battery-v0.2","","""event"",""trial"",""time""
""fullscreenenter"",""1"",""1794""
""fullscreenexit"",""19"",""299019""
""blur"",""19"",""303853""
""focus"",""19"",""653172""
","""event"",""trial"",""time""
""blur"",""19"",""303853""
","""event"",""trial"",""time""
""focus"",""19"",""653172""
","""event"",""trial"",""time""
""fullscreenenter"",""1"",""1794""
","""event"",""trial"",""time""
""fullscreenexit"",""19"",""299019""
","","","1194.7000000476837","","","23","5781","329","r","elianto","#3366ff99"," "," ","1","+10","[2045.8000001907349]","1","2","","","5781","31","1","1","win","go","0"
"pit-trial","150","1574444","0.0-36.0","battery-v0.2","","""event"",""trial"",""time""
""fullscreenenter"",""1"",""1794""
""fullscreenexit"",""19"",""299019""
""blur"",""19"",""303853""
""focus"",""19"",""653172""
","""event"",""trial"",""time""
""blur"",""19"",""303853""
","""event"",""trial"",""time""
""focus"",""19"",""653172""
","""event"",""trial"",""time""
""fullscreenenter"",""1"",""1794""
","""event"",""trial"",""time""
""fullscreenexit"",""19"",""299019""
","","","-1","","","23","5781","329","m","elianto","#f73b6a7A","-1","-1","1","0","[]","0","2","","","5781","32","0","4","lose","no-go","0"
"pit-trial","151","1579302","0.0-37.0","battery-v0.2","","""event"",""trial"",""time""
""fullscreenenter"",""1"",""1794""
""fullscreenexit"",""19"",""299019""
""blur"",""19"",""303853""
""focus"",""19"",""653172""
","""event"",""trial"",""time""
""blur"",""19"",""303853""
","""event"",""trial"",""time""
""focus"",""19"",""653172""
","""event"",""trial"",""time""
""fullscreenenter"",""1"",""1794""
","""event"",""trial"",""time""
""fullscreenexit"",""19"",""299019""
","","","-1","","","23","5781","329","y","elianto","#f73b6a7A","-1","-1","1","0","[]","0","2","","","5781","33","2","4","lose","no-go","0"
"pit-trial","152","1583360","0.0-38.0","battery-v0.2","","""event"",""trial"",""time""
""fullscreenenter"",""1"",""1794""
""fullscreenexit"",""19"",""299019""
""blur"",""19"",""303853""
""focus"",""19"",""653172""
","""event"",""trial"",""time""
""blur"",""19"",""303853""
","""event"",""trial"",""time""
""focus"",""19"",""653172""
","""event"",""trial"",""time""
""fullscreenenter"",""1"",""1794""
","""event"",""trial"",""time""
""fullscreenexit"",""19"",""299019""
","","","1202.5","","","23","5781","329","r","elianto","#3366ff99"," "," ","1","+10","[2053.2999999523163]","1","2","","","5781","34","1","1","win","go","0"
"pit-trial","153","1588219","0.0-39.0","battery-v0.2","","""event"",""trial"",""time""
""fullscreenenter"",""1"",""1794""
""fullscreenexit"",""19"",""299019""
""blur"",""19"",""303853""
""focus"",""19"",""653172""
","""event"",""trial"",""time""
""blur"",""19"",""303853""
","""event"",""trial"",""time""
""focus"",""19"",""653172""
","""event"",""trial"",""time""
""fullscreenenter"",""1"",""1794""
","""event"",""trial"",""time""
""fullscreenexit"",""19"",""299019""
","","","-1","","","23","5781","329","m","elianto","#f73b6a7A","-1","-1","1","0","[]","0","2","","","5781","35","0","4","lose","no-go","0"
"pit-trial","154","1592195","0.0-40.0","battery-v0.2","","""event"",""trial"",""time""
""fullscreenenter"",""1"",""1794""
""fullscreenexit"",""19"",""299019""
""blur"",""19"",""303853""
""focus"",""19"",""653172""
","""event"",""trial"",""time""
""blur"",""19"",""303853""
","""event"",""trial"",""time""
""focus"",""19"",""653172""
","""event"",""trial"",""time""
""fullscreenenter"",""1"",""1794""
","""event"",""trial"",""time""
""fullscreenexit"",""19"",""299019""
","","","1123.1999998092651","","","23","5781","329","h","elianto","#f73b6a7A"," "," ","1","0","[1973.5999999046326]","1","2","","","5781","36","3","3","lose","go","0"
"pit-trial","155","1597055","0.0-41.0","battery-v0.2","","""event"",""trial"",""time""
""fullscreenenter"",""1"",""1794""
""fullscreenexit"",""19"",""299019""
""blur"",""19"",""303853""
""focus"",""19"",""653172""
","""event"",""trial"",""time""
""blur"",""19"",""303853""
","""event"",""trial"",""time""
""focus"",""19"",""653172""
","""event"",""trial"",""time""
""fullscreenenter"",""1"",""1794""
","""event"",""trial"",""time""
""fullscreenexit"",""19"",""299019""
","","","-1","","","23","5781","329","m","elianto","#f73b6a7A","-1","-1","1","0","[]","0","2","","","5781","37","0","4","lose","no-go","0"
"pit-trial","156","1601914","0.0-42.0","battery-v0.2","","""event"",""trial"",""time""
""fullscreenenter"",""1"",""1794""
""fullscreenexit"",""19"",""299019""
""blur"",""19"",""303853""
""focus"",""19"",""653172""
","""event"",""trial"",""time""
""blur"",""19"",""303853""
","""event"",""trial"",""time""
""focus"",""19"",""653172""
","""event"",""trial"",""time""
""fullscreenenter"",""1"",""1794""
","""event"",""trial"",""time""
""fullscreenexit"",""19"",""299019""
","","","-1","","","23","5781","329","y","elianto","#f73b6a7A","-1","-1","1","0","[]","0","2","","","5781","38","2","4","lose","no-go","0"
"pit-trial","157","1605536","0.0-43.0","battery-v0.2","","""event"",""trial"",""time""
""fullscreenenter"",""1"",""1794""
""fullscreenexit"",""19"",""299019""
""blur"",""19"",""303853""
""focus"",""19"",""653172""
","""event"",""trial"",""time""
""blur"",""19"",""303853""
","""event"",""trial"",""time""
""focus"",""19"",""653172""
","""event"",""trial"",""time""
""fullscreenenter"",""1"",""1794""
","""event"",""trial"",""time""
""fullscreenexit"",""19"",""299019""
","","","763.7999999523163","","","23","5781","329","r","elianto","#3366ff99"," "," ","1","+10","[1616]","1","2","","","5781","39","1","1","win","go","0"
"pit-trial","158","1609518","0.0-44.0","battery-v0.2","","""event"",""trial"",""time""
""fullscreenenter"",""1"",""1794""
""fullscreenexit"",""19"",""299019""
""blur"",""19"",""303853""
""focus"",""19"",""653172""
","""event"",""trial"",""time""
""blur"",""19"",""303853""
","""event"",""trial"",""time""
""focus"",""19"",""653172""
","""event"",""trial"",""time""
""fullscreenenter"",""1"",""1794""
","""event"",""trial"",""time""
""fullscreenexit"",""19"",""299019""
","","","1125.3999998569489","","","23","5781","329","h","elianto","#f73b6a7A"," "," ","1","0","[1976]","1","2","","","5781","40","3","3","lose","go","0"
"pit-trial","159","1614371","0.0-45.0","battery-v0.2","","""event"",""trial"",""time""
""fullscreenenter"",""1"",""1794""
""fullscreenexit"",""19"",""299019""
""blur"",""19"",""303853""
""focus"",""19"",""653172""
","""event"",""trial"",""time""
""blur"",""19"",""303853""
","""event"",""trial"",""time""
""focus"",""19"",""653172""
","""event"",""trial"",""time""
""fullscreenenter"",""1"",""1794""
","""event"",""trial"",""time""
""fullscreenexit"",""19"",""299019""
","","","-1","","","23","5781","329","m","elianto","#f73b6a7A","-1","-1","1","0","[]","0","2","","","5781","41","0","4","lose","no-go","0"
"pit-trial","160","1619230","0.0-46.0","battery-v0.2","","""event"",""trial"",""time""
""fullscreenenter"",""1"",""1794""
""fullscreenexit"",""19"",""299019""
""blur"",""19"",""303853""
""focus"",""19"",""653172""
","""event"",""trial"",""time""
""blur"",""19"",""303853""
","""event"",""trial"",""time""
""focus"",""19"",""653172""
","""event"",""trial"",""time""
""fullscreenenter"",""1"",""1794""
","""event"",""trial"",""time""
