"trial_type","trial_index","time_elapsed","internal_node_id","task_version","subject_id","interactions","blur_events","focus_events","fullscreenenter_events","fullscreenexit_events","success","view_history","rt","responses","num_errors","age","subject","participantId","rune","rune_set","hex","correct","choice","accuracy","outcome","keys","total_keys","block","practice","value","sub","trial","stimulus","robot","valence","action","sham"
"pavlovia","0","14","0.0-0.0","battery-v0.2","","""event"",""trial"",""time""
""fullscreenenter"",""1"",""2615""
","
","
","""event"",""trial"",""time""
""fullscreenenter"",""1"",""2615""
","
","","","","","","","","","","","","","","","","","","","","","","","","","","",""
"fullscreen","1","3560","0.0-1.0","battery-v0.2","","""event"",""trial"",""time""
""fullscreenenter"",""1"",""2615""
","
","
","""event"",""trial"",""time""
""fullscreenenter"",""1"",""2615""
","
","true","","","","","","","","","","","","","","","","","","","","","","","","","",""
"pit-instructions","2","13042","0.0-2.0-0.0","battery-v0.2","","""event"",""trial"",""time""
""fullscreenenter"",""1"",""2615""
","
","
","""event"",""trial"",""time""
""fullscreenenter"",""1"",""2615""
","
","","[{""page_index"":0,""viewing_time"":9477.699999809265}]","9478.599999904633","","","","","","","","","","","","","","","","","","","","","","","",""
"pit-comprehension","3","16562","0.0-2.0-1.0-0.0","battery-v0.2","","""event"",""trial"",""time""
""fullscreenenter"",""1"",""2615""
","
","
","""event"",""trial"",""time""
""fullscreenenter"",""1"",""2615""
","
","","","3515.1000003814697","[""shark""]","0","12","6193","3529","","","","","","","","","","","","","","","","","","",""
"pit-instructions","4","20881","0.0-2.0-1.0-1.0","battery-v0.2","","""event"",""trial"",""time""
""fullscreenenter"",""1"",""2615""
","
","
","""event"",""trial"",""time""
""fullscreenenter"",""1"",""2615""
","
","","[{""page_index"":0,""viewing_time"":4297.10000038147}]","4297.400000095367","","","","","","","","","","","","","","","","","","","","","","","",""
"pit-comprehension","5","24258","0.0-2.0-2.0-0.0","battery-v0.2","","""event"",""trial"",""time""
""fullscreenenter"",""1"",""2615""
","
","
","""event"",""trial"",""time""
""fullscreenenter"",""1"",""2615""
","
","","","3371.3999996185303","[""tiger""]","0","12","6193","3529","","","","","","","","","","","","","","","","","","",""
"pit-instructions","6","27634","0.0-2.0-2.0-1.0","battery-v0.2","","""event"",""trial"",""time""
""fullscreenenter"",""1"",""2615""
","
","
","""event"",""trial"",""time""
""fullscreenenter"",""1"",""2615""
","
","","[{""page_index"":0,""viewing_time"":3371.5}]","3371.699999809265","","","","","","","","","","","","","","","","","","","","","","","",""
"pit-instructions","7","122664","0.0-2.0-3.0","battery-v0.2","","""event"",""trial"",""time""
""fullscreenenter"",""1"",""2615""
","
","
","""event"",""trial"",""time""
""fullscreenenter"",""1"",""2615""
","
","","[{""page_index"":0,""viewing_time"":8108.10000038147},{""page_index"":1,""viewing_time"":5631.799999713898},{""page_index"":2,""viewing_time"":6816.200000286102},{""page_index"":3,""viewing_time"":6335.699999809265},{""page_index"":4,""viewing_time"":5896.099999904633},{""page_index"":5,""viewing_time"":6743.599999904633},{""page_index"":6,""viewing_time"":6848.10000038147},{""page_index"":7,""viewing_time"":6287.89999961853},{""page_index"":8,""viewing_time"":8111.900000095367},{""page_index"":9,""viewing_time"":7896.099999904633},{""page_index"":10,""viewing_time"":8087.900000095367},{""page_index"":11,""viewing_time"":7208},{""page_index"":12,""viewing_time"":6374.800000190735},{""page_index"":13,""viewing_time"":4681.099999904633}]","95027.7000002861","","","","","","","","","","","","","","","","","","","","","","","",""
"pit-trial","8","125635","0.0-2.0-4.0-0.0","battery-v0.2","","""event"",""trial"",""time""
""fullscreenenter"",""1"",""2615""
","
","
","""event"",""trial"",""time""
""fullscreenenter"",""1"",""2615""
","
","","","101.09999990463257","","","12","6193","3529","&#9784;","elianto","#FFFFF080"," "," ","1","&#10004","[954.9000000953674]","1","0","0","","","","","","","",""
"pit-trial","9","128797","0.0-2.0-4.1-0.1","battery-v0.2","","""event"",""trial"",""time""
""fullscreenenter"",""1"",""2615""
","
","
","""event"",""trial"",""time""
""fullscreenenter"",""1"",""2615""
","
","","","299.69999980926514","","","12","6193","3529","&#9784;","elianto","#FFFFF080"," "," ","1","&#10004","[1150.5999999046326]","1","0","0","","","","","","","",""
"pit-trial","10","132268","0.0-2.0-4.2-0.2","battery-v0.2","","""event"",""trial"",""time""
""fullscreenenter"",""1"",""2615""
","
","
","""event"",""trial"",""time""
""fullscreenenter"",""1"",""2615""
","
","","","597","","","12","6193","3529","&#9784;","elianto","#FFFFF080"," "," ","1","&#10004","[1453.8000001907349]","1","0","0","","","","","","","",""
"pit-trial","11","135703","0.0-2.0-4.3-0.3","battery-v0.2","","""event"",""trial"",""time""
""fullscreenenter"",""1"",""2615""
","
","
","""event"",""trial"",""time""
""fullscreenenter"",""1"",""2615""
","
","","","562.7000002861023","","","12","6193","3529","&#9784;","elianto","#FFFFF080"," "," ","1","&#10004","[1415.5]","1","0","0","","","","","","","",""
"pit-trial","12","139176","0.0-2.0-4.4-0.4","battery-v0.2","","""event"",""trial"",""time""
""fullscreenenter"",""1"",""2615""
","
","
","""event"",""trial"",""time""
""fullscreenenter"",""1"",""2615""
","
","","","609.1999998092651","","","12","6193","3529","&#9784;","elianto","#FFFFF080"," "," ","1","&#10004","[1459.3000001907349]","1","0","0","","","","","","","",""
"pit-instructions","13","160760","0.0-2.0-5.0","battery-v0.2","","""event"",""trial"",""time""
""fullscreenenter"",""1"",""2615""
","
","
","""event"",""trial"",""time""
""fullscreenenter"",""1"",""2615""
","
","","[{""page_index"":0,""viewing_time"":5963.200000286102},{""page_index"":1,""viewing_time"":5559.799999713898},{""page_index"":2,""viewing_time"":4920.099999904633},{""page_index"":3,""viewing_time"":5135.900000095367}]","21579.200000286102","","","","","","","","","","","","","","","","","","","","","","","",""
"pit-trial","14","165639","0.0-2.0-6.0-0.0","battery-v0.2","","""event"",""trial"",""time""
""fullscreenenter"",""1"",""2615""
","
","
","""event"",""trial"",""time""
""fullscreenenter"",""1"",""2615""
","
","","","-1","","","12","6193","3529","&#9854;","elianto","#FFFFF080","-1","-1","1","&#10004","[]","0","0","1","","","","","","","",""
"pit-trial","15","170520","0.0-2.0-6.1-0.1","battery-v0.2","","""event"",""trial"",""time""
""fullscreenenter"",""1"",""2615""
","
","
","""event"",""trial"",""time""
""fullscreenenter"",""1"",""2615""
","
","","","-1","","","12","6193","3529","&#9854;","elianto","#FFFFF080","-1","-1","1","&#10004","[]","0","0","1","","","","","","","",""
"pit-trial","16","175399","0.0-2.0-6.2-0.2","battery-v0.2","","""event"",""trial"",""time""
""fullscreenenter"",""1"",""2615""
","
","
","""event"",""trial"",""time""
""fullscreenenter"",""1"",""2615""
","
","","","-1","","","12","6193","3529","&#9854;","elianto","#FFFFF080","-1","-1","1","&#10004","[]","0","0","1","","","","","","","",""
"pit-trial","17","180282","0.0-2.0-6.3-0.3","battery-v0.2","","""event"",""trial"",""time""
""fullscreenenter"",""1"",""2615""
","
","
","""event"",""trial"",""time""
""fullscreenenter"",""1"",""2615""
","
","","","-1","","","12","6193","3529","&#9854;","elianto","#FFFFF080","-1","-1","1","&#10004","[]","0","0","1","","","","","","","",""
"pit-trial","18","185157","0.0-2.0-6.4-0.4","battery-v0.2","","""event"",""trial"",""time""
""fullscreenenter"",""1"",""2615""
","
","
","""event"",""trial"",""time""
""fullscreenenter"",""1"",""2615""
","
","","","-1","","","12","6193","3529","&#9854;","elianto","#FFFFF080","-1","-1","1","&#10004","[]","0","0","1","","","","","","","",""
"pit-instructions","19","303831","0.0-2.0-7.0","battery-v0.2","","""event"",""trial"",""time""
""fullscreenenter"",""1"",""2615""
","
","
","""event"",""trial"",""time""
""fullscreenenter"",""1"",""2615""
","
","","[{""page_index"":0,""viewing_time"":5725.10000038147},{""page_index"":1,""viewing_time"":6823.799999713898},{""page_index"":2,""viewing_time"":5504.200000286102},{""page_index"":3,""viewing_time"":5839.89999961853},{""page_index"":4,""viewing_time"":7199.800000190735},{""page_index"":5,""viewing_time"":5407.900000095367},{""page_index"":6,""viewing_time"":5263.900000095367},{""page_index"":7,""viewing_time"":7472},{""page_index"":8,""viewing_time"":6304},{""page_index"":9,""viewing_time"":5911.799999713898},{""page_index"":10,""viewing_time"":6808},{""page_index"":11,""viewing_time"":5952},{""page_index"":12,""viewing_time"":7728},{""page_index"":13,""viewing_time"":7319.900000095367},{""page_index"":14,""viewing_time"":7679.900000095367},{""page_index"":15,""viewing_time"":7639.699999809265},{""page_index"":16,""viewing_time"":7200.200000286102},{""page_index"":17,""viewing_time"":6888}]","118668.40000009537","","","","","","","","","","","","","","","","","","","","","","","",""
"pit-trial","20","307048","0.0-2.0-8.0-0.0","battery-v0.2","","""event"",""trial"",""time""
""fullscreenenter"",""1"",""2615""
","
","
","""event"",""trial"",""time""
""fullscreenenter"",""1"",""2615""
","
","","","349.3999996185303","","","12","6193","3529","&#9776;","elianto","#3366ff99"," "," ","1","+10","[1204.4000000953674]","1","0","1","","","","","","","",""
"pit-trial","21","310340","0.0-2.0-8.0-1.0","battery-v0.2","","""event"",""trial"",""time""
""fullscreenenter"",""1"",""2615""
","
","
","""event"",""trial"",""time""
""fullscreenenter"",""1"",""2615""
","
","","","420.80000019073486","","","12","6193","3529","&#9776;","elianto","#3366ff99"," "," ","1","+10","[1274.0999999046326]","1","0","1","","","","","","","",""
"pit-trial","22","313471","0.0-2.0-8.0-2.0","battery-v0.2","","""event"",""trial"",""time""
""fullscreenenter"",""1"",""2615""
","
","
","""event"",""trial"",""time""
""fullscreenenter"",""1"",""2615""
","
","","","259.09999990463257","","","12","6193","3529","&#9776;","elianto","#3366ff99"," "," ","1","+10","[1117.5]","1","0","1","","","","","","","",""
"pit-trial","23","316776","0.0-2.0-8.0-3.0","battery-v0.2","","""event"",""trial"",""time""
""fullscreenenter"",""1"",""2615""
","
","
","""event"",""trial"",""time""
""fullscreenenter"",""1"",""2615""
","
","","","432.90000009536743","","","12","6193","3529","&#9776;","elianto","#3366ff99"," "," ","1","0","[1283.4000000953674]","1","0","1","","","","","","","",""
"pit-trial","24","319956","0.0-2.0-8.0-4.0","battery-v0.2","","""event"",""trial"",""time""
""fullscreenenter"",""1"",""2615""
","
","
","""event"",""trial"",""time""
""fullscreenenter"",""1"",""2615""
","
","","","303.40000009536743","","","12","6193","3529","&#9776;","elianto","#3366ff99"," "," ","1","+10","[1161.7999997138977]","1","0","1","","","","","","","",""
"pit-trial","25","323252","0.0-2.0-8.1-0.1","battery-v0.2","","""event"",""trial"",""time""
""fullscreenenter"",""1"",""2615""
","
","
","""event"",""trial"",""time""
""fullscreenenter"",""1"",""2615""
","
","","","418.80000019073486","","","12","6193","3529","&#9776;","elianto","#3366ff99"," "," ","1","+10","[1277.5999999046326]","1","0","1","","","","","","","",""
"pit-trial","26","326554","0.0-2.0-8.1-1.1","battery-v0.2","","""event"",""trial"",""time""
""fullscreenenter"",""1"",""2615""
","
","
","""event"",""trial"",""time""
""fullscreenenter"",""1"",""2615""
","
","","","441.19999980926514","","","12","6193","3529","&#9776;","elianto","#3366ff99"," "," ","1","+10","[1293.3000001907349]","1","0","1","","","","","","","",""
"pit-trial","27","329734","0.0-2.0-8.1-2.1","battery-v0.2","","""event"",""trial"",""time""
""fullscreenenter"",""1"",""2615""
","
","
","""event"",""trial"",""time""
""fullscreenenter"",""1"",""2615""
","
","","","306","","","12","6193","3529","&#9776;","elianto","#3366ff99"," "," ","1","+10","[1159.6999998092651]","1","0","1","","","","","","","",""
"pit-trial","28","332914","0.0-2.0-8.1-3.1","battery-v0.2","","""event"",""trial"",""time""
""fullscreenenter"",""1"",""2615""
","
","
","""event"",""trial"",""time""
""fullscreenenter"",""1"",""2615""
","
","","","313.80000019073486","","","12","6193","3529","&#9776;","elianto","#3366ff99"," "," ","1","0","[1164.2000002861023]","1","0","1","","","","","","","",""
"pit-trial","29","336025","0.0-2.0-8.1-4.1","battery-v0.2","","""event"",""trial"",""time""
""fullscreenenter"",""1"",""2615""
","
","
","""event"",""trial"",""time""
""fullscreenenter"",""1"",""2615""
","
","","","250.40000009536743","","","12","6193","3529","&#9776;","elianto","#3366ff99"," "," ","1","+10","[1104.1000003814697]","1","0","1","","","","","","","",""
"pit-trial","30","338962","0.0-2.0-8.2-0.2","battery-v0.2","","""event"",""trial"",""time""
""fullscreenenter"",""1"",""2615""
","
","
","""event"",""trial"",""time""
""fullscreenenter"",""1"",""2615""
","
","","","77.2999997138977","","","12","6193","3529","&#9776;","elianto","#3366ff99"," "," ","1","+10","[929.5]","1","0","1","","","","","","","",""
"pit-trial","31","342201","0.0-2.0-8.2-1.2","battery-v0.2","","""event"",""trial"",""time""
""fullscreenenter"",""1"",""2615""
","
","
","""event"",""trial"",""time""
""fullscreenenter"",""1"",""2615""
","
","","","379.09999990463257","","","12","6193","3529","&#9776;","elianto","#3366ff99"," "," ","1","+10","[1231.4000000953674]","1","0","1","","","","","","","",""
"pit-trial","32","346185","0.0-2.0-8.2-2.2","battery-v0.2","","""event"",""trial"",""time""
""fullscreenenter"",""1"",""2615""
","
","
","""event"",""trial"",""time""
""fullscreenenter"",""1"",""2615""
","
","","","1124.0999999046326","","","12","6193","3529","&#9776;","elianto","#3366ff99"," "," ","1","+10","[1976.5]","1","0","1","","","","","","","",""
"pit-trial","33","349433","0.0-2.0-8.2-3.2","battery-v0.2","","""event"",""trial"",""time""
""fullscreenenter"",""1"",""2615""
","
","
","""event"",""trial"",""time""
""fullscreenenter"",""1"",""2615""
","
","","","388.80000019073486","","","12","6193","3529","&#9776;","elianto","#3366ff99"," "," ","1","0","[1239.9000000953674]","1","0","1","","","","","","","",""
"pit-trial","34","352545","0.0-2.0-8.2-4.2","battery-v0.2","","""event"",""trial"",""time""
""fullscreenenter"",""1"",""2615""
","
","
","""event"",""trial"",""time""
""fullscreenenter"",""1"",""2615""
","
","","","253.69999980926514","","","12","6193","3529","&#9776;","elianto","#3366ff99"," "," ","1","+10","[1105]","1","0","1","","","","","","","",""
"call-function","35","352548","0.0-2.0-9.0","battery-v0.2","","""event"",""trial"",""time""
""fullscreenenter"",""1"",""2615""
","
","
","""event"",""trial"",""time""
""fullscreenenter"",""1"",""2615""
","
","","","","","","","","","","","","","","","","","","","","","","","","","","",""
"pit-instructions","36","395045","0.0-2.0-10.0","battery-v0.2","","""event"",""trial"",""time""
""fullscreenenter"",""1"",""2615""
","
","
","""event"",""trial"",""time""
""fullscreenenter"",""1"",""2615""
","
","","[{""page_index"":0,""viewing_time"":6152.799999713898},{""page_index"":1,""viewing_time"":6832.10000038147},{""page_index"":2,""viewing_time"":9703.799999713898},{""page_index"":3,""viewing_time"":11479.800000190735},{""page_index"":4,""viewing_time"":8328}]","42496.7999997139","","","","","","","","","","","","","","","","","","","","","","","",""
"pit-trial","37","399933","0.0-2.0-11.0-0.0","battery-v0.2","","""event"",""trial"",""time""
""fullscreenenter"",""1"",""2615""
","
","
","""event"",""trial"",""time""
""fullscreenenter"",""1"",""2615""
","
","","","-1","","","12","6193","3529","&#9761;","elianto","#3366ff99","-1","-1","1","+10","[]","0","0","2","","","","","","","",""
"pit-trial","38","404816","0.0-2.0-11.0-1.0","battery-v0.2","","""event"",""trial"",""time""
""fullscreenenter"",""1"",""2615""
","
","
","""event"",""trial"",""time""
""fullscreenenter"",""1"",""2615""
","
","","","-1","","","12","6193","3529","&#9761;","elianto","#3366ff99","-1","-1","1","+10","[]","0","0","2","","","","","","","",""
"pit-trial","39","409702","0.0-2.0-11.0-2.0","battery-v0.2","","""event"",""trial"",""time""
""fullscreenenter"",""1"",""2615""
","
","
","""event"",""trial"",""time""
""fullscreenenter"",""1"",""2615""
","
","","","-1","","","12","6193","3529","&#9761;","elianto","#3366ff99","-1","-1","1","+10","[]","0","0","2","","","","","","","",""
"pit-trial","40","414582","0.0-2.0-11.0-3.0","battery-v0.2","","""event"",""trial"",""time""
""fullscreenenter"",""1"",""2615""
","
","
","""event"",""trial"",""time""
""fullscreenenter"",""1"",""2615""
","
","","","-1","","","12","6193","3529","&#9761;","elianto","#3366ff99","-1","-1","1","0","[]","0","0","2","","","","","","","",""
"pit-trial","41","419454","0.0-2.0-11.0-4.0","battery-v0.2","","""event"",""trial"",""time""
""fullscreenenter"",""1"",""2615""
","
","
","""event"",""trial"",""time""
""fullscreenenter"",""1"",""2615""
","
","","","-1","","","12","6193","3529","&#9761;","elianto","#3366ff99","-1","-1","1","+10","[]","0","0","2","","","","","","","",""
"pit-trial","42","424321","0.0-2.0-11.1-0.1","battery-v0.2","","""event"",""trial"",""time""
""fullscreenenter"",""1"",""2615""
","
","
","""event"",""trial"",""time""
""fullscreenenter"",""1"",""2615""
","
","","","-1","","","12","6193","3529","&#9761;","elianto","#3366ff99","-1","-1","1","+10","[]","0","0","2","","","","","","","",""
"pit-trial","43","429186","0.0-2.0-11.1-1.1","battery-v0.2","","""event"",""trial"",""time""
""fullscreenenter"",""1"",""2615""
","
","
","""event"",""trial"",""time""
""fullscreenenter"",""1"",""2615""
","
","","","-1","","","12","6193","3529","&#9761;","elianto","#3366ff99","-1","-1","1","+10","[]","0","0","2","","","","","","","",""
"pit-trial","44","434049","0.0-2.0-11.1-2.1","battery-v0.2","","""event"",""trial"",""time""
""fullscreenenter"",""1"",""2615""
","
","
","""event"",""trial"",""time""
""fullscreenenter"",""1"",""2615""
","
","","","-1","","","12","6193","3529","&#9761;","elianto","#3366ff99","-1","-1","1","+10","[]","0","0","2","","","","","","","",""
"pit-trial","45","438913","0.0-2.0-11.1-3.1","battery-v0.2","","""event"",""trial"",""time""
""fullscreenenter"",""1"",""2615""
","
","
","""event"",""trial"",""time""
""fullscreenenter"",""1"",""2615""
","
","","","-1","","","12","6193","3529","&#9761;","elianto","#3366ff99","-1","-1","1","0","[]","0","0","2","","","","","","","",""
"pit-trial","46","443777","0.0-2.0-11.1-4.1","battery-v0.2","","""event"",""trial"",""time""
""fullscreenenter"",""1"",""2615""
","
","
","""event"",""trial"",""time""
""fullscreenenter"",""1"",""2615""
","
","","","-1","","","12","6193","3529","&#9761;","elianto","#3366ff99","-1","-1","1","+10","[]","0","0","2","","","","","","","",""
"pit-trial","47","448640","0.0-2.0-11.2-0.2","battery-v0.2","","""event"",""trial"",""time""
""fullscreenenter"",""1"",""2615""
","
","
","""event"",""trial"",""time""
""fullscreenenter"",""1"",""2615""
","
","","","-1","","","12","6193","3529","&#9761;","elianto","#3366ff99","-1","-1","1","+10","[]","0","0","2","","","","","","","",""
"pit-trial","48","453505","0.0-2.0-11.2-1.2","battery-v0.2","","""event"",""trial"",""time""
""fullscreenenter"",""1"",""2615""
","
","
","""event"",""trial"",""time""
""fullscreenenter"",""1"",""2615""
","
","","","-1","","","12","6193","3529","&#9761;","elianto","#3366ff99","-1","-1","1","+10","[]","0","0","2","","","","","","","",""
"pit-trial","49","458369","0.0-2.0-11.2-2.2","battery-v0.2","","""event"",""trial"",""time""
""fullscreenenter"",""1"",""2615""
","
","
","""event"",""trial"",""time""
""fullscreenenter"",""1"",""2615""
","
","","","-1","","","12","6193","3529","&#9761;","elianto","#3366ff99","-1","-1","1","+10","[]","0","0","2","","","","","","","",""
"pit-trial","50","463233","0.0-2.0-11.2-3.2","battery-v0.2","","""event"",""trial"",""time""
""fullscreenenter"",""1"",""2615""
","
","
","""event"",""trial"",""time""
""fullscreenenter"",""1"",""2615""
","
","","","-1","","","12","6193","3529","&#9761;","elianto","#3366ff99","-1","-1","1","0","[]","0","0","2","","","","","","","",""
"pit-trial","51","468097","0.0-2.0-11.2-4.2","battery-v0.2","","""event"",""trial"",""time""
""fullscreenenter"",""1"",""2615""
","
","
","""event"",""trial"",""time""
""fullscreenenter"",""1"",""2615""
","
","","","-1","","","12","6193","3529","&#9761;","elianto","#3366ff99","-1","-1","1","+10","[]","0","0","2","","","","","","","",""
"pit-trial","52","472961","0.0-2.0-11.3-0.3","battery-v0.2","","""event"",""trial"",""time""
""fullscreenenter"",""1"",""2615""
","
","
","""event"",""trial"",""time""
""fullscreenenter"",""1"",""2615""
","
","","","-1","","","12","6193","3529","&#9761;","elianto","#3366ff99","-1","-1","1","+10","[]","0","0","2","","","","","","","",""
"pit-trial","53","477826","0.0-2.0-11.3-1.3","battery-v0.2","","""event"",""trial"",""time""
""fullscreenenter"",""1"",""2615""
","
","
","""event"",""trial"",""time""
""fullscreenenter"",""1"",""2615""
","
","","","-1","","","12","6193","3529","&#9761;","elianto","#3366ff99","-1","-1","1","+10","[]","0","0","2","","","","","","","",""
"pit-trial","54","482689","0.0-2.0-11.3-2.3","battery-v0.2","","""event"",""trial"",""time""
""fullscreenenter"",""1"",""2615""
","
","
","""event"",""trial"",""time""
""fullscreenenter"",""1"",""2615""
","
","","","-1","","","12","6193","3529","&#9761;","elianto","#3366ff99","-1","-1","1","+10","[]","0","0","2","","","","","","","",""
"pit-trial","55","487554","0.0-2.0-11.3-3.3","battery-v0.2","","""event"",""trial"",""time""
""fullscreenenter"",""1"",""2615""
","
","
","""event"",""trial"",""time""
""fullscreenenter"",""1"",""2615""
","
","","","-1","","","12","6193","3529","&#9761;","elianto","#3366ff99","-1","-1","1","0","[4064.2999997138977]","1","0","2","","","","","","","",""
"pit-trial","56","490713","0.0-2.0-11.3-4.3","battery-v0.2","","""event"",""trial"",""time""
""fullscreenenter"",""1"",""2615""
","
","
","""event"",""trial"",""time""
""fullscreenenter"",""1"",""2615""
","
","","","298.40000009536743","","","12","6193","3529","&#9761;","elianto","#3366ff99","-1"," ","0","0","[1151]","1","0","2","","","","","","","",""
"call-function","57","490716","0.0-2.0-12.0","battery-v0.2","","""event"",""trial"",""time""
""fullscreenenter"",""1"",""2615""
","
","
","""event"",""trial"",""time""
""fullscreenenter"",""1"",""2615""
","
","","","","","","","","","","","","","","","","","","","","","","","","","","",""
"pit-instructions","58","523309","0.0-2.0-13.0","battery-v0.2","","""event"",""trial"",""time""
""fullscreenenter"",""1"",""2615""
","
","
","""event"",""trial"",""time""
""fullscreenenter"",""1"",""2615""
","
","","[{""page_index"":0,""viewing_time"":5200.099999904633},{""page_index"":1,""viewing_time"":7319.800000190735},{""page_index"":2,""viewing_time"":3607.9000000953674},{""page_index"":3,""viewing_time"":10959.799999713898},{""page_index"":4,""viewing_time"":5504.099999904633}]","32592.099999904633","","","","","","","","","","","","","","","","","","","","","","","",""
"pit-trial","59","527217","0.0-2.0-14.0-0.0","battery-v0.2","","""event"",""trial"",""time""
""fullscreenenter"",""1"",""2615""
","
","
","""event"",""trial"",""time""
""fullscreenenter"",""1"",""2615""
","
","","","1023.9000000953674","","","12","6193","3529","&#9826;","elianto","#f73b6a7A","-1"," ","0","-10","[1883.5]","1","0","3","","","","","","","",""
"pit-trial","60","532097","0.0-2.0-14.0-1.0","battery-v0.2","","""event"",""trial"",""time""
""fullscreenenter"",""1"",""2615""
","
","
","""event"",""trial"",""time""
""fullscreenenter"",""1"",""2615""
","
","","","-1","","","12","6193","3529","&#9826;","elianto","#f73b6a7A","-1","-1","1","0","[]","0","0","3","","","","","","","",""
"pit-trial","61","536976","0.0-2.0-14.0-2.0","battery-v0.2","","""event"",""trial"",""time""
""fullscreenenter"",""1"",""2615""
","
","
","""event"",""trial"",""time""
""fullscreenenter"",""1"",""2615""
","
","","","-1","","","12","6193","3529","&#9826;","elianto","#f73b6a7A","-1","-1","1","0","[]","0","0","3","","","","","","","",""
"pit-trial","62","541856","0.0-2.0-14.0-3.0","battery-v0.2","","""event"",""trial"",""time""
""fullscreenenter"",""1"",""2615""
","
","
","""event"",""trial"",""time""
""fullscreenenter"",""1"",""2615""
","
","","","-1","","","12","6193","3529","&#9826;","elianto","#f73b6a7A","-1","-1","1","-10","[]","0","0","3","","","","","","","",""
"pit-trial","63","546728","0.0-2.0-14.0-4.0","battery-v0.2","","""event"",""trial"",""time""
""fullscreenenter"",""1"",""2615""
","
","
","""event"",""trial"",""time""
""fullscreenenter"",""1"",""2615""
","
","","","-1","","","12","6193","3529","&#9826;","elianto","#f73b6a7A","-1","-1","1","0","[]","0","0","3","","","","","","","",""
"pit-trial","64","551616","0.0-2.0-14.1-0.1","battery-v0.2","","""event"",""trial"",""time""
""fullscreenenter"",""1"",""2615""
","
","
","""event"",""trial"",""time""
""fullscreenenter"",""1"",""2615""
","
","","","-1","","","12","6193","3529","&#9826;","elianto","#f73b6a7A","-1","-1","1","0","[]","0","0","3","","","","","","","",""
"pit-trial","65","556481","0.0-2.0-14.1-1.1","battery-v0.2","","""event"",""trial"",""time""
""fullscreenenter"",""1"",""2615""
","
","
","""event"",""trial"",""time""
""fullscreenenter"",""1"",""2615""
","
","","","-1","","","12","6193","3529","&#9826;","elianto","#f73b6a7A","-1","-1","1","0","[]","0","0","3","","","","","","","",""
"pit-trial","66","561346","0.0-2.0-14.1-2.1","battery-v0.2","","""event"",""trial"",""time""
""fullscreenenter"",""1"",""2615""
","
","
","""event"",""trial"",""time""
""fullscreenenter"",""1"",""2615""
","
","","","-1","","","12","6193","3529","&#9826;","elianto","#f73b6a7A","-1","-1","1","0","[]","0","0","3","","","","","","","",""
"pit-trial","67","566209","0.0-2.0-14.1-3.1","battery-v0.2","","""event"",""trial"",""time""
""fullscreenenter"",""1"",""2615""
","
","
","""event"",""trial"",""time""
""fullscreenenter"",""1"",""2615""
","
","","","-1","","","12","6193","3529","&#9826;","elianto","#f73b6a7A","-1","-1","1","-10","[]","0","0","3","","","","","","","",""
"pit-trial","68","571073","0.0-2.0-14.1-4.1","battery-v0.2","","""event"",""trial"",""time""
""fullscreenenter"",""1"",""2615""
","
","
","""event"",""trial"",""time""
""fullscreenenter"",""1"",""2615""
","
","","","-1","","","12","6193","3529","&#9826;","elianto","#f73b6a7A","-1","-1","1","0","[]","0","0","3","","","","","","","",""
"pit-trial","69","575929","0.0-2.0-14.2-0.2","battery-v0.2","","""event"",""trial"",""time""
""fullscreenenter"",""1"",""2615""
","
","
","""event"",""trial"",""time""
""fullscreenenter"",""1"",""2615""
","
","","","-1","","","12","6193","3529","&#9826;","elianto","#f73b6a7A","-1","-1","1","0","[]","0","0","3","","","","","","","",""
"pit-trial","70","580792","0.0-2.0-14.2-1.2","battery-v0.2","","""event"",""trial"",""time""
""fullscreenenter"",""1"",""2615""
","
","
","""event"",""trial"",""time""
""fullscreenenter"",""1"",""2615""
","
","","","-1","","","12","6193","3529","&#9826;","elianto","#f73b6a7A","-1","-1","1","0","[]","0","0","3","","","","","","","",""
"pit-trial","71","585656","0.0-2.0-14.2-2.2","battery-v0.2","","""event"",""trial"",""time""
""fullscreenenter"",""1"",""2615""
","
","
","""event"",""trial"",""time""
""fullscreenenter"",""1"",""2615""
","
","","","-1","","","12","6193","3529","&#9826;","elianto","#f73b6a7A","-1","-1","1","0","[]","0","0","3","","","","","","","",""
"pit-trial","72","590521","0.0-2.0-14.2-3.2","battery-v0.2","","""event"",""trial"",""time""
""fullscreenenter"",""1"",""2615""
","
","
","""event"",""trial"",""time""
""fullscreenenter"",""1"",""2615""
","
","","","-1","","","12","6193","3529","&#9826;","elianto","#f73b6a7A","-1","-1","1","-10","[]","0","0","3","","","","","","","",""
"pit-trial","73","595384","0.0-2.0-14.2-4.2","battery-v0.2","","""event"",""trial"",""time""
""fullscreenenter"",""1"",""2615""
","
","
","""event"",""trial"",""time""
""fullscreenenter"",""1"",""2615""
","
","","","-1","","","12","6193","3529","&#9826;","elianto","#f73b6a7A","-1","-1","1","0","[]","0","0","3","","","","","","","",""
"pit-trial","74","600249","0.0-2.0-14.3-0.3","battery-v0.2","","""event"",""trial"",""time""
""fullscreenenter"",""1"",""2615""
","
","
","""event"",""trial"",""time""
""fullscreenenter"",""1"",""2615""
","
","","","-1","","","12","6193","3529","&#9826;","elianto","#f73b6a7A","-1","-1","1","0","[]","0","0","3","","","","","","","",""
"pit-trial","75","605106","0.0-2.0-14.3-1.3","battery-v0.2","","""event"",""trial"",""time""
""fullscreenenter"",""1"",""2615""
","
","
","""event"",""trial"",""time""
""fullscreenenter"",""1"",""2615""
","
","","","-1","","","12","6193","3529","&#9826;","elianto","#f73b6a7A","-1","-1","1","0","[]","0","0","3","","","","","","","",""
"pit-trial","76","609969","0.0-2.0-14.3-2.3","battery-v0.2","","""event"",""trial"",""time""
""fullscreenenter"",""1"",""2615""
","
","
","""event"",""trial"",""time""
""fullscreenenter"",""1"",""2615""
","
","","","-1","","","12","6193","3529","&#9826;","elianto","#f73b6a7A","-1","-1","1","0","[]","0","0","3","","","","","","","",""
"pit-trial","77","614833","0.0-2.0-14.3-3.3","battery-v0.2","","""event"",""trial"",""time""
""fullscreenenter"",""1"",""2615""
","
","
","""event"",""trial"",""time""
""fullscreenenter"",""1"",""2615""
","
","","","-1","","","12","6193","3529","&#9826;","elianto","#f73b6a7A","-1","-1","1","-10","[]","0","0","3","","","","","","","",""
"pit-trial","78","619697","0.0-2.0-14.3-4.3","battery-v0.2","","""event"",""trial"",""time""
""fullscreenenter"",""1"",""2615""
","
","
","""event"",""trial"",""time""
""fullscreenenter"",""1"",""2615""
","
","","","-1","","","12","6193","3529","&#9826;","elianto","#f73b6a7A","-1","-1","1","0","[]","0","0","3","","","","","","","",""
"call-function","79","619700","0.0-2.0-15.0","battery-v0.2","","""event"",""trial"",""time""
""fullscreenenter"",""1"",""2615""
","
","
","""event"",""trial"",""time""
""fullscreenenter"",""1"",""2615""
","
","","","","","","","","","","","","","","","","","","","","","","","","","","",""
"pit-instructions","80","651491","0.0-2.0-16.0","battery-v0.2","","""event"",""trial"",""time""
""fullscreenenter"",""1"",""2615""
","
","
","""event"",""trial"",""time""
""fullscreenenter"",""1"",""2615""
","
","","[{""page_index"":0,""viewing_time"":6742.299999713898},{""page_index"":1,""viewing_time"":15071.800000190735},{""page_index"":2,""viewing_time"":4472},{""page_index"":3,""viewing_time"":5503.900000095367}]","31790.400000095367","","","","","","","","","","","","","","","","","","","","","","","",""
"pit-trial","81","654482","0.0-2.0-17.0-0.0","battery-v0.2","","""event"",""trial"",""time""
""fullscreenenter"",""1"",""2615""
","
","
","""event"",""trial"",""time""
""fullscreenenter"",""1"",""2615""
","
","","","128.2000002861023","","","12","6193","3529","&#9789;","elianto","#f73b6a7A"," "," ","1","0","[980.0999999046326]","1","0","4","","","","","","","",""
"pit-trial","82","657767","0.0-2.0-17.0-1.0","battery-v0.2","","""event"",""trial"",""time""
""fullscreenenter"",""1"",""2615""
","
","
","""event"",""trial"",""time""
""fullscreenenter"",""1"",""2615""
","
","","","408.69999980926514","","","12","6193","3529","&#9789;","elianto","#f73b6a7A"," "," ","1","0","[1260.1999998092651]","1","0","4","","","","","","","",""
"pit-trial","83","660866","0.0-2.0-17.0-2.0","battery-v0.2","","""event"",""trial"",""time""
""fullscreenenter"",""1"",""2615""
","
","
","""event"",""trial"",""time""
""fullscreenenter"",""1"",""2615""
","
","","","224.40000009536743","","","12","6193","3529","&#9789;","elianto","#f73b6a7A"," "," ","1","0","[1079.2000002861023,1335.9000000953674]","2","0","4","","","","","","","",""
"pit-trial","84","664150","0.0-2.0-17.0-3.0","battery-v0.2","","""event"",""trial"",""time""
""fullscreenenter"",""1"",""2615""
","
","
","""event"",""trial"",""time""
""fullscreenenter"",""1"",""2615""
","
","","","416.40000009536743","","","12","6193","3529","&#9789;","elianto","#f73b6a7A"," "," ","1","-10","[1268.4000000953674]","1","0","4","","","","","","","",""
"pit-trial","85","667688","0.0-2.0-17.0-4.0","battery-v0.2","","""event"",""trial"",""time""
""fullscreenenter"",""1"",""2615""
","
","
","""event"",""trial"",""time""
""fullscreenenter"",""1"",""2615""
","
","","","664.5","","","12","6193","3529","&#9789;","elianto","#f73b6a7A"," "," ","1","0","[1521.0999999046326]","1","0","4","","","","","","","",""
"pit-trial","86","671034","0.0-2.0-17.1-0.1","battery-v0.2","","""event"",""trial"",""time""
""fullscreenenter"",""1"",""2615""
","
","
","""event"",""trial"",""time""
""fullscreenenter"",""1"",""2615""
","
","","","470","","","12","6193","3529","&#9789;","elianto","#f73b6a7A"," "," ","1","0","[1325.7000002861023]","1","0","4","","","","","","","",""
"pit-trial","87","674265","0.0-2.0-17.1-1.1","battery-v0.2","","""event"",""trial"",""time""
""fullscreenenter"",""1"",""2615""
","
","
","""event"",""trial"",""time""
""fullscreenenter"",""1"",""2615""
","
","","","359.6000003814697","","","12","6193","3529","&#9789;","elianto","#f73b6a7A"," "," ","1","0","[1213.1000003814697]","1","0","4","","","","","","","",""
"pit-trial","88","679150","0.0-2.0-17.1-2.1","battery-v0.2","","""event"",""trial"",""time""
""fullscreenenter"",""1"",""2615""
","
","
","""event"",""trial"",""time""
""fullscreenenter"",""1"",""2615""
","
","","","-1","","","12","6193","3529","&#9789;","elianto","#f73b6a7A"," ","-1","0","-10","[845.6999998092651]","1","0","4","","","","","","","",""
"pit-trial","89","684018","0.0-2.0-17.1-3.1","battery-v0.2","","""event"",""trial"",""time""
""fullscreenenter"",""1"",""2615""
","
","
","""event"",""trial"",""time""
""fullscreenenter"",""1"",""2615""
","
","","","-1","","","12","6193","3529","&#9789;","elianto","#f73b6a7A"," ","-1","0","0","[]","0","0","4","","","","","","","",""
"pit-trial","90","688881","0.0-2.0-17.1-4.1","battery-v0.2","","""event"",""trial"",""time""
""fullscreenenter"",""1"",""2615""
","
","
","""event"",""trial"",""time""
""fullscreenenter"",""1"",""2615""
","
","","","-1","","","12","6193","3529","&#9789;","elianto","#f73b6a7A"," ","-1","0","-10","[]","0","0","4","","","","","","","",""
"pit-trial","91","693746","0.0-2.0-17.2-0.2","battery-v0.2","","""event"",""trial"",""time""
""fullscreenenter"",""1"",""2615""
","
","
","""event"",""trial"",""time""
""fullscreenenter"",""1"",""2615""
","
","","","-1","","","12","6193","3529","&#9789;","elianto","#f73b6a7A"," ","-1","0","-10","[3877.5999999046326]","1","0","4","","","","","","","",""
"pit-trial","92","697122","0.0-2.0-17.2-1.2","battery-v0.2","","""event"",""trial"",""time""
""fullscreenenter"",""1"",""2615""
","
","
","""event"",""trial"",""time""
""fullscreenenter"",""1"",""2615""
","
","","","512.2999997138977","","","12","6193","3529","&#9789;","elianto","#f73b6a7A"," "," ","1","0","[1364.9000000953674]","1","0","4","","","","","","","",""
"pit-trial","93","700452","0.0-2.0-17.2-2.2","battery-v0.2","","""event"",""trial"",""time""
""fullscreenenter"",""1"",""2615""
","
","
","""event"",""trial"",""time""
""fullscreenenter"",""1"",""2615""
","
","","","463.7999997138977","","","12","6193","3529","&#9789;","elianto","#f73b6a7A"," "," ","1","0","[1316.6999998092651]","1","0","4","","","","","","","",""
"pit-trial","94","703777","0.0-2.0-17.2-3.2","battery-v0.2","","""event"",""trial"",""time""
""fullscreenenter"",""1"",""2615""
","
","
","""event"",""trial"",""time""
""fullscreenenter"",""1"",""2615""
","
","","","455.40000009536743","","","12","6193","3529","&#9789;","elianto","#f73b6a7A"," "," ","1","-10","[1314]","1","0","4","","","","","","","",""
"pit-trial","95","706802","0.0-2.0-17.2-4.2","battery-v0.2","","""event"",""trial"",""time""
""fullscreenenter"",""1"",""2615""
","
","
","""event"",""trial"",""time""
""fullscreenenter"",""1"",""2615""
","
","","","162.80000019073486","","","12","6193","3529","&#9789;","elianto","#f73b6a7A"," "," ","1","0","[1013.8000001907349]","1","0","4","","","","","","","",""
"pit-trial","96","709865","0.0-2.0-17.3-0.3","battery-v0.2","","""event"",""trial"",""time""
""fullscreenenter"",""1"",""2615""
","
","
","""event"",""trial"",""time""
""fullscreenenter"",""1"",""2615""
","
","","","199.90000009536743","","","12","6193","3529","&#9789;","elianto","#f73b6a7A"," "," ","1","0","[1051.8000001907349]","1","0","4","","","","","","","",""
"pit-trial","97","713089","0.0-2.0-17.3-1.3","battery-v0.2","","""event"",""trial"",""time""
""fullscreenenter"",""1"",""2615""
","
","
","""event"",""trial"",""time""
""fullscreenenter"",""1"",""2615""
","
","","","359.69999980926514","","","12","6193","3529","&#9789;","elianto","#f73b6a7A"," "," ","1","0","[1213.4000000953674]","1","0","4","","","","","","","",""
"pit-trial","98","716873","0.0-2.0-17.3-2.3","battery-v0.2","","""event"",""trial"",""time""
""fullscreenenter"",""1"",""2615""
","
","
","""event"",""trial"",""time""
""fullscreenenter"",""1"",""2615""
","
","","","920.1999998092651","","","12","6193","3529","&#9789;","elianto","#f73b6a7A"," "," ","1","0","[701.3000001907349,1773.9000000953674]","2","0","4","","","","","","","",""
"pit-trial","99","720322","0.0-2.0-17.3-3.3","battery-v0.2","","""event"",""trial"",""time""
""fullscreenenter"",""1"",""2615""
","
","
","""event"",""trial"",""time""
""fullscreenenter"",""1"",""2615""
","
","","","584","","","12","6193","3529","&#9789;","elianto","#f73b6a7A"," "," ","1","-10","[1437.2000002861023]","1","0","4","","","","","","","",""
"pit-trial","100","723394","0.0-2.0-17.3-4.3","battery-v0.2","","""event"",""trial"",""time""
""fullscreenenter"",""1"",""2615""
","
","
","""event"",""trial"",""time""
""fullscreenenter"",""1"",""2615""
","
","","","207.90000009536743","","","12","6193","3529","&#9789;","elianto","#f73b6a7A"," "," ","1","0","[1060.2000002861023,1140.0999999046326,2148.2000002861023]","3","0","4","","","","","","","",""
"call-function","101","723396","0.0-2.0-18.0","battery-v0.2","","""event"",""trial"",""time""
""fullscreenenter"",""1"",""2615""
","
","
","""event"",""trial"",""time""
""fullscreenenter"",""1"",""2615""
","
","","","","","","","","","","","","","","","","","","","","","","","","","","",""
"pit-instructions","102","794346","0.0-2.0-19.0","battery-v0.2","","""event"",""trial"",""time""
""fullscreenenter"",""1"",""2615""
","
","
","""event"",""trial"",""time""
""fullscreenenter"",""1"",""2615""
","
","","[{""page_index"":0,""viewing_time"":6677.200000286102},{""page_index"":1,""viewing_time"":5831.900000095367},{""page_index"":2,""viewing_time"":13831.699999809265},{""page_index"":3,""viewing_time"":7864},{""page_index"":4,""viewing_time"":8080},{""page_index"":5,""viewing_time"":10463.900000095367},{""page_index"":6,""viewing_time"":8039.799999713898},{""page_index"":7,""viewing_time"":5887.900000095367},{""page_index"":8,""viewing_time"":4272.099999904633}]","70948.7000002861","","","","","","","","","","","","","","","","","","","","","","","",""
"pit-comprehension","103","801219","0.0-2.0-20.0-0.0","battery-v0.2","","""event"",""trial"",""time""
""fullscreenenter"",""1"",""2615""
","
","
","""event"",""trial"",""time""
""fullscreenenter"",""1"",""2615""
","
","","","6868.699999809265","[""SPACE""]","0","12","6193","3529","","","","","","","","","","","","","","","","","","",""
"pit-instructions","104","804066","0.0-2.0-20.0-1.0","battery-v0.2","","""event"",""trial"",""time""
""fullscreenenter"",""1"",""2615""
","
","
","""event"",""trial"",""time""
""fullscreenenter"",""1"",""2615""
","
","","[{""page_index"":0,""viewing_time"":2792}]","2792.300000190735","","","","","","","","","","","","","","","","","","","","","","","",""
"pit-comprehension","105","812586","0.0-2.0-21.0-0.0","battery-v0.2","","""event"",""trial"",""time""
""fullscreenenter"",""1"",""2615""
","
","
","""event"",""trial"",""time""
""fullscreenenter"",""1"",""2615""
","
","","","8516.799999713898","[""10""]","0","12","6193","3529","","","","","","","","","","","","","","","","","","",""
"pit-instructions","106","814114","0.0-2.0-21.0-1.0","battery-v0.2","","""event"",""trial"",""time""
""fullscreenenter"",""1"",""2615""
","
","
","""event"",""trial"",""time""
""fullscreenenter"",""1"",""2615""
","
","","[{""page_index"":0,""viewing_time"":1468.6999998092651}]","1468.9000000953674","","","","","","","","","","","","","","","","","","","","","","","",""
"pit-comprehension","107","822514","0.0-2.0-22.0-0.0","battery-v0.2","","""event"",""trial"",""time""
""fullscreenenter"",""1"",""2615""
","
","
","""event"",""trial"",""time""
""fullscreenenter"",""1"",""2615""
","
","","","8396.800000190735","[""0""]","0","12","6193","3529","","","","","","","","","","","","","","","","","","",""
"pit-instructions","108","824322","0.0-2.0-22.0-1.0","battery-v0.2","","""event"",""trial"",""time""
""fullscreenenter"",""1"",""2615""
","
","
","""event"",""trial"",""time""
""fullscreenenter"",""1"",""2615""
","
","","[{""page_index"":0,""viewing_time"":1754.5}]","1754.9000000953674","","","","","","","","","","","","","","","","","","","","","","","",""
"pit-comprehension","109","852394","0.0-2.0-23.0-0.0","battery-v0.2","","""event"",""trial"",""time""
""fullscreenenter"",""1"",""2615""
","
","
","""event"",""trial"",""time""
""fullscreenenter"",""1"",""2615""
","
","","","28068.700000286102","[""True""]","0","12","6193","3529","","","","","","","","","","","","","","","","","","",""
"pit-instructions","110","854201","0.0-2.0-23.0-1.0","battery-v0.2","","""event"",""trial"",""time""
""fullscreenenter"",""1"",""2615""
","
","
","""event"",""trial"",""time""
""fullscreenenter"",""1"",""2615""
","
","","[{""page_index"":0,""viewing_time"":1745.7000002861023}]","1745.9000000953674","","","","","","","","","","","","","","","","","","","","","","","",""
"pit-comprehension","111","861818","0.0-2.0-24.0-0.0","battery-v0.2","","""event"",""trial"",""time""
""fullscreenenter"",""1"",""2615""
","
","
","""event"",""trial"",""time""
""fullscreenenter"",""1"",""2615""
","
","","","7612.89999961853","[""True""]","0","12","6193","3529","","","","","","","","","","","","","","","","","","",""
"pit-instructions","112","863401","0.0-2.0-24.0-1.0","battery-v0.2","","""event"",""trial"",""time""
""fullscreenenter"",""1"",""2615""
","
","
","""event"",""trial"",""time""
""fullscreenenter"",""1"",""2615""
","
","","[{""page_index"":0,""viewing_time"":1528.9000000953674}]","1529.0999999046326","","","","","","","","","","","","","","","","","","","","","","","",""
"pit-comprehension","113","870882","0.0-2.0-25.0-0.0","battery-v0.2","","""event"",""trial"",""time""
""fullscreenenter"",""1"",""2615""
","
","
","""event"",""trial"",""time""
""fullscreenenter"",""1"",""2615""
","
","","","7477.39999961853","[""True""]","0","12","6193","3529","","","","","","","","","","","","","","","","","","",""
"pit-instructions","114","872753","0.0-2.0-25.0-1.0","battery-v0.2","","""event"",""trial"",""time""
""fullscreenenter"",""1"",""2615""
","
","
","""event"",""trial"",""time""
""fullscreenenter"",""1"",""2615""
","
","","[{""page_index"":0,""viewing_time"":1809.3000001907349}]","1809.5","","","","","","","","","","","","","","","","","","","","","","","",""
"pit-comprehension","115","880657","0.0-2.0-26.0-0.0","battery-v0.2","","""event"",""trial"",""time""
""fullscreenenter"",""1"",""2615""
","
","
","""event"",""trial"",""time""
""fullscreenenter"",""1"",""2615""
","
","","","7901.099999904633","[""False""]","0","12","6193","3529","","","","","","","","","","","","","","","","","","",""
"pit-instructions","116","882305","0.0-2.0-26.0-1.0","battery-v0.2","","""event"",""trial"",""time""
""fullscreenenter"",""1"",""2615""
","
","
","""event"",""trial"",""time""
""fullscreenenter"",""1"",""2615""
","
","","[{""page_index"":0,""viewing_time"":1589.9000000953674}]","1590.2000002861023","","","","","","","","","","","","","","","","","","","","","","","",""
"pit-instructions","117","901625","0.0-3.0","battery-v0.2","","""event"",""trial"",""time""
""fullscreenenter"",""1"",""2615""
","
","
","""event"",""trial"",""time""
""fullscreenenter"",""1"",""2615""
","
","","[{""page_index"":0,""viewing_time"":4590.099999904633},{""page_index"":1,""viewing_time"":7103.799999713898},{""page_index"":2,""viewing_time"":7623.800000190735}]","19318","","","","","","","","","","","","","","","","","","","","","","","",""
"pit-trial","118","905135","0.0-4.0","battery-v0.2","","""event"",""trial"",""time""
""fullscreenenter"",""1"",""2615""
","
","
","""event"",""trial"",""time""
""fullscreenenter"",""1"",""2615""
","
","","","645.2000002861023","","","12","6193","3529","&#9730;","elianto","#3366ff99"," "," ","1","+10","[1497.5999999046326]","1","1","","","6193","1","1","1","win","go","0"
"pit-trial","119","909007","0.0-5.0","battery-v0.2","","""event"",""trial"",""time""
""fullscreenenter"",""1"",""2615""
","
","
","""event"",""trial"",""time""
""fullscreenenter"",""1"",""2615""
","
","","","997.7000002861023","","","12","6193","3529","&#9752;","elianto","#f73b6a7A"," "," ","1","0","[1853.4000000953674]","1","1","","","6193","2","3","3","lose","go","0"
"pit-trial","120","913879","0.0-6.0","battery-v0.2","","""event"",""trial"",""time""
""fullscreenenter"",""1"",""2615""
","
","
","""event"",""trial"",""time""
""fullscreenenter"",""1"",""2615""
","
","","","-1","","","12","6193","3529","&#9728;","elianto","#f73b6a7A","-1","-1","1","0","[]","0","1","","","6193","3","0","4","lose","no-go","0"
"pit-trial","121","918205","0.0-7.0","battery-v0.2","","""event"",""trial"",""time""
""fullscreenenter"",""1"",""2615""
","
","
","""event"",""trial"",""time""
""fullscreenenter"",""1"",""2615""
","
","","","1462.7000002861023","","","12","6193","3529","&#9733;","elianto","#3366ff99","-1"," ","0","0","[2318.4000000953674]","1","1","","","6193","4","2","2","win","no-go","0"
"pit-trial","122","922052","0.0-8.0","battery-v0.2","","""event"",""trial"",""time""
""fullscreenenter"",""1"",""2615""
","
","
","""event"",""trial"",""time""
""fullscreenenter"",""1"",""2615""
","
","","","978.5999999046326","","","12","6193","3529","&#9752;","elianto","#f73b6a7A"," "," ","1","0","[1830.2000002861023]","1","1","","","6193","5","3","3","lose","go","0"
"pit-trial","123","925616","0.0-9.0","battery-v0.2","","""event"",""trial"",""time""
""fullscreenenter"",""1"",""2615""
","
","
","""event"",""trial"",""time""
""fullscreenenter"",""1"",""2615""
","
","","","689.7000002861023","","","12","6193","3529","&#9730;","elianto","#3366ff99"," "," ","1","+10","[1544.4000000953674]","1","1","","","6193","6","1","1","win","go","0"
"pit-trial","124","930430","0.0-10.0","battery-v0.2","","""event"",""trial"",""time""
""fullscreenenter"",""1"",""2615""
","
","
","""event"",""trial"",""time""
""fullscreenenter"",""1"",""2615""
","
","","","1942.1999998092651","","","12","6193","3529","&#9733;","elianto","#3366ff99","-1"," ","0","0","[2797.4000000953674]","1","1","","","6193","7","2","2","win","no-go","0"
"pit-trial","125","935297","0.0-11.0","battery-v0.2","","""event"",""trial"",""time""
""fullscreenenter"",""1"",""2615""
","
","
","""event"",""trial"",""time""
""fullscreenenter"",""1"",""2615""
","
","","","-1","","","12","6193","3529","&#9728;","elianto","#f73b6a7A","-1","-1","1","0","[]","0","1","","","6193","8","0","4","lose","no-go","0"
"pit-trial","126","939027","0.0-12.0","battery-v0.2","","""event"",""trial"",""time""
""fullscreenenter"",""1"",""2615""
","
","
","""event"",""trial"",""time""
""fullscreenenter"",""1"",""2615""
","
","","","870","","","12","6193","3529","&#9730;","elianto","#3366ff99"," "," ","1","+10","[1723.0999999046326]","1","1","","","6193","9","1","1","win","go","0"
"pit-trial","127","943889","0.0-13.0","battery-v0.2","","""event"",""trial"",""time""
""fullscreenenter"",""1"",""2615""
","
","
","""event"",""trial"",""time""
""fullscreenenter"",""1"",""2615""
","
","","","-1","","","12","6193","3529","&#9728;","elianto","#f73b6a7A","-1","-1","1","0","[]","0","1","","","6193","10","0","4","lose","no-go","0"
"pit-trial","128","947505","0.0-14.0","battery-v0.2","","""event"",""trial"",""time""
""fullscreenenter"",""1"",""2615""
","
","
","""event"",""trial"",""time""
""fullscreenenter"",""1"",""2615""
","
","","","760.5999999046326","","","12","6193","3529","&#9733;","elianto","#3366ff99","-1"," ","0","0","[1611.7000002861023]","1","1","","","6193","11","2","2","win","no-go","0"
"pit-trial","129","952018","0.0-15.0","battery-v0.2","","""event"",""trial"",""time""
""fullscreenenter"",""1"",""2615""
","
","
","""event"",""trial"",""time""
""fullscreenenter"",""1"",""2615""
","
","","","1655.1999998092651","","","12","6193","3529","&#9752;","elianto","#f73b6a7A"," "," ","1","0","[2506.699999809265]","1","1","","","6193","12","3","3","lose","go","0"
"pit-trial","130","955754","0.0-16.0","battery-v0.2","","""event"",""trial"",""time""
""fullscreenenter"",""1"",""2615""
","
","
","""event"",""trial"",""time""
""fullscreenenter"",""1"",""2615""
","
","","","877.6999998092651","","","12","6193","3529","&#9730;","elianto","#3366ff99"," "," ","1","+10","[1730.6999998092651]","1","1","","","6193","13","1","1","win","go","0"
"pit-trial","131","960617","0.0-17.0","battery-v0.2","","""event"",""trial"",""time""
""fullscreenenter"",""1"",""2615""
","
","
","""event"",""trial"",""time""
""fullscreenenter"",""1"",""2615""
","
","","","-1","","","12","6193","3529","&#9752;","elianto","#f73b6a7A"," ","-1","0","0","[]","0","1","","","6193","14","3","3","lose","go","1"
"pit-trial","132","964721","0.0-18.0","battery-v0.2","","""event"",""trial"",""time""
""fullscreenenter"",""1"",""2615""
","
","
","""event"",""trial"",""time""
""fullscreenenter"",""1"",""2615""
","
","","","1246.5","","","12","6193","3529","&#9733;","elianto","#3366ff99","-1"," ","0","0","[2099.6000003814697]","1","1","","","6193","15","2","2","win","no-go","0"
"pit-trial","133","969585","0.0-19.0","battery-v0.2","","""event"",""trial"",""time""
""fullscreenenter"",""1"",""2615""
","
","
","""event"",""trial"",""time""
""fullscreenenter"",""1"",""2615""
","
","","","-1","","","12","6193","3529","&#9728;","elianto","#f73b6a7A","-1","-1","1","0","[]","0","1","","","6193","16","0","4","lose","no-go","0"
"pit-trial","134","973417","0.0-20.0","battery-v0.2","","""event"",""trial"",""time""
""fullscreenenter"",""1"",""2615""
","
","
","""event"",""trial"",""time""
""fullscreenenter"",""1"",""2615""
","
","","","972.4000000953674","","","12","6193","3529","&#9730;","elianto","#3366ff99"," "," ","1","+10","[1826.4000000953674]","1","1","","","6193","17","1","1","win","go","0"
"pit-trial","135","976986","0.0-21.0","battery-v0.2","","""event"",""trial"",""time""
""fullscreenenter"",""1"",""2615""
","
","
","""event"",""trial"",""time""
""fullscreenenter"",""1"",""2615""
","
","","","709.7999997138977","","","12","6193","3529","&#9733;","elianto","#3366ff99","-1"," ","0","0","[1562.8999996185303]","1","1","","","6193","18","2","2","win","no-go","0"
"pit-trial","136","981849","0.0-22.0","battery-v0.2","","""event"",""trial"",""time""
""fullscreenenter"",""1"",""2615""
","
","
","""event"",""trial"",""time""
""fullscreenenter"",""1"",""2615""
","
","","","-1","","","12","6193","3529","&#9752;","elianto","#f73b6a7A"," ","-1","0","0","[]","0","1","","","6193","19","3","3","lose","go","1"
"pit-trial","137","986714","0.0-23.0","battery-v0.2","","""event"",""trial"",""time""
""fullscreenenter"",""1"",""2615""
","
","
","""event"",""trial"",""time""
""fullscreenenter"",""1"",""2615""
","
","","","-1","","","12","6193","3529","&#9728;","elianto","#f73b6a7A","-1","-1","1","0","[]","0","1","","","6193","20","0","4","lose","no-go","0"
"pit-instructions","138","999936","0.0-24.0","battery-v0.2","","""event"",""trial"",""time""
""fullscreenenter"",""1"",""2615""
","
","
","""event"",""trial"",""time""
""fullscreenenter"",""1"",""2615""
","
","","[{""page_index"":0,""viewing_time"":6292.099999904633},{""page_index"":1,""viewing_time"":6927.400000095367}]","13219.900000095367","","","","","","","","","","","","","","","","","","","","","","","",""
"pit-trial","139","1003565","0.0-25.0","battery-v0.2","","""event"",""trial"",""time""
""fullscreenenter"",""1"",""2615""
","
","
","""event"",""trial"",""time""
""fullscreenenter"",""1"",""2615""
","
","","","758.6999998092651","","","12","6193","3529","f","elianto","#3366ff99","-1"," ","0","0","[1610.8000001907349]","1","2","","","6193","21","1","2","win","no-go","0"
"pit-trial","140","1008438","0.0-26.0","battery-v0.2","","""event"",""trial"",""time""
""fullscreenenter"",""1"",""2615""
","
","
","""event"",""trial"",""time""
""fullscreenenter"",""1"",""2615""
","
","","","-1","","","12","6193","3529","t","elianto","#f73b6a7A"," ","-1","0","-10","[]","0","2","","","6193","22","2","3","lose","go","0"
"pit-trial","141","1013325","0.0-27.0","battery-v0.2","","""event"",""trial"",""time""
""fullscreenenter"",""1"",""2615""
","
","
","""event"",""trial"",""time""
""fullscreenenter"",""1"",""2615""
","
","","","-1","","","12","6193","3529","b","elianto","#f73b6a7A","-1","-1","1","0","[]","0","2","","","6193","23","3","4","lose","no-go","0"
"pit-trial","142","1018204","0.0-28.0","battery-v0.2","","""event"",""trial"",""time""
""fullscreenenter"",""1"",""2615""
","
","
","""event"",""trial"",""time""
""fullscreenenter"",""1"",""2615""
","
","","","-1","","","12","6193","3529","n","elianto","#f73b6a7A"," ","-1","0","0","[]","0","2","","","6193","24","0","3","lose","go","1"
"pit-trial","143","1022534","0.0-29.0","battery-v0.2","","""event"",""trial"",""time""
""fullscreenenter"",""1"",""2615""
","
","
","""event"",""trial"",""time""
""fullscreenenter"",""1"",""2615""
","
","","","1460.8000001907349","","","12","6193","3529","f","elianto","#3366ff99","-1"," ","0","0","[2312.5]","1","2","","","6193","25","1","2","win","no-go","0"
"pit-trial","144","1027428","0.0-30.0","battery-v0.2","","""event"",""trial"",""time""
""fullscreenenter"",""1"",""2615""
","
","
","""event"",""trial"",""time""
""fullscreenenter"",""1"",""2615""
","
","","","-1","","","12","6193","3529","b","elianto","#f73b6a7A","-1","-1","1","0","[]","0","2","","","6193","26","3","4","lose","no-go","0"
"pit-trial","145","1032289","0.0-31.0","battery-v0.2","","""event"",""trial"",""time""
""fullscreenenter"",""1"",""2615""
","
","
","""event"",""trial"",""time""
""fullscreenenter"",""1"",""2615""
","
","","","-1","","","12","6193","3529","n","elianto","#f73b6a7A"," ","-1","0","-10","[2879.5]","1","2","","","6193","27","0","3","lose","go","0"
"pit-trial","146","1037153","0.0-32.0","battery-v0.2","","""event"",""trial"",""time""
""fullscreenenter"",""1"",""2615""
","
","
","""event"",""trial"",""time""
""fullscreenenter"",""1"",""2615""
","
","","","-1","","","12","6193","3529","t","elianto","#f73b6a7A"," ","-1","0","0","[]","0","2","","","6193","28","2","3","lose","go","1"
"pit-trial","147","1042017","0.0-33.0","battery-v0.2","","""event"",""trial"",""time""
""fullscreenenter"",""1"",""2615""
","
","
","""event"",""trial"",""time""
""fullscreenenter"",""1"",""2615""
","
","","","-1","","","12","6193","3529","b","elianto","#f73b6a7A","-1","-1","1","-10","[]","0","2","","","6193","29","3","4","lose","no-go","1"
"pit-trial","148","1046881","0.0-34.0","battery-v0.2","","""event"",""trial"",""time""
""fullscreenenter"",""1"",""2615""
","
","
","""event"",""trial"",""time""
""fullscreenenter"",""1"",""2615""
","
","","","-1","","","12","6193","3529","t","elianto","#f73b6a7A"," ","-1","0","-10","[3618.300000190735]","1","2","","","6193","30","2","3","lose","go","0"
"pit-trial","149","1051745","0.0-35.0","battery-v0.2","","""event"",""trial"",""time""
""fullscreenenter"",""1"",""2615""
","
","
","""event"",""trial"",""time""
""fullscreenenter"",""1"",""2615""
","
","","","-1","","","12","6193","3529","n","elianto","#f73b6a7A"," ","-1","0","-10","[]","0","2","","","6193","31","0","3","lose","go","0"
"pit-trial","150","1055505","0.0-36.0","battery-v0.2","","""event"",""trial"",""time""
""fullscreenenter"",""1"",""2615""
","
","
","""event"",""trial"",""time""
""fullscreenenter"",""1"",""2615""
","
","","","900.4000000953674","","","12","6193","3529","f","elianto","#3366ff99","-1"," ","0","0","[1754]","1","2","","","6193","32","1","2","win","no-go","0"
"pit-trial","151","1060369","0.0-37.0","battery-v0.2","","""event"",""trial"",""time""
""fullscreenenter"",""1"",""2615""
","
","
","""event"",""trial"",""time""
""fullscreenenter"",""1"",""2615""
","
","","","-1","","","12","6193","3529","t","elianto","#f73b6a7A"," ","-1","0","-10","[]","0","2","","","6193","33","2","3","lose","go","0"
"pit-trial","152","1065233","0.0-38.0","battery-v0.2","","""event"",""trial"",""time""
""fullscreenenter"",""1"",""2615""
","
","
","""event"",""trial"",""time""
""fullscreenenter"",""1"",""2615""
","
","","","-1","","","12","6193","3529","f","elianto","#3366ff99","-1","-1","1","+10","[]","0","2","","","6193","34","1","2","win","no-go","0"
"pit-trial","153","1070097","0.0-39.0","battery-v0.2","","""event"",""trial"",""time""
""fullscreenenter"",""1"",""2615""
","
","
","""event"",""trial"",""time""
""fullscreenenter"",""1"",""2615""
","
","","","-1","","","12","6193","3529","n","elianto","#f73b6a7A"," ","-1","0","-10","[3034.7999997138977]","1","2","","","6193","35","0","3","lose","go","0"
"pit-trial","154","1073865","0.0-40.0","battery-v0.2","","""event"",""trial"",""time""
""fullscreenenter"",""1"",""2615""
","
","
","""event"",""trial"",""time""
""fullscreenenter"",""1"",""2615""
","
","","","908.5","","","12","6193","3529","b","elianto","#f73b6a7A","-1"," ","0","0","[1761.4000000953674]","1","2","","","6193","36","3","4","lose","no-go","1"
"pit-trial","155","1077625","0.0-41.0","battery-v0.2","","""event"",""trial"",""time""
""fullscreenenter"",""1"",""2615""
","
","
","""event"",""trial"",""time""
""fullscreenenter"",""1"",""2615""
","
","","","900.5","","","12","6193","3529","b","elianto","#f73b6a7A","-1"," ","0","-10","[1753.3000001907349]","1","2","","","6193","37","3","4","lose","no-go","0"
"pit-trial","156","1082490","0.0-42.0","battery-v0.2","","""event"",""trial"",""time""
""fullscreenenter"",""1"",""2615""
","
","
","""event"",""trial"",""time""
""fullscreenenter"",""1"",""2615""
","
","","","-1","","","12","6193","3529","f","elianto","#3366ff99","-1","-1","1","0","[]","0","2","","","6193","38","1","2","win","no-go","1"
"pit-trial","157","1087353","0.0-43.0","battery-v0.2","","""event"",""trial"",""time""
""fullscreenenter"",""1"",""2615""
","
","
","""event"",""trial"",""time""
""fullscreenenter"",""1"",""2615""
","
","","","-1","","","12","6193","3529","n","elianto","#f73b6a7A"," ","-1","0","-10","[2888.4000000953674]","1","2","","","6193","39","0","3","lose","go","0"
"pit-trial","158","1091641","0.0-44.0","battery-v0.2","","""event"",""trial"",""time""
""fullscreenenter"",""1"",""2615""
","
","
","""event"",""trial"",""time""
""fullscreenenter"",""1"",""2615""
","
","","","1430.5999999046326","","","12","6193","3529","t","elianto","#f73b6a7A"," "," ","1","-10","[2280.7999997138977]","1","2","","","6193","40","2","3","lose","go","1"
"pit-trial","159","1096504","0.0-45.0","battery-v0.2","","""event"",""trial"",""time""
""fullscreenenter"",""1"",""2615""
","
","
","""event"",""trial"",""time""
""fullscreenenter"",""1"",""2615""
","
","","","-1","","","12","6193","3529","b","elianto","#f73b6a7A","-1","-1","1","0","[2896.800000190735]","1","2","","","6193","41","3","4","lose","no-go","0"
"pit-trial","160","1101369","0.0-46.0","battery-v0.2","","""event"",""trial"",""time""
""fullscreenenter"",""1"",""2615""
","
","
","""event"",""trial"",""time""
""fullscreenenter"",""1"",""2615""
","
","","","-1","","","12","6193","3529","t","elianto","#f73b6a7A"," ","-1","0","0","[]","0","2","","","6193","42","2","3","lose","go","1"
"pit-trial","161","1105129","0.0-47.0","battery-v0.2","","""event"",""trial"",""time""
""fullscreenenter"",""1"",""2615""
","
","
","""event"",""trial"",""time""
""fullscreenenter"",""1"",""2615""
","
","","","902.3999996185303","","","12","6193","3529","f","elianto","#3366ff99","-1"," ","0","0","[1753.7999997138977]","1","2","","","6193","43","1","2","win","no-go","0"
"pit-trial","162","1109992","0.0-48.0","battery-v0.2","","""event"",""trial"",""time""
""fullscreenenter"",""1"",""2615""
","
","
","""event"",""trial"",""time""
""fullscreenenter"",""1"",""2615""
","
","","","-1","","","12","6193","3529","n","elianto","#f73b6a7A"," ","-1","0","0","[]","0","2","","","6193","44","0","3","lose","go","1"
"pit-trial","163","1114264","0.0-49.0","battery-v0.2","","""event"",""trial"",""time""
""fullscreenenter"",""1"",""2615""
","
","
","""event"",""trial"",""time""
""fullscreenenter"",""1"",""2615""
","
","","","1412.4000000953674","","","12","6193","3529","b","elianto","#f73b6a7A","-1"," ","0","-10","[2265.800000190735]","1","2","","","6193","45","3","4","lose","no-go","0"
"pit-trial","164","1119129","0.0-50.0","battery-v0.2","","""event"",""trial"",""time""
""fullscreenenter"",""1"",""2615""
","
","
","""event"",""trial"",""time""
""fullscreenenter"",""1"",""2615""
","
","","","-1","","","12","6193","3529","f","elianto","#3366ff99","-1","-1","1","0","[]","0","2","","","6193","46","1","2","win","no-go","1"
"pit-trial","165","1123353","0.0-51.0","battery-v0.2","","""event"",""trial"",""time""
""fullscreenenter"",""1"",""2615""
","
","
","""event"",""trial"",""time""
""fullscreenenter"",""1"",""2615""
","
","","","1364.5999999046326","","","12","6193","3529","t","elianto","#f73b6a7A"," "," ","1","0","[2217.199999809265]","1","2","","","6193","47","2","3","lose","go","0"
"pit-trial","166","1128217","0.0-52.0","battery-v0.2","","""event"",""trial"",""time""
""fullscreenenter"",""1"",""2615""
","
","
","""event"",""trial"",""time""
""fullscreenenter"",""1"",""2615""
","
","","","-1","","","12","6193","3529","n","elianto","#f73b6a7A"," ","-1","0","-10","[]","0","2","","","6193","48","0","3","lose","go","0"
"pit-trial","167","1132881","0.0-53.0","battery-v0.2","","""event"",""trial"",""time""
""fullscreenenter"",""1"",""2615""
","
","
","""event"",""trial"",""time""
""fullscreenenter"",""1"",""2615""
","
","","","1804.4000000953674","","","12","6193","3529","b","elianto","#f73b6a7A","-1"," ","0","-10","[2657.5]","1","2","","","6193","49","3","4","lose","no-go","0"
"pit-trial","168","1137209","0.0-54.0","battery-v0.2","","""event"",""trial"",""time""
""fullscreenenter"",""1"",""2615""
","
","
","""event"",""trial"",""time""
""fullscreenenter"",""1"",""2615""
","
","","","1468.4000000953674","","","12","6193","3529","t","elianto","#f73b6a7A"," "," ","1","0","[2321.7000002861023]","1","2","","","6193","50","2","3","lose","go","0"
"pit-trial","169","1142073","0.0-55.0","battery-v0.2","","""event"",""trial"",""time""
""fullscreenenter"",""1"",""2615""
","
","
","""event"",""trial"",""time""
""fullscreenenter"",""1"",""2615""
","
","","","-1","","","12","6193","3529","f","elianto","#3366ff99","-1","-1","1","+10","[]","0","2","","","6193","51","1","2","win","no-go","0"
"pit-trial","170","1146937","0.0-56.0","battery-v0.2","","""event"",""trial"",""time""
""fullscreenenter"",""1"",""2615""
","
","
","""event"",""trial"",""time""
""fullscreenenter"",""1"",""2615""
","
","","","-1","","","12","6193","3529","n","elianto","#f73b6a7A"," ","-1","0","0","[]","0","2","","","6193","52","0","3","lose","go","1"
"pit-trial","171","1151801","0.0-57.0","battery-v0.2","","""event"",""trial"",""time""
""fullscreenenter"",""1"",""2615""
","
","
","""event"",""trial"",""time""
""fullscreenenter"",""1"",""2615""
","
","","","-1","","","12","6193","3529","f","elianto","#3366ff99","-1","-1","1","+10","[]","0","2","","","6193","53","1","2","win","no-go","0"
"pit-trial","172","1156665","0.0-58.0","battery-v0.2","","""event"",""trial"",""time""
""fullscreenenter"",""1"",""2615""
","
","
","""event"",""trial"",""time""
""fullscreenenter"",""1"",""2615""
","
","","","-1","","","12","6193","3529","n","elianto","#f73b6a7A"," ","-1","0","-10","[]","0","2","","","6193","54","0","3","lose","go","0"
"pit-trial","173","1160426","0.0-59.0","battery-v0.2","","""event"",""trial"",""time""
""fullscreenenter"",""1"",""2615""
","
","
","""event"",""trial"",""time""
""fullscreenenter"",""1"",""2615""
","
","","","899.9000000953674","","","12","6193","3529","b","elianto","#f73b6a7A","-1"," ","0","-10","[1752.7000002861023]","1","2","","","6193","55","3","4","lose","no-go","0"
"pit-trial","174","1163890","0.0-60.0","battery-v0.2","","""event"",""trial"",""time""
""fullscreenenter"",""1"",""2615""
","
","
","""event"",""trial"",""time""
""fullscreenenter"",""1"",""2615""
","
","","","603.3000001907349","","","12","6193","3529","t","elianto","#f73b6a7A"," "," ","1","0","[1455.5999999046326,2959.5]","2","2","","","6193","56","2","3","lose","go","0"
"pit-trial","175","1168753","0.0-61.0","battery-v0.2","","""event"",""trial"",""time""
""fullscreenenter"",""1"",""2615""
","
","
","""event"",""trial"",""time""
""fullscreenenter"",""1"",""2615""
","
","","","-1","","","12","6193","3529","b","elianto","#f73b6a7A","-1","-1","1","0","[]","0","2","","","6193","57","3","4","lose","no-go","0"
"pit-trial","176","1172185","0.0-62.0","battery-v0.2","","""event"",""trial"",""time""
""fullscreenenter"",""1"",""2615""
","
","
","""event"",""trial"",""time""
""fullscreenenter"",""1"",""2615""
","
","","","572.2999997138977","","","12","6193","3529","t","elianto","#f73b6a7A"," "," ","1","0","[1424.9000000953674,1832.4000000953674]","2","2","","","6193","58","2","3","lose","go","0"
"pit-trial","177","1177049","0.0-63.0","battery-v0.2","","""event"",""trial"",""time""
""fullscreenenter"",""1"",""2615""
","
","
","""event"",""trial"",""time""
""fullscreenenter"",""1"",""2615""
","
","","","-1","","","12","6193","3529","n","elianto","#f73b6a7A"," ","-1","0","-10","[]","0","2","","","6193","59","0","3","lose","go","0"
"pit-trial","178","1181913","0.0-64.0","battery-v0.2","","""event"",""trial"",""time""
""fullscreenenter"",""1"",""2615""
","
","
","""event"",""trial"",""time""
""fullscreenenter"",""1"",""2615""
","
","","","-1","","","12","6193","3529","c","elianto","#3366ff99"," ","-1","0","0","[]","0","2","","","6193","60","4","1","win","go","0"
"pit-trial","179","1185929","0.0-65.0","battery-v0.2","","""event"",""trial"",""time""
""fullscreenenter"",""1"",""2615""
","
","
","""event"",""trial"",""time""
""fullscreenenter"",""1"",""2615""
","
","","","1156.3000001907349","","","12","6193","3529","f","elianto","#3366ff99","-1"," ","0","+10","[2008.9000000953674]","1","2","","","6193","61","1","2","win","no-go","1"
"pit-trial","180","1190321","0.0-66.0","battery-v0.2","","""event"",""trial"",""time""
""fullscreenenter"",""1"",""2615""
","
","
","""event"",""trial"",""time""
""fullscreenenter"",""1"",""2615""
","
","","","1531.4000000953674","","","12","6193","3529","t","elianto","#f73b6a7A"," "," ","1","0","[2384.199999809265]","1","2","","","6193","62","2","3","lose","go","0"
"pit-trial","181","1195041","0.0-67.0","battery-v0.2","","""event"",""trial"",""time""
""fullscreenenter"",""1"",""2615""
","
","
","""event"",""trial"",""time""
""fullscreenenter"",""1"",""2615""
","
","","","1862.3999996185303","","","12","6193","3529","b","elianto","#f73b6a7A","-1"," ","0","0","[2712.5]","1","2","","","6193","63","3","4","lose","no-go","1"
"pit-trial","182","1199241","0.0-68.0","battery-v0.2","","""event"",""trial"",""time""
""fullscreenenter"",""1"",""2615""
","
","
","""event"",""trial"",""time""
""fullscreenenter"",""1"",""2615""
","
","","","1340.3999996185303","","","12","6193","3529","c","elianto","#3366ff99"," "," ","1","+10","[2193]","1","2","","","6193","64","4","1","win","go","0"
"pit-trial","183","1202809","0.0-69.0","battery-v0.2","","""event"",""trial"",""time""
""fullscreenenter"",""1"",""2615""
","
","
","""event"",""trial"",""time""
""fullscreenenter"",""1"",""2615""
","
","","","707.5","","","12","6193","3529","c","elianto","#3366ff99"," "," ","1","+10","[1560.8000001907349]","1","2","","","6193","65","4","1","win","go","0"
"pit-trial","184","1206841","0.0-70.0","battery-v0.2","","""event"",""trial"",""time""
""fullscreenenter"",""1"",""2615""
","
","
","""event"",""trial"",""time""
""fullscreenenter"",""1"",""2615""
","
","","","1171.5","","","12","6193","3529","b","elianto","#f73b6a7A","-1"," ","0","-10","[2024.1000003814697]","1","2","","","6193","66","3","4","lose","no-go","0"
"pit-trial","185","1211129","0.0-71.0","battery-v0.2","","""event"",""trial"",""time""
""fullscreenenter"",""1"",""2615""
","
","
","""event"",""trial"",""time""
""fullscreenenter"",""1"",""2615""
","
","","","1427.8000001907349","","","12","6193","3529","z","elianto","#3366ff99","-1"," ","0","0","[2280.5]","1","2","","","6193","67","5","2","win","no-go","0"
"pit-trial","186","1215154","0.0-72.0","battery-v0.2","","""event"",""trial"",""time""
""fullscreenenter"",""1"",""2615""
","
","
","""event"",""trial"",""time""
""fullscreenenter"",""1"",""2615""
","
","","","1163","","","12","6193","3529","f","elianto","#3366ff99","-1"," ","0","0","[2016.5]","1","2","","","6193","68","1","2","win","no-go","0"
"pit-trial","187","1220018","0.0-73.0","battery-v0.2","","""event"",""trial"",""time""
""fullscreenenter"",""1"",""2615""
","
","
","""event"",""trial"",""time""
""fullscreenenter"",""1"",""2615""
","
","","","-1","","","12","6193","3529","t","elianto","#f73b6a7A"," ","-1","0","-10","[2999.9000000953674]","1","2","","","6193","69","2","3","lose","go","0"
"pit-trial","188","1223730","0.0-74.0","battery-v0.2","","""event"",""trial"",""time""
""fullscreenenter"",""1"",""2615""
","
","
","""event"",""trial"",""time""
""fullscreenenter"",""1"",""2615""
","
","","","853.5","","","12","6193","3529","f","elianto","#3366ff99","-1"," ","0","0","[1704.3999996185303]","1","2","","","6193","70","1","2","win","no-go","0"
"pit-trial","189","1228593","0.0-75.0","battery-v0.2","","""event"",""trial"",""time""
""fullscreenenter"",""1"",""2615""
","
","
","""event"",""trial"",""time""
""fullscreenenter"",""1"",""2615""
","
","","","-1","","","12","6193","3529","z","elianto","#3366ff99","-1","-1","1","+10","[]","0","2","","","6193","71","5","2","win","no-go","0"
"pit-trial","190","1232370","0.0-76.0","battery-v0.2","","""event"",""trial"",""time""
""fullscreenenter"",""1"",""2615""
","
","
","""event"",""trial"",""time""
""fullscreenenter"",""1"",""2615""
","
","","","915.0999999046326","","","12","6193","3529","c","elianto","#3366ff99"," "," ","1","+10","[1768.1000003814697]","1","2","","","6193","72","4","1","win","go","0"
"pit-trial","191","1237233","0.0-77.0","battery-v0.2","","""event"",""trial"",""time""
""fullscreenenter"",""1"",""2615""
","
","
","""event"",""trial"",""time""
""fullscreenenter"",""1"",""2615""
","
","","","-1","","","12","6193","3529","z","elianto","#3366ff99","-1","-1","1","0","[203.30000019073486]","1","2","","","6193","73","5","2","win","no-go","1"
"pit-trial","192","1241130","0.0-78.0","battery-v0.2","","""event"",""trial"",""time""
""fullscreenenter"",""1"",""2615""
","
","
","""event"",""trial"",""time""
""fullscreenenter"",""1"",""2615""
","
","","","1036.2999997138977","","","12","6193","3529","c","elianto","#3366ff99"," "," ","1","+10","[1888.4000000953674]","1","2","","","6193","74","4","1","win","go","0"
"pit-trial","193","1245233","0.0-79.0","battery-v0.2","","""event"",""trial"",""time""
""fullscreenenter"",""1"",""2615""
","
","
","""event"",""trial"",""time""
""fullscreenenter"",""1"",""2615""
","
","","","1243.3000001907349","","","12","6193","3529","b","elianto","#f73b6a7A","-1"," ","0","-10","[2095.5]","1","2","","","6193","75","3","4","lose","no-go","0"
"pit-trial","194","1250097","0.0-80.0","battery-v0.2","","""event"",""trial"",""time""
""fullscreenenter"",""1"",""2615""
","
","
","""event"",""trial"",""time""
""fullscreenenter"",""1"",""2615""
","
","","","-1","","","12","6193","3529","f","elianto","#3366ff99","-1","-1","1","0","[]","0","2","","","6193","76","1","2","win","no-go","1"
"pit-trial","195","1253906","0.0-81.0","battery-v0.2","","""event"",""trial"",""time""
""fullscreenenter"",""1"",""2615""
","
","
","""event"",""trial"",""time""
""fullscreenenter"",""1"",""2615""
","
","","","946.7999997138977","","","12","6193","3529","c","elianto","#3366ff99"," "," ","1","0","[1800.1999998092651]","1","2","","","6193","77","4","1","win","go","1"
"pit-trial","196","1258770","0.0-82.0","battery-v0.2","","""event"",""trial"",""time""
""fullscreenenter"",""1"",""2615""
","
","
","""event"",""trial"",""time""
""fullscreenenter"",""1"",""2615""
","
","","","-1","","","12","6193","3529","b","elianto","#f73b6a7A","-1","-1","1","0","[]","0","2","","","6193","78","3","4","lose","no-go","0"
"pit-trial","197","1263633","0.0-83.0","battery-v0.2","","""event"",""trial"",""time""
""fullscreenenter"",""1"",""2615""
","
","
","""event"",""trial"",""time""
""fullscreenenter"",""1"",""2615""
","
","","","-1","","","12","6193","3529","z","elianto","#3366ff99","-1","-1","1","+10","[]","0","2","","","6193","79","5","2","win","no-go","0"
"pit-trial","198","1267593","0.0-84.0","battery-v0.2","","""event"",""trial"",""time""
""fullscreenenter"",""1"",""2615""
","
","
","""event"",""trial"",""time""
""fullscreenenter"",""1"",""2615""
","
","","","1101.2000002861023","","","12","6193","3529","c","elianto","#3366ff99"," "," ","1","+10","[1952.3000001907349]","1","2","","","6193","80","4","1","win","go","0"
"pit-trial","199","1271426","0.0-85.0","battery-v0.2","","""event"",""trial"",""time""
""fullscreenenter"",""1"",""2615""
","
","
","""event"",""trial"",""time""
""fullscreenenter"",""1"",""2615""
","
","","","970.5","","","12","6193","3529","c","elianto","#3366ff99"," "," ","1","+10","[1823.5]","1","2","","","6193","81","4","1","win","go","0"
"pit-trial","200","1276290","0.0-86.0","battery-v0.2","","""event"",""trial"",""time""
""fullscreenenter"",""1"",""2615""
","
","
","""event"",""trial"",""time""
""fullscreenenter"",""1"",""2615""
","
","","","-1","","","12","6193","3529","y","elianto","#f73b6a7A","-1","-1","1","0","[]","0","2","","","6193","82","7","4","lose","no-go","0"
"pit-trial","201","1280121","0.0-87.0","battery-v0.2","","""event"",""trial"",""time""
""fullscreenenter"",""1"",""2615""
","
","
","""event"",""trial"",""time""
""fullscreenenter"",""1"",""2615""
","
","","","971.5999999046326","","","12","6193","3529","z","elianto","#3366ff99","-1"," ","0","0","[1824]","1","2","","","6193","83","5","2","win","no-go","0"
"pit-trial","202","1284985","0.0-88.0","battery-v0.2","","""event"",""trial"",""time""
""fullscreenenter"",""1"",""2615""
","
","
","""event"",""trial"",""time""
""fullscreenenter"",""1"",""2615""
","
","","","-1","","","12","6193","3529","b","elianto","#f73b6a7A","-1","-1","1","0","[]","0","2","","","6193","84","3","4","lose","no-go","0"
"pit-trial","203","1289849","0.0-89.0","battery-v0.2","","""event"",""trial"",""time""
""fullscreenenter"",""1"",""2615""
","
","
","""event"",""trial"",""time""
""fullscreenenter"",""1"",""2615""
","
","","","-1","","","12","6193","3529","y","elianto","#f73b6a7A","-1","-1","1","0","[]","0","2","","","6193","85","7","4","lose","no-go","0"
"pit-trial","204","1293593","0.0-90.0","battery-v0.2","","""event"",""trial"",""time""
""fullscreenenter"",""1"",""2615""
","
","
","""event"",""trial"",""time""
""fullscreenenter"",""1"",""2615""
","
","","","884.6999998092651","","","12","6193","3529","c","elianto","#3366ff99"," "," ","1","+10","[1736.5999999046326]","1","2","","","6193","86","4","1","win","go","0"
"pit-trial","205","1298457","0.0-91.0","battery-v0.2","","""event"",""trial"",""time""
""fullscreenenter"",""1"",""2615""
","
","
","""event"",""trial"",""time""
""fullscreenenter"",""1"",""2615""
","
","","","-1","","","12","6193","3529","z","elianto","#3366ff99","-1","-1","1","+10","[]","0","2","","","6193","87","5","2","win","no-go","0"
"pit-trial","206","1303322","0.0-92.0","battery-v0.2","","""event"",""trial"",""time""
""fullscreenenter"",""1"",""2615""
","
","
","""event"",""trial"",""time""
""fullscreenenter"",""1"",""2615""
","
","","","-1","","","12","6193","3529","h","elianto","#f73b6a7A"," ","-1","0","-10","[2952]","1","2","","","6193","88","6","3","lose","go","0"
"pit-trial","207","1308186","0.0-93.0","battery-v0.2","","""event"",""trial"",""time""
""fullscreenenter"",""1"",""2615""
","
","
","""event"",""trial"",""time""
""fullscreenenter"",""1"",""2615""
","
","","","-1","","","12","6193","3529","z","elianto","#3366ff99","-1","-1","1","+10","[]","0","2","","","6193","89","5","2","win","no-go","0"
"pit-trial","208","1313050","0.0-94.0","battery-v0.2","","""event"",""trial"",""time""
""fullscreenenter"",""1"",""2615""
","
","
","""event"",""trial"",""time""
""fullscreenenter"",""1"",""2615""
","
","","","-1","","","12","6193","3529","y","elianto","#f73b6a7A","-1","-1","1","0","[]","0","2","","","6193","90","7","4","lose","no-go","0"
"pit-trial","209","1316818","0.0-95.0","battery-v0.2","","""event"",""trial"",""time""
""fullscreenenter"",""1"",""2615""
","
","
","""event"",""trial"",""time""
""fullscreenenter"",""1"",""2615""
","
","","","905.7000002861023","","","12","6193","3529","h","elianto","#f73b6a7A"," "," ","1","0","[1758.7000002861023]","1","2","","","6193","91","6","3","lose","go","0"
"pit-trial","210","1320673","0.0-96.0","battery-v0.2","","""event"",""trial"",""time""
""fullscreenenter"",""1"",""2615""
","
","
","""event"",""trial"",""time""
""fullscreenenter"",""1"",""2615""
","
","","","994.4000000953674","","","12","6193","3529","c","elianto","#3366ff99"," "," ","1","+10","[1846.9000000953674]","1","2","","","6193","92","4","1","win","go","0"
"pit-trial","211","1325537","0.0-97.0","battery-v0.2","","""event"",""trial"",""time""
""fullscreenenter"",""1"",""2615""
","
","
","""event"",""trial"",""time""
""fullscreenenter"",""1"",""2615""
","
","","","-1","","","12","6193","3529","z","elianto","#3366ff99","-1","-1","1","0","[]","0","2","","","6193","93","5","2","win","no-go","1"
"pit-trial","212","1329746","0.0-98.0","battery-v0.2","","""event"",""trial"",""time""
""fullscreenenter"",""1"",""2615""
","
","
","""event"",""trial"",""time""
""fullscreenenter"",""1"",""2615""
","
","","","1346.6999998092651","","","12","6193","3529","r","elianto","#3366ff99"," "," ","1","+10","[2200.300000190735]","1","2","","","6193","94","8","1","win","go","0"
"pit-trial","213","1333721","0.0-99.0","battery-v0.2","","""event"",""trial"",""time""
""fullscreenenter"",""1"",""2615""
","
","
","""event"",""trial"",""time""
""fullscreenenter"",""1"",""2615""
","
","","","1113.5999999046326","","","12","6193","3529","h","elianto","#f73b6a7A"," "," ","1","0","[1966.5]","1","2","","","6193","95","6","3","lose","go","0"
"pit-trial","214","1338585","0.0-100.0","battery-v0.2","","""event"",""trial"",""time""
""fullscreenenter"",""1"",""2615""
","
","
","""event"",""trial"",""time""
""fullscreenenter"",""1"",""2615""
","
","","","-1","","","12","6193","3529","y","elianto","#f73b6a7A","-1","-1","1","0","[]","0","2","","","6193","96","7","4","lose","no-go","0"
"pit-trial","215","1342089","0.0-101.0","battery-v0.2","","""event"",""trial"",""time""
""fullscreenenter"",""1"",""2615""
","
","
","""event"",""trial"",""time""
""fullscreenenter"",""1"",""2615""
","
","","","644.1999998092651","","","12","6193","3529","r","elianto","#3366ff99"," "," ","1","+10","[1494.9000000953674]","1","2","","","6193","97","8","1","win","go","0"
"pit-trial","216","1346953","0.0-102.0","battery-v0.2","","""event"",""trial"",""time""
""fullscreenenter"",""1"",""2615""
","
","
","""event"",""trial"",""time""
""fullscreenenter"",""1"",""2615""
","
","","","-1","","","12","6193","3529","y","elianto","#f73b6a7A","-1","-1","1","-10","[]","0","2","","","6193","98","7","4","lose","no-go","1"
"pit-trial","217","1350721","0.0-103.0","battery-v0.2","","""event"",""trial"",""time""
""fullscreenenter"",""1"",""2615""
","
","
","""event"",""trial"",""time""
""fullscreenenter"",""1"",""2615""
","
","","","906.0999999046326","","","12","6193","3529","h","elianto","#f73b6a7A"," "," ","1","0","[1758.5]","1","2","","","6193","99","6","3","lose","go","0"
"pit-trial","218","1354441","0.0-104.0","battery-v0.2","","""event"",""trial"",""time""
""fullscreenenter"",""1"",""2615""
","
","
","""event"",""trial"",""time""
""fullscreenenter"",""1"",""2615""
","
","","","857.4000000953674","","","12","6193","3529","z","elianto","#3366ff99","-1"," ","0","0","[1711.5999999046326]","1","2","","","6193","100","5","2","win","no-go","0"
"pit-trial","219","1358633","0.0-105.0","battery-v0.2","","""event"",""trial"",""time""
""fullscreenenter"",""1"",""2615""
","
","
","""event"",""trial"",""time""
""fullscreenenter"",""1"",""2615""
","
","","","1330","","","12","6193","3529","r","elianto","#3366ff99"," "," ","1","+10","[2183.5999999046326]","1","2","","","6193","101","8","1","win","go","0"
"pit-trial","220","1363497","0.0-106.0","battery-v0.2","","""event"",""trial"",""time""
""fullscreenenter"",""1"",""2615""
","
","
","""event"",""trial"",""time""
""fullscreenenter"",""1"",""2615""
","
","","","-1","","","12","6193","3529","y","elianto","#f73b6a7A","-1","-1","1","0","[]","0","2","","","6193","102","7","4","lose","no-go","0"
"pit-trial","221","1367577","0.0-107.0","battery-v0.2","","""event"",""trial"",""time""
""fullscreenenter"",""1"",""2615""
","
","
","""event"",""trial"",""time""
""fullscreenenter"",""1"",""2615""
","
","","","1219.2000002861023","","","12","6193","3529","m","elianto","#3366ff99"," "," ","1","+10","[2071.7000002861023]","1","2","","","6193","103","9","1","win","go","0"
"pit-trial","222","1371033","0.0-108.0","battery-v0.2","","""event"",""trial"",""time""
""fullscreenenter"",""1"",""2615""
","
","
","""event"",""trial"",""time""
""fullscreenenter"",""1"",""2615""
","
","","","593.5","","","12","6193","3529","z","elianto","#3366ff99","-1"," ","0","0","[1447.0999999046326]","1","2","","","6193","104","5","2","win","no-go","0"
"pit-trial","223","1374858","0.0-109.0","battery-v0.2","","""event"",""trial"",""time""
""fullscreenenter"",""1"",""2615""
","
","
","""event"",""trial"",""time""
""fullscreenenter"",""1"",""2615""
","
","","","962","","","12","6193","3529","c","elianto","#3366ff99"," "," ","1","+10","[1814.1999998092651]","1","2","","","6193","105","4","1","win","go","0"
"pit-trial","224","1379097","0.0-110.0","battery-v0.2","","""event"",""trial"",""time""
""fullscreenenter"",""1"",""2615""
","
","
","""event"",""trial"",""time""
""fullscreenenter"",""1"",""2615""
","
","","","1378.5999999046326","","","12","6193","3529","h","elianto","#f73b6a7A"," "," ","1","0","[2230.300000190735]","1","2","","","6193","106","6","3","lose","go","0"
"pit-trial","225","1382969","0.0-111.0","battery-v0.2","","""event"",""trial"",""time""
""fullscreenenter"",""1"",""2615""
","
","
","""event"",""trial"",""time""
""fullscreenenter"",""1"",""2615""
","
","","","1011","","","12","6193","3529","m","elianto","#3366ff99"," "," ","1","+10","[1862.1999998092651]","1","2","","","6193","107","9","1","win","go","0"
"pit-trial","226","1386553","0.0-112.0","battery-v0.2","","""event"",""trial"",""time""
""fullscreenenter"",""1"",""2615""
","
","
","""event"",""trial"",""time""
""fullscreenenter"",""1"",""2615""
","
","","","720.5","","","12","6193","3529","r","elianto","#3366ff99"," "," ","1","0","[1574.3000001907349]","1","2","","","6193","108","8","1","win","go","1"
"pit-trial","227","1390041","0.0-113.0","battery-v0.2","","""event"",""trial"",""time""
""fullscreenenter"",""1"",""2615""
","
","
","""event"",""trial"",""time""
""fullscreenenter"",""1"",""2615""
","
","","","625.5999999046326","","","12","6193","3529","r","elianto","#3366ff99"," "," ","1","+10","[1478.6999998092651]","1","2","","","6193","109","8","1","win","go","0"
"pit-trial","228","1393649","0.0-114.0","battery-v0.2","","""event"",""trial"",""time""
""fullscreenenter"",""1"",""2615""
","
","
","""event"",""trial"",""time""
""fullscreenenter"",""1"",""2615""
","
","","","745.3999996185303","","","12","6193","3529","m","elianto","#3366ff99"," "," ","1","+10","[1598.1999998092651]","1","2","","","6193","110","9","1","win","go","0"
"pit-trial","229","1397320","0.0-115.0","battery-v0.2","","""event"",""trial"",""time""
""fullscreenenter"",""1"",""2615""
","
","
","""event"",""trial"",""time""
""fullscreenenter"",""1"",""2615""
","
","","","810.2000002861023","","","12","6193","3529","z","elianto","#3366ff99","-1"," ","0","+10","[1662.9000000953674]","1","2","","","6193","111","5","2","win","no-go","1"
"pit-trial","230","1401209","0.0-116.0","battery-v0.2","","""event"",""trial"",""time""
""fullscreenenter"",""1"",""2615""
","
","
","""event"",""trial"",""time""
""fullscreenenter"",""1"",""2615""
","
","","","1026.1000003814697","","","12","6193","3529","h","elianto","#f73b6a7A"," "," ","1","0","[1879.3999996185303]","1","2","","","6193","112","6","3","lose","go","0"
"pit-trial","231","1405050","0.0-117.0","battery-v0.2","","""event"",""trial"",""time""
""fullscreenenter"",""1"",""2615""
","
","
","""event"",""trial"",""time""
""fullscreenenter"",""1"",""2615""
","
","","","976.7999997138977","","","12","6193","3529","h","elianto","#f73b6a7A"," "," ","1","0","[1829.5999999046326]","1","2","","","6193","113","6","3","lose","go","0"
"pit-trial","232","1408672","0.0-118.0","battery-v0.2","","""event"",""trial"",""time""
""fullscreenenter"",""1"",""2615""
","
","
","""event"",""trial"",""time""
""fullscreenenter"",""1"",""2615""
","
","","","744.5999999046326","","","12","6193","3529","m","elianto","#3366ff99"," "," ","1","+10","[1596.9000000953674]","1","2","","","6193","114","9","1","win","go","0"
"pit-trial","233","1412065","0.0-119.0","battery-v0.2","","""event"",""trial"",""time""
""fullscreenenter"",""1"",""2615""
","
","
","""event"",""trial"",""time""
""fullscreenenter"",""1"",""2615""
","
","","","530","","","12","6193","3529","z","elianto","#3366ff99","-1"," ","0","0","[1384.7999997138977]","1","2","","","6193","115","5","2","win","no-go","0"
"pit-trial","234","1415625","0.0-120.0","battery-v0.2","","""event"",""trial"",""time""
""fullscreenenter"",""1"",""2615""
","
","
","""event"",""trial"",""time""
""fullscreenenter"",""1"",""2615""
","
","","","697.4000000953674","","","12","6193","3529","r","elianto","#3366ff99"," "," ","1","+10","[1550.7000002861023]","1","2","","","6193","116","8","1","win","go","0"
"pit-trial","235","1419225","0.0-121.0","battery-v0.2","","""event"",""trial"",""time""
""fullscreenenter"",""1"",""2615""
","
","
","""event"",""trial"",""time""
""fullscreenenter"",""1"",""2615""
","
","","","737.7000002861023","","","12","6193","3529","m","elianto","#3366ff99"," "," ","1","+10","[1590.0999999046326]","1","2","","","6193","117","9","1","win","go","0"
"pit-trial","236","1424090","0.0-122.0","battery-v0.2","","""event"",""trial"",""time""
""fullscreenenter"",""1"",""2615""
","
","
","""event"",""trial"",""time""
""fullscreenenter"",""1"",""2615""
","
","","","-1","","","12","6193","3529","z","elianto","#3366ff99","-1","-1","1","+10","[]","0","2","","","6193","118","5","2","win","no-go","0"
"pit-trial","237","1428025","0.0-123.0","battery-v0.2","","""event"",""trial"",""time""
""fullscreenenter"",""1"",""2615""
","
","
","""event"",""trial"",""time""
""fullscreenenter"",""1"",""2615""
","
","","","1073.5","","","12","6193","3529","r","elianto","#3366ff99"," "," ","1","+10","[1925.3000001907349]","1","2","","","6193","119","8","1","win","go","0"
"pit-trial","238","1431969","0.0-124.0","battery-v0.2","","""event"",""trial"",""time""
""fullscreenenter"",""1"",""2615""
","
","
","""event"",""trial"",""time""
""fullscreenenter"",""1"",""2615""
","
","","","1082","","","12","6193","3529","h","elianto","#f73b6a7A"," "," ","1","-10","[1934.3999996185303]","1","2","","","6193","120","6","3","lose","go","1"
"pit-trial","239","1436833","0.0-125.0","battery-v0.2","","""event"",""trial"",""time""
""fullscreenenter"",""1"",""2615""
","
","
","""event"",""trial"",""time""
""fullscreenenter"",""1"",""2615""
","
","","","-1","","","12","6193","3529","y","elianto","#f73b6a7A","-1","-1","1","0","[]","0","2","","","6193","121","7","4","lose","no-go","0"
"pit-trial","240","1440393","0.0-126.0","battery-v0.2","","""event"",""trial"",""time""
""fullscreenenter"",""1"",""2615""
","
","
","""event"",""trial"",""time""
""fullscreenenter"",""1"",""2615""
","
","","","698.5999999046326","","","12","6193","3529","r","elianto","#3366ff99"," "," ","1","0","[1550.3999996185303]","1","2","","","6193","122","8","1","win","go","1"
"pit-trial","241","1444192","0.0-127.0","battery-v0.2","","""event"",""trial"",""time""
""fullscreenenter"",""1"",""2615""
","
","
","""event"",""trial"",""time""
""fullscreenenter"",""1"",""2615""
","
","","","937.2999997138977","","","12","6193","3529","h","elianto","#f73b6a7A"," "," ","1","0","[1790.5]","1","2","","","6193","123","6","3","lose","go","0"
"pit-trial","242","1447745","0.0-128.0","battery-v0.2","","""event"",""trial"",""time""
""fullscreenenter"",""1"",""2615""
","
","
","""event"",""trial"",""time""
""fullscreenenter"",""1"",""2615""
","
","","","688.7000002861023","","","12","6193","3529","m","elianto","#3366ff99"," "," ","1","+10","[1542.8000001907349]","1","2","","","6193","124","9","1","win","go","0"
"pit-trial","243","1452609","0.0-129.0","battery-v0.2","","""event"",""trial"",""time""
""fullscreenenter"",""1"",""2615""
","
","
","""event"",""trial"",""time""
""fullscreenenter"",""1"",""2615""
","
","","","-1","","","12","6193","3529","h","elianto","#f73b6a7A"," ","-1","0","-10","[2926.4000000953674]","1","2","","","6193","125","6","3","lose","go","0"
"pit-trial","244","1456185","0.0-130.0","battery-v0.2","","""event"",""trial"",""time""
""fullscreenenter"",""1"",""2615""
","
","
","""event"",""trial"",""time""
""fullscreenenter"",""1"",""2615""
","
","","","713","","","12","6193","3529","m","elianto","#3366ff99"," "," ","1","+10","[1565.6999998092651]","1","2","","","6193","126","9","1","win","go","0"
"pit-trial","245","1461050","0.0-131.0","battery-v0.2","","""event"",""trial"",""time""
""fullscreenenter"",""1"",""2615""
","
","
","""event"",""trial"",""time""
""fullscreenenter"",""1"",""2615""
","
","","","-1","","","12","6193","3529","y","elianto","#f73b6a7A","-1","-1","1","-10","[]","0","2","","","6193","127","7","4","lose","no-go","1"
"pit-trial","246","1464665","0.0-132.0","battery-v0.2","","""event"",""trial"",""time""
""fullscreenenter"",""1"",""2615""
","
","
","""event"",""trial"",""time""
""fullscreenenter"",""1"",""2615""
","
","","","755.7999997138977","","","12","6193","3529","r","elianto","#3366ff99"," "," ","1","+10","[1605.9000000953674]","1","2","","","6193","128","8","1","win","go","0"
"pit-trial","247","1468690","0.0-133.0","battery-v0.2","","""event"",""trial"",""time""
""fullscreenenter"",""1"",""2615""
","
","
","""event"",""trial"",""time""
""fullscreenenter"",""1"",""2615""
","
","","","1162","","","12","6193","3529","y","elianto","#f73b6a7A","-1"," ","0","0","[2014.1999998092651]","1","2","","","6193","129","7","4","lose","no-go","1"
"pit-trial","248","1472538","0.0-134.0","battery-v0.2","","""event"",""trial"",""time""
""fullscreenenter"",""1"",""2615""
","
","
","""event"",""trial"",""time""
""fullscreenenter"",""1"",""2615""
","
","","","984.7000002861023","","","12","6193","3529","h","elianto","#f73b6a7A"," "," ","1","0","[1837.4000000953674]","1","2","","","6193","130","6","3","lose","go","0"
"pit-trial","249","1476176","0.0-135.0","battery-v0.2","","""event"",""trial"",""time""
""fullscreenenter"",""1"",""2615""
","
","
","""event"",""trial"",""time""
""fullscreenenter"",""1"",""2615""
","
","","","777.6999998092651","","","12","6193","3529","r","elianto","#3366ff99"," "," ","1","+10","[1629.8000001907349,2933.300000190735]","2","2","","","6193","131","8","1","win","go","0"
"pit-trial","250","1480538","0.0-136.0","battery-v0.2","","""event"",""trial"",""time""
""fullscreenenter"",""1"",""2615""
","
","
","""event"",""trial"",""time""
""fullscreenenter"",""1"",""2615""
","
","","","1496.3000001907349","","","12","6193","3529","m","elianto","#3366ff99"," "," ","1","+10","[2351.7000002861023]","1","2","","","6193","132","9","1","win","go","0"
"pit-trial","251","1484121","0.0-137.0","battery-v0.2","","""event"",""trial"",""time""
""fullscreenenter"",""1"",""2615""
","
","
","""event"",""trial"",""time""
""fullscreenenter"",""1"",""2615""
","
","","","720.6999998092651","","","12","6193","3529","r","elianto","#3366ff99"," "," ","1","+10","[1574]","1","2","","","6193","133","8","1","win","go","0"
"pit-trial","252","1487753","0.0-138.0","battery-v0.2","","""event"",""trial"",""time""
""fullscreenenter"",""1"",""2615""
","
","
","""event"",""trial"",""time""
""fullscreenenter"",""1"",""2615""
","
","","","769.5999999046326","","","12","6193","3529","h","elianto","#f73b6a7A"," "," ","1","0","[1623]","1","2","","","6193","134","6","3","lose","go","0"
"pit-trial","253","1491338","0.0-139.0","battery-v0.2","","""event"",""trial"",""time""
""fullscreenenter"",""1"",""2615""
","
","
","""event"",""trial"",""time""
""fullscreenenter"",""1"",""2615""
","
","","","720.5999999046326","","","12","6193","3529","m","elianto","#3366ff99"," "," ","1","+10","[1573.7999997138977]","1","2","","","6193","135","9","1","win","go","0"
"pit-trial","254","1495562","0.0-140.0","battery-v0.2","","""event"",""trial"",""time""
""fullscreenenter"",""1"",""2615""
","
","
","""event"",""trial"",""time""
""fullscreenenter"",""1"",""2615""
","
","","","1361","","","12","6193","3529","y","elianto","#f73b6a7A","-1"," ","0","-10","[2213.0999999046326]","1","2","","","6193","136","7","4","lose","no-go","0"
"pit-trial","255","1499153","0.0-141.0","battery-v0.2","","""event"",""trial"",""time""
""fullscreenenter"",""1"",""2615""
","
","
","""event"",""trial"",""time""
""fullscreenenter"",""1"",""2615""
","
","","","729.8999996185303","","","12","6193","3529","h","elianto","#f73b6a7A"," "," ","1","0","[1581.2999997138977]","1","2","","","6193","137","6","3","lose","go","0"
"pit-trial","256","1502658","0.0-142.0","battery-v0.2","","""event"",""trial"",""time""
""fullscreenenter"",""1"",""2615""
","
","
","""event"",""trial"",""time""
""fullscreenenter"",""1"",""2615""
","
","","","640","","","12","6193","3529","m","elianto","#3366ff99"," "," ","1","+10","[1493.7999997138977]","1","2","","","6193","138","9","1","win","go","0"
"pit-trial","257","1506169","0.0-143.0","battery-v0.2","","""event"",""trial"",""time""
""fullscreenenter"",""1"",""2615""
","
","
","""event"",""trial"",""time""
""fullscreenenter"",""1"",""2615""
","
","","","648.5","","","12","6193","3529","r","elianto","#3366ff99"," "," ","1","0","[1500.8000001907349]","1","2","","","6193","139","8","1","win","go","1"
"pit-trial","258","1511033","0.0-144.0","battery-v0.2","","""event"",""trial"",""time""
""fullscreenenter"",""1"",""2615""
","
","
","""event"",""trial"",""time""
""fullscreenenter"",""1"",""2615""
","
","","","-1","","","12","6193","3529","y","elianto","#f73b6a7A","-1","-1","1","0","[]","0","2","","","6193","140","7","4","lose","no-go","0"
"pit-instructions","259","1549531","0.0-145.0","battery-v0.2","","""event"",""trial"",""time""
""fullscreenenter"",""1"",""2615""
","
","
","""event"",""trial"",""time""
""fullscreenenter"",""1"",""2615""
","
","","[{""page_index"":0,""viewing_time"":29112.299999713898},{""page_index"":1,""viewing_time"":9383.5}]","38496.09999990463","","","","","","","","","","","","","","","","","","","","","","","",""
"pit-trial","260","1553854","0.0-146.0","battery-v0.2","","""event"",""trial"",""time""
""fullscreenenter"",""1"",""2615""
","
","
","""event"",""trial"",""time""
""fullscreenenter"",""1"",""2615""
","
","","","1443","","","12","6193","3529","d","elianto","#3366ff99"," "," ","1","0","[2305.800000190735]","1","3","","","6193","141","1","1","win","go","1"
"pit-trial","261","1558726","0.0-147.0","battery-v0.2","","""event"",""trial"",""time""
""fullscreenenter"",""1"",""2615""
","
","
","""event"",""trial"",""time""
""fullscreenenter"",""1"",""2615""
","
","","","-1","","","12","6193","3529","w","elianto","#f73b6a7A"," ","-1","0","-10","[]","0","3","","","6193","142","3","3","lose","go","0"
"pit-trial","262","1563594","0.0-148.0","battery-v0.2","","""event"",""trial"",""time""
""fullscreenenter"",""1"",""2615""
","
","
","""event"",""trial"",""time""
""fullscreenenter"",""1"",""2615""
","
","","","-1","","","12","6193","3529","e","elianto","#f73b6a7A","-1","-1","1","0","[]","0","3","","","6193","143","2","4","lose","no-go","0"
"pit-trial","263","1568470","0.0-149.0","battery-v0.2","","""event"",""trial"",""time""
""fullscreenenter"",""1"",""2615""
","
","
","""event"",""trial"",""time""
""fullscreenenter"",""1"",""2615""
","
","","","-1","","","12","6193","3529","j","elianto","#f73b6a7A","-1","-1","1","0","[]","0","3","","","6193","144","0","4","lose","no-go","0"
"pit-trial","264","1573339","0.0-150.0","battery-v0.2","","""event"",""trial"",""time""
""fullscreenenter"",""1"",""2615""
","
","
","""event"",""trial"",""time""
""fullscreenenter"",""1"",""2615""
","
","","","-1","","","12","6193","3529","e","elianto","#f73b6a7A","-1","-1","1","0","[]","0","3","","","6193","145","2","4","lose","no-go","0"
"pit-trial","265","1577268","0.0-151.0","battery-v0.2","","""event"",""trial"",""time""
""fullscreenenter"",""1"",""2615""
","
","
","""event"",""trial"",""time""
""fullscreenenter"",""1"",""2615""
","
","","","1051.0999999046326","","","12","6193","3529","d","elianto","#3366ff99"," "," ","1","+10","[1907]","1","3","","","6193","146","1","1","win","go","0"
"pit-trial","266","1581930","0.0-152.0","battery-v0.2","","""event"",""trial"",""time""
""fullscreenenter"",""1"",""2615""
","
","
","""event"",""trial"",""time""
""fullscreenenter"",""1"",""2615""
","
","","","1791.6999998092651","","","12","6193","3529","w","elianto","#f73b6a7A"," "," ","1","0","[2650.5]","1","3","","","6193","147","3","3","lose","go","0"
"pit-trial","267","1586793","0.0-153.0","battery-v0.2","","""event"",""trial"",""time""
""fullscreenenter"",""1"",""2615""
","
","
